{"condition": 0, "counterbalance": 0, "assignmentId": "a63445730", "workerId": "w78492992", "hitId": "h79521503", "currenttrial": 959, "bonus": 0, "data": [{"uniqueid": "w78492992:a63445730", "current_trial": 0, "dateTime": 1664554917837, "trialdata": {"success": true, "trial_type": "fullscreen", "trial_index": 0, "time_elapsed": 5468, "internal_node_id": "0.0-0.0"}}, {"uniqueid": "w78492992:a63445730", "current_trial": 1, "dateTime": 1664554951696, "trialdata": {"view_history": [{"page_index": 0, "viewing_time": 33853}], "rt": 33853, "trial_id": "exp_instructions_distractor", "trial_type": "instructions", "trial_index": 1, "time_elapsed": 39327, "internal_node_id": "0.0-1.0"}}, {"uniqueid": "w78492992:a63445730", "current_trial": 2, "dateTime": 1664554980983, "trialdata": {"view_history": [{"page_index": 0, "viewing_time": 29282}], "rt": 29282, "trial_id": "color_game_instructions", "trial_type": "instructions", "trial_index": 2, "time_elapsed": 68614, "internal_node_id": "0.0-2.0"}}, {"uniqueid": "w78492992:a63445730", "current_trial": 3, "dateTime": 1664554991771, "trialdata": {"rt": 10784, "stimulus": "<h1> Get ready to start the game! </h1>\n\nThank you for reading the instructions. Get ready start with the first of 5 block(s) of this game.\n<br><br>\nIn this first block, you will complete 90 rounds of this game before moving on.\n<br><br>\nRemember, the better you perform, the bigger your bonus will be!\n<br><br>\n<div style='text-align: center;'>Press <code>space</code> to begin.</div>", "response": " ", "trial_id": "stroop_1_ready_1", "trial_type": "html-keyboard-response", "trial_index": 3, "time_elapsed": 79401, "internal_node_id": "0.0-3.0"}}, {"uniqueid": "w78492992:a63445730", "current_trial": 4, "dateTime": 1664554992841, "trialdata": {"rt": 1062, "stimulus": "<p id='stroop-text' class='stroop-green'>YELLOW</p>", "response": "y", "stimulus-type": "incongruent", "word": "yellow", "color": "green", "correct_response": "g", "trial_id": "stroop-trial-1-incongruent-18", "trial_type": "html-keyboard-response", "trial_index": 4, "time_elapsed": 80471, "internal_node_id": "0.0-4.0-0.0"}}, {"uniqueid": "w78492992:a63445730", "current_trial": 5, "dateTime": 1664554994601, "trialdata": {"rt": 1241, "stimulus": "<p id='stroop-text' class='stroop-yellow'>BLUE</p>", "response": "b", "stimulus-type": "incongruent", "word": "blue", "color": "yellow", "correct_response": "y", "trial_id": "stroop-trial-1-incongruent-28", "trial_type": "html-keyboard-response", "trial_index": 5, "time_elapsed": 82231, "internal_node_id": "0.0-4.0-1.0"}}, {"uniqueid": "w78492992:a63445730", "current_trial": 6, "dateTime": 1664554995992, "trialdata": {"rt": 883, "stimulus": "<p id='stroop-text' class='stroop-yellow'>YELLOW</p>", "response": "y", "stimulus-type": "congruent", "word": "yellow", "color": "yellow", "correct_response": "y", "trial_id": "stroop-trial-1-congruent-13", "trial_type": "html-keyboard-response", "trial_index": 6, "time_elapsed": 83622, "internal_node_id": "0.0-4.0-2.0"}}, {"uniqueid": "w78492992:a63445730", "current_trial": 7, "dateTime": 1664554997449, "trialdata": {"rt": 946, "stimulus": "<p id='stroop-text' class='stroop-yellow'>RED</p>", "response": "r", "stimulus-type": "incongruent", "word": "red", "color": "yellow", "correct_response": "y", "trial_id": "stroop-trial-1-incongruent-19", "trial_type": "html-keyboard-response", "trial_index": 7, "time_elapsed": 85079, "internal_node_id": "0.0-4.0-3.0"}}, {"uniqueid": "w78492992:a63445730", "current_trial": 8, "dateTime": 1664554999752, "trialdata": {"rt": 1782, "stimulus": "<p id='stroop-text' class='stroop-red'>FORK</p>", "response": "r", "stimulus-type": "unrelated", "word": "FORK", "color": "red", "correct_response": "r", "trial_id": "stroop-trial-1-unrelated-4", "trial_type": "html-keyboard-response", "trial_index": 8, "time_elapsed": 87382, "internal_node_id": "0.0-4.0-4.0"}}, {"uniqueid": "w78492992:a63445730", "current_trial": 9, "dateTime": 1664555001740, "trialdata": {"rt": 1467, "stimulus": "<p id='stroop-text' class='stroop-blue'>BRAIN</p>", "response": "b", "stimulus-type": "unrelated", "word": "BRAIN", "color": "blue", "correct_response": "b", "trial_id": "stroop-trial-1-unrelated-27", "trial_type": "html-keyboard-response", "trial_index": 9, "time_elapsed": 89369, "internal_node_id": "0.0-4.0-5.0"}}, {"uniqueid": "w78492992:a63445730", "current_trial": 10, "dateTime": 1664555003194, "trialdata": {"rt": 940, "stimulus": "<p id='stroop-text' class='stroop-yellow'>GREEN</p>", "response": "g", "stimulus-type": "incongruent", "word": "green", "color": "yellow", "correct_response": "y", "trial_id": "stroop-trial-1-incongruent-5", "trial_type": "html-keyboard-response", "trial_index": 10, "time_elapsed": 90823, "internal_node_id": "0.0-4.0-6.0"}}, {"uniqueid": "w78492992:a63445730", "current_trial": 11, "dateTime": 1664555005049, "trialdata": {"rt": 1337, "stimulus": "<p id='stroop-text' class='stroop-blue'>GREEN</p>", "response": "b", "stimulus-type": "incongruent", "word": "green", "color": "blue", "correct_response": "b", "trial_id": "stroop-trial-1-incongruent-30", "trial_type": "html-keyboard-response", "trial_index": 11, "time_elapsed": 92679, "internal_node_id": "0.0-4.0-7.0"}}, {"uniqueid": "w78492992:a63445730", "current_trial": 12, "dateTime": 1664555006889, "trialdata": {"rt": 1332, "stimulus": "<p id='stroop-text' class='stroop-yellow'>YELLOW</p>", "response": "y", "stimulus-type": "congruent", "word": "yellow", "color": "yellow", "correct_response": "y", "trial_id": "stroop-trial-1-congruent-14", "trial_type": "html-keyboard-response", "trial_index": 12, "time_elapsed": 94519, "internal_node_id": "0.0-4.0-8.0"}}, {"uniqueid": "w78492992:a63445730", "current_trial": 13, "dateTime": 1664555008313, "trialdata": {"rt": 905, "stimulus": "<p id='stroop-text' class='stroop-blue'>BLUE</p>", "response": "b", "stimulus-type": "congruent", "word": "blue", "color": "blue", "correct_response": "b", "trial_id": "stroop-trial-1-congruent-12", "trial_type": "html-keyboard-response", "trial_index": 13, "time_elapsed": 95943, "internal_node_id": "0.0-4.0-9.0"}}, {"uniqueid": "w78492992:a63445730", "current_trial": 14, "dateTime": 1664555009865, "trialdata": {"rt": 1046, "stimulus": "<p id='stroop-text' class='stroop-red'>BLUE</p>", "response": "r", "stimulus-type": "incongruent", "word": "blue", "color": "red", "correct_response": "r", "trial_id": "stroop-trial-1-incongruent-20", "trial_type": "html-keyboard-response", "trial_index": 14, "time_elapsed": 97495, "internal_node_id": "0.0-4.0-10.0"}}, {"uniqueid": "w78492992:a63445730", "current_trial": 15, "dateTime": 1664555011257, "trialdata": {"rt": 879, "stimulus": "<p id='stroop-text' class='stroop-yellow'>YELLOW</p>", "response": "y", "stimulus-type": "congruent", "word": "yellow", "color": "yellow", "correct_response": "y", "trial_id": "stroop-trial-1-congruent-16", "trial_type": "html-keyboard-response", "trial_index": 15, "time_elapsed": 98887, "internal_node_id": "0.0-4.0-11.0"}}, {"uniqueid": "w78492992:a63445730", "current_trial": 16, "dateTime": 1664555013369, "trialdata": {"rt": 1607, "stimulus": "<p id='stroop-text' class='stroop-yellow'>RED</p>", "response": "y", "stimulus-type": "incongruent", "word": "red", "color": "yellow", "correct_response": "y", "trial_id": "stroop-trial-1-incongruent-1", "trial_type": "html-keyboard-response", "trial_index": 16, "time_elapsed": 100999, "internal_node_id": "0.0-4.0-12.0"}}, {"uniqueid": "w78492992:a63445730", "current_trial": 17, "dateTime": 1664555015480, "trialdata": {"rt": 1600, "stimulus": "<p id='stroop-text' class='stroop-red'>BRIDGE</p>", "response": "r", "stimulus-type": "unrelated", "word": "BRIDGE", "color": "red", "correct_response": "r", "trial_id": "stroop-trial-1-unrelated-26", "trial_type": "html-keyboard-response", "trial_index": 17, "time_elapsed": 103110, "internal_node_id": "0.0-4.0-13.0"}}, {"uniqueid": "w78492992:a63445730", "current_trial": 18, "dateTime": 1664555017591, "trialdata": {"rt": 1598, "stimulus": "<p id='stroop-text' class='stroop-green'>BLUE</p>", "response": "g", "stimulus-type": "incongruent", "word": "blue", "color": "green", "correct_response": "g", "trial_id": "stroop-trial-1-incongruent-24", "trial_type": "html-keyboard-response", "trial_index": 18, "time_elapsed": 105222, "internal_node_id": "0.0-4.0-14.0"}}, {"uniqueid": "w78492992:a63445730", "current_trial": 19, "dateTime": 1664555019864, "trialdata": {"rt": 1768, "stimulus": "<p id='stroop-text' class='stroop-green'>BLUE</p>", "response": "g", "stimulus-type": "incongruent", "word": "blue", "color": "green", "correct_response": "g", "trial_id": "stroop-trial-1-incongruent-11", "trial_type": "html-keyboard-response", "trial_index": 19, "time_elapsed": 107494, "internal_node_id": "0.0-4.0-15.0"}}, {"uniqueid": "w78492992:a63445730", "current_trial": 20, "dateTime": 1664555021241, "trialdata": {"rt": 857, "stimulus": "<p id='stroop-text' class='stroop-yellow'>YELLOW</p>", "response": "y", "stimulus-type": "congruent", "word": "yellow", "color": "yellow", "correct_response": "y", "trial_id": "stroop-trial-1-congruent-26", "trial_type": "html-keyboard-response", "trial_index": 20, "time_elapsed": 108871, "internal_node_id": "0.0-4.0-16.0"}}, {"uniqueid": "w78492992:a63445730", "current_trial": 21, "dateTime": 1664555022616, "trialdata": {"rt": 858, "stimulus": "<p id='stroop-text' class='stroop-red'>RED</p>", "response": "r", "stimulus-type": "congruent", "word": "red", "color": "red", "correct_response": "r", "trial_id": "stroop-trial-1-congruent-2", "trial_type": "html-keyboard-response", "trial_index": 21, "time_elapsed": 110246, "internal_node_id": "0.0-4.0-17.0"}}, {"uniqueid": "w78492992:a63445730", "current_trial": 22, "dateTime": 1664555024281, "trialdata": {"rt": 1149, "stimulus": "<p id='stroop-text' class='stroop-green'>DOG</p>", "response": "g", "stimulus-type": "unrelated", "word": "DOG", "color": "green", "correct_response": "g", "trial_id": "stroop-trial-1-unrelated-10", "trial_type": "html-keyboard-response", "trial_index": 22, "time_elapsed": 111911, "internal_node_id": "0.0-4.0-18.0"}}, {"uniqueid": "w78492992:a63445730", "current_trial": 23, "dateTime": 1664555025529, "trialdata": {"rt": 742, "stimulus": "<p id='stroop-text' class='stroop-green'>YELLOW</p>", "response": "g", "stimulus-type": "incongruent", "word": "yellow", "color": "green", "correct_response": "g", "trial_id": "stroop-trial-1-incongruent-12", "trial_type": "html-keyboard-response", "trial_index": 23, "time_elapsed": 113159, "internal_node_id": "0.0-4.0-19.0"}}, {"uniqueid": "w78492992:a63445730", "current_trial": 24, "dateTime": 1664555027111, "trialdata": {"rt": 1064, "stimulus": "<p id='stroop-text' class='stroop-green'>BLUE</p>", "response": "g", "stimulus-type": "incongruent", "word": "blue", "color": "green", "correct_response": "g", "trial_id": "stroop-trial-1-incongruent-14", "trial_type": "html-keyboard-response", "trial_index": 24, "time_elapsed": 114742, "internal_node_id": "0.0-4.0-20.0"}}, {"uniqueid": "w78492992:a63445730", "current_trial": 25, "dateTime": 1664555028329, "trialdata": {"rt": 712, "stimulus": "<p id='stroop-text' class='stroop-blue'>CHAIR</p>", "response": "b", "stimulus-type": "unrelated", "word": "CHAIR", "color": "blue", "correct_response": "b", "trial_id": "stroop-trial-1-unrelated-1", "trial_type": "html-keyboard-response", "trial_index": 25, "time_elapsed": 115959, "internal_node_id": "0.0-4.0-21.0"}}, {"uniqueid": "w78492992:a63445730", "current_trial": 26, "dateTime": 1664555030393, "trialdata": {"rt": 1558, "stimulus": "<p id='stroop-text' class='stroop-green'>YELLOW</p>", "response": "g", "stimulus-type": "incongruent", "word": "yellow", "color": "green", "correct_response": "g", "trial_id": "stroop-trial-1-incongruent-7", "trial_type": "html-keyboard-response", "trial_index": 26, "time_elapsed": 118023, "internal_node_id": "0.0-4.0-22.0"}}, {"uniqueid": "w78492992:a63445730", "current_trial": 27, "dateTime": 1664555032137, "trialdata": {"rt": 1231, "stimulus": "<p id='stroop-text' class='stroop-yellow'>WINDOW</p>", "response": "y", "stimulus-type": "unrelated", "word": "WINDOW", "color": "yellow", "correct_response": "y", "trial_id": "stroop-trial-1-unrelated-5", "trial_type": "html-keyboard-response", "trial_index": 27, "time_elapsed": 119766, "internal_node_id": "0.0-4.0-23.0"}}, {"uniqueid": "w78492992:a63445730", "current_trial": 28, "dateTime": 1664555033737, "trialdata": {"rt": 1079, "stimulus": "<p id='stroop-text' class='stroop-green'>BLUE</p>", "response": "g", "stimulus-type": "incongruent", "word": "blue", "color": "green", "correct_response": "g", "trial_id": "stroop-trial-1-incongruent-13", "trial_type": "html-keyboard-response", "trial_index": 28, "time_elapsed": 121366, "internal_node_id": "0.0-4.0-24.0"}}, {"uniqueid": "w78492992:a63445730", "current_trial": 29, "dateTime": 1664555034840, "trialdata": {"rt": 587, "stimulus": "<p id='stroop-text' class='stroop-green'>FORK</p>", "response": "g", "stimulus-type": "unrelated", "word": "FORK", "color": "green", "correct_response": "g", "trial_id": "stroop-trial-1-unrelated-23", "trial_type": "html-keyboard-response", "trial_index": 29, "time_elapsed": 122470, "internal_node_id": "0.0-4.0-25.0"}}, {"uniqueid": "w78492992:a63445730", "current_trial": 30, "dateTime": 1664555035832, "trialdata": {"rt": 474, "stimulus": "<p id='stroop-text' class='stroop-green'>GREEN</p>", "response": "g", "stimulus-type": "congruent", "word": "green", "color": "green", "correct_response": "g", "trial_id": "stroop-trial-1-congruent-15", "trial_type": "html-keyboard-response", "trial_index": 30, "time_elapsed": 123462, "internal_node_id": "0.0-4.0-26.0"}}, {"uniqueid": "w78492992:a63445730", "current_trial": 31, "dateTime": 1664555037544, "trialdata": {"rt": 1205, "stimulus": "<p id='stroop-text' class='stroop-blue'>MONKEY</p>", "response": "b", "stimulus-type": "unrelated", "word": "MONKEY", "color": "blue", "correct_response": "b", "trial_id": "stroop-trial-1-unrelated-6", "trial_type": "html-keyboard-response", "trial_index": 31, "time_elapsed": 125175, "internal_node_id": "0.0-4.0-27.0"}}, {"uniqueid": "w78492992:a63445730", "current_trial": 32, "dateTime": 1664555038649, "trialdata": {"rt": 596, "stimulus": "<p id='stroop-text' class='stroop-blue'>BLUE</p>", "response": "b", "stimulus-type": "congruent", "word": "blue", "color": "blue", "correct_response": "b", "trial_id": "stroop-trial-1-congruent-30", "trial_type": "html-keyboard-response", "trial_index": 32, "time_elapsed": 126279, "internal_node_id": "0.0-4.0-28.0"}}, {"uniqueid": "w78492992:a63445730", "current_trial": 33, "dateTime": 1664555039928, "trialdata": {"rt": 768, "stimulus": "<p id='stroop-text' class='stroop-green'>YELLOW</p>", "response": "g", "stimulus-type": "incongruent", "word": "yellow", "color": "green", "correct_response": "g", "trial_id": "stroop-trial-1-incongruent-27", "trial_type": "html-keyboard-response", "trial_index": 33, "time_elapsed": 127559, "internal_node_id": "0.0-4.0-29.0"}}, {"uniqueid": "w78492992:a63445730", "current_trial": 34, "dateTime": 1664555041161, "trialdata": {"rt": 721, "stimulus": "<p id='stroop-text' class='stroop-blue'>GREEN</p>", "response": "b", "stimulus-type": "incongruent", "word": "green", "color": "blue", "correct_response": "b", "trial_id": "stroop-trial-1-incongruent-2", "trial_type": "html-keyboard-response", "trial_index": 34, "time_elapsed": 128791, "internal_node_id": "0.0-4.0-30.0"}}, {"uniqueid": "w78492992:a63445730", "current_trial": 35, "dateTime": 1664555042585, "trialdata": {"rt": 905, "stimulus": "<p id='stroop-text' class='stroop-red'>BLUE</p>", "response": "r", "stimulus-type": "incongruent", "word": "blue", "color": "red", "correct_response": "r", "trial_id": "stroop-trial-1-incongruent-22", "trial_type": "html-keyboard-response", "trial_index": 35, "time_elapsed": 130215, "internal_node_id": "0.0-4.0-31.0"}}, {"uniqueid": "w78492992:a63445730", "current_trial": 36, "dateTime": 1664555044121, "trialdata": {"rt": 1023, "stimulus": "<p id='stroop-text' class='stroop-blue'>STONE</p>", "response": "b", "stimulus-type": "unrelated", "word": "STONE", "color": "blue", "correct_response": "b", "trial_id": "stroop-trial-1-unrelated-22", "trial_type": "html-keyboard-response", "trial_index": 36, "time_elapsed": 131750, "internal_node_id": "0.0-4.0-32.0"}}, {"uniqueid": "w78492992:a63445730", "current_trial": 37, "dateTime": 1664555046248, "trialdata": {"rt": 1620, "stimulus": "<p id='stroop-text' class='stroop-green'>YELLOW</p>", "response": "g", "stimulus-type": "incongruent", "word": "yellow", "color": "green", "correct_response": "g", "trial_id": "stroop-trial-1-incongruent-6", "trial_type": "html-keyboard-response", "trial_index": 37, "time_elapsed": 133878, "internal_node_id": "0.0-4.0-33.0"}}, {"uniqueid": "w78492992:a63445730", "current_trial": 38, "dateTime": 1664555047320, "trialdata": {"rt": 558, "stimulus": "<p id='stroop-text' class='stroop-green'>BLUE</p>", "response": "g", "stimulus-type": "incongruent", "word": "blue", "color": "green", "correct_response": "g", "trial_id": "stroop-trial-1-incongruent-17", "trial_type": "html-keyboard-response", "trial_index": 38, "time_elapsed": 134950, "internal_node_id": "0.0-4.0-34.0"}}, {"uniqueid": "w78492992:a63445730", "current_trial": 39, "dateTime": 1664555048312, "trialdata": {"rt": 474, "stimulus": "<p id='stroop-text' class='stroop-green'>GREEN</p>", "response": "g", "stimulus-type": "congruent", "word": "green", "color": "green", "correct_response": "g", "trial_id": "stroop-trial-1-congruent-5", "trial_type": "html-keyboard-response", "trial_index": 39, "time_elapsed": 135942, "internal_node_id": "0.0-4.0-35.0"}}, {"uniqueid": "w78492992:a63445730", "current_trial": 40, "dateTime": 1664555050520, "trialdata": {"rt": 1703, "stimulus": "<p id='stroop-text' class='stroop-yellow'>YELLOW</p>", "response": "y", "stimulus-type": "congruent", "word": "yellow", "color": "yellow", "correct_response": "y", "trial_id": "stroop-trial-1-congruent-21", "trial_type": "html-keyboard-response", "trial_index": 40, "time_elapsed": 138150, "internal_node_id": "0.0-4.0-36.0"}}, {"uniqueid": "w78492992:a63445730", "current_trial": 41, "dateTime": 1664555051640, "trialdata": {"rt": 604, "stimulus": "<p id='stroop-text' class='stroop-green'>GREEN</p>", "response": "g", "stimulus-type": "congruent", "word": "green", "color": "green", "correct_response": "g", "trial_id": "stroop-trial-1-congruent-3", "trial_type": "html-keyboard-response", "trial_index": 41, "time_elapsed": 139271, "internal_node_id": "0.0-4.0-37.0"}}, {"uniqueid": "w78492992:a63445730", "current_trial": 42, "dateTime": 1664555052761, "trialdata": {"rt": 611, "stimulus": "<p id='stroop-text' class='stroop-yellow'>BOTTLE</p>", "response": "y", "stimulus-type": "unrelated", "word": "BOTTLE", "color": "yellow", "correct_response": "y", "trial_id": "stroop-trial-1-unrelated-20", "trial_type": "html-keyboard-response", "trial_index": 42, "time_elapsed": 140391, "internal_node_id": "0.0-4.0-38.0"}}, {"uniqueid": "w78492992:a63445730", "current_trial": 43, "dateTime": 1664555053960, "trialdata": {"rt": 687, "stimulus": "<p id='stroop-text' class='stroop-yellow'>YELLOW</p>", "response": "y", "stimulus-type": "congruent", "word": "yellow", "color": "yellow", "correct_response": "y", "trial_id": "stroop-trial-1-congruent-11", "trial_type": "html-keyboard-response", "trial_index": 43, "time_elapsed": 141590, "internal_node_id": "0.0-4.0-39.0"}}, {"uniqueid": "w78492992:a63445730", "current_trial": 44, "dateTime": 1664555055161, "trialdata": {"rt": 682, "stimulus": "<p id='stroop-text' class='stroop-green'>GREEN</p>", "response": "g", "stimulus-type": "congruent", "word": "green", "color": "green", "correct_response": "g", "trial_id": "stroop-trial-1-congruent-17", "trial_type": "html-keyboard-response", "trial_index": 44, "time_elapsed": 142791, "internal_node_id": "0.0-4.0-40.0"}}, {"uniqueid": "w78492992:a63445730", "current_trial": 45, "dateTime": 1664555056537, "trialdata": {"rt": 859, "stimulus": "<p id='stroop-text' class='stroop-red'>RED</p>", "response": "r", "stimulus-type": "congruent", "word": "red", "color": "red", "correct_response": "r", "trial_id": "stroop-trial-1-congruent-27", "trial_type": "html-keyboard-response", "trial_index": 45, "time_elapsed": 144167, "internal_node_id": "0.0-4.0-41.0"}}, {"uniqueid": "w78492992:a63445730", "current_trial": 46, "dateTime": 1664555057672, "trialdata": {"rt": 615, "stimulus": "<p id='stroop-text' class='stroop-blue'>SHIP</p>", "response": "b", "stimulus-type": "unrelated", "word": "SHIP", "color": "blue", "correct_response": "b", "trial_id": "stroop-trial-1-unrelated-9", "trial_type": "html-keyboard-response", "trial_index": 46, "time_elapsed": 145303, "internal_node_id": "0.0-4.0-42.0"}}, {"uniqueid": "w78492992:a63445730", "current_trial": 47, "dateTime": 1664555058696, "trialdata": {"rt": 506, "stimulus": "<p id='stroop-text' class='stroop-blue'>BLUE</p>", "response": "b", "stimulus-type": "congruent", "word": "blue", "color": "blue", "correct_response": "b", "trial_id": "stroop-trial-1-congruent-22", "trial_type": "html-keyboard-response", "trial_index": 47, "time_elapsed": 146327, "internal_node_id": "0.0-4.0-43.0"}}, {"uniqueid": "w78492992:a63445730", "current_trial": 48, "dateTime": 1664555060136, "trialdata": {"rt": 929, "stimulus": "<p id='stroop-text' class='stroop-red'>YELLOW</p>", "response": "r", "stimulus-type": "incongruent", "word": "yellow", "color": "red", "correct_response": "r", "trial_id": "stroop-trial-1-incongruent-15", "trial_type": "html-keyboard-response", "trial_index": 48, "time_elapsed": 147766, "internal_node_id": "0.0-4.0-44.0"}}, {"uniqueid": "w78492992:a63445730", "current_trial": 49, "dateTime": 1664555062168, "trialdata": {"rt": 1524, "stimulus": "<p id='stroop-text' class='stroop-blue'>BLUE</p>", "response": "b", "stimulus-type": "congruent", "word": "blue", "color": "blue", "correct_response": "b", "trial_id": "stroop-trial-1-congruent-28", "trial_type": "html-keyboard-response", "trial_index": 49, "time_elapsed": 149798, "internal_node_id": "0.0-4.0-45.0"}}, {"uniqueid": "w78492992:a63445730", "current_trial": 50, "dateTime": 1664555063384, "trialdata": {"rt": 701, "stimulus": "<p id='stroop-text' class='stroop-green'>GREEN</p>", "response": "g", "stimulus-type": "congruent", "word": "green", "color": "green", "correct_response": "g", "trial_id": "stroop-trial-1-congruent-25", "trial_type": "html-keyboard-response", "trial_index": 50, "time_elapsed": 151014, "internal_node_id": "0.0-4.0-46.0"}}, {"uniqueid": "w78492992:a63445730", "current_trial": 51, "dateTime": 1664555065144, "trialdata": {"rt": 1247, "stimulus": "<p id='stroop-text' class='stroop-blue'>FORK</p>", "response": "g", "stimulus-type": "unrelated", "word": "FORK", "color": "blue", "correct_response": "b", "trial_id": "stroop-trial-1-unrelated-15", "trial_type": "html-keyboard-response", "trial_index": 51, "time_elapsed": 152774, "internal_node_id": "0.0-4.0-47.0"}}, {"uniqueid": "w78492992:a63445730", "current_trial": 52, "dateTime": 1664555066678, "trialdata": {"rt": 1024, "stimulus": "<p id='stroop-text' class='stroop-blue'>BOTTLE</p>", "response": "b", "stimulus-type": "unrelated", "word": "BOTTLE", "color": "blue", "correct_response": "b", "trial_id": "stroop-trial-1-unrelated-8", "trial_type": "html-keyboard-response", "trial_index": 52, "time_elapsed": 154309, "internal_node_id": "0.0-4.0-48.0"}}, {"uniqueid": "w78492992:a63445730", "current_trial": 53, "dateTime": 1664555068007, "trialdata": {"rt": 815, "stimulus": "<p id='stroop-text' class='stroop-yellow'>WINDOW</p>", "response": "y", "stimulus-type": "unrelated", "word": "WINDOW", "color": "yellow", "correct_response": "y", "trial_id": "stroop-trial-1-unrelated-30", "trial_type": "html-keyboard-response", "trial_index": 53, "time_elapsed": 155638, "internal_node_id": "0.0-4.0-49.0"}}, {"uniqueid": "w78492992:a63445730", "current_trial": 54, "dateTime": 1664555069207, "trialdata": {"rt": 685, "stimulus": "<p id='stroop-text' class='stroop-yellow'>BOAT</p>", "response": "y", "stimulus-type": "unrelated", "word": "BOAT", "color": "yellow", "correct_response": "y", "trial_id": "stroop-trial-1-unrelated-11", "trial_type": "html-keyboard-response", "trial_index": 54, "time_elapsed": 156838, "internal_node_id": "0.0-4.0-50.0"}}, {"uniqueid": "w78492992:a63445730", "current_trial": 55, "dateTime": 1664555071271, "trialdata": {"rt": 1561, "stimulus": "<p id='stroop-text' class='stroop-blue'>CHAIR</p>", "response": "b", "stimulus-type": "unrelated", "word": "CHAIR", "color": "blue", "correct_response": "b", "trial_id": "stroop-trial-1-unrelated-16", "trial_type": "html-keyboard-response", "trial_index": 55, "time_elapsed": 158901, "internal_node_id": "0.0-4.0-51.0"}}, {"uniqueid": "w78492992:a63445730", "current_trial": 56, "dateTime": 1664555072342, "trialdata": {"rt": 567, "stimulus": "<p id='stroop-text' class='stroop-blue'>BLUE</p>", "response": "b", "stimulus-type": "congruent", "word": "blue", "color": "blue", "correct_response": "b", "trial_id": "stroop-trial-1-congruent-1", "trial_type": "html-keyboard-response", "trial_index": 56, "time_elapsed": 159973, "internal_node_id": "0.0-4.0-52.0"}}, {"uniqueid": "w78492992:a63445730", "current_trial": 57, "dateTime": 1664555073415, "trialdata": {"rt": 560, "stimulus": "<p id='stroop-text' class='stroop-blue'>BLUE</p>", "response": "b", "stimulus-type": "congruent", "word": "blue", "color": "blue", "correct_response": "b", "trial_id": "stroop-trial-1-congruent-19", "trial_type": "html-keyboard-response", "trial_index": 57, "time_elapsed": 161045, "internal_node_id": "0.0-4.0-53.0"}}, {"uniqueid": "w78492992:a63445730", "current_trial": 58, "dateTime": 1664555074423, "trialdata": {"rt": 498, "stimulus": "<p id='stroop-text' class='stroop-blue'>BOAT</p>", "response": "b", "stimulus-type": "unrelated", "word": "BOAT", "color": "blue", "correct_response": "b", "trial_id": "stroop-trial-1-unrelated-28", "trial_type": "html-keyboard-response", "trial_index": 58, "time_elapsed": 162053, "internal_node_id": "0.0-4.0-54.0"}}, {"uniqueid": "w78492992:a63445730", "current_trial": 59, "dateTime": 1664555075751, "trialdata": {"rt": 821, "stimulus": "<p id='stroop-text' class='stroop-red'>SHIP</p>", "response": "r", "stimulus-type": "unrelated", "word": "SHIP", "color": "red", "correct_response": "r", "trial_id": "stroop-trial-1-unrelated-18", "trial_type": "html-keyboard-response", "trial_index": 59, "time_elapsed": 163381, "internal_node_id": "0.0-4.0-55.0"}}, {"uniqueid": "w78492992:a63445730", "current_trial": 60, "dateTime": 1664555076902, "trialdata": {"rt": 641, "stimulus": "<p id='stroop-text' class='stroop-green'>RED</p>", "response": "g", "stimulus-type": "incongruent", "word": "red", "color": "green", "correct_response": "g", "trial_id": "stroop-trial-1-incongruent-8", "trial_type": "html-keyboard-response", "trial_index": 60, "time_elapsed": 164533, "internal_node_id": "0.0-4.0-56.0"}}, {"uniqueid": "w78492992:a63445730", "current_trial": 61, "dateTime": 1664555078182, "trialdata": {"rt": 768, "stimulus": "<p id='stroop-text' class='stroop-yellow'>BLUE</p>", "response": "y", "stimulus-type": "incongruent", "word": "blue", "color": "yellow", "correct_response": "y", "trial_id": "stroop-trial-1-incongruent-23", "trial_type": "html-keyboard-response", "trial_index": 61, "time_elapsed": 165813, "internal_node_id": "0.0-4.0-57.0"}}, {"uniqueid": "w78492992:a63445730", "current_trial": 62, "dateTime": 1664555079303, "trialdata": {"rt": 612, "stimulus": "<p id='stroop-text' class='stroop-green'>GREEN</p>", "response": "g", "stimulus-type": "congruent", "word": "green", "color": "green", "correct_response": "g", "trial_id": "stroop-trial-1-congruent-4", "trial_type": "html-keyboard-response", "trial_index": 62, "time_elapsed": 166933, "internal_node_id": "0.0-4.0-58.0"}}, {"uniqueid": "w78492992:a63445730", "current_trial": 63, "dateTime": 1664555080614, "trialdata": {"rt": 801, "stimulus": "<p id='stroop-text' class='stroop-red'>STONE</p>", "response": "r", "stimulus-type": "unrelated", "word": "STONE", "color": "red", "correct_response": "r", "trial_id": "stroop-trial-1-unrelated-12", "trial_type": "html-keyboard-response", "trial_index": 63, "time_elapsed": 168245, "internal_node_id": "0.0-4.0-59.0"}}, {"uniqueid": "w78492992:a63445730", "current_trial": 64, "dateTime": 1664555081799, "trialdata": {"rt": 665, "stimulus": "<p id='stroop-text' class='stroop-blue'>CHAIR</p>", "response": "b", "stimulus-type": "unrelated", "word": "CHAIR", "color": "blue", "correct_response": "b", "trial_id": "stroop-trial-1-unrelated-14", "trial_type": "html-keyboard-response", "trial_index": 64, "time_elapsed": 169429, "internal_node_id": "0.0-4.0-60.0"}}, {"uniqueid": "w78492992:a63445730", "current_trial": 65, "dateTime": 1664555083063, "trialdata": {"rt": 750, "stimulus": "<p id='stroop-text' class='stroop-green'>WINDOW</p>", "response": "g", "stimulus-type": "unrelated", "word": "WINDOW", "color": "green", "correct_response": "g", "trial_id": "stroop-trial-1-unrelated-21", "trial_type": "html-keyboard-response", "trial_index": 65, "time_elapsed": 170693, "internal_node_id": "0.0-4.0-61.0"}}, {"uniqueid": "w78492992:a63445730", "current_trial": 66, "dateTime": 1664555084358, "trialdata": {"rt": 780, "stimulus": "<p id='stroop-text' class='stroop-red'>BOTTLE</p>", "response": "r", "stimulus-type": "unrelated", "word": "BOTTLE", "color": "red", "correct_response": "r", "trial_id": "stroop-trial-1-unrelated-29", "trial_type": "html-keyboard-response", "trial_index": 66, "time_elapsed": 171989, "internal_node_id": "0.0-4.0-62.0"}}, {"uniqueid": "w78492992:a63445730", "current_trial": 67, "dateTime": 1664555085862, "trialdata": {"rt": 994, "stimulus": "<p id='stroop-text' class='stroop-green'>CHAIR</p>", "response": "g", "stimulus-type": "unrelated", "word": "CHAIR", "color": "green", "correct_response": "g", "trial_id": "stroop-trial-1-unrelated-7", "trial_type": "html-keyboard-response", "trial_index": 67, "time_elapsed": 173492, "internal_node_id": "0.0-4.0-63.0"}}, {"uniqueid": "w78492992:a63445730", "current_trial": 68, "dateTime": 1664555086903, "trialdata": {"rt": 534, "stimulus": "<p id='stroop-text' class='stroop-green'>GREEN</p>", "response": "g", "stimulus-type": "congruent", "word": "green", "color": "green", "correct_response": "g", "trial_id": "stroop-trial-1-congruent-6", "trial_type": "html-keyboard-response", "trial_index": 68, "time_elapsed": 174533, "internal_node_id": "0.0-4.0-64.0"}}, {"uniqueid": "w78492992:a63445730", "current_trial": 69, "dateTime": 1664555088118, "trialdata": {"rt": 706, "stimulus": "<p id='stroop-text' class='stroop-yellow'>BLUE</p>", "response": "y", "stimulus-type": "incongruent", "word": "blue", "color": "yellow", "correct_response": "y", "trial_id": "stroop-trial-1-incongruent-29", "trial_type": "html-keyboard-response", "trial_index": 69, "time_elapsed": 175749, "internal_node_id": "0.0-4.0-65.0"}}, {"uniqueid": "w78492992:a63445730", "current_trial": 70, "dateTime": 1664555089399, "trialdata": {"rt": 767, "stimulus": "<p id='stroop-text' class='stroop-yellow'>BOAT</p>", "response": "y", "stimulus-type": "unrelated", "word": "BOAT", "color": "yellow", "correct_response": "y", "trial_id": "stroop-trial-1-unrelated-25", "trial_type": "html-keyboard-response", "trial_index": 70, "time_elapsed": 177029, "internal_node_id": "0.0-4.0-66.0"}}, {"uniqueid": "w78492992:a63445730", "current_trial": 71, "dateTime": 1664555090631, "trialdata": {"rt": 713, "stimulus": "<p id='stroop-text' class='stroop-green'>GREEN</p>", "response": "g", "stimulus-type": "congruent", "word": "green", "color": "green", "correct_response": "g", "trial_id": "stroop-trial-1-congruent-7", "trial_type": "html-keyboard-response", "trial_index": 71, "time_elapsed": 178261, "internal_node_id": "0.0-4.0-67.0"}}, {"uniqueid": "w78492992:a63445730", "current_trial": 72, "dateTime": 1664555092598, "trialdata": {"rt": 1454, "stimulus": "<p id='stroop-text' class='stroop-blue'>GREEN</p>", "response": "b", "stimulus-type": "incongruent", "word": "green", "color": "blue", "correct_response": "b", "trial_id": "stroop-trial-1-incongruent-9", "trial_type": "html-keyboard-response", "trial_index": 72, "time_elapsed": 180229, "internal_node_id": "0.0-4.0-68.0"}}, {"uniqueid": "w78492992:a63445730", "current_trial": 73, "dateTime": 1664555094007, "trialdata": {"rt": 894, "stimulus": "<p id='stroop-text' class='stroop-blue'>BLUE</p>", "response": "b", "stimulus-type": "congruent", "word": "blue", "color": "blue", "correct_response": "b", "trial_id": "stroop-trial-1-congruent-9", "trial_type": "html-keyboard-response", "trial_index": 73, "time_elapsed": 181638, "internal_node_id": "0.0-4.0-69.0"}}, {"uniqueid": "w78492992:a63445730", "current_trial": 74, "dateTime": 1664555096439, "trialdata": {"rt": 1924, "stimulus": "<p id='stroop-text' class='stroop-yellow'>RED</p>", "response": "y", "stimulus-type": "incongruent", "word": "red", "color": "yellow", "correct_response": "y", "trial_id": "stroop-trial-1-incongruent-3", "trial_type": "html-keyboard-response", "trial_index": 74, "time_elapsed": 184068, "internal_node_id": "0.0-4.0-70.0"}}, {"uniqueid": "w78492992:a63445730", "current_trial": 75, "dateTime": 1664555097862, "trialdata": {"rt": 908, "stimulus": "<p id='stroop-text' class='stroop-green'>GREEN</p>", "response": "g", "stimulus-type": "congruent", "word": "green", "color": "green", "correct_response": "g", "trial_id": "stroop-trial-1-congruent-20", "trial_type": "html-keyboard-response", "trial_index": 75, "time_elapsed": 185493, "internal_node_id": "0.0-4.0-71.0"}}, {"uniqueid": "w78492992:a63445730", "current_trial": 76, "dateTime": 1664555099047, "trialdata": {"rt": 677, "stimulus": "<p id='stroop-text' class='stroop-red'>GREEN</p>", "response": "r", "stimulus-type": "incongruent", "word": "green", "color": "red", "correct_response": "r", "trial_id": "stroop-trial-1-incongruent-25", "trial_type": "html-keyboard-response", "trial_index": 76, "time_elapsed": 186677, "internal_node_id": "0.0-4.0-72.0"}}, {"uniqueid": "w78492992:a63445730", "current_trial": 77, "dateTime": 1664555100742, "trialdata": {"rt": 1186, "stimulus": "<p id='stroop-text' class='stroop-green'>WINDOW</p>", "response": "g", "stimulus-type": "unrelated", "word": "WINDOW", "color": "green", "correct_response": "g", "trial_id": "stroop-trial-1-unrelated-2", "trial_type": "html-keyboard-response", "trial_index": 77, "time_elapsed": 188373, "internal_node_id": "0.0-4.0-73.0"}}, {"uniqueid": "w78492992:a63445730", "current_trial": 78, "dateTime": 1664555102246, "trialdata": {"rt": 986, "stimulus": "<p id='stroop-text' class='stroop-blue'>RED</p>", "response": "b", "stimulus-type": "incongruent", "word": "red", "color": "blue", "correct_response": "b", "trial_id": "stroop-trial-1-incongruent-4", "trial_type": "html-keyboard-response", "trial_index": 78, "time_elapsed": 189877, "internal_node_id": "0.0-4.0-74.0"}}, {"uniqueid": "w78492992:a63445730", "current_trial": 79, "dateTime": 1664555103222, "trialdata": {"rt": 462, "stimulus": "<p id='stroop-text' class='stroop-blue'>BLUE</p>", "response": "b", "stimulus-type": "congruent", "word": "blue", "color": "blue", "correct_response": "b", "trial_id": "stroop-trial-1-congruent-24", "trial_type": "html-keyboard-response", "trial_index": 79, "time_elapsed": 190853, "internal_node_id": "0.0-4.0-75.0"}}, {"uniqueid": "w78492992:a63445730", "current_trial": 80, "dateTime": 1664555105287, "trialdata": {"rt": 1551, "stimulus": "<p id='stroop-text' class='stroop-green'>BRAIN</p>", "response": "g", "stimulus-type": "unrelated", "word": "BRAIN", "color": "green", "correct_response": "g", "trial_id": "stroop-trial-1-unrelated-3", "trial_type": "html-keyboard-response", "trial_index": 80, "time_elapsed": 192918, "internal_node_id": "0.0-4.0-76.0"}}, {"uniqueid": "w78492992:a63445730", "current_trial": 81, "dateTime": 1664555106407, "trialdata": {"rt": 613, "stimulus": "<p id='stroop-text' class='stroop-blue'>BLUE</p>", "response": "b", "stimulus-type": "congruent", "word": "blue", "color": "blue", "correct_response": "b", "trial_id": "stroop-trial-1-congruent-10", "trial_type": "html-keyboard-response", "trial_index": 81, "time_elapsed": 194037, "internal_node_id": "0.0-4.0-77.0"}}, {"uniqueid": "w78492992:a63445730", "current_trial": 82, "dateTime": 1664555107478, "trialdata": {"rt": 561, "stimulus": "<p id='stroop-text' class='stroop-red'>RED</p>", "response": "r", "stimulus-type": "congruent", "word": "red", "color": "red", "correct_response": "r", "trial_id": "stroop-trial-1-congruent-8", "trial_type": "html-keyboard-response", "trial_index": 82, "time_elapsed": 195109, "internal_node_id": "0.0-4.0-78.0"}}, {"uniqueid": "w78492992:a63445730", "current_trial": 83, "dateTime": 1664555108679, "trialdata": {"rt": 696, "stimulus": "<p id='stroop-text' class='stroop-yellow'>GREEN</p>", "response": "y", "stimulus-type": "incongruent", "word": "green", "color": "yellow", "correct_response": "y", "trial_id": "stroop-trial-1-incongruent-16", "trial_type": "html-keyboard-response", "trial_index": 83, "time_elapsed": 196309, "internal_node_id": "0.0-4.0-79.0"}}, {"uniqueid": "w78492992:a63445730", "current_trial": 84, "dateTime": 1664555109911, "trialdata": {"rt": 723, "stimulus": "<p id='stroop-text' class='stroop-green'>BRIDGE</p>", "response": "g", "stimulus-type": "unrelated", "word": "BRIDGE", "color": "green", "correct_response": "g", "trial_id": "stroop-trial-1-unrelated-24", "trial_type": "html-keyboard-response", "trial_index": 84, "time_elapsed": 197541, "internal_node_id": "0.0-4.0-80.0"}}, {"uniqueid": "w78492992:a63445730", "current_trial": 85, "dateTime": 1664555111143, "trialdata": {"rt": 718, "stimulus": "<p id='stroop-text' class='stroop-yellow'>YELLOW</p>", "response": "y", "stimulus-type": "congruent", "word": "yellow", "color": "yellow", "correct_response": "y", "trial_id": "stroop-trial-1-congruent-23", "trial_type": "html-keyboard-response", "trial_index": 85, "time_elapsed": 198773, "internal_node_id": "0.0-4.0-81.0"}}, {"uniqueid": "w78492992:a63445730", "current_trial": 86, "dateTime": 1664555112518, "trialdata": {"rt": 863, "stimulus": "<p id='stroop-text' class='stroop-green'>BLUE</p>", "response": "g", "stimulus-type": "incongruent", "word": "blue", "color": "green", "correct_response": "g", "trial_id": "stroop-trial-1-incongruent-10", "trial_type": "html-keyboard-response", "trial_index": 86, "time_elapsed": 200149, "internal_node_id": "0.0-4.0-82.0"}}, {"uniqueid": "w78492992:a63445730", "current_trial": 87, "dateTime": 1664555113607, "trialdata": {"rt": 582, "stimulus": "<p id='stroop-text' class='stroop-red'>RED</p>", "response": "r", "stimulus-type": "congruent", "word": "red", "color": "red", "correct_response": "r", "trial_id": "stroop-trial-1-congruent-29", "trial_type": "html-keyboard-response", "trial_index": 87, "time_elapsed": 201237, "internal_node_id": "0.0-4.0-83.0"}}, {"uniqueid": "w78492992:a63445730", "current_trial": 88, "dateTime": 1664555114807, "trialdata": {"rt": 690, "stimulus": "<p id='stroop-text' class='stroop-yellow'>BRIDGE</p>", "response": "y", "stimulus-type": "unrelated", "word": "BRIDGE", "color": "yellow", "correct_response": "y", "trial_id": "stroop-trial-1-unrelated-13", "trial_type": "html-keyboard-response", "trial_index": 88, "time_elapsed": 202436, "internal_node_id": "0.0-4.0-84.0"}}, {"uniqueid": "w78492992:a63445730", "current_trial": 89, "dateTime": 1664555116758, "trialdata": {"rt": 1435, "stimulus": "<p id='stroop-text' class='stroop-red'>SHIP</p>", "response": "r", "stimulus-type": "unrelated", "word": "SHIP", "color": "red", "correct_response": "r", "trial_id": "stroop-trial-1-unrelated-19", "trial_type": "html-keyboard-response", "trial_index": 89, "time_elapsed": 204389, "internal_node_id": "0.0-4.0-85.0"}}, {"uniqueid": "w78492992:a63445730", "current_trial": 90, "dateTime": 1664555117958, "trialdata": {"rt": 685, "stimulus": "<p id='stroop-text' class='stroop-blue'>GREEN</p>", "response": "b", "stimulus-type": "incongruent", "word": "green", "color": "blue", "correct_response": "b", "trial_id": "stroop-trial-1-incongruent-26", "trial_type": "html-keyboard-response", "trial_index": 90, "time_elapsed": 205589, "internal_node_id": "0.0-4.0-86.0"}}, {"uniqueid": "w78492992:a63445730", "current_trial": 91, "dateTime": 1664555119239, "trialdata": {"rt": 768, "stimulus": "<p id='stroop-text' class='stroop-red'>BOAT</p>", "response": "r", "stimulus-type": "unrelated", "word": "BOAT", "color": "red", "correct_response": "r", "trial_id": "stroop-trial-1-unrelated-17", "trial_type": "html-keyboard-response", "trial_index": 91, "time_elapsed": 206870, "internal_node_id": "0.0-4.0-87.0"}}, {"uniqueid": "w78492992:a63445730", "current_trial": 92, "dateTime": 1664555120470, "trialdata": {"rt": 715, "stimulus": "<p id='stroop-text' class='stroop-green'>GREEN</p>", "response": "g", "stimulus-type": "congruent", "word": "green", "color": "green", "correct_response": "g", "trial_id": "stroop-trial-1-congruent-18", "trial_type": "html-keyboard-response", "trial_index": 92, "time_elapsed": 208101, "internal_node_id": "0.0-4.0-88.0"}}, {"uniqueid": "w78492992:a63445730", "current_trial": 93, "dateTime": 1664555121639, "trialdata": {"rt": 655, "stimulus": "<p id='stroop-text' class='stroop-blue'>GREEN</p>", "response": "b", "stimulus-type": "incongruent", "word": "green", "color": "blue", "correct_response": "b", "trial_id": "stroop-trial-1-incongruent-21", "trial_type": "html-keyboard-response", "trial_index": 93, "time_elapsed": 209269, "internal_node_id": "0.0-4.0-89.0"}}, {"uniqueid": "w78492992:a63445730", "current_trial": 94, "dateTime": 1664555145015, "trialdata": {"rt": 22863, "stimulus": "  <h1> End of block! </h1>\n\n  You have reached the end of the block 1/5. If you need a short break, feel free to take one now before moving on.\n\n  <br><br>\n  In the next block, you will complete another 90 rounds of this game.\n\n  <br><br>\n  <div style='text-align: center;'>Press <code>space</code> to begin.</div>\n  <br><br>\n<div style='text-align: center;'>(If the experiment doesn't continue, try clicking on the text and then pressing <code>space</code>.)</div>", "response": " ", "trial_id": "stroop_1_ready_2", "trial_type": "html-keyboard-response", "trial_index": 94, "time_elapsed": 232646, "internal_node_id": "0.0-5.0"}}, {"uniqueid": "w78492992:a63445730", "current_trial": 95, "dateTime": 1664555145991, "trialdata": {"rt": 971, "stimulus": "<p id='stroop-text' class='stroop-yellow'>BRAIN</p>", "response": "y", "stimulus-type": "unrelated", "word": "BRAIN", "color": "yellow", "correct_response": "y", "trial_id": "stroop-trial-1-unrelated-22", "trial_type": "html-keyboard-response", "trial_index": 95, "time_elapsed": 233622, "internal_node_id": "0.0-6.0-0.0"}}, {"uniqueid": "w78492992:a63445730", "current_trial": 96, "dateTime": 1664555147575, "trialdata": {"rt": 1066, "stimulus": "<p id='stroop-text' class='stroop-yellow'>GREEN</p>", "response": "y", "stimulus-type": "incongruent", "word": "green", "color": "yellow", "correct_response": "y", "trial_id": "stroop-trial-1-incongruent-22", "trial_type": "html-keyboard-response", "trial_index": 96, "time_elapsed": 235206, "internal_node_id": "0.0-6.0-1.0"}}, {"uniqueid": "w78492992:a63445730", "current_trial": 97, "dateTime": 1664555148790, "trialdata": {"rt": 704, "stimulus": "<p id='stroop-text' class='stroop-blue'>FORK</p>", "response": "b", "stimulus-type": "unrelated", "word": "FORK", "color": "blue", "correct_response": "b", "trial_id": "stroop-trial-1-unrelated-20", "trial_type": "html-keyboard-response", "trial_index": 97, "time_elapsed": 236421, "internal_node_id": "0.0-6.0-2.0"}}, {"uniqueid": "w78492992:a63445730", "current_trial": 98, "dateTime": 1664555150087, "trialdata": {"rt": 792, "stimulus": "<p id='stroop-text' class='stroop-yellow'>DOG</p>", "response": "y", "stimulus-type": "unrelated", "word": "DOG", "color": "yellow", "correct_response": "y", "trial_id": "stroop-trial-1-unrelated-5", "trial_type": "html-keyboard-response", "trial_index": 98, "time_elapsed": 237718, "internal_node_id": "0.0-6.0-3.0"}}, {"uniqueid": "w78492992:a63445730", "current_trial": 99, "dateTime": 1664555151142, "trialdata": {"rt": 544, "stimulus": "<p id='stroop-text' class='stroop-red'>RED</p>", "response": "r", "stimulus-type": "congruent", "word": "red", "color": "red", "correct_response": "r", "trial_id": "stroop-trial-1-congruent-9", "trial_type": "html-keyboard-response", "trial_index": 99, "time_elapsed": 238773, "internal_node_id": "0.0-6.0-4.0"}}, {"uniqueid": "w78492992:a63445730", "current_trial": 100, "dateTime": 1664555152584, "trialdata": {"rt": 934, "stimulus": "<p id='stroop-text' class='stroop-red'>BLUE</p>", "response": "r", "stimulus-type": "incongruent", "word": "blue", "color": "red", "correct_response": "r", "trial_id": "stroop-trial-1-incongruent-25", "trial_type": "html-keyboard-response", "trial_index": 100, "time_elapsed": 240215, "internal_node_id": "0.0-6.0-5.0"}}, {"uniqueid": "w78492992:a63445730", "current_trial": 101, "dateTime": 1664555154583, "trialdata": {"rt": 1481, "stimulus": "<p id='stroop-text' class='stroop-blue'>BOTTLE</p>", "response": "b", "stimulus-type": "unrelated", "word": "BOTTLE", "color": "blue", "correct_response": "b", "trial_id": "stroop-trial-1-unrelated-8", "trial_type": "html-keyboard-response", "trial_index": 101, "time_elapsed": 242214, "internal_node_id": "0.0-6.0-6.0"}}, {"uniqueid": "w78492992:a63445730", "current_trial": 102, "dateTime": 1664555155720, "trialdata": {"rt": 624, "stimulus": "<p id='stroop-text' class='stroop-red'>DOG</p>", "response": "r", "stimulus-type": "unrelated", "word": "DOG", "color": "red", "correct_response": "r", "trial_id": "stroop-trial-1-unrelated-9", "trial_type": "html-keyboard-response", "trial_index": 102, "time_elapsed": 243351, "internal_node_id": "0.0-6.0-7.0"}}, {"uniqueid": "w78492992:a63445730", "current_trial": 103, "dateTime": 1664555156968, "trialdata": {"rt": 732, "stimulus": "<p id='stroop-text' class='stroop-yellow'>RED</p>", "response": "y", "stimulus-type": "incongruent", "word": "red", "color": "yellow", "correct_response": "y", "trial_id": "stroop-trial-1-incongruent-2", "trial_type": "html-keyboard-response", "trial_index": 103, "time_elapsed": 244599, "internal_node_id": "0.0-6.0-8.0"}}, {"uniqueid": "w78492992:a63445730", "current_trial": 104, "dateTime": 1664555158296, "trialdata": {"rt": 813, "stimulus": "<p id='stroop-text' class='stroop-blue'>RED</p>", "response": "g", "stimulus-type": "incongruent", "word": "red", "color": "blue", "correct_response": "b", "trial_id": "stroop-trial-1-incongruent-8", "trial_type": "html-keyboard-response", "trial_index": 104, "time_elapsed": 245926, "internal_node_id": "0.0-6.0-9.0"}}, {"uniqueid": "w78492992:a63445730", "current_trial": 105, "dateTime": 1664555159527, "trialdata": {"rt": 716, "stimulus": "<p id='stroop-text' class='stroop-red'>RED</p>", "response": "r", "stimulus-type": "congruent", "word": "red", "color": "red", "correct_response": "r", "trial_id": "stroop-trial-1-congruent-30", "trial_type": "html-keyboard-response", "trial_index": 105, "time_elapsed": 247158, "internal_node_id": "0.0-6.0-10.0"}}, {"uniqueid": "w78492992:a63445730", "current_trial": 106, "dateTime": 1664555160759, "trialdata": {"rt": 716, "stimulus": "<p id='stroop-text' class='stroop-yellow'>BRAIN</p>", "response": "y", "stimulus-type": "unrelated", "word": "BRAIN", "color": "yellow", "correct_response": "y", "trial_id": "stroop-trial-1-unrelated-27", "trial_type": "html-keyboard-response", "trial_index": 106, "time_elapsed": 248390, "internal_node_id": "0.0-6.0-11.0"}}, {"uniqueid": "w78492992:a63445730", "current_trial": 107, "dateTime": 1664555162070, "trialdata": {"rt": 793, "stimulus": "<p id='stroop-text' class='stroop-red'>RED</p>", "response": "r", "stimulus-type": "congruent", "word": "red", "color": "red", "correct_response": "r", "trial_id": "stroop-trial-1-congruent-8", "trial_type": "html-keyboard-response", "trial_index": 107, "time_elapsed": 249701, "internal_node_id": "0.0-6.0-12.0"}}, {"uniqueid": "w78492992:a63445730", "current_trial": 108, "dateTime": 1664555164040, "trialdata": {"rt": 1454, "stimulus": "<p id='stroop-text' class='stroop-green'>YELLOW</p>", "response": "g", "stimulus-type": "incongruent", "word": "yellow", "color": "green", "correct_response": "g", "trial_id": "stroop-trial-1-incongruent-10", "trial_type": "html-keyboard-response", "trial_index": 108, "time_elapsed": 251670, "internal_node_id": "0.0-6.0-13.0"}}, {"uniqueid": "w78492992:a63445730", "current_trial": 109, "dateTime": 1664555165368, "trialdata": {"rt": 809, "stimulus": "<p id='stroop-text' class='stroop-blue'>BLUE</p>", "response": "b", "stimulus-type": "congruent", "word": "blue", "color": "blue", "correct_response": "b", "trial_id": "stroop-trial-1-congruent-28", "trial_type": "html-keyboard-response", "trial_index": 109, "time_elapsed": 252999, "internal_node_id": "0.0-6.0-14.0"}}, {"uniqueid": "w78492992:a63445730", "current_trial": 110, "dateTime": 1664555166617, "trialdata": {"rt": 732, "stimulus": "<p id='stroop-text' class='stroop-blue'>GREEN</p>", "response": "b", "stimulus-type": "incongruent", "word": "green", "color": "blue", "correct_response": "b", "trial_id": "stroop-trial-1-incongruent-21", "trial_type": "html-keyboard-response", "trial_index": 110, "time_elapsed": 254247, "internal_node_id": "0.0-6.0-15.0"}}, {"uniqueid": "w78492992:a63445730", "current_trial": 111, "dateTime": 1664555168552, "trialdata": {"rt": 1425, "stimulus": "<p id='stroop-text' class='stroop-yellow'>YELLOW</p>", "response": "y", "stimulus-type": "congruent", "word": "yellow", "color": "yellow", "correct_response": "y", "trial_id": "stroop-trial-1-congruent-16", "trial_type": "html-keyboard-response", "trial_index": 111, "time_elapsed": 256182, "internal_node_id": "0.0-6.0-16.0"}}, {"uniqueid": "w78492992:a63445730", "current_trial": 112, "dateTime": 1664555169560, "trialdata": {"rt": 490, "stimulus": "<p id='stroop-text' class='stroop-yellow'>GREEN</p>", "response": "y", "stimulus-type": "incongruent", "word": "green", "color": "yellow", "correct_response": "y", "trial_id": "stroop-trial-1-incongruent-14", "trial_type": "html-keyboard-response", "trial_index": 112, "time_elapsed": 257190, "internal_node_id": "0.0-6.0-17.0"}}, {"uniqueid": "w78492992:a63445730", "current_trial": 113, "dateTime": 1664555170616, "trialdata": {"rt": 549, "stimulus": "<p id='stroop-text' class='stroop-yellow'>YELLOW</p>", "response": "y", "stimulus-type": "congruent", "word": "yellow", "color": "yellow", "correct_response": "y", "trial_id": "stroop-trial-1-congruent-26", "trial_type": "html-keyboard-response", "trial_index": 113, "time_elapsed": 258246, "internal_node_id": "0.0-6.0-18.0"}}, {"uniqueid": "w78492992:a63445730", "current_trial": 114, "dateTime": 1664555172121, "trialdata": {"rt": 990, "stimulus": "<p id='stroop-text' class='stroop-red'>BOTTLE</p>", "response": "r", "stimulus-type": "unrelated", "word": "BOTTLE", "color": "red", "correct_response": "r", "trial_id": "stroop-trial-1-unrelated-21", "trial_type": "html-keyboard-response", "trial_index": 114, "time_elapsed": 259751, "internal_node_id": "0.0-6.0-19.0"}}, {"uniqueid": "w78492992:a63445730", "current_trial": 115, "dateTime": 1664555173431, "trialdata": {"rt": 800, "stimulus": "<p id='stroop-text' class='stroop-yellow'>MONKEY</p>", "response": "y", "stimulus-type": "unrelated", "word": "MONKEY", "color": "yellow", "correct_response": "y", "trial_id": "stroop-trial-1-unrelated-24", "trial_type": "html-keyboard-response", "trial_index": 115, "time_elapsed": 261062, "internal_node_id": "0.0-6.0-20.0"}}, {"uniqueid": "w78492992:a63445730", "current_trial": 116, "dateTime": 1664555174456, "trialdata": {"rt": 510, "stimulus": "<p id='stroop-text' class='stroop-green'>BRIDGE</p>", "response": "g", "stimulus-type": "unrelated", "word": "BRIDGE", "color": "green", "correct_response": "g", "trial_id": "stroop-trial-1-unrelated-29", "trial_type": "html-keyboard-response", "trial_index": 116, "time_elapsed": 262087, "internal_node_id": "0.0-6.0-21.0"}}, {"uniqueid": "w78492992:a63445730", "current_trial": 117, "dateTime": 1664555176408, "trialdata": {"rt": 1443, "stimulus": "<p id='stroop-text' class='stroop-green'>STONE</p>", "response": "g", "stimulus-type": "unrelated", "word": "STONE", "color": "green", "correct_response": "g", "trial_id": "stroop-trial-1-unrelated-28", "trial_type": "html-keyboard-response", "trial_index": 117, "time_elapsed": 264038, "internal_node_id": "0.0-6.0-22.0"}}, {"uniqueid": "w78492992:a63445730", "current_trial": 118, "dateTime": 1664555177529, "trialdata": {"rt": 609, "stimulus": "<p id='stroop-text' class='stroop-red'>GREEN</p>", "response": "r", "stimulus-type": "incongruent", "word": "green", "color": "red", "correct_response": "r", "trial_id": "stroop-trial-1-incongruent-12", "trial_type": "html-keyboard-response", "trial_index": 118, "time_elapsed": 265159, "internal_node_id": "0.0-6.0-23.0"}}, {"uniqueid": "w78492992:a63445730", "current_trial": 119, "dateTime": 1664555178841, "trialdata": {"rt": 793, "stimulus": "<p id='stroop-text' class='stroop-blue'>BLUE</p>", "response": "b", "stimulus-type": "congruent", "word": "blue", "color": "blue", "correct_response": "b", "trial_id": "stroop-trial-1-congruent-5", "trial_type": "html-keyboard-response", "trial_index": 119, "time_elapsed": 266471, "internal_node_id": "0.0-6.0-24.0"}}, {"uniqueid": "w78492992:a63445730", "current_trial": 120, "dateTime": 1664555180217, "trialdata": {"rt": 869, "stimulus": "<p id='stroop-text' class='stroop-green'>YELLOW</p>", "response": "g", "stimulus-type": "incongruent", "word": "yellow", "color": "green", "correct_response": "g", "trial_id": "stroop-trial-1-incongruent-1", "trial_type": "html-keyboard-response", "trial_index": 120, "time_elapsed": 267847, "internal_node_id": "0.0-6.0-25.0"}}, {"uniqueid": "w78492992:a63445730", "current_trial": 121, "dateTime": 1664555181417, "trialdata": {"rt": 680, "stimulus": "<p id='stroop-text' class='stroop-red'>RED</p>", "response": "r", "stimulus-type": "congruent", "word": "red", "color": "red", "correct_response": "r", "trial_id": "stroop-trial-1-congruent-11", "trial_type": "html-keyboard-response", "trial_index": 121, "time_elapsed": 269047, "internal_node_id": "0.0-6.0-26.0"}}, {"uniqueid": "w78492992:a63445730", "current_trial": 122, "dateTime": 1664555182760, "trialdata": {"rt": 835, "stimulus": "<p id='stroop-text' class='stroop-blue'>RED</p>", "response": "b", "stimulus-type": "incongruent", "word": "red", "color": "blue", "correct_response": "b", "trial_id": "stroop-trial-1-incongruent-19", "trial_type": "html-keyboard-response", "trial_index": 122, "time_elapsed": 270391, "internal_node_id": "0.0-6.0-27.0"}}, {"uniqueid": "w78492992:a63445730", "current_trial": 123, "dateTime": 1664555183944, "trialdata": {"rt": 674, "stimulus": "<p id='stroop-text' class='stroop-yellow'>BLUE</p>", "response": "y", "stimulus-type": "incongruent", "word": "blue", "color": "yellow", "correct_response": "y", "trial_id": "stroop-trial-1-incongruent-27", "trial_type": "html-keyboard-response", "trial_index": 123, "time_elapsed": 271574, "internal_node_id": "0.0-6.0-28.0"}}, {"uniqueid": "w78492992:a63445730", "current_trial": 124, "dateTime": 1664555185369, "trialdata": {"rt": 909, "stimulus": "<p id='stroop-text' class='stroop-green'>BOTTLE</p>", "response": "g", "stimulus-type": "unrelated", "word": "BOTTLE", "color": "green", "correct_response": "g", "trial_id": "stroop-trial-1-unrelated-18", "trial_type": "html-keyboard-response", "trial_index": 124, "time_elapsed": 272999, "internal_node_id": "0.0-6.0-29.0"}}, {"uniqueid": "w78492992:a63445730", "current_trial": 125, "dateTime": 1664555186424, "trialdata": {"rt": 546, "stimulus": "<p id='stroop-text' class='stroop-green'>GREEN</p>", "response": "g", "stimulus-type": "congruent", "word": "green", "color": "green", "correct_response": "g", "trial_id": "stroop-trial-1-congruent-25", "trial_type": "html-keyboard-response", "trial_index": 125, "time_elapsed": 274054, "internal_node_id": "0.0-6.0-30.0"}}, {"uniqueid": "w78492992:a63445730", "current_trial": 126, "dateTime": 1664555187960, "trialdata": {"rt": 1018, "stimulus": "<p id='stroop-text' class='stroop-blue'>RED</p>", "response": "b", "stimulus-type": "incongruent", "word": "red", "color": "blue", "correct_response": "b", "trial_id": "stroop-trial-1-incongruent-13", "trial_type": "html-keyboard-response", "trial_index": 126, "time_elapsed": 275590, "internal_node_id": "0.0-6.0-31.0"}}, {"uniqueid": "w78492992:a63445730", "current_trial": 127, "dateTime": 1664555189032, "trialdata": {"rt": 557, "stimulus": "<p id='stroop-text' class='stroop-blue'>RED</p>", "response": "b", "stimulus-type": "incongruent", "word": "red", "color": "blue", "correct_response": "b", "trial_id": "stroop-trial-1-incongruent-4", "trial_type": "html-keyboard-response", "trial_index": 127, "time_elapsed": 276662, "internal_node_id": "0.0-6.0-32.0"}}, {"uniqueid": "w78492992:a63445730", "current_trial": 128, "dateTime": 1664555190649, "trialdata": {"rt": 1106, "stimulus": "<p id='stroop-text' class='stroop-red'>GREEN</p>", "response": "r", "stimulus-type": "incongruent", "word": "green", "color": "red", "correct_response": "r", "trial_id": "stroop-trial-1-incongruent-29", "trial_type": "html-keyboard-response", "trial_index": 128, "time_elapsed": 278279, "internal_node_id": "0.0-6.0-33.0"}}, {"uniqueid": "w78492992:a63445730", "current_trial": 129, "dateTime": 1664555191656, "trialdata": {"rt": 501, "stimulus": "<p id='stroop-text' class='stroop-red'>WINDOW</p>", "response": "r", "stimulus-type": "unrelated", "word": "WINDOW", "color": "red", "correct_response": "r", "trial_id": "stroop-trial-1-unrelated-30", "trial_type": "html-keyboard-response", "trial_index": 129, "time_elapsed": 279287, "internal_node_id": "0.0-6.0-34.0"}}, {"uniqueid": "w78492992:a63445730", "current_trial": 130, "dateTime": 1664555192664, "trialdata": {"rt": 501, "stimulus": "<p id='stroop-text' class='stroop-red'>GREEN</p>", "response": "r", "stimulus-type": "incongruent", "word": "green", "color": "red", "correct_response": "r", "trial_id": "stroop-trial-1-incongruent-17", "trial_type": "html-keyboard-response", "trial_index": 130, "time_elapsed": 280294, "internal_node_id": "0.0-6.0-35.0"}}, {"uniqueid": "w78492992:a63445730", "current_trial": 131, "dateTime": 1664555195224, "trialdata": {"rt": 2049, "stimulus": "<p id='stroop-text' class='stroop-blue'>BLUE</p>", "response": "g", "stimulus-type": "congruent", "word": "blue", "color": "blue", "correct_response": "b", "trial_id": "stroop-trial-1-congruent-14", "trial_type": "html-keyboard-response", "trial_index": 131, "time_elapsed": 282854, "internal_node_id": "0.0-6.0-36.0"}}, {"uniqueid": "w78492992:a63445730", "current_trial": 132, "dateTime": 1664555196504, "trialdata": {"rt": 773, "stimulus": "<p id='stroop-text' class='stroop-green'>BLUE</p>", "response": "b", "stimulus-type": "incongruent", "word": "blue", "color": "green", "correct_response": "g", "trial_id": "stroop-trial-1-incongruent-11", "trial_type": "html-keyboard-response", "trial_index": 132, "time_elapsed": 284135, "internal_node_id": "0.0-6.0-37.0"}}, {"uniqueid": "w78492992:a63445730", "current_trial": 133, "dateTime": 1664555197640, "trialdata": {"rt": 629, "stimulus": "<p id='stroop-text' class='stroop-yellow'>YELLOW</p>", "response": "y", "stimulus-type": "congruent", "word": "yellow", "color": "yellow", "correct_response": "y", "trial_id": "stroop-trial-1-congruent-24", "trial_type": "html-keyboard-response", "trial_index": 133, "time_elapsed": 285270, "internal_node_id": "0.0-6.0-38.0"}}, {"uniqueid": "w78492992:a63445730", "current_trial": 134, "dateTime": 1664555199672, "trialdata": {"rt": 1521, "stimulus": "<p id='stroop-text' class='stroop-blue'>GREEN</p>", "response": "b", "stimulus-type": "incongruent", "word": "green", "color": "blue", "correct_response": "b", "trial_id": "stroop-trial-1-incongruent-20", "trial_type": "html-keyboard-response", "trial_index": 134, "time_elapsed": 287302, "internal_node_id": "0.0-6.0-39.0"}}, {"uniqueid": "w78492992:a63445730", "current_trial": 135, "dateTime": 1664555200888, "trialdata": {"rt": 701, "stimulus": "<p id='stroop-text' class='stroop-red'>RED</p>", "response": "r", "stimulus-type": "congruent", "word": "red", "color": "red", "correct_response": "r", "trial_id": "stroop-trial-1-congruent-2", "trial_type": "html-keyboard-response", "trial_index": 135, "time_elapsed": 288518, "internal_node_id": "0.0-6.0-40.0"}}, {"uniqueid": "w78492992:a63445730", "current_trial": 136, "dateTime": 1664555202519, "trialdata": {"rt": 1123, "stimulus": "<p id='stroop-text' class='stroop-blue'>YELLOW</p>", "response": "b", "stimulus-type": "incongruent", "word": "yellow", "color": "blue", "correct_response": "b", "trial_id": "stroop-trial-1-incongruent-28", "trial_type": "html-keyboard-response", "trial_index": 136, "time_elapsed": 290150, "internal_node_id": "0.0-6.0-41.0"}}, {"uniqueid": "w78492992:a63445730", "current_trial": 137, "dateTime": 1664555203880, "trialdata": {"rt": 846, "stimulus": "<p id='stroop-text' class='stroop-yellow'>YELLOW</p>", "response": "y", "stimulus-type": "congruent", "word": "yellow", "color": "yellow", "correct_response": "y", "trial_id": "stroop-trial-1-congruent-7", "trial_type": "html-keyboard-response", "trial_index": 137, "time_elapsed": 291511, "internal_node_id": "0.0-6.0-42.0"}}, {"uniqueid": "w78492992:a63445730", "current_trial": 138, "dateTime": 1664555205209, "trialdata": {"rt": 819, "stimulus": "<p id='stroop-text' class='stroop-red'>WINDOW</p>", "response": "r", "stimulus-type": "unrelated", "word": "WINDOW", "color": "red", "correct_response": "r", "trial_id": "stroop-trial-1-unrelated-25", "trial_type": "html-keyboard-response", "trial_index": 138, "time_elapsed": 292839, "internal_node_id": "0.0-6.0-43.0"}}, {"uniqueid": "w78492992:a63445730", "current_trial": 139, "dateTime": 1664555207271, "trialdata": {"rt": 1554, "stimulus": "<p id='stroop-text' class='stroop-yellow'>GREEN</p>", "response": "y", "stimulus-type": "incongruent", "word": "green", "color": "yellow", "correct_response": "y", "trial_id": "stroop-trial-1-incongruent-16", "trial_type": "html-keyboard-response", "trial_index": 139, "time_elapsed": 294902, "internal_node_id": "0.0-6.0-44.0"}}, {"uniqueid": "w78492992:a63445730", "current_trial": 140, "dateTime": 1664555209128, "trialdata": {"rt": 1349, "stimulus": "<p id='stroop-text' class='stroop-green'>BLUE</p>", "response": "g", "stimulus-type": "incongruent", "word": "blue", "color": "green", "correct_response": "g", "trial_id": "stroop-trial-1-incongruent-18", "trial_type": "html-keyboard-response", "trial_index": 140, "time_elapsed": 296758, "internal_node_id": "0.0-6.0-45.0"}}, {"uniqueid": "w78492992:a63445730", "current_trial": 141, "dateTime": 1664555210328, "trialdata": {"rt": 685, "stimulus": "<p id='stroop-text' class='stroop-green'>BRIDGE</p>", "response": "g", "stimulus-type": "unrelated", "word": "BRIDGE", "color": "green", "correct_response": "g", "trial_id": "stroop-trial-1-unrelated-3", "trial_type": "html-keyboard-response", "trial_index": 141, "time_elapsed": 297959, "internal_node_id": "0.0-6.0-46.0"}}, {"uniqueid": "w78492992:a63445730", "current_trial": 142, "dateTime": 1664555211672, "trialdata": {"rt": 830, "stimulus": "<p id='stroop-text' class='stroop-yellow'>BLUE</p>", "response": "y", "stimulus-type": "incongruent", "word": "blue", "color": "yellow", "correct_response": "y", "trial_id": "stroop-trial-1-incongruent-24", "trial_type": "html-keyboard-response", "trial_index": 142, "time_elapsed": 299303, "internal_node_id": "0.0-6.0-47.0"}}, {"uniqueid": "w78492992:a63445730", "current_trial": 143, "dateTime": 1664555213159, "trialdata": {"rt": 978, "stimulus": "<p id='stroop-text' class='stroop-red'>RED</p>", "response": "r", "stimulus-type": "congruent", "word": "red", "color": "red", "correct_response": "r", "trial_id": "stroop-trial-1-congruent-15", "trial_type": "html-keyboard-response", "trial_index": 143, "time_elapsed": 300790, "internal_node_id": "0.0-6.0-48.0"}}, {"uniqueid": "w78492992:a63445730", "current_trial": 144, "dateTime": 1664555214520, "trialdata": {"rt": 847, "stimulus": "<p id='stroop-text' class='stroop-red'>WINDOW</p>", "response": "r", "stimulus-type": "unrelated", "word": "WINDOW", "color": "red", "correct_response": "r", "trial_id": "stroop-trial-1-unrelated-26", "trial_type": "html-keyboard-response", "trial_index": 144, "time_elapsed": 302150, "internal_node_id": "0.0-6.0-49.0"}}, {"uniqueid": "w78492992:a63445730", "current_trial": 145, "dateTime": 1664555215672, "trialdata": {"rt": 641, "stimulus": "<p id='stroop-text' class='stroop-yellow'>YELLOW</p>", "response": "y", "stimulus-type": "congruent", "word": "yellow", "color": "yellow", "correct_response": "y", "trial_id": "stroop-trial-1-congruent-27", "trial_type": "html-keyboard-response", "trial_index": 145, "time_elapsed": 303302, "internal_node_id": "0.0-6.0-50.0"}}, {"uniqueid": "w78492992:a63445730", "current_trial": 146, "dateTime": 1664555217401, "trialdata": {"rt": 1213, "stimulus": "<p id='stroop-text' class='stroop-blue'>BLUE</p>", "response": "b", "stimulus-type": "congruent", "word": "blue", "color": "blue", "correct_response": "b", "trial_id": "stroop-trial-1-congruent-21", "trial_type": "html-keyboard-response", "trial_index": 146, "time_elapsed": 305031, "internal_node_id": "0.0-6.0-51.0"}}, {"uniqueid": "w78492992:a63445730", "current_trial": 147, "dateTime": 1664555218696, "trialdata": {"rt": 776, "stimulus": "<p id='stroop-text' class='stroop-red'>RED</p>", "response": "r", "stimulus-type": "congruent", "word": "red", "color": "red", "correct_response": "r", "trial_id": "stroop-trial-1-congruent-18", "trial_type": "html-keyboard-response", "trial_index": 147, "time_elapsed": 306327, "internal_node_id": "0.0-6.0-52.0"}}, {"uniqueid": "w78492992:a63445730", "current_trial": 148, "dateTime": 1664555219720, "trialdata": {"rt": 518, "stimulus": "<p id='stroop-text' class='stroop-green'>GREEN</p>", "response": "g", "stimulus-type": "congruent", "word": "green", "color": "green", "correct_response": "g", "trial_id": "stroop-trial-1-congruent-17", "trial_type": "html-keyboard-response", "trial_index": 148, "time_elapsed": 307350, "internal_node_id": "0.0-6.0-53.0"}}, {"uniqueid": "w78492992:a63445730", "current_trial": 149, "dateTime": 1664555220776, "trialdata": {"rt": 545, "stimulus": "<p id='stroop-text' class='stroop-yellow'>FORK</p>", "response": "y", "stimulus-type": "unrelated", "word": "FORK", "color": "yellow", "correct_response": "y", "trial_id": "stroop-trial-1-unrelated-4", "trial_type": "html-keyboard-response", "trial_index": 149, "time_elapsed": 308406, "internal_node_id": "0.0-6.0-54.0"}}, {"uniqueid": "w78492992:a63445730", "current_trial": 150, "dateTime": 1664555222328, "trialdata": {"rt": 1040, "stimulus": "<p id='stroop-text' class='stroop-blue'>BRAIN</p>", "response": "b", "stimulus-type": "unrelated", "word": "BRAIN", "color": "blue", "correct_response": "b", "trial_id": "stroop-trial-1-unrelated-23", "trial_type": "html-keyboard-response", "trial_index": 150, "time_elapsed": 309959, "internal_node_id": "0.0-6.0-55.0"}}, {"uniqueid": "w78492992:a63445730", "current_trial": 151, "dateTime": 1664555225096, "trialdata": {"rt": 2255, "stimulus": "<p id='stroop-text' class='stroop-green'>MONKEY</p>", "response": "g", "stimulus-type": "unrelated", "word": "MONKEY", "color": "green", "correct_response": "g", "trial_id": "stroop-trial-1-unrelated-19", "trial_type": "html-keyboard-response", "trial_index": 151, "time_elapsed": 312726, "internal_node_id": "0.0-6.0-56.0"}}, {"uniqueid": "w78492992:a63445730", "current_trial": 152, "dateTime": 1664555226536, "trialdata": {"rt": 930, "stimulus": "<p id='stroop-text' class='stroop-red'>SHIP</p>", "response": "r", "stimulus-type": "unrelated", "word": "SHIP", "color": "red", "correct_response": "r", "trial_id": "stroop-trial-1-unrelated-2", "trial_type": "html-keyboard-response", "trial_index": 152, "time_elapsed": 314167, "internal_node_id": "0.0-6.0-57.0"}}, {"uniqueid": "w78492992:a63445730", "current_trial": 153, "dateTime": 1664555227975, "trialdata": {"rt": 933, "stimulus": "<p id='stroop-text' class='stroop-blue'>YELLOW</p>", "response": "b", "stimulus-type": "incongruent", "word": "yellow", "color": "blue", "correct_response": "b", "trial_id": "stroop-trial-1-incongruent-23", "trial_type": "html-keyboard-response", "trial_index": 153, "time_elapsed": 315606, "internal_node_id": "0.0-6.0-58.0"}}, {"uniqueid": "w78492992:a63445730", "current_trial": 154, "dateTime": 1664555229673, "trialdata": {"rt": 1184, "stimulus": "<p id='stroop-text' class='stroop-red'>BOTTLE</p>", "response": "r", "stimulus-type": "unrelated", "word": "BOTTLE", "color": "red", "correct_response": "r", "trial_id": "stroop-trial-1-unrelated-14", "trial_type": "html-keyboard-response", "trial_index": 154, "time_elapsed": 317303, "internal_node_id": "0.0-6.0-59.0"}}, {"uniqueid": "w78492992:a63445730", "current_trial": 155, "dateTime": 1664555231064, "trialdata": {"rt": 880, "stimulus": "<p id='stroop-text' class='stroop-blue'>DOG</p>", "response": "b", "stimulus-type": "unrelated", "word": "DOG", "color": "blue", "correct_response": "b", "trial_id": "stroop-trial-1-unrelated-10", "trial_type": "html-keyboard-response", "trial_index": 155, "time_elapsed": 318695, "internal_node_id": "0.0-6.0-60.0"}}, {"uniqueid": "w78492992:a63445730", "current_trial": 156, "dateTime": 1664555232552, "trialdata": {"rt": 981, "stimulus": "<p id='stroop-text' class='stroop-yellow'>YELLOW</p>", "response": "y", "stimulus-type": "congruent", "word": "yellow", "color": "yellow", "correct_response": "y", "trial_id": "stroop-trial-1-congruent-29", "trial_type": "html-keyboard-response", "trial_index": 156, "time_elapsed": 320182, "internal_node_id": "0.0-6.0-61.0"}}, {"uniqueid": "w78492992:a63445730", "current_trial": 157, "dateTime": 1664555233912, "trialdata": {"rt": 841, "stimulus": "<p id='stroop-text' class='stroop-yellow'>BRAIN</p>", "response": "y", "stimulus-type": "unrelated", "word": "BRAIN", "color": "yellow", "correct_response": "y", "trial_id": "stroop-trial-1-unrelated-6", "trial_type": "html-keyboard-response", "trial_index": 157, "time_elapsed": 321543, "internal_node_id": "0.0-6.0-62.0"}}, {"uniqueid": "w78492992:a63445730", "current_trial": 158, "dateTime": 1664555235223, "trialdata": {"rt": 793, "stimulus": "<p id='stroop-text' class='stroop-green'>BLUE</p>", "response": "g", "stimulus-type": "incongruent", "word": "blue", "color": "green", "correct_response": "g", "trial_id": "stroop-trial-1-incongruent-30", "trial_type": "html-keyboard-response", "trial_index": 158, "time_elapsed": 322854, "internal_node_id": "0.0-6.0-63.0"}}, {"uniqueid": "w78492992:a63445730", "current_trial": 159, "dateTime": 1664555236280, "trialdata": {"rt": 550, "stimulus": "<p id='stroop-text' class='stroop-green'>CHAIR</p>", "response": "g", "stimulus-type": "unrelated", "word": "CHAIR", "color": "green", "correct_response": "g", "trial_id": "stroop-trial-1-unrelated-7", "trial_type": "html-keyboard-response", "trial_index": 159, "time_elapsed": 323911, "internal_node_id": "0.0-6.0-64.0"}}, {"uniqueid": "w78492992:a63445730", "current_trial": 160, "dateTime": 1664555237321, "trialdata": {"rt": 531, "stimulus": "<p id='stroop-text' class='stroop-blue'>BRIDGE</p>", "response": "b", "stimulus-type": "unrelated", "word": "BRIDGE", "color": "blue", "correct_response": "b", "trial_id": "stroop-trial-1-unrelated-17", "trial_type": "html-keyboard-response", "trial_index": 160, "time_elapsed": 324951, "internal_node_id": "0.0-6.0-65.0"}}, {"uniqueid": "w78492992:a63445730", "current_trial": 161, "dateTime": 1664555239688, "trialdata": {"rt": 1851, "stimulus": "<p id='stroop-text' class='stroop-green'>CHAIR</p>", "response": "g", "stimulus-type": "unrelated", "word": "CHAIR", "color": "green", "correct_response": "g", "trial_id": "stroop-trial-1-unrelated-1", "trial_type": "html-keyboard-response", "trial_index": 161, "time_elapsed": 327318, "internal_node_id": "0.0-6.0-66.0"}}, {"uniqueid": "w78492992:a63445730", "current_trial": 162, "dateTime": 1664555240600, "trialdata": {"rt": 395, "stimulus": "<p id='stroop-text' class='stroop-red'>GREEN</p>", "response": "r", "stimulus-type": "incongruent", "word": "green", "color": "red", "correct_response": "r", "trial_id": "stroop-trial-1-incongruent-15", "trial_type": "html-keyboard-response", "trial_index": 162, "time_elapsed": 328230, "internal_node_id": "0.0-6.0-67.0"}}, {"uniqueid": "w78492992:a63445730", "current_trial": 163, "dateTime": 1664555241752, "trialdata": {"rt": 644, "stimulus": "<p id='stroop-text' class='stroop-red'>YELLOW</p>", "response": "r", "stimulus-type": "incongruent", "word": "yellow", "color": "red", "correct_response": "r", "trial_id": "stroop-trial-1-incongruent-5", "trial_type": "html-keyboard-response", "trial_index": 163, "time_elapsed": 329382, "internal_node_id": "0.0-6.0-68.0"}}, {"uniqueid": "w78492992:a63445730", "current_trial": 164, "dateTime": 1664555242792, "trialdata": {"rt": 529, "stimulus": "<p id='stroop-text' class='stroop-red'>BLUE</p>", "response": "r", "stimulus-type": "incongruent", "word": "blue", "color": "red", "correct_response": "r", "trial_id": "stroop-trial-1-incongruent-7", "trial_type": "html-keyboard-response", "trial_index": 164, "time_elapsed": 330422, "internal_node_id": "0.0-6.0-69.0"}}, {"uniqueid": "w78492992:a63445730", "current_trial": 165, "dateTime": 1664555244408, "trialdata": {"rt": 1110, "stimulus": "<p id='stroop-text' class='stroop-green'>YELLOW</p>", "response": "g", "stimulus-type": "incongruent", "word": "yellow", "color": "green", "correct_response": "g", "trial_id": "stroop-trial-1-incongruent-9", "trial_type": "html-keyboard-response", "trial_index": 165, "time_elapsed": 332039, "internal_node_id": "0.0-6.0-70.0"}}, {"uniqueid": "w78492992:a63445730", "current_trial": 166, "dateTime": 1664555245464, "trialdata": {"rt": 540, "stimulus": "<p id='stroop-text' class='stroop-green'>DOG</p>", "response": "g", "stimulus-type": "unrelated", "word": "DOG", "color": "green", "correct_response": "g", "trial_id": "stroop-trial-1-unrelated-16", "trial_type": "html-keyboard-response", "trial_index": 166, "time_elapsed": 333094, "internal_node_id": "0.0-6.0-71.0"}}, {"uniqueid": "w78492992:a63445730", "current_trial": 167, "dateTime": 1664555246569, "trialdata": {"rt": 588, "stimulus": "<p id='stroop-text' class='stroop-blue'>BLUE</p>", "response": "b", "stimulus-type": "congruent", "word": "blue", "color": "blue", "correct_response": "b", "trial_id": "stroop-trial-1-congruent-6", "trial_type": "html-keyboard-response", "trial_index": 167, "time_elapsed": 334199, "internal_node_id": "0.0-6.0-72.0"}}, {"uniqueid": "w78492992:a63445730", "current_trial": 168, "dateTime": 1664555247720, "trialdata": {"rt": 635, "stimulus": "<p id='stroop-text' class='stroop-red'>RED</p>", "response": "r", "stimulus-type": "congruent", "word": "red", "color": "red", "correct_response": "r", "trial_id": "stroop-trial-1-congruent-23", "trial_type": "html-keyboard-response", "trial_index": 168, "time_elapsed": 335351, "internal_node_id": "0.0-6.0-73.0"}}, {"uniqueid": "w78492992:a63445730", "current_trial": 169, "dateTime": 1664555248984, "trialdata": {"rt": 745, "stimulus": "<p id='stroop-text' class='stroop-yellow'>GREEN</p>", "response": "y", "stimulus-type": "incongruent", "word": "green", "color": "yellow", "correct_response": "y", "trial_id": "stroop-trial-1-incongruent-6", "trial_type": "html-keyboard-response", "trial_index": 169, "time_elapsed": 336614, "internal_node_id": "0.0-6.0-74.0"}}, {"uniqueid": "w78492992:a63445730", "current_trial": 170, "dateTime": 1664555250392, "trialdata": {"rt": 888, "stimulus": "<p id='stroop-text' class='stroop-blue'>BLUE</p>", "response": "b", "stimulus-type": "congruent", "word": "blue", "color": "blue", "correct_response": "b", "trial_id": "stroop-trial-1-congruent-20", "trial_type": "html-keyboard-response", "trial_index": 170, "time_elapsed": 338022, "internal_node_id": "0.0-6.0-75.0"}}, {"uniqueid": "w78492992:a63445730", "current_trial": 171, "dateTime": 1664555251912, "trialdata": {"rt": 1012, "stimulus": "<p id='stroop-text' class='stroop-yellow'>YELLOW</p>", "response": "y", "stimulus-type": "congruent", "word": "yellow", "color": "yellow", "correct_response": "y", "trial_id": "stroop-trial-1-congruent-12", "trial_type": "html-keyboard-response", "trial_index": 171, "time_elapsed": 339542, "internal_node_id": "0.0-6.0-76.0"}}, {"uniqueid": "w78492992:a63445730", "current_trial": 172, "dateTime": 1664555253097, "trialdata": {"rt": 668, "stimulus": "<p id='stroop-text' class='stroop-yellow'>BLUE</p>", "response": "y", "stimulus-type": "incongruent", "word": "blue", "color": "yellow", "correct_response": "y", "trial_id": "stroop-trial-1-incongruent-26", "trial_type": "html-keyboard-response", "trial_index": 172, "time_elapsed": 340727, "internal_node_id": "0.0-6.0-77.0"}}, {"uniqueid": "w78492992:a63445730", "current_trial": 173, "dateTime": 1664555254280, "trialdata": {"rt": 664, "stimulus": "<p id='stroop-text' class='stroop-green'>BLUE</p>", "response": "g", "stimulus-type": "incongruent", "word": "blue", "color": "green", "correct_response": "g", "trial_id": "stroop-trial-1-incongruent-3", "trial_type": "html-keyboard-response", "trial_index": 173, "time_elapsed": 341910, "internal_node_id": "0.0-6.0-78.0"}}, {"uniqueid": "w78492992:a63445730", "current_trial": 174, "dateTime": 1664555255431, "trialdata": {"rt": 644, "stimulus": "<p id='stroop-text' class='stroop-red'>RED</p>", "response": "b", "stimulus-type": "congruent", "word": "red", "color": "red", "correct_response": "r", "trial_id": "stroop-trial-1-congruent-13", "trial_type": "html-keyboard-response", "trial_index": 174, "time_elapsed": 343062, "internal_node_id": "0.0-6.0-79.0"}}, {"uniqueid": "w78492992:a63445730", "current_trial": 175, "dateTime": 1664555256489, "trialdata": {"rt": 546, "stimulus": "<p id='stroop-text' class='stroop-red'>RED</p>", "response": "r", "stimulus-type": "congruent", "word": "red", "color": "red", "correct_response": "r", "trial_id": "stroop-trial-1-congruent-10", "trial_type": "html-keyboard-response", "trial_index": 175, "time_elapsed": 344119, "internal_node_id": "0.0-6.0-80.0"}}, {"uniqueid": "w78492992:a63445730", "current_trial": 176, "dateTime": 1664555257625, "trialdata": {"rt": 618, "stimulus": "<p id='stroop-text' class='stroop-red'>RED</p>", "response": "r", "stimulus-type": "congruent", "word": "red", "color": "red", "correct_response": "r", "trial_id": "stroop-trial-1-congruent-1", "trial_type": "html-keyboard-response", "trial_index": 176, "time_elapsed": 345254, "internal_node_id": "0.0-6.0-81.0"}}, {"uniqueid": "w78492992:a63445730", "current_trial": 177, "dateTime": 1664555258600, "trialdata": {"rt": 469, "stimulus": "<p id='stroop-text' class='stroop-red'>RED</p>", "response": "r", "stimulus-type": "congruent", "word": "red", "color": "red", "correct_response": "r", "trial_id": "stroop-trial-1-congruent-22", "trial_type": "html-keyboard-response", "trial_index": 177, "time_elapsed": 346231, "internal_node_id": "0.0-6.0-82.0"}}, {"uniqueid": "w78492992:a63445730", "current_trial": 178, "dateTime": 1664555259704, "trialdata": {"rt": 594, "stimulus": "<p id='stroop-text' class='stroop-yellow'>YELLOW</p>", "response": "y", "stimulus-type": "congruent", "word": "yellow", "color": "yellow", "correct_response": "y", "trial_id": "stroop-trial-1-congruent-19", "trial_type": "html-keyboard-response", "trial_index": 178, "time_elapsed": 347334, "internal_node_id": "0.0-6.0-83.0"}}, {"uniqueid": "w78492992:a63445730", "current_trial": 179, "dateTime": 1664555261111, "trialdata": {"rt": 895, "stimulus": "<p id='stroop-text' class='stroop-blue'>BRAIN</p>", "response": "b", "stimulus-type": "unrelated", "word": "BRAIN", "color": "blue", "correct_response": "b", "trial_id": "stroop-trial-1-unrelated-13", "trial_type": "html-keyboard-response", "trial_index": 179, "time_elapsed": 348742, "internal_node_id": "0.0-6.0-84.0"}}, {"uniqueid": "w78492992:a63445730", "current_trial": 180, "dateTime": 1664555262264, "trialdata": {"rt": 639, "stimulus": "<p id='stroop-text' class='stroop-blue'>CHAIR</p>", "response": "b", "stimulus-type": "unrelated", "word": "CHAIR", "color": "blue", "correct_response": "b", "trial_id": "stroop-trial-1-unrelated-15", "trial_type": "html-keyboard-response", "trial_index": 180, "time_elapsed": 349895, "internal_node_id": "0.0-6.0-85.0"}}, {"uniqueid": "w78492992:a63445730", "current_trial": 181, "dateTime": 1664555263464, "trialdata": {"rt": 685, "stimulus": "<p id='stroop-text' class='stroop-red'>RED</p>", "response": "r", "stimulus-type": "congruent", "word": "red", "color": "red", "correct_response": "r", "trial_id": "stroop-trial-1-congruent-4", "trial_type": "html-keyboard-response", "trial_index": 181, "time_elapsed": 351095, "internal_node_id": "0.0-6.0-86.0"}}, {"uniqueid": "w78492992:a63445730", "current_trial": 182, "dateTime": 1664555264567, "trialdata": {"rt": 587, "stimulus": "<p id='stroop-text' class='stroop-blue'>BLUE</p>", "response": "b", "stimulus-type": "congruent", "word": "blue", "color": "blue", "correct_response": "b", "trial_id": "stroop-trial-1-congruent-3", "trial_type": "html-keyboard-response", "trial_index": 182, "time_elapsed": 352198, "internal_node_id": "0.0-6.0-87.0"}}, {"uniqueid": "w78492992:a63445730", "current_trial": 183, "dateTime": 1664555265816, "trialdata": {"rt": 739, "stimulus": "<p id='stroop-text' class='stroop-red'>BOTTLE</p>", "response": "r", "stimulus-type": "unrelated", "word": "BOTTLE", "color": "red", "correct_response": "r", "trial_id": "stroop-trial-1-unrelated-12", "trial_type": "html-keyboard-response", "trial_index": 183, "time_elapsed": 353446, "internal_node_id": "0.0-6.0-88.0"}}, {"uniqueid": "w78492992:a63445730", "current_trial": 184, "dateTime": 1664555267032, "trialdata": {"rt": 703, "stimulus": "<p id='stroop-text' class='stroop-green'>STONE</p>", "response": "g", "stimulus-type": "unrelated", "word": "STONE", "color": "green", "correct_response": "g", "trial_id": "stroop-trial-1-unrelated-11", "trial_type": "html-keyboard-response", "trial_index": 184, "time_elapsed": 354662, "internal_node_id": "0.0-6.0-89.0"}}, {"uniqueid": "w78492992:a63445730", "current_trial": 185, "dateTime": 1664555282937, "trialdata": {"rt": 15388, "stimulus": "  <h1> End of block! </h1>\n\n  You have reached the end of the block 2/5. If you need a short break, feel free to take one now before moving on.\n\n  <br><br>\n  In the next block, you will complete another 90 rounds of this game.\n\n  <br><br>\n  <div style='text-align: center;'>Press <code>space</code> to begin.</div>\n  <br><br>\n<div style='text-align: center;'>(If the experiment doesn't continue, try clicking on the text and then pressing <code>space</code>.)</div>", "response": " ", "trial_id": "stroop_1_ready_3", "trial_type": "html-keyboard-response", "trial_index": 185, "time_elapsed": 370567, "internal_node_id": "0.0-7.0"}}, {"uniqueid": "w78492992:a63445730", "current_trial": 186, "dateTime": 1664555283784, "trialdata": {"rt": 841, "stimulus": "<p id='stroop-text' class='stroop-yellow'>YELLOW</p>", "response": "y", "stimulus-type": "congruent", "word": "yellow", "color": "yellow", "correct_response": "y", "trial_id": "stroop-trial-1-congruent-20", "trial_type": "html-keyboard-response", "trial_index": 186, "time_elapsed": 371414, "internal_node_id": "0.0-8.0-0.0"}}, {"uniqueid": "w78492992:a63445730", "current_trial": 187, "dateTime": 1664555284840, "trialdata": {"rt": 542, "stimulus": "<p id='stroop-text' class='stroop-yellow'>GREEN</p>", "response": "y", "stimulus-type": "incongruent", "word": "green", "color": "yellow", "correct_response": "y", "trial_id": "stroop-trial-1-incongruent-23", "trial_type": "html-keyboard-response", "trial_index": 187, "time_elapsed": 372470, "internal_node_id": "0.0-8.0-1.0"}}, {"uniqueid": "w78492992:a63445730", "current_trial": 188, "dateTime": 1664555286104, "trialdata": {"rt": 743, "stimulus": "<p id='stroop-text' class='stroop-red'>YELLOW</p>", "response": "r", "stimulus-type": "incongruent", "word": "yellow", "color": "red", "correct_response": "r", "trial_id": "stroop-trial-1-incongruent-15", "trial_type": "html-keyboard-response", "trial_index": 188, "time_elapsed": 373734, "internal_node_id": "0.0-8.0-2.0"}}, {"uniqueid": "w78492992:a63445730", "current_trial": 189, "dateTime": 1664555287352, "trialdata": {"rt": 731, "stimulus": "<p id='stroop-text' class='stroop-blue'>YELLOW</p>", "response": "b", "stimulus-type": "incongruent", "word": "yellow", "color": "blue", "correct_response": "b", "trial_id": "stroop-trial-1-incongruent-19", "trial_type": "html-keyboard-response", "trial_index": 189, "time_elapsed": 374982, "internal_node_id": "0.0-8.0-3.0"}}, {"uniqueid": "w78492992:a63445730", "current_trial": 190, "dateTime": 1664555288728, "trialdata": {"rt": 857, "stimulus": "<p id='stroop-text' class='stroop-red'>SHIP</p>", "response": "r", "stimulus-type": "unrelated", "word": "SHIP", "color": "red", "correct_response": "r", "trial_id": "stroop-trial-1-unrelated-23", "trial_type": "html-keyboard-response", "trial_index": 190, "time_elapsed": 376359, "internal_node_id": "0.0-8.0-4.0"}}, {"uniqueid": "w78492992:a63445730", "current_trial": 191, "dateTime": 1664555289720, "trialdata": {"rt": 479, "stimulus": "<p id='stroop-text' class='stroop-red'>YELLOW</p>", "response": "r", "stimulus-type": "incongruent", "word": "yellow", "color": "red", "correct_response": "r", "trial_id": "stroop-trial-1-incongruent-4", "trial_type": "html-keyboard-response", "trial_index": 191, "time_elapsed": 377351, "internal_node_id": "0.0-8.0-5.0"}}, {"uniqueid": "w78492992:a63445730", "current_trial": 192, "dateTime": 1664555291240, "trialdata": {"rt": 1014, "stimulus": "<p id='stroop-text' class='stroop-blue'>BRIDGE</p>", "response": "b", "stimulus-type": "unrelated", "word": "BRIDGE", "color": "blue", "correct_response": "b", "trial_id": "stroop-trial-1-unrelated-25", "trial_type": "html-keyboard-response", "trial_index": 192, "time_elapsed": 378871, "internal_node_id": "0.0-8.0-6.0"}}, {"uniqueid": "w78492992:a63445730", "current_trial": 193, "dateTime": 1664555292311, "trialdata": {"rt": 551, "stimulus": "<p id='stroop-text' class='stroop-blue'>BLUE</p>", "response": "b", "stimulus-type": "congruent", "word": "blue", "color": "blue", "correct_response": "b", "trial_id": "stroop-trial-1-congruent-13", "trial_type": "html-keyboard-response", "trial_index": 193, "time_elapsed": 379942, "internal_node_id": "0.0-8.0-7.0"}}, {"uniqueid": "w78492992:a63445730", "current_trial": 194, "dateTime": 1664555293288, "trialdata": {"rt": 467, "stimulus": "<p id='stroop-text' class='stroop-blue'>SHIP</p>", "response": "b", "stimulus-type": "unrelated", "word": "SHIP", "color": "blue", "correct_response": "b", "trial_id": "stroop-trial-1-unrelated-20", "trial_type": "html-keyboard-response", "trial_index": 194, "time_elapsed": 380918, "internal_node_id": "0.0-8.0-8.0"}}, {"uniqueid": "w78492992:a63445730", "current_trial": 195, "dateTime": 1664555294329, "trialdata": {"rt": 534, "stimulus": "<p id='stroop-text' class='stroop-green'>WINDOW</p>", "response": "g", "stimulus-type": "unrelated", "word": "WINDOW", "color": "green", "correct_response": "g", "trial_id": "stroop-trial-1-unrelated-21", "trial_type": "html-keyboard-response", "trial_index": 195, "time_elapsed": 381959, "internal_node_id": "0.0-8.0-9.0"}}, {"uniqueid": "w78492992:a63445730", "current_trial": 196, "dateTime": 1664555295671, "trialdata": {"rt": 830, "stimulus": "<p id='stroop-text' class='stroop-red'>WINDOW</p>", "response": "r", "stimulus-type": "unrelated", "word": "WINDOW", "color": "red", "correct_response": "r", "trial_id": "stroop-trial-1-unrelated-14", "trial_type": "html-keyboard-response", "trial_index": 196, "time_elapsed": 383302, "internal_node_id": "0.0-8.0-10.0"}}, {"uniqueid": "w78492992:a63445730", "current_trial": 197, "dateTime": 1664555298151, "trialdata": {"rt": 1969, "stimulus": "<p id='stroop-text' class='stroop-blue'>BLUE</p>", "response": "g", "stimulus-type": "congruent", "word": "blue", "color": "blue", "correct_response": "b", "trial_id": "stroop-trial-1-congruent-21", "trial_type": "html-keyboard-response", "trial_index": 197, "time_elapsed": 385782, "internal_node_id": "0.0-8.0-11.0"}}, {"uniqueid": "w78492992:a63445730", "current_trial": 198, "dateTime": 1664555299368, "trialdata": {"rt": 705, "stimulus": "<p id='stroop-text' class='stroop-blue'>BLUE</p>", "response": "b", "stimulus-type": "congruent", "word": "blue", "color": "blue", "correct_response": "b", "trial_id": "stroop-trial-1-congruent-7", "trial_type": "html-keyboard-response", "trial_index": 198, "time_elapsed": 386998, "internal_node_id": "0.0-8.0-12.0"}}, {"uniqueid": "w78492992:a63445730", "current_trial": 199, "dateTime": 1664555301032, "trialdata": {"rt": 1153, "stimulus": "<p id='stroop-text' class='stroop-green'>DOG</p>", "response": "g", "stimulus-type": "unrelated", "word": "DOG", "color": "green", "correct_response": "g", "trial_id": "stroop-trial-1-unrelated-3", "trial_type": "html-keyboard-response", "trial_index": 199, "time_elapsed": 388662, "internal_node_id": "0.0-8.0-13.0"}}, {"uniqueid": "w78492992:a63445730", "current_trial": 200, "dateTime": 1664555302328, "trialdata": {"rt": 776, "stimulus": "<p id='stroop-text' class='stroop-red'>GREEN</p>", "response": "r", "stimulus-type": "incongruent", "word": "green", "color": "red", "correct_response": "r", "trial_id": "stroop-trial-1-incongruent-22", "trial_type": "html-keyboard-response", "trial_index": 200, "time_elapsed": 389959, "internal_node_id": "0.0-8.0-14.0"}}, {"uniqueid": "w78492992:a63445730", "current_trial": 201, "dateTime": 1664555303641, "trialdata": {"rt": 795, "stimulus": "<p id='stroop-text' class='stroop-blue'>BOAT</p>", "response": "b", "stimulus-type": "unrelated", "word": "BOAT", "color": "blue", "correct_response": "b", "trial_id": "stroop-trial-1-unrelated-1", "trial_type": "html-keyboard-response", "trial_index": 201, "time_elapsed": 391271, "internal_node_id": "0.0-8.0-15.0"}}, {"uniqueid": "w78492992:a63445730", "current_trial": 202, "dateTime": 1664555304824, "trialdata": {"rt": 664, "stimulus": "<p id='stroop-text' class='stroop-blue'>MONKEY</p>", "response": "b", "stimulus-type": "unrelated", "word": "MONKEY", "color": "blue", "correct_response": "b", "trial_id": "stroop-trial-1-unrelated-17", "trial_type": "html-keyboard-response", "trial_index": 202, "time_elapsed": 392455, "internal_node_id": "0.0-8.0-16.0"}}, {"uniqueid": "w78492992:a63445730", "current_trial": 203, "dateTime": 1664555307352, "trialdata": {"rt": 2021, "stimulus": "<p id='stroop-text' class='stroop-red'>GREEN</p>", "response": "r", "stimulus-type": "incongruent", "word": "green", "color": "red", "correct_response": "r", "trial_id": "stroop-trial-1-incongruent-1", "trial_type": "html-keyboard-response", "trial_index": 203, "time_elapsed": 394982, "internal_node_id": "0.0-8.0-17.0"}}, {"uniqueid": "w78492992:a63445730", "current_trial": 204, "dateTime": 1664555308728, "trialdata": {"rt": 865, "stimulus": "<p id='stroop-text' class='stroop-green'>RED</p>", "response": "g", "stimulus-type": "incongruent", "word": "red", "color": "green", "correct_response": "g", "trial_id": "stroop-trial-1-incongruent-17", "trial_type": "html-keyboard-response", "trial_index": 204, "time_elapsed": 396358, "internal_node_id": "0.0-8.0-18.0"}}, {"uniqueid": "w78492992:a63445730", "current_trial": 205, "dateTime": 1664555309832, "trialdata": {"rt": 593, "stimulus": "<p id='stroop-text' class='stroop-yellow'>YELLOW</p>", "response": "y", "stimulus-type": "congruent", "word": "yellow", "color": "yellow", "correct_response": "y", "trial_id": "stroop-trial-1-congruent-27", "trial_type": "html-keyboard-response", "trial_index": 205, "time_elapsed": 397462, "internal_node_id": "0.0-8.0-19.0"}}, {"uniqueid": "w78492992:a63445730", "current_trial": 206, "dateTime": 1664555310984, "trialdata": {"rt": 639, "stimulus": "<p id='stroop-text' class='stroop-red'>RED</p>", "response": "r", "stimulus-type": "congruent", "word": "red", "color": "red", "correct_response": "r", "trial_id": "stroop-trial-1-congruent-22", "trial_type": "html-keyboard-response", "trial_index": 206, "time_elapsed": 398614, "internal_node_id": "0.0-8.0-20.0"}}, {"uniqueid": "w78492992:a63445730", "current_trial": 207, "dateTime": 1664555312025, "trialdata": {"rt": 526, "stimulus": "<p id='stroop-text' class='stroop-green'>GREEN</p>", "response": "g", "stimulus-type": "congruent", "word": "green", "color": "green", "correct_response": "g", "trial_id": "stroop-trial-1-congruent-9", "trial_type": "html-keyboard-response", "trial_index": 207, "time_elapsed": 399655, "internal_node_id": "0.0-8.0-21.0"}}, {"uniqueid": "w78492992:a63445730", "current_trial": 208, "dateTime": 1664555313256, "trialdata": {"rt": 709, "stimulus": "<p id='stroop-text' class='stroop-green'>YELLOW</p>", "response": "g", "stimulus-type": "incongruent", "word": "yellow", "color": "green", "correct_response": "g", "trial_id": "stroop-trial-1-incongruent-16", "trial_type": "html-keyboard-response", "trial_index": 208, "time_elapsed": 400886, "internal_node_id": "0.0-8.0-22.0"}}, {"uniqueid": "w78492992:a63445730", "current_trial": 209, "dateTime": 1664555314520, "trialdata": {"rt": 743, "stimulus": "<p id='stroop-text' class='stroop-blue'>SHIP</p>", "response": "b", "stimulus-type": "unrelated", "word": "SHIP", "color": "blue", "correct_response": "b", "trial_id": "stroop-trial-1-unrelated-6", "trial_type": "html-keyboard-response", "trial_index": 209, "time_elapsed": 402150, "internal_node_id": "0.0-8.0-23.0"}}, {"uniqueid": "w78492992:a63445730", "current_trial": 210, "dateTime": 1664555315720, "trialdata": {"rt": 682, "stimulus": "<p id='stroop-text' class='stroop-yellow'>YELLOW</p>", "response": "y", "stimulus-type": "congruent", "word": "yellow", "color": "yellow", "correct_response": "y", "trial_id": "stroop-trial-1-congruent-15", "trial_type": "html-keyboard-response", "trial_index": 210, "time_elapsed": 403351, "internal_node_id": "0.0-8.0-24.0"}}, {"uniqueid": "w78492992:a63445730", "current_trial": 211, "dateTime": 1664555316856, "trialdata": {"rt": 620, "stimulus": "<p id='stroop-text' class='stroop-red'>WINDOW</p>", "response": "r", "stimulus-type": "unrelated", "word": "WINDOW", "color": "red", "correct_response": "r", "trial_id": "stroop-trial-1-unrelated-11", "trial_type": "html-keyboard-response", "trial_index": 211, "time_elapsed": 404486, "internal_node_id": "0.0-8.0-25.0"}}, {"uniqueid": "w78492992:a63445730", "current_trial": 212, "dateTime": 1664555317991, "trialdata": {"rt": 621, "stimulus": "<p id='stroop-text' class='stroop-red'>RED</p>", "response": "r", "stimulus-type": "congruent", "word": "red", "color": "red", "correct_response": "r", "trial_id": "stroop-trial-1-congruent-2", "trial_type": "html-keyboard-response", "trial_index": 212, "time_elapsed": 405621, "internal_node_id": "0.0-8.0-26.0"}}, {"uniqueid": "w78492992:a63445730", "current_trial": 213, "dateTime": 1664555319177, "trialdata": {"rt": 677, "stimulus": "<p id='stroop-text' class='stroop-blue'>BRIDGE</p>", "response": "b", "stimulus-type": "unrelated", "word": "BRIDGE", "color": "blue", "correct_response": "b", "trial_id": "stroop-trial-1-unrelated-30", "trial_type": "html-keyboard-response", "trial_index": 213, "time_elapsed": 406807, "internal_node_id": "0.0-8.0-27.0"}}, {"uniqueid": "w78492992:a63445730", "current_trial": 214, "dateTime": 1664555320440, "trialdata": {"rt": 755, "stimulus": "<p id='stroop-text' class='stroop-green'>GREEN</p>", "response": "g", "stimulus-type": "congruent", "word": "green", "color": "green", "correct_response": "g", "trial_id": "stroop-trial-1-congruent-16", "trial_type": "html-keyboard-response", "trial_index": 214, "time_elapsed": 408070, "internal_node_id": "0.0-8.0-28.0"}}, {"uniqueid": "w78492992:a63445730", "current_trial": 215, "dateTime": 1664555321607, "trialdata": {"rt": 659, "stimulus": "<p id='stroop-text' class='stroop-red'>GREEN</p>", "response": "r", "stimulus-type": "incongruent", "word": "green", "color": "red", "correct_response": "r", "trial_id": "stroop-trial-1-incongruent-5", "trial_type": "html-keyboard-response", "trial_index": 215, "time_elapsed": 409237, "internal_node_id": "0.0-8.0-29.0"}}, {"uniqueid": "w78492992:a63445730", "current_trial": 216, "dateTime": 1664555323016, "trialdata": {"rt": 900, "stimulus": "<p id='stroop-text' class='stroop-red'>SHIP</p>", "response": "r", "stimulus-type": "unrelated", "word": "SHIP", "color": "red", "correct_response": "r", "trial_id": "stroop-trial-1-unrelated-9", "trial_type": "html-keyboard-response", "trial_index": 216, "time_elapsed": 410646, "internal_node_id": "0.0-8.0-30.0"}}, {"uniqueid": "w78492992:a63445730", "current_trial": 217, "dateTime": 1664555324216, "trialdata": {"rt": 692, "stimulus": "<p id='stroop-text' class='stroop-yellow'>BRAIN</p>", "response": "y", "stimulus-type": "unrelated", "word": "BRAIN", "color": "yellow", "correct_response": "y", "trial_id": "stroop-trial-1-unrelated-5", "trial_type": "html-keyboard-response", "trial_index": 217, "time_elapsed": 411847, "internal_node_id": "0.0-8.0-31.0"}}, {"uniqueid": "w78492992:a63445730", "current_trial": 218, "dateTime": 1664555326632, "trialdata": {"rt": 1907, "stimulus": "<p id='stroop-text' class='stroop-green'>SHIP</p>", "response": "g", "stimulus-type": "unrelated", "word": "SHIP", "color": "green", "correct_response": "g", "trial_id": "stroop-trial-1-unrelated-19", "trial_type": "html-keyboard-response", "trial_index": 218, "time_elapsed": 414262, "internal_node_id": "0.0-8.0-32.0"}}, {"uniqueid": "w78492992:a63445730", "current_trial": 219, "dateTime": 1664555328007, "trialdata": {"rt": 863, "stimulus": "<p id='stroop-text' class='stroop-blue'>RED</p>", "response": "b", "stimulus-type": "incongruent", "word": "red", "color": "blue", "correct_response": "b", "trial_id": "stroop-trial-1-incongruent-8", "trial_type": "html-keyboard-response", "trial_index": 219, "time_elapsed": 415638, "internal_node_id": "0.0-8.0-33.0"}}, {"uniqueid": "w78492992:a63445730", "current_trial": 220, "dateTime": 1664555329143, "trialdata": {"rt": 621, "stimulus": "<p id='stroop-text' class='stroop-red'>RED</p>", "response": "r", "stimulus-type": "congruent", "word": "red", "color": "red", "correct_response": "r", "trial_id": "stroop-trial-1-congruent-8", "trial_type": "html-keyboard-response", "trial_index": 220, "time_elapsed": 416774, "internal_node_id": "0.0-8.0-34.0"}}, {"uniqueid": "w78492992:a63445730", "current_trial": 221, "dateTime": 1664555330968, "trialdata": {"rt": 1306, "stimulus": "<p id='stroop-text' class='stroop-blue'>GREEN</p>", "response": "g", "stimulus-type": "incongruent", "word": "green", "color": "blue", "correct_response": "b", "trial_id": "stroop-trial-1-incongruent-9", "trial_type": "html-keyboard-response", "trial_index": 221, "time_elapsed": 418598, "internal_node_id": "0.0-8.0-35.0"}}, {"uniqueid": "w78492992:a63445730", "current_trial": 222, "dateTime": 1664555332200, "trialdata": {"rt": 723, "stimulus": "<p id='stroop-text' class='stroop-yellow'>YELLOW</p>", "response": "y", "stimulus-type": "congruent", "word": "yellow", "color": "yellow", "correct_response": "y", "trial_id": "stroop-trial-1-congruent-1", "trial_type": "html-keyboard-response", 