{"condition": 1, "counterbalance": 0, "assignmentId": "a93225506", "workerId": "w90472148", "hitId": "h39049697", "currenttrial": 10, "bonus": 0, "data": [{"uniqueid": "w90472148:a93225506", "current_trial": 0, "dateTime": 1664467156549, "trialdata": {"success": true, "trial_type": "fullscreen", "trial_index": 0, "time_elapsed": 3525, "internal_node_id": "0.0-0.0"}}, {"uniqueid": "w90472148:a93225506", "current_trial": 1, "dateTime": 1664467157749, "trialdata": {"view_history": [{"page_index": 0, "viewing_time": 1196}], "rt": 1196, "trial_id": "exp_instructions_no_distractor", "trial_type": "instructions", "trial_index": 1, "time_elapsed": 4726, "internal_node_id": "0.0-1.0"}}, {"uniqueid": "w90472148:a93225506", "current_trial": 2, "dateTime": 1664467161500, "trialdata": {"success": true, "trial_type": "fullscreen", "trial_index": 2, "time_elapsed": 8477, "internal_node_id": "0.0-2.0-0.0"}}, {"uniqueid": "w90472148:a93225506", "current_trial": 3, "dateTime": 1664467187718, "trialdata": {"view_history": [{"page_index": 0, "viewing_time": 19102}, {"page_index": 1, "viewing_time": 3295}, {"page_index": 2, "viewing_time": 1754}, {"page_index": 3, "viewing_time": 1175}, {"page_index": 4, "viewing_time": 888}], "rt": 26214, "trial_id": "mouselab_instructions_1", "trial_type": "instructions", "trial_index": 3, "time_elapsed": 34694, "internal_node_id": "0.0-2.0-1.0"}}, {"uniqueid": "w90472148:a93225506", "current_trial": 4, "dateTime": 1664467197073, "trialdata": {"revealed_states": [], "num_clicks_accrued": [0, 0, 0, 0, 0, 0, 0, 0, 0, 0, 0, 0, 0], "stateRewards": ["", 10, 10, -10, -10, 10, 10, -10, 10, -10, -10, -10, 10], "withholdReward": false, "trial_id": "practice_1", "block": "test", "trialIndex": 0, "score": 11.5, "costs": -0.5, "simulationMode": [null, null, null], "rewards": [10, 10, -10], "path": ["0", "0", "1", "2", "4"], "rt": [4918, 11, 44], "actions": ["up", "up", "left"], "actionTimes": [6182, 6712, 7277], "queries": {"click": {"state": {"target": ["1", "3"], "time": [2354, 4068]}, "edge": {"target": [], "time": []}}, "mouseover": {"state": {"target": ["0", "1", "2", "3", "5"], "time": [1801, 1868, 2683, 3884, 4600]}, "edge": {"target": [], "time": []}}, "mouseout": {"state": {"target": ["0", "0", "1", "2", "3", "5"], "time": [1553, 1818, 2617, 3833, 4266, 5399]}, "edge": {"target": [], "time": []}}}, "displayed_time": "7.78", "trialTime": 9123, "trial_type": "mouselab-mdp", "trial_index": 4, "time_elapsed": 44049, "internal_node_id": "0.0-2.0-2.0-0.0"}}, {"uniqueid": "w90472148:a93225506", "current_trial": 5, "dateTime": 1664467202500, "trialdata": {"revealed_states": [], "num_clicks_accrued": [0, 0, 0, 0, 0, 0, 0, 0, 0, 0, 0, 0, 0], "stateRewards": ["", -10, -10, 10, 10, -10, 10, 10, 10, 10, -10, 10, 10], "withholdReward": false, "trial_id": "practice_2", "block": "test", "trialIndex": 1, "score": -8, "costs": 0, "simulationMode": [null, null, null], "rewards": [-10, -10, 10], "path": ["0", "0", "1", "2", "3"], "rt": [840, 72, 290], "actions": ["up", "up", "right"], "actionTimes": [1926, 2506, 3306], "queries": {"click": {"state": {"target": [], "time": []}, "edge": {"target": [], "time": []}}, "mouseover": {"state": {"target": [], "time": []}, "edge": {"target": [], "time": []}}, "mouseout": {"state": {"target": ["0", "9"], "time": [4314, 4334]}, "edge": {"target": [], "time": []}}}, "displayed_time": "3.82", "trialTime": 5336, "trial_type": "mouselab-mdp", "trial_index": 5, "time_elapsed": 49477, "internal_node_id": "0.0-2.0-2.0-1.0"}}, {"uniqueid": "w90472148:a93225506", "current_trial": 6, "dateTime": 1664467206717, "trialdata": {"view_history": [{"page_index": 0, "viewing_time": 1335}, {"page_index": 1, "viewing_time": 2010}, {"page_index": 2, "viewing_time": 871}], "rt": 4216, "trial_id": "mouselab_instructions_2_scarce", "trial_type": "instructions", "trial_index": 6, "time_elapsed": 53694, "internal_node_id": "0.0-2.0-3.0"}}, {"uniqueid": "w90472148:a93225506", "current_trial": 7, "dateTime": 1664467228871, "trialdata": {"rt": 22150, "response": {"Q0": "$-48 to $48", "Q1": "The cost is always $0.25.", "Q2": "The better I perform the higher my bonus will be.", "Q3": "No, the amount of cash at each node of the web may be different each time.", "Q4": "The values of the nodes walked through from start to finish.", "Q5": "No, the spider might forget to count the money on some rounds."}, "question_order": [0, 1, 2, 3, 4, 5], "correct": {"Q0": "$-48 to $48", "Q1": "The cost is always $0.25.", "Q2": "The better I perform the higher my bonus will be.", "Q3": "No, the amount of cash at each node of the web may be different each time.", "Q4": "The values of the nodes walked through from start to finish.", "Q5": "No, the spider might forget to count the money on some rounds."}, "trial_id": "mouselab_quiz_scarce", "trial_type": "survey-multi-choice", "trial_index": 7, "time_elapsed": 75848, "internal_node_id": "0.0-2.0-4.0"}}, {"uniqueid": "w90472148:a93225506", "current_trial": 8, "dateTime": 1664467231272, "trialdata": {"rt": 2392, "stimulus": "\n<h1> Get ready to start the game! </h1>\n\nThank you for reading the instructions. Get ready start with the first of 4 block(s) of this game.\n<br><br>\nIn this first block, you will complete 30 rounds of this game before moving on.\n<br><br>\nRemember, the more money the spider gets, the bigger your bonus will be!\n<br><br>\n<div style='text-align: center;'>Press <code>space</code> to begin.</div>\n\n<br><br>\n(If, at any point, the <code>space</code> key does not take you to the next page, click once on the text and try again.)", "response": " ", "trial_id": "mdp_ready_1", "trial_type": "html-keyboard-response", "trial_index": 8, "time_elapsed": 78247, "internal_node_id": "0.0-4.0-0.0"}}, {"uniqueid": "w90472148:a93225506", "current_trial": 9, "dateTime": 1664467250695, "trialdata": {"revealed_states": [], "num_clicks_accrued": [0, 0, 0, 0, 0, 0, 0, 0, 0, 0, 0, 0, 0], "stateRewards": ["", -4, 8, 24, 24, -2, 8, -48, 48, 4, -8, 48, -48], "withholdReward": true, "trial_id": "mdp_295249220524", "block": "test1", "trialIndex": 2, "score": 31.75, "costs": -1.25, "simulationMode": [null, null, null], "rewards": [-4, 8, 24], "path": ["0", "0", "1", "2", "3"], "rt": [13084, 262, 446], "actions": ["up", "up", "right"], "actionTimes": [15456, 16235, 17185], "queries": {"click": {"state": {"target": ["5", "6", "9", "10", "1"], "time": [4409, 6585, 9601, 12233, 13081]}, "edge": {"target": [], "time": []}}, "mouseover": {"state": {"target": ["5", "6", "0", "9", "10", "1", "1"], "time": [2910, 6041, 9273, 9472, 12105, 12805, 12972]}, "edge": {"target": [], "time": []}}, "mouseout": {"state": {"target": ["0", "5", "6", "5", "0", "9", "10", "9", "1", "1"], "time": [2875, 4607, 9135, 9256, 9373, 11939, 12489, 12588, 12839, 13338]}, "edge": {"target": [], "time": []}}}, "displayed_time": "17.71", "trialTime": 19335, "trial_type": "mouselab-mdp", "trial_index": 9, "time_elapsed": 97671, "internal_node_id": "0.0-4.0-1.0-0.0"}}], "questiondata": {"params": {"CODE": "C6DMOQA6", "MIN_TIME": 7, "inspectCost": 0.25, "startTime": "Thu Sep 29 2022 17:59:12 GMT+0200 (heure d\u2019\u00e9t\u00e9 d\u2019Europe centrale)", "bonusRate": 0.002, "variance": "2_4_24", "branching": "312"}}, "eventdata": [{"eventtype": "initialized", "value": null, "timestamp": 1664467152274, "interval": 0}, {"eventtype": "window_resize", "value": [1025, 643], "timestamp": 1664467152274, "interval": 0}, {"eventtype": "focus", "value": "on", "timestamp": 1664467152349, "interval": 75}, {"eventtype": "window_resize", "value": [1025, 643], "timestamp": 1664467152549, "interval": 200}, {"eventtype": "window_resize", "value": [1280, 720], "timestamp": 1664467155986, "interval": 3437}, {"eventtype": "window_resize", "value": [1025, 643], "timestamp": 1664467168712, "interval": 12726}, {"eventtype": "focus", "value": "off", "timestamp": 1664467170426, "interval": 1714}, {"eventtype": "focus", "value": "on", "timestamp": 1664467177453, "interval": 7027}, {"eventtype": "window_resize", "value": [1280, 657], "timestamp": 1664467179316, "interval": 1863}, {"eventtype": "window_resize", "value": [1152, 591], "timestamp": 1664467214724, "interval": 35408}, {"eventtype": "window_resize", "value": [1280, 657], "timestamp": 1664467215297, "interval": 573}], "useragent": "Mozilla/5.0 (Windows NT 10.0; Win64; x64; rv:105.0) Gecko/20100101 Firefox/105.0", "mode": "debug", "id": "w90472148:a93225506", "status": "user data saved", "Beginhit": "2022-09-29 15:59:10.231516", "Beginexp": "2022-09-29 15:59:15.553203", "Endhit": null, "psiturkStatus": 2, "browser": "<redacted>", "platform": "windows", "language": "fr"}