{"condition": 0, "counterbalance": 0, "assignmentId": "a24960593", "workerId": "w73367762", "hitId": "h18792430", "currenttrial": 970, "bonus": 0, "data": [{"uniqueid": "w73367762:a24960593", "current_trial": 0, "dateTime": 1664555007540, "trialdata": {"success": true, "trial_type": "fullscreen", "trial_index": 0, "time_elapsed": 4645, "internal_node_id": "0.0-0.0"}}, {"uniqueid": "w73367762:a24960593", "current_trial": 1, "dateTime": 1664555035005, "trialdata": {"view_history": [{"page_index": 0, "viewing_time": 27456}], "rt": 27459, "trial_id": "exp_instructions_distractor", "trial_type": "instructions", "trial_index": 1, "time_elapsed": 32110, "internal_node_id": "0.0-1.0"}}, {"uniqueid": "w73367762:a24960593", "current_trial": 2, "dateTime": 1664555054066, "trialdata": {"view_history": [{"page_index": 0, "viewing_time": 19053}], "rt": 19053, "trial_id": "color_game_instructions", "trial_type": "instructions", "trial_index": 2, "time_elapsed": 51170, "internal_node_id": "0.0-2.0"}}, {"uniqueid": "w73367762:a24960593", "current_trial": 3, "dateTime": 1664555058532, "trialdata": {"rt": 4463, "stimulus": "<h1> Get ready to start the game! </h1>\n\nThank you for reading the instructions. Get ready start with the first of 5 block(s) of this game.\n<br><br>\nIn this first block, you will complete 90 rounds of this game before moving on.\n<br><br>\nRemember, the better you perform, the bigger your bonus will be!\n<br><br>\n<div style='text-align: center;'>Press <code>space</code> to begin.</div>", "response": " ", "trial_id": "stroop_1_ready_1", "trial_type": "html-keyboard-response", "trial_index": 3, "time_elapsed": 55636, "internal_node_id": "0.0-3.0"}}, {"uniqueid": "w73367762:a24960593", "current_trial": 4, "dateTime": 1664555060488, "trialdata": {"rt": 1944, "stimulus": "<p id='stroop-text' class='stroop-blue'>GREEN</p>", "response": "b", "stimulus-type": "incongruent", "word": "green", "color": "blue", "correct_response": "b", "trial_id": "stroop-trial-1-incongruent-29", "trial_type": "html-keyboard-response", "trial_index": 4, "time_elapsed": 57592, "internal_node_id": "0.0-4.0-0.0"}}, {"uniqueid": "w73367762:a24960593", "current_trial": 5, "dateTime": 1664555062309, "trialdata": {"rt": 1316, "stimulus": "<p id='stroop-text' class='stroop-yellow'>WINDOW</p>", "response": "y", "stimulus-type": "unrelated", "word": "WINDOW", "color": "yellow", "correct_response": "y", "trial_id": "stroop-trial-1-unrelated-12", "trial_type": "html-keyboard-response", "trial_index": 5, "time_elapsed": 59413, "internal_node_id": "0.0-4.0-1.0"}}, {"uniqueid": "w73367762:a24960593", "current_trial": 6, "dateTime": 1664555063753, "trialdata": {"rt": 935, "stimulus": "<p id='stroop-text' class='stroop-yellow'>RED</p>", "response": "y", "stimulus-type": "incongruent", "word": "red", "color": "yellow", "correct_response": "y", "trial_id": "stroop-trial-1-incongruent-10", "trial_type": "html-keyboard-response", "trial_index": 6, "time_elapsed": 60858, "internal_node_id": "0.0-4.0-2.0"}}, {"uniqueid": "w73367762:a24960593", "current_trial": 7, "dateTime": 1664555065993, "trialdata": {"rt": 1735, "stimulus": "<p id='stroop-text' class='stroop-green'>STONE</p>", "response": "g", "stimulus-type": "unrelated", "word": "STONE", "color": "green", "correct_response": "g", "trial_id": "stroop-trial-1-unrelated-27", "trial_type": "html-keyboard-response", "trial_index": 7, "time_elapsed": 63097, "internal_node_id": "0.0-4.0-3.0"}}, {"uniqueid": "w73367762:a24960593", "current_trial": 8, "dateTime": 1664555067122, "trialdata": {"rt": 624, "stimulus": "<p id='stroop-text' class='stroop-green'>GREEN</p>", "response": "g", "stimulus-type": "congruent", "word": "green", "color": "green", "correct_response": "g", "trial_id": "stroop-trial-1-congruent-6", "trial_type": "html-keyboard-response", "trial_index": 8, "time_elapsed": 64226, "internal_node_id": "0.0-4.0-4.0"}}, {"uniqueid": "w73367762:a24960593", "current_trial": 9, "dateTime": 1664555068764, "trialdata": {"rt": 1136, "stimulus": "<p id='stroop-text' class='stroop-blue'>GREEN</p>", "response": "b", "stimulus-type": "incongruent", "word": "green", "color": "blue", "correct_response": "b", "trial_id": "stroop-trial-1-incongruent-30", "trial_type": "html-keyboard-response", "trial_index": 9, "time_elapsed": 65868, "internal_node_id": "0.0-4.0-5.0"}}, {"uniqueid": "w73367762:a24960593", "current_trial": 10, "dateTime": 1664555070690, "trialdata": {"rt": 1418, "stimulus": "<p id='stroop-text' class='stroop-red'>GREEN</p>", "response": "r", "stimulus-type": "incongruent", "word": "green", "color": "red", "correct_response": "r", "trial_id": "stroop-trial-1-incongruent-3", "trial_type": "html-keyboard-response", "trial_index": 10, "time_elapsed": 67794, "internal_node_id": "0.0-4.0-6.0"}}, {"uniqueid": "w73367762:a24960593", "current_trial": 11, "dateTime": 1664555072436, "trialdata": {"rt": 1240, "stimulus": "<p id='stroop-text' class='stroop-blue'>STONE</p>", "response": "b", "stimulus-type": "unrelated", "word": "STONE", "color": "blue", "correct_response": "b", "trial_id": "stroop-trial-1-unrelated-15", "trial_type": "html-keyboard-response", "trial_index": 11, "time_elapsed": 69540, "internal_node_id": "0.0-4.0-7.0"}}, {"uniqueid": "w73367762:a24960593", "current_trial": 12, "dateTime": 1664555074192, "trialdata": {"rt": 1253, "stimulus": "<p id='stroop-text' class='stroop-red'>BLUE</p>", "response": "r", "stimulus-type": "incongruent", "word": "blue", "color": "red", "correct_response": "r", "trial_id": "stroop-trial-1-incongruent-23", "trial_type": "html-keyboard-response", "trial_index": 12, "time_elapsed": 71297, "internal_node_id": "0.0-4.0-8.0"}}, {"uniqueid": "w73367762:a24960593", "current_trial": 13, "dateTime": 1664555075844, "trialdata": {"rt": 1145, "stimulus": "<p id='stroop-text' class='stroop-yellow'>GREEN</p>", "response": "y", "stimulus-type": "incongruent", "word": "green", "color": "yellow", "correct_response": "y", "trial_id": "stroop-trial-1-incongruent-17", "trial_type": "html-keyboard-response", "trial_index": 13, "time_elapsed": 72947, "internal_node_id": "0.0-4.0-9.0"}}, {"uniqueid": "w73367762:a24960593", "current_trial": 14, "dateTime": 1664555077072, "trialdata": {"rt": 719, "stimulus": "<p id='stroop-text' class='stroop-yellow'>YELLOW</p>", "response": "y", "stimulus-type": "congruent", "word": "yellow", "color": "yellow", "correct_response": "y", "trial_id": "stroop-trial-1-congruent-4", "trial_type": "html-keyboard-response", "trial_index": 14, "time_elapsed": 74176, "internal_node_id": "0.0-4.0-10.0"}}, {"uniqueid": "w73367762:a24960593", "current_trial": 15, "dateTime": 1664555078347, "trialdata": {"rt": 764, "stimulus": "<p id='stroop-text' class='stroop-yellow'>YELLOW</p>", "response": "y", "stimulus-type": "congruent", "word": "yellow", "color": "yellow", "correct_response": "y", "trial_id": "stroop-trial-1-congruent-23", "trial_type": "html-keyboard-response", "trial_index": 15, "time_elapsed": 75451, "internal_node_id": "0.0-4.0-11.0"}}, {"uniqueid": "w73367762:a24960593", "current_trial": 16, "dateTime": 1664555079778, "trialdata": {"rt": 925, "stimulus": "<p id='stroop-text' class='stroop-yellow'>BLUE</p>", "response": "y", "stimulus-type": "incongruent", "word": "blue", "color": "yellow", "correct_response": "y", "trial_id": "stroop-trial-1-incongruent-26", "trial_type": "html-keyboard-response", "trial_index": 16, "time_elapsed": 76881, "internal_node_id": "0.0-4.0-12.0"}}, {"uniqueid": "w73367762:a24960593", "current_trial": 17, "dateTime": 1664555081447, "trialdata": {"rt": 1164, "stimulus": "<p id='stroop-text' class='stroop-green'>STONE</p>", "response": "g", "stimulus-type": "unrelated", "word": "STONE", "color": "green", "correct_response": "g", "trial_id": "stroop-trial-1-unrelated-21", "trial_type": "html-keyboard-response", "trial_index": 17, "time_elapsed": 78551, "internal_node_id": "0.0-4.0-13.0"}}, {"uniqueid": "w73367762:a24960593", "current_trial": 18, "dateTime": 1664555082931, "trialdata": {"rt": 980, "stimulus": "<p id='stroop-text' class='stroop-red'>BLUE</p>", "response": "r", "stimulus-type": "incongruent", "word": "blue", "color": "red", "correct_response": "r", "trial_id": "stroop-trial-1-incongruent-4", "trial_type": "html-keyboard-response", "trial_index": 18, "time_elapsed": 80036, "internal_node_id": "0.0-4.0-14.0"}}, {"uniqueid": "w73367762:a24960593", "current_trial": 19, "dateTime": 1664555084459, "trialdata": {"rt": 1023, "stimulus": "<p id='stroop-text' class='stroop-red'>RED</p>", "response": "r", "stimulus-type": "congruent", "word": "red", "color": "red", "correct_response": "r", "trial_id": "stroop-trial-1-congruent-1", "trial_type": "html-keyboard-response", "trial_index": 19, "time_elapsed": 81564, "internal_node_id": "0.0-4.0-15.0"}}, {"uniqueid": "w73367762:a24960593", "current_trial": 20, "dateTime": 1664555085848, "trialdata": {"rt": 883, "stimulus": "<p id='stroop-text' class='stroop-yellow'>YELLOW</p>", "response": "y", "stimulus-type": "congruent", "word": "yellow", "color": "yellow", "correct_response": "y", "trial_id": "stroop-trial-1-congruent-5", "trial_type": "html-keyboard-response", "trial_index": 20, "time_elapsed": 82952, "internal_node_id": "0.0-4.0-16.0"}}, {"uniqueid": "w73367762:a24960593", "current_trial": 21, "dateTime": 1664555087206, "trialdata": {"rt": 850, "stimulus": "<p id='stroop-text' class='stroop-red'>RED</p>", "response": "r", "stimulus-type": "congruent", "word": "red", "color": "red", "correct_response": "r", "trial_id": "stroop-trial-1-congruent-27", "trial_type": "html-keyboard-response", "trial_index": 21, "time_elapsed": 84311, "internal_node_id": "0.0-4.0-17.0"}}, {"uniqueid": "w73367762:a24960593", "current_trial": 22, "dateTime": 1664555088899, "trialdata": {"rt": 1187, "stimulus": "<p id='stroop-text' class='stroop-green'>BLUE</p>", "response": "g", "stimulus-type": "incongruent", "word": "blue", "color": "green", "correct_response": "g", "trial_id": "stroop-trial-1-incongruent-16", "trial_type": "html-keyboard-response", "trial_index": 22, "time_elapsed": 86003, "internal_node_id": "0.0-4.0-18.0"}}, {"uniqueid": "w73367762:a24960593", "current_trial": 23, "dateTime": 1664555090367, "trialdata": {"rt": 961, "stimulus": "<p id='stroop-text' class='stroop-green'>WINDOW</p>", "response": "g", "stimulus-type": "unrelated", "word": "WINDOW", "color": "green", "correct_response": "g", "trial_id": "stroop-trial-1-unrelated-29", "trial_type": "html-keyboard-response", "trial_index": 23, "time_elapsed": 87471, "internal_node_id": "0.0-4.0-19.0"}}, {"uniqueid": "w73367762:a24960593", "current_trial": 24, "dateTime": 1664555092183, "trialdata": {"rt": 1307, "stimulus": "<p id='stroop-text' class='stroop-yellow'>CHAIR</p>", "response": "y", "stimulus-type": "unrelated", "word": "CHAIR", "color": "yellow", "correct_response": "y", "trial_id": "stroop-trial-1-unrelated-20", "trial_type": "html-keyboard-response", "trial_index": 24, "time_elapsed": 89288, "internal_node_id": "0.0-4.0-20.0"}}, {"uniqueid": "w73367762:a24960593", "current_trial": 25, "dateTime": 1664555093964, "trialdata": {"rt": 1274, "stimulus": "<p id='stroop-text' class='stroop-yellow'>RED</p>", "response": "y", "stimulus-type": "incongruent", "word": "red", "color": "yellow", "correct_response": "y", "trial_id": "stroop-trial-1-incongruent-1", "trial_type": "html-keyboard-response", "trial_index": 25, "time_elapsed": 91068, "internal_node_id": "0.0-4.0-21.0"}}, {"uniqueid": "w73367762:a24960593", "current_trial": 26, "dateTime": 1664555096297, "trialdata": {"rt": 1827, "stimulus": "<p id='stroop-text' class='stroop-red'>RED</p>", "response": "r", "stimulus-type": "congruent", "word": "red", "color": "red", "correct_response": "r", "trial_id": "stroop-trial-1-congruent-7", "trial_type": "html-keyboard-response", "trial_index": 26, "time_elapsed": 93401, "internal_node_id": "0.0-4.0-22.0"}}, {"uniqueid": "w73367762:a24960593", "current_trial": 27, "dateTime": 1664555097728, "trialdata": {"rt": 916, "stimulus": "<p id='stroop-text' class='stroop-yellow'>YELLOW</p>", "response": "y", "stimulus-type": "congruent", "word": "yellow", "color": "yellow", "correct_response": "y", "trial_id": "stroop-trial-1-congruent-8", "trial_type": "html-keyboard-response", "trial_index": 27, "time_elapsed": 94832, "internal_node_id": "0.0-4.0-23.0"}}, {"uniqueid": "w73367762:a24960593", "current_trial": 28, "dateTime": 1664555099113, "trialdata": {"rt": 880, "stimulus": "<p id='stroop-text' class='stroop-green'>GREEN</p>", "response": "g", "stimulus-type": "congruent", "word": "green", "color": "green", "correct_response": "g", "trial_id": "stroop-trial-1-congruent-25", "trial_type": "html-keyboard-response", "trial_index": 28, "time_elapsed": 96218, "internal_node_id": "0.0-4.0-24.0"}}, {"uniqueid": "w73367762:a24960593", "current_trial": 29, "dateTime": 1664555101133, "trialdata": {"rt": 1515, "stimulus": "<p id='stroop-text' class='stroop-green'>RED</p>", "response": "g", "stimulus-type": "incongruent", "word": "red", "color": "green", "correct_response": "g", "trial_id": "stroop-trial-1-incongruent-11", "trial_type": "html-keyboard-response", "trial_index": 29, "time_elapsed": 98238, "internal_node_id": "0.0-4.0-25.0"}}, {"uniqueid": "w73367762:a24960593", "current_trial": 30, "dateTime": 1664555103292, "trialdata": {"rt": 1653, "stimulus": "<p id='stroop-text' class='stroop-red'>BLUE</p>", "response": "r", "stimulus-type": "incongruent", "word": "blue", "color": "red", "correct_response": "r", "trial_id": "stroop-trial-1-incongruent-5", "trial_type": "html-keyboard-response", "trial_index": 30, "time_elapsed": 100396, "internal_node_id": "0.0-4.0-26.0"}}, {"uniqueid": "w73367762:a24960593", "current_trial": 31, "dateTime": 1664555104733, "trialdata": {"rt": 934, "stimulus": "<p id='stroop-text' class='stroop-yellow'>YELLOW</p>", "response": "y", "stimulus-type": "congruent", "word": "yellow", "color": "yellow", "correct_response": "y", "trial_id": "stroop-trial-1-congruent-28", "trial_type": "html-keyboard-response", "trial_index": 31, "time_elapsed": 101837, "internal_node_id": "0.0-4.0-27.0"}}, {"uniqueid": "w73367762:a24960593", "current_trial": 32, "dateTime": 1664555106196, "trialdata": {"rt": 958, "stimulus": "<p id='stroop-text' class='stroop-green'>GREEN</p>", "response": "g", "stimulus-type": "congruent", "word": "green", "color": "green", "correct_response": "g", "trial_id": "stroop-trial-1-congruent-20", "trial_type": "html-keyboard-response", "trial_index": 32, "time_elapsed": 103301, "internal_node_id": "0.0-4.0-28.0"}}, {"uniqueid": "w73367762:a24960593", "current_trial": 33, "dateTime": 1664555107875, "trialdata": {"rt": 1173, "stimulus": "<p id='stroop-text' class='stroop-yellow'>BRIDGE</p>", "response": "b", "stimulus-type": "unrelated", "word": "BRIDGE", "color": "yellow", "correct_response": "y", "trial_id": "stroop-trial-1-unrelated-6", "trial_type": "html-keyboard-response", "trial_index": 33, "time_elapsed": 104978, "internal_node_id": "0.0-4.0-29.0"}}, {"uniqueid": "w73367762:a24960593", "current_trial": 34, "dateTime": 1664555110961, "trialdata": {"rt": 2579, "stimulus": "<p id='stroop-text' class='stroop-green'>GREEN</p>", "response": "g", "stimulus-type": "congruent", "word": "green", "color": "green", "correct_response": "g", "trial_id": "stroop-trial-1-congruent-11", "trial_type": "html-keyboard-response", "trial_index": 34, "time_elapsed": 108065, "internal_node_id": "0.0-4.0-30.0"}}, {"uniqueid": "w73367762:a24960593", "current_trial": 35, "dateTime": 1664555112543, "trialdata": {"rt": 1079, "stimulus": "<p id='stroop-text' class='stroop-red'>RED</p>", "response": "r", "stimulus-type": "congruent", "word": "red", "color": "red", "correct_response": "r", "trial_id": "stroop-trial-1-congruent-18", "trial_type": "html-keyboard-response", "trial_index": 35, "time_elapsed": 109648, "internal_node_id": "0.0-4.0-31.0"}}, {"uniqueid": "w73367762:a24960593", "current_trial": 36, "dateTime": 1664555114337, "trialdata": {"rt": 1290, "stimulus": "<p id='stroop-text' class='stroop-red'>GREEN</p>", "response": "r", "stimulus-type": "incongruent", "word": "green", "color": "red", "correct_response": "r", "trial_id": "stroop-trial-1-incongruent-7", "trial_type": "html-keyboard-response", "trial_index": 36, "time_elapsed": 111441, "internal_node_id": "0.0-4.0-32.0"}}, {"uniqueid": "w73367762:a24960593", "current_trial": 37, "dateTime": 1664555117474, "trialdata": {"rt": 2629, "stimulus": "<p id='stroop-text' class='stroop-yellow'>BLUE</p>", "response": "y", "stimulus-type": "incongruent", "word": "blue", "color": "yellow", "correct_response": "y", "trial_id": "stroop-trial-1-incongruent-18", "trial_type": "html-keyboard-response", "trial_index": 37, "time_elapsed": 114579, "internal_node_id": "0.0-4.0-33.0"}}, {"uniqueid": "w73367762:a24960593", "current_trial": 38, "dateTime": 1664555119439, "trialdata": {"rt": 1461, "stimulus": "<p id='stroop-text' class='stroop-green'>GREEN</p>", "response": "g", "stimulus-type": "congruent", "word": "green", "color": "green", "correct_response": "g", "trial_id": "stroop-trial-1-congruent-19", "trial_type": "html-keyboard-response", "trial_index": 38, "time_elapsed": 116543, "internal_node_id": "0.0-4.0-34.0"}}, {"uniqueid": "w73367762:a24960593", "current_trial": 39, "dateTime": 1664555120791, "trialdata": {"rt": 847, "stimulus": "<p id='stroop-text' class='stroop-red'>GREEN</p>", "response": "r", "stimulus-type": "incongruent", "word": "green", "color": "red", "correct_response": "r", "trial_id": "stroop-trial-1-incongruent-13", "trial_type": "html-keyboard-response", "trial_index": 39, "time_elapsed": 117895, "internal_node_id": "0.0-4.0-35.0"}}, {"uniqueid": "w73367762:a24960593", "current_trial": 40, "dateTime": 1664555122717, "trialdata": {"rt": 1422, "stimulus": "<p id='stroop-text' class='stroop-blue'>YELLOW</p>", "response": "b", "stimulus-type": "incongruent", "word": "yellow", "color": "blue", "correct_response": "b", "trial_id": "stroop-trial-1-incongruent-27", "trial_type": "html-keyboard-response", "trial_index": 40, "time_elapsed": 119821, "internal_node_id": "0.0-4.0-36.0"}}, {"uniqueid": "w73367762:a24960593", "current_trial": 41, "dateTime": 1664555124524, "trialdata": {"rt": 1290, "stimulus": "<p id='stroop-text' class='stroop-yellow'>RED</p>", "response": "y", "stimulus-type": "incongruent", "word": "red", "color": "yellow", "correct_response": "y", "trial_id": "stroop-trial-1-incongruent-28", "trial_type": "html-keyboard-response", "trial_index": 41, "time_elapsed": 121629, "internal_node_id": "0.0-4.0-37.0"}}, {"uniqueid": "w73367762:a24960593", "current_trial": 42, "dateTime": 1664555126179, "trialdata": {"rt": 1152, "stimulus": "<p id='stroop-text' class='stroop-red'>BRIDGE</p>", "response": "r", "stimulus-type": "unrelated", "word": "BRIDGE", "color": "red", "correct_response": "r", "trial_id": "stroop-trial-1-unrelated-14", "trial_type": "html-keyboard-response", "trial_index": 42, "time_elapsed": 123284, "internal_node_id": "0.0-4.0-38.0"}}, {"uniqueid": "w73367762:a24960593", "current_trial": 43, "dateTime": 1664555127800, "trialdata": {"rt": 1119, "stimulus": "<p id='stroop-text' class='stroop-red'>RED</p>", "response": "r", "stimulus-type": "congruent", "word": "red", "color": "red", "correct_response": "r", "trial_id": "stroop-trial-1-congruent-12", "trial_type": "html-keyboard-response", "trial_index": 43, "time_elapsed": 124905, "internal_node_id": "0.0-4.0-39.0"}}, {"uniqueid": "w73367762:a24960593", "current_trial": 44, "dateTime": 1664555129856, "trialdata": {"rt": 1553, "stimulus": "<p id='stroop-text' class='stroop-blue'>BLUE</p>", "response": "b", "stimulus-type": "congruent", "word": "blue", "color": "blue", "correct_response": "b", "trial_id": "stroop-trial-1-congruent-29", "trial_type": "html-keyboard-response", "trial_index": 44, "time_elapsed": 126961, "internal_node_id": "0.0-4.0-40.0"}}, {"uniqueid": "w73367762:a24960593", "current_trial": 45, "dateTime": 1664555131936, "trialdata": {"rt": 1574, "stimulus": "<p id='stroop-text' class='stroop-red'>STONE</p>", "response": "r", "stimulus-type": "unrelated", "word": "STONE", "color": "red", "correct_response": "r", "trial_id": "stroop-trial-1-unrelated-2", "trial_type": "html-keyboard-response", "trial_index": 45, "time_elapsed": 129040, "internal_node_id": "0.0-4.0-41.0"}}, {"uniqueid": "w73367762:a24960593", "current_trial": 46, "dateTime": 1664555134689, "trialdata": {"rt": 2241, "stimulus": "<p id='stroop-text' class='stroop-blue'>CHAIR</p>", "response": "b", "stimulus-type": "unrelated", "word": "CHAIR", "color": "blue", "correct_response": "b", "trial_id": "stroop-trial-1-unrelated-10", "trial_type": "html-keyboard-response", "trial_index": 46, "time_elapsed": 131792, "internal_node_id": "0.0-4.0-42.0"}}, {"uniqueid": "w73367762:a24960593", "current_trial": 47, "dateTime": 1664555137006, "trialdata": {"rt": 1805, "stimulus": "<p id='stroop-text' class='stroop-red'>YELLOW</p>", "response": "r", "stimulus-type": "incongruent", "word": "yellow", "color": "red", "correct_response": "r", "trial_id": "stroop-trial-1-incongruent-20", "trial_type": "html-keyboard-response", "trial_index": 47, "time_elapsed": 134110, "internal_node_id": "0.0-4.0-43.0"}}, {"uniqueid": "w73367762:a24960593", "current_trial": 48, "dateTime": 1664555139241, "trialdata": {"rt": 1727, "stimulus": "<p id='stroop-text' class='stroop-blue'>RED</p>", "response": "b", "stimulus-type": "incongruent", "word": "red", "color": "blue", "correct_response": "b", "trial_id": "stroop-trial-1-incongruent-25", "trial_type": "html-keyboard-response", "trial_index": 48, "time_elapsed": 136345, "internal_node_id": "0.0-4.0-44.0"}}, {"uniqueid": "w73367762:a24960593", "current_trial": 49, "dateTime": 1664555140778, "trialdata": {"rt": 1029, "stimulus": "<p id='stroop-text' class='stroop-green'>BOAT</p>", "response": "g", "stimulus-type": "unrelated", "word": "BOAT", "color": "green", "correct_response": "g", "trial_id": "stroop-trial-1-unrelated-17", "trial_type": "html-keyboard-response", "trial_index": 49, "time_elapsed": 137882, "internal_node_id": "0.0-4.0-45.0"}}, {"uniqueid": "w73367762:a24960593", "current_trial": 50, "dateTime": 1664555142288, "trialdata": {"rt": 997, "stimulus": "<p id='stroop-text' class='stroop-yellow'>YELLOW</p>", "response": "y", "stimulus-type": "congruent", "word": "yellow", "color": "yellow", "correct_response": "y", "trial_id": "stroop-trial-1-congruent-22", "trial_type": "html-keyboard-response", "trial_index": 50, "time_elapsed": 139391, "internal_node_id": "0.0-4.0-46.0"}}, {"uniqueid": "w73367762:a24960593", "current_trial": 51, "dateTime": 1664555144642, "trialdata": {"rt": 1832, "stimulus": "<p id='stroop-text' class='stroop-green'>GREEN</p>", "response": "g", "stimulus-type": "congruent", "word": "green", "color": "green", "correct_response": "g", "trial_id": "stroop-trial-1-congruent-21", "trial_type": "html-keyboard-response", "trial_index": 51, "time_elapsed": 141746, "internal_node_id": "0.0-4.0-47.0"}}, {"uniqueid": "w73367762:a24960593", "current_trial": 52, "dateTime": 1664555146128, "trialdata": {"rt": 978, "stimulus": "<p id='stroop-text' class='stroop-blue'>STONE</p>", "response": "b", "stimulus-type": "unrelated", "word": "STONE", "color": "blue", "correct_response": "b", "trial_id": "stroop-trial-1-unrelated-18", "trial_type": "html-keyboard-response", "trial_index": 52, "time_elapsed": 143232, "internal_node_id": "0.0-4.0-48.0"}}, {"uniqueid": "w73367762:a24960593", "current_trial": 53, "dateTime": 1664555148473, "trialdata": {"rt": 1836, "stimulus": "<p id='stroop-text' class='stroop-blue'>RED</p>", "response": "b", "stimulus-type": "incongruent", "word": "red", "color": "blue", "correct_response": "b", "trial_id": "stroop-trial-1-incongruent-2", "trial_type": "html-keyboard-response", "trial_index": 53, "time_elapsed": 145576, "internal_node_id": "0.0-4.0-49.0"}}, {"uniqueid": "w73367762:a24960593", "current_trial": 54, "dateTime": 1664555149981, "trialdata": {"rt": 998, "stimulus": "<p id='stroop-text' class='stroop-yellow'>RED</p>", "response": "y", "stimulus-type": "incongruent", "word": "red", "color": "yellow", "correct_response": "y", "trial_id": "stroop-trial-1-incongruent-21", "trial_type": "html-keyboard-response", "trial_index": 54, "time_elapsed": 147086, "internal_node_id": "0.0-4.0-50.0"}}, {"uniqueid": "w73367762:a24960593", "current_trial": 55, "dateTime": 1664555152136, "trialdata": {"rt": 1645, "stimulus": "<p id='stroop-text' class='stroop-red'>SHIP</p>", "response": "r", "stimulus-type": "unrelated", "word": "SHIP", "color": "red", "correct_response": "r", "trial_id": "stroop-trial-1-unrelated-5", "trial_type": "html-keyboard-response", "trial_index": 55, "time_elapsed": 149240, "internal_node_id": "0.0-4.0-51.0"}}, {"uniqueid": "w73367762:a24960593", "current_trial": 56, "dateTime": 1664555156049, "trialdata": {"rt": 3405, "stimulus": "<p id='stroop-text' class='stroop-green'>BRAIN</p>", "response": "g", "stimulus-type": "unrelated", "word": "BRAIN", "color": "green", "correct_response": "g", "trial_id": "stroop-trial-1-unrelated-26", "trial_type": "html-keyboard-response", "trial_index": 56, "time_elapsed": 153154, "internal_node_id": "0.0-4.0-52.0"}}, {"uniqueid": "w73367762:a24960593", "current_trial": 57, "dateTime": 1664555158370, "trialdata": {"rt": 1813, "stimulus": "<p id='stroop-text' class='stroop-yellow'>YELLOW</p>", "response": "y", "stimulus-type": "congruent", "word": "yellow", "color": "yellow", "correct_response": "y", "trial_id": "stroop-trial-1-congruent-30", "trial_type": "html-keyboard-response", "trial_index": 57, "time_elapsed": 155474, "internal_node_id": "0.0-4.0-53.0"}}, {"uniqueid": "w73367762:a24960593", "current_trial": 58, "dateTime": 1664555160015, "trialdata": {"rt": 1138, "stimulus": "<p id='stroop-text' class='stroop-red'>STONE</p>", "response": "r", "stimulus-type": "unrelated", "word": "STONE", "color": "red", "correct_response": "r", "trial_id": "stroop-trial-1-unrelated-28", "trial_type": "html-keyboard-response", "trial_index": 58, "time_elapsed": 157119, "internal_node_id": "0.0-4.0-54.0"}}, {"uniqueid": "w73367762:a24960593", "current_trial": 59, "dateTime": 1664555162321, "trialdata": {"rt": 1794, "stimulus": "<p id='stroop-text' class='stroop-yellow'>FORK</p>", "response": "y", "stimulus-type": "unrelated", "word": "FORK", "color": "yellow", "correct_response": "y", "trial_id": "stroop-trial-1-unrelated-13", "trial_type": "html-keyboard-response", "trial_index": 59, "time_elapsed": 159425, "internal_node_id": "0.0-4.0-55.0"}}, {"uniqueid": "w73367762:a24960593", "current_trial": 60, "dateTime": 1664555164866, "trialdata": {"rt": 2037, "stimulus": "<p id='stroop-text' class='stroop-blue'>BRAIN</p>", "response": "b", "stimulus-type": "unrelated", "word": "BRAIN", "color": "blue", "correct_response": "b", "trial_id": "stroop-trial-1-unrelated-22", "trial_type": "html-keyboard-response", "trial_index": 60, "time_elapsed": 161970, "internal_node_id": "0.0-4.0-56.0"}}, {"uniqueid": "w73367762:a24960593", "current_trial": 61, "dateTime": 1664555167275, "trialdata": {"rt": 1899, "stimulus": "<p id='stroop-text' class='stroop-green'>FORK</p>", "response": "g", "stimulus-type": "unrelated", "word": "FORK", "color": "green", "correct_response": "g", "trial_id": "stroop-trial-1-unrelated-4", "trial_type": "html-keyboard-response", "trial_index": 61, "time_elapsed": 164379, "internal_node_id": "0.0-4.0-57.0"}}, {"uniqueid": "w73367762:a24960593", "current_trial": 62, "dateTime": 1664555169112, "trialdata": {"rt": 1315, "stimulus": "<p id='stroop-text' class='stroop-yellow'>SHIP</p>", "response": "y", "stimulus-type": "unrelated", "word": "SHIP", "color": "yellow", "correct_response": "y", "trial_id": "stroop-trial-1-unrelated-19", "trial_type": "html-keyboard-response", "trial_index": 62, "time_elapsed": 166216, "internal_node_id": "0.0-4.0-58.0"}}, {"uniqueid": "w73367762:a24960593", "current_trial": 63, "dateTime": 1664555170819, "trialdata": {"rt": 1195, "stimulus": "<p id='stroop-text' class='stroop-red'>WINDOW</p>", "response": "r", "stimulus-type": "unrelated", "word": "WINDOW", "color": "red", "correct_response": "r", "trial_id": "stroop-trial-1-unrelated-23", "trial_type": "html-keyboard-response", "trial_index": 63, "time_elapsed": 167923, "internal_node_id": "0.0-4.0-59.0"}}, {"uniqueid": "w73367762:a24960593", "current_trial": 64, "dateTime": 1664555172410, "trialdata": {"rt": 1082, "stimulus": "<p id='stroop-text' class='stroop-yellow'>BLUE</p>", "response": "y", "stimulus-type": "incongruent", "word": "blue", "color": "yellow", "correct_response": "y", "trial_id": "stroop-trial-1-incongruent-15", "trial_type": "html-keyboard-response", "trial_index": 64, "time_elapsed": 169514, "internal_node_id": "0.0-4.0-60.0"}}, {"uniqueid": "w73367762:a24960593", "current_trial": 65, "dateTime": 1664555173622, "trialdata": {"rt": 699, "stimulus": "<p id='stroop-text' class='stroop-red'>BRAIN</p>", "response": "r", "stimulus-type": "unrelated", "word": "BRAIN", "color": "red", "correct_response": "r", "trial_id": "stroop-trial-1-unrelated-7", "trial_type": "html-keyboard-response", "trial_index": 65, "time_elapsed": 170726, "internal_node_id": "0.0-4.0-61.0"}}, {"uniqueid": "w73367762:a24960593", "current_trial": 66, "dateTime": 1664555175076, "trialdata": {"rt": 949, "stimulus": "<p id='stroop-text' class='stroop-yellow'>RED</p>", "response": "y", "stimulus-type": "incongruent", "word": "red", "color": "yellow", "correct_response": "y", "trial_id": "stroop-trial-1-incongruent-8", "trial_type": "html-keyboard-response", "trial_index": 66, "time_elapsed": 172181, "internal_node_id": "0.0-4.0-62.0"}}, {"uniqueid": "w73367762:a24960593", "current_trial": 67, "dateTime": 1664555176329, "trialdata": {"rt": 747, "stimulus": "<p id='stroop-text' class='stroop-blue'>BLUE</p>", "response": "b", "stimulus-type": "congruent", "word": "blue", "color": "blue", "correct_response": "b", "trial_id": "stroop-trial-1-congruent-24", "trial_type": "html-keyboard-response", "trial_index": 67, "time_elapsed": 173433, "internal_node_id": "0.0-4.0-63.0"}}, {"uniqueid": "w73367762:a24960593", "current_trial": 68, "dateTime": 1664555178160, "trialdata": {"rt": 1322, "stimulus": "<p id='stroop-text' class='stroop-red'>RED</p>", "response": "r", "stimulus-type": "congruent", "word": "red", "color": "red", "correct_response": "r", "trial_id": "stroop-trial-1-congruent-14", "trial_type": "html-keyboard-response", "trial_index": 68, "time_elapsed": 175264, "internal_node_id": "0.0-4.0-64.0"}}, {"uniqueid": "w73367762:a24960593", "current_trial": 69, "dateTime": 1664555180512, "trialdata": {"rt": 1840, "stimulus": "<p id='stroop-text' class='stroop-green'>RED</p>", "response": "g", "stimulus-type": "incongruent", "word": "red", "color": "green", "correct_response": "g", "trial_id": "stroop-trial-1-incongruent-19", "trial_type": "html-keyboard-response", "trial_index": 69, "time_elapsed": 177616, "internal_node_id": "0.0-4.0-65.0"}}, {"uniqueid": "w73367762:a24960593", "current_trial": 70, "dateTime": 1664555182041, "trialdata": {"rt": 1020, "stimulus": "<p id='stroop-text' class='stroop-yellow'>GREEN</p>", "response": "y", "stimulus-type": "incongruent", "word": "green", "color": "yellow", "correct_response": "y", "trial_id": "stroop-trial-1-incongruent-9", "trial_type": "html-keyboard-response", "trial_index": 70, "time_elapsed": 179145, "internal_node_id": "0.0-4.0-66.0"}}, {"uniqueid": "w73367762:a24960593", "current_trial": 71, "dateTime": 1664555184120, "trialdata": {"rt": 1571, "stimulus": "<p id='stroop-text' class='stroop-green'>WINDOW</p>", "response": "g", "stimulus-type": "unrelated", "word": "WINDOW", "color": "green", "correct_response": "g", "trial_id": "stroop-trial-1-unrelated-3", "trial_type": "html-keyboard-response", "trial_index": 71, "time_elapsed": 181224, "internal_node_id": "0.0-4.0-67.0"}}, {"uniqueid": "w73367762:a24960593", "current_trial": 72, "dateTime": 1664555185601, "trialdata": {"rt": 972, "stimulus": "<p id='stroop-text' class='stroop-green'>GREEN</p>", "response": "g", "stimulus-type": "congruent", "word": "green", "color": "green", "correct_response": "g", "trial_id": "stroop-trial-1-congruent-26", "trial_type": "html-keyboard-response", "trial_index": 72, "time_elapsed": 182705, "internal_node_id": "0.0-4.0-68.0"}}, {"uniqueid": "w73367762:a24960593", "current_trial": 73, "dateTime": 1664555186880, "trialdata": {"rt": 770, "stimulus": "<p id='stroop-text' class='stroop-green'>GREEN</p>", "response": "g", "stimulus-type": "congruent", "word": "green", "color": "green", "correct_response": "g", "trial_id": "stroop-trial-1-congruent-16", "trial_type": "html-keyboard-response", "trial_index": 73, "time_elapsed": 183984, "internal_node_id": "0.0-4.0-69.0"}}, {"uniqueid": "w73367762:a24960593", "current_trial": 74, "dateTime": 1664555188704, "trialdata": {"rt": 1314, "stimulus": "<p id='stroop-text' class='stroop-blue'>YELLOW</p>", "response": "b", "stimulus-type": "incongruent", "word": "yellow", "color": "blue", "correct_response": "b", "trial_id": "stroop-trial-1-incongruent-6", "trial_type": "html-keyboard-response", "trial_index": 74, "time_elapsed": 185808, "internal_node_id": "0.0-4.0-70.0"}}, {"uniqueid": "w73367762:a24960593", "current_trial": 75, "dateTime": 1664555190175, "trialdata": {"rt": 955, "stimulus": "<p id='stroop-text' class='stroop-yellow'>STONE</p>", "response": "y", "stimulus-type": "unrelated", "word": "STONE", "color": "yellow", "correct_response": "y", "trial_id": "stroop-trial-1-unrelated-30", "trial_type": "html-keyboard-response", "trial_index": 75, "time_elapsed": 187279, "internal_node_id": "0.0-4.0-71.0"}}, {"uniqueid": "w73367762:a24960593", "current_trial": 76, "dateTime": 1664555191904, "trialdata": {"rt": 1221, "stimulus": "<p id='stroop-text' class='stroop-green'>BRIDGE</p>", "response": "g", "stimulus-type": "unrelated", "word": "BRIDGE", "color": "green", "correct_response": "g", "trial_id": "stroop-trial-1-unrelated-1", "trial_type": "html-keyboard-response", "trial_index": 76, "time_elapsed": 189009, "internal_node_id": "0.0-4.0-72.0"}}, {"uniqueid": "w73367762:a24960593", "current_trial": 77, "dateTime": 1664555194101, "trialdata": {"rt": 1692, "stimulus": "<p id='stroop-text' class='stroop-blue'>MONKEY</p>", "response": "b", "stimulus-type": "unrelated", "word": "MONKEY", "color": "blue", "correct_response": "b", "trial_id": "stroop-trial-1-unrelated-8", "trial_type": "html-keyboard-response", "trial_index": 77, "time_elapsed": 191205, "internal_node_id": "0.0-4.0-73.0"}}, {"uniqueid": "w73367762:a24960593", "current_trial": 78, "dateTime": 1664555195432, "trialdata": {"rt": 824, "stimulus": "<p id='stroop-text' class='stroop-blue'>BLUE</p>", "response": "b", "stimulus-type": "congruent", "word": "blue", "color": "blue", "correct_response": "b", "trial_id": "stroop-trial-1-congruent-15", "trial_type": "html-keyboard-response", "trial_index": 78, "time_elapsed": 192537, "internal_node_id": "0.0-4.0-74.0"}}, {"uniqueid": "w73367762:a24960593", "current_trial": 79, "dateTime": 1664555196845, "trialdata": {"rt": 906, "stimulus": "<p id='stroop-text' class='stroop-red'>RED</p>", "response": "r", "stimulus-type": "congruent", "word": "red", "color": "red", "correct_response": "r", "trial_id": "stroop-trial-1-congruent-17", "trial_type": "html-keyboard-response", "trial_index": 79, "time_elapsed": 193949, "internal_node_id": "0.0-4.0-75.0"}}, {"uniqueid": "w73367762:a24960593", "current_trial": 80, "dateTime": 1664555198249, "trialdata": {"rt": 890, "stimulus": "<p id='stroop-text' class='stroop-red'>MONKEY</p>", "response": "r", "stimulus-type": "unrelated", "word": "MONKEY", "color": "red", "correct_response": "r", "trial_id": "stroop-trial-1-unrelated-16", "trial_type": "html-keyboard-response", "trial_index": 80, "time_elapsed": 195352, "internal_node_id": "0.0-4.0-76.0"}}, {"uniqueid": "w73367762:a24960593", "current_trial": 81, "dateTime": 1664555200662, "trialdata": {"rt": 1905, "stimulus": "<p id='stroop-text' class='stroop-yellow'>RED</p>", "response": "y", "stimulus-type": "incongruent", "word": "red", "color": "yellow", "correct_response": "y", "trial_id": "stroop-trial-1-incongruent-14", "trial_type": "html-keyboard-response", "trial_index": 81, "time_elapsed": 197767, "internal_node_id": "0.0-4.0-77.0"}}, {"uniqueid": "w73367762:a24960593", "current_trial": 82, "dateTime": 1664555202317, "trialdata": {"rt": 1149, "stimulus": "<p id='stroop-text' class='stroop-yellow'>BOTTLE</p>", "response": "y", "stimulus-type": "unrelated", "word": "BOTTLE", "color": "yellow", "correct_response": "y", "trial_id": "stroop-trial-1-unrelated-11", "trial_type": "html-keyboard-response", "trial_index": 82, "time_elapsed": 199421, "internal_node_id": "0.0-4.0-78.0"}}, {"uniqueid": "w73367762:a24960593", "current_trial": 83, "dateTime": 1664555204839, "trialdata": {"rt": 2015, "stimulus": "<p id='stroop-text' class='stroop-green'>GREEN</p>", "response": "g", "stimulus-type": "congruent", "word": "green", "color": "green", "correct_response": "g", "trial_id": "stroop-trial-1-congruent-2", "trial_type": "html-keyboard-response", "trial_index": 83, "time_elapsed": 201944, "internal_node_id": "0.0-4.0-79.0"}}, {"uniqueid": "w73367762:a24960593", "current_trial": 84, "dateTime": 1664555206904, "trialdata": {"rt": 1559, "stimulus": "<p id='stroop-text' class='stroop-blue'>YELLOW</p>", "response": "b", "stimulus-type": "incongruent", "word": "yellow", "color": "blue", "correct_response": "b", "trial_id": "stroop-trial-1-incongruent-24", "trial_type": "html-keyboard-response", "trial_index": 84, "time_elapsed": 204009, "internal_node_id": "0.0-4.0-80.0"}}, {"uniqueid": "w73367762:a24960593", "current_trial": 85, "dateTime": 1664555209149, "trialdata": {"rt": 1733, "stimulus": "<p id='stroop-text' class='stroop-green'>BRAIN</p>", "response": "g", "stimulus-type": "unrelated", "word": "BRAIN", "color": "green", "correct_response": "g", "trial_id": "stroop-trial-1-unrelated-24", "trial_type": "html-keyboard-response", "trial_index": 85, "time_elapsed": 206254, "internal_node_id": "0.0-4.0-81.0"}}, {"uniqueid": "w73367762:a24960593", "current_trial": 86, "dateTime": 1664555210837, "trialdata": {"rt": 1182, "stimulus": "<p id='stroop-text' class='stroop-yellow'>YELLOW</p>", "response": "y", "stimulus-type": "congruent", "word": "yellow", "color": "yellow", "correct_response": "y", "trial_id": "stroop-trial-1-congruent-3", "trial_type": "html-keyboard-response", "trial_index": 86, "time_elapsed": 207941, "internal_node_id": "0.0-4.0-82.0"}}, {"uniqueid": "w73367762:a24960593", "current_trial": 87, "dateTime": 1664555212771, "trialdata": {"rt": 1422, "stimulus": "<p id='stroop-text' class='stroop-blue'>RED</p>", "response": "b", "stimulus-type": "incongruent", "word": "red", "color": "blue", "correct_response": "b", "trial_id": "stroop-trial-1-incongruent-12", "trial_type": "html-keyboard-response", "trial_index": 87, "time_elapsed": 209875, "internal_node_id": "0.0-4.0-83.0"}}, {"uniqueid": "w73367762:a24960593", "current_trial": 88, "dateTime": 1664555214930, "trialdata": {"rt": 1634, "stimulus": "<p id='stroop-text' class='stroop-red'>DOG</p>", "response": "r", "stimulus-type": "unrelated", "word": "DOG", "color": "red", "correct_response": "r", "trial_id": "stroop-trial-1-unrelated-9", "trial_type": "html-keyboard-response", "trial_index": 88, "time_elapsed": 212033, "internal_node_id": "0.0-4.0-84.0"}}, {"uniqueid": "w73367762:a24960593", "current_trial": 89, "dateTime": 1664555216377, "trialdata": {"rt": 939, "stimulus": "<p id='stroop-text' class='stroop-blue'>BLUE</p>", "response": "b", "stimulus-type": "congruent", "word": "blue", "color": "blue", "correct_response": "b", "trial_id": "stroop-trial-1-congruent-13", "trial_type": "html-keyboard-response", "trial_index": 89, "time_elapsed": 213481, "internal_node_id": "0.0-4.0-85.0"}}, {"uniqueid": "w73367762:a24960593", "current_trial": 90, "dateTime": 1664555217770, "trialdata": {"rt": 884, "stimulus": "<p id='stroop-text' class='stroop-yellow'>YELLOW</p>", "response": "y", "stimulus-type": "congruent", "word": "yellow", "color": "yellow", "correct_response": "y", "trial_id": "stroop-trial-1-congruent-10", "trial_type": "html-keyboard-response", "trial_index": 90, "time_elapsed": 214874, "internal_node_id": "0.0-4.0-86.0"}}, {"uniqueid": "w73367762:a24960593", "current_trial": 91, "dateTime": 1664555220093, "trialdata": {"rt": 1811, "stimulus": "<p id='stroop-text' class='stroop-green'>SHIP</p>", "response": "g", "stimulus-type": "unrelated", "word": "SHIP", "color": "green", "correct_response": "g", "trial_id": "stroop-trial-1-unrelated-25", "trial_type": "html-keyboard-response", "trial_index": 91, "time_elapsed": 217198, "internal_node_id": "0.0-4.0-87.0"}}, {"uniqueid": "w73367762:a24960593", "current_trial": 92, "dateTime": 1664555221453, "trialdata": {"rt": 852, "stimulus": "<p id='stroop-text' class='stroop-yellow'>YELLOW</p>", "response": "y", "stimulus-type": "congruent", "word": "yellow", "color": "yellow", "correct_response": "y", "trial_id": "stroop-trial-1-congruent-9", "trial_type": "html-keyboard-response", "trial_index": 92, "time_elapsed": 218558, "internal_node_id": "0.0-4.0-88.0"}}, {"uniqueid": "w73367762:a24960593", "current_trial": 93, "dateTime": 1664555223285, "trialdata": {"rt": 1320, "stimulus": "<p id='stroop-text' class='stroop-green'>RED</p>", "response": "g", "stimulus-type": "incongruent", "word": "red", "color": "green", "correct_response": "g", "trial_id": "stroop-trial-1-incongruent-22", "trial_type": "html-keyboard-response", "trial_index": 93, "time_elapsed": 220390, "internal_node_id": "0.0-4.0-89.0"}}, {"uniqueid": "w73367762:a24960593", "current_trial": 94, "dateTime": 1664555239465, "trialdata": {"rt": 15665, "stimulus": "  <h1> End of block! </h1>\n\n  You have reached the end of the block 1/5. If you need a short break, feel free to take one now before moving on.\n\n  <br><br>\n  In the next block, you will complete another 90 rounds of this game.\n\n  <br><br>\n  <div style='text-align: center;'>Press <code>space</code> to begin.</div>\n  <br><br>\n<div style='text-align: center;'>(If the experiment doesn't continue, try clicking on the text and then pressing <code>space</code>.)</div>", "response": " ", "trial_id": "stroop_1_ready_2", "trial_type": "html-keyboard-response", "trial_index": 94, "time_elapsed": 236570, "internal_node_id": "0.0-5.0"}}, {"uniqueid": "w73367762:a24960593", "current_trial": 95, "dateTime": 1664555240794, "trialdata": {"rt": 1319, "stimulus": "<p id='stroop-text' class='stroop-red'>FORK</p>", "response": "r", "stimulus-type": "unrelated", "word": "FORK", "color": "red", "correct_response": "r", "trial_id": "stroop-trial-1-unrelated-10", "trial_type": "html-keyboard-response", "trial_index": 95, "time_elapsed": 237899, "internal_node_id": "0.0-6.0-0.0"}}, {"uniqueid": "w73367762:a24960593", "current_trial": 96, "dateTime": 1664555242238, "trialdata": {"rt": 931, "stimulus": "<p id='stroop-text' class='stroop-blue'>SHIP</p>", "response": "b", "stimulus-type": "unrelated", "word": "SHIP", "color": "blue", "correct_response": "b", "trial_id": "stroop-trial-1-unrelated-15", "trial_type": "html-keyboard-response", "trial_index": 96, "time_elapsed": 239342, "internal_node_id": "0.0-6.0-1.0"}}, {"uniqueid": "w73367762:a24960593", "current_trial": 97, "dateTime": 1664555243704, "trialdata": {"rt": 956, "stimulus": "<p id='stroop-text' class='stroop-green'>RED</p>", "response": "g", "stimulus-type": "incongruent", "word": "red", "color": "green", "correct_response": "g", "trial_id": "stroop-trial-1-incongruent-24", "trial_type": "html-keyboard-response", "trial_index": 97, "time_elapsed": 240809, "internal_node_id": "0.0-6.0-2.0"}}, {"uniqueid": "w73367762:a24960593", "current_trial": 98, "dateTime": 1664555245345, "trialdata": {"rt": 1133, "stimulus": "<p id='stroop-text' class='stroop-yellow'>GREEN</p>", "response": "y", "stimulus-type": "incongruent", "word": "green", "color": "yellow", "correct_response": "y", "trial_id": "stroop-trial-1-incongruent-14", "trial_type": "html-keyboard-response", "trial_index": 98, "time_elapsed": 242449, "internal_node_id": "0.0-6.0-3.0"}}, {"uniqueid": "w73367762:a24960593", "current_trial": 99, "dateTime": 1664555247333, "trialdata": {"rt": 1480, "stimulus": "<p id='stroop-text' class='stroop-red'>YELLOW</p>", "response": "r", "stimulus-type": "incongruent", "word": "yellow", "color": "red", "correct_response": "r", "trial_id": "stroop-trial-1-incongruent-2", "trial_type": "html-keyboard-response", "trial_index": 99, "time_elapsed": 244438, "internal_node_id": "0.0-6.0-4.0"}}, {"uniqueid": "w73367762:a24960593", "current_trial": 100, "dateTime": 1664555248847, "trialdata": {"rt": 1004, "stimulus": "<p id='stroop-text' class='stroop-blue'>BLUE</p>", "response": "b", "stimulus-type": "congruent", "word": "blue", "color": "blue", "correct_response": "b", "trial_id": "stroop-trial-1-congruent-18", "trial_type": "html-keyboard-response", "trial_index": 100, "time_elapsed": 245951, "internal_node_id": "0.0-6.0-5.0"}}, {"uniqueid": "w73367762:a24960593", "current_trial": 101, "dateTime": 1664555250209, "trialdata": {"rt": 853, "stimulus": "<p id='stroop-text' class='stroop-red'>DOG</p>", "response": "r", "stimulus-type": "unrelated", "word": "DOG", "color": "red", "correct_response": "r", "trial_id": "stroop-trial-1-unrelated-8", "trial_type": "html-keyboard-response", "trial_index": 101, "time_elapsed": 247312, "internal_node_id": "0.0-6.0-6.0"}}, {"uniqueid": "w73367762:a24960593", "current_trial": 102, "dateTime": 1664555251513, "trialdata": {"rt": 797, "stimulus": "<p id='stroop-text' class='stroop-yellow'>YELLOW</p>", "response": "y", "stimulus-type": "congruent", "word": "yellow", "color": "yellow", "correct_response": "y", "trial_id": "stroop-trial-1-congruent-4", "trial_type": "html-keyboard-response", "trial_index": 102, "time_elapsed": 248618, "internal_node_id": "0.0-6.0-7.0"}}, {"uniqueid": "w73367762:a24960593", "current_trial": 103, "dateTime": 1664555252766, "trialdata": {"rt": 745, "stimulus": "<p id='stroop-text' class='stroop-yellow'>WINDOW</p>", "response": "y", "stimulus-type": "unrelated", "word": "WINDOW", "color": "yellow", "correct_response": "y", "trial_id": "stroop-trial-1-unrelated-5", "trial_type": "html-keyboard-response", "trial_index": 103, "time_elapsed": 249871, "internal_node_id": "0.0-6.0-8.0"}}, {"uniqueid": "w73367762:a24960593", "current_trial": 104, "dateTime": 1664555253961, "trialdata": {"rt": 689, "stimulus": "<p id='stroop-text' class='stroop-red'>YELLOW</p>", "response": "r", "stimulus-type": "incongruent", "word": "yellow", "color": "red", "correct_response": "r", "trial_id": "stroop-trial-1-incongruent-1", "trial_type": "html-keyboard-response", "trial_index": 104, "time_elapsed": 251066, "internal_node_id": "0.0-6.0-9.0"}}, {"uniqueid": "w73367762:a24960593", "current_trial": 105, "dateTime": 1664555255419, "trialdata": {"rt": 953, "stimulus": "<p id='stroop-text' class='stroop-red'>BRIDGE</p>", "response": "r", "stimulus-type": "unrelated", "word": "BRIDGE", "color": "red", "correct_response": "r", "trial_id": "stroop-trial-1-unrelated-16", "trial_type": "html-keyboard-response", "trial_index": 105, "time_elapsed": 252523, "internal_node_id": "0.0-6.0-10.0"}}, {"uniqueid": "w73367762:a24960593", "current_trial": 106, "dateTime": 1664555256915, "trialdata": {"rt": 986, "stimulus": "<p id='stroop-text' class='stroop-blue'>GREEN</p>", "response": "b", "stimulus-type": "incongruent", "word": "green", "color": "blue", "correct_response": "b", "trial_id": "stroop-trial-1-incongruent-11", "trial_type": "html-keyboard-response", "trial_index": 106, "time_elapsed": 254019, "internal_node_id": "0.0-6.0-11.0"}}, {"uniqueid": "w73367762:a24960593", "current_trial": 107, "dateTime": 1664555258114, "trialdata": {"rt": 689, "stimulus": "<p id='stroop-text' class='stroop-red'>GREEN</p>", "response": "b", "stimulus-type": "incongruent", "word": "green", "color": "red", "correct_response": "r", "trial_id": "stroop-trial-1-incongruent-10", "trial_type": "html-keyboard-response", "trial_index": 107, "time_elapsed": 255218, "internal_node_id": "0.0-6.0-12.0"}}, {"uniqueid": "w73367762:a24960593", "current_trial": 108, "dateTime": 1664555260018, "trialdata": {"rt": 1391, "stimulus": "<p id='stroop-text' class='stroop-green'>SHIP</p>", "response": "g", "stimulus-type": "unrelated", "word": "SHIP", "color": "green", "correct_response": "g", "trial_id": "stroop-trial-1-unrelated-28", "trial_type": "html-keyboard-response", "trial_index": 108, "time_elapsed": 257122, "internal_node_id": "0.0-6.0-13.0"}}, {"uniqueid": "w73367762:a24960593", "current_trial": 109, "dateTime": 1664555261699, "trialdata": {"rt": 1170, "stimulus": "<p id='stroop-text' class='stroop-blue'>BLUE</p>", "response": "b", "stimulus-type": "congruent", "word": "blue", "color": "blue", "correct_response": "b", "trial_id": "stroop-trial-1-congruent-28", "trial_type": "html-keyboard-response", "trial_index": 109, "time_elapsed": 258803, "internal_node_id": "0.0-6.0-14.0"}}, {"uniqueid": "w73367762:a24960593", "current_trial": 110, "dateTime": 1664555262806, "trialdata": {"rt": 598, "stimulus": "<p id='stroop-text' class='stroop-blue'>BLUE</p>", "response": "b", "stimulus-type": "congruent", "word": "blue", "color": "blue", "correct_response": "b", "trial_id": "stroop-trial-1-congruent-20", "trial_type": "html-keyboard-response", "trial_index": 110, "time_elapsed": 259910, "internal_node_id": "0.0-6.0-15.0"}}, {"uniqueid": "w73367762:a24960593", "current_trial": 111, "dateTime": 1664555264147, "trialdata": {"rt": 828, "stimulus": "<p id='stroop-text' class='stroop-blue'>YELLOW</p>", "response": "y", "stimulus-type": "incongruent", "word": "yellow", "color": "blue", "correct_response": "b", "trial_id": "stroop-trial-1-incongruent-18", "trial_type": "html-keyboard-response", "trial_index": 111, "time_elapsed": 261251, "internal_node_id": "0.0-6.0-16.0"}}, {"uniqueid": "w73367762:a24960593", "current_trial": 112, "dateTime": 1664555266327, "trialdata": {"rt": 1671, "stimulus": "<p id='stroop-text' class='stroop-green'>FORK</p>", "response": "g", "stimulus-type": "unrelated", "word": "FORK", "color": "green", "correct_response": "g", "trial_id": "stroop-trial-1-unrelated-2", "trial_type": "html-keyboard-response", "trial_index": 112, "time_elapsed": 263431, "internal_node_id": "0.0-6.0-17.0"}}, {"uniqueid": "w73367762:a24960593", "current_trial": 113, "dateTime": 1664555268695, "trialdata": {"rt": 1847, "stimulus": "<p id='stroop-text' class='stroop-yellow'>SHIP</p>", "response": "y", "stimulus-type": "unrelated", "word": "SHIP", "color": "yellow", "correct_response": "y", "trial_id": "stroop-trial-1-unrelated-19", "trial_type": "html-keyboard-response", "trial_index": 113, "time_elapsed": 265800, "internal_node_id": "0.0-6.0-18.0"}}, {"uniqueid": "w73367762:a24960593", "current_trial": 114, "dateTime": 1664555270314, "trialdata": {"rt": 1109, "stimulus": "<p id='stroop-text' class='stroop-green'>BRIDGE</p>", "response": "g", "stimulus-type": "unrelated", "word": "BRIDGE", "color": "green", "correct_response": "g", "trial_id": "stroop-trial-1-unrelated-24", "trial_type": "html-keyboard-response", "trial_index": 114, "time_elapsed": 267418, "internal_node_id": "0.0-6.0-19.0"}}, {"uniqueid": "w73367762:a24960593", "current_trial": 115, "dateTime": 1664555271677, "trialdata": {"rt": 851, "stimulus": "<p id='stroop-text' class='stroop-yellow'>RED</p>", "response": "y", "stimulus-type": "incongruent", "word": "red", "color": "yellow", "correct_response": "y", "trial_id": "stroop-trial-1-incongruent-16", "trial_type": "html-keyboard-response", "trial_index": 115, "time_elapsed": 268781, "internal_node_id": "0.0-6.0-20.0"}}, {"uniqueid": "w73367762:a24960593", "current_trial": 116, "dateTime": 1664555272716, "trialdata": {"rt": 530, "stimulus": "<p id='stroop-text' class='stroop-yellow'>RED</p>", "response": "y", "stimulus-type": "incongruent", "word": "red", "color": "yellow", "correct_response": "y", "trial_id": "stroop-trial-1-incongruent-27", "trial_type": "html-keyboard-response", "trial_index": 116, "time_elapsed": 269820, "internal_node_id": "0.0-6.0-21.0"}}, {"uniqueid": "w73367762:a24960593", "current_trial": 117, "dateTime": 1664555274358, "trialdata": {"rt": 1130, "stimulus": "<p id='stroop-text' class='stroop-blue'>YELLOW</p>", "response": "b", "stimulus-type": "incongruent", "word": "yellow", "color": "blue", "correct_response": "b", "trial_id": "stroop-trial-1-incongruent-4", "trial_type": "html-keyboard-response", "trial_index": 117, "time_elapsed": 271459, "internal_node_id": "0.0-6.0-22.0"}}, {"uniqueid": "w73367762:a24960593", "current_trial": 118, "dateTime": 1664555275545, "trialdata": {"rt": 680, "stimulus": "<p id='stroop-text' class='stroop-blue'>WINDOW</p>", "response": "b", "stimulus-type": "unrelated", "word": "WINDOW", "color": "blue", "correct_response": "b", "trial_id": "stroop-trial-1-unrelated-11", "trial_type": "html-keyboard-response", "trial_index": 118, "time_elapsed": 272649, "internal_node_id": "0.0-6.0-23.0"}}, {"uniqueid": "w73367762:a24960593", "current_trial": 119, "dateTime": 1664555276983, "trialdata": {"rt": 927, "stimulus": "<p id='stroop-text' class='stroop-green'>FORK</p>", "response": "g", "stimulus-type": "unrelated", "word": "FORK", "color": "green", "correct_response": "g", "trial_id": "stroop-trial-1-unrelated-13", "trial_type": "html-keyboard-response", "trial_index": 119, "time_elapsed": 274087, "internal_node_id": "0.0-6.0-24.0"}}, {"uniqueid": "w73367762:a24960593", "current_trial": 120, "dateTime": 1664555278774, "trialdata": {"rt": 1280, "stimulus": "<p id='stroop-text' class='stroop-yellow'>YELLOW</p>", "response": "y", "stimulus-type": "congruent", "word": "yellow", "color": "yellow", "correct_response": "y", "trial_id": "stroop-trial-1-congruent-23", "trial_type": "html-keyboard-response", "trial_index": 120, "time_elapsed": 275878, "internal_node_id": "0.0-6.0-25.0"}}, {"uniqueid": "w73367762:a24960593", "current_trial": 121, "dateTime": 1664555282946, "trialdata": {"rt": 3659, "stimulus": "<p id='stroop-text' class='stroop-blue'>GREEN</p>", "response": "b", "stimulus-type": "incongruent", "word": "green", "color": "blue", "correct_response": "b", "trial_id": "stroop-trial-1-incongruent-26", "trial_type": "html-keyboard-response", "trial_index": 121, "time_elapsed": 280050, "internal_node_id": "0.0-6.0-26.0"}}, {"uniqueid": "w73367762:a24960593", "current_trial": 122, "dateTime": 1664555285097, "trialdata": {"rt": 1636, "stimulus": "<p id='stroop-text' class='stroop-red'>RED</p>", "response": "r", "stimulus-type": "congruent", "word": "red", "color": "red", "correct_response": "r", "trial_id": "stroop-trial-1-congruent-24", "trial_type": "html-keyboard-response", "trial_index": 122, "time_elapsed": 282202, "internal_node_id": "0.0-6.0-27.0"}}, {"uniqueid": "w73367762:a24960593", "current_trial": 123, "dateTime": 1664555286494, "trialdata": {"rt": 893, "stimulus": "<p id='stroop-text' class='stroop-green'>BRIDGE</p>", "response": "g", "stimulus-type": "unrelated", "word": "BRIDGE", "color": "green", "correct_response": "g", "trial_id": "stroop-trial-1-unrelated-25", "trial_type": "html-keyboard-response", "trial_index": 123, "time_elapsed": 283599, "internal_node_id": "0.0-6.0-28.0"}}, {"uniqueid": "w73367762:a24960593", "current_trial": 124, "dateTime": 1664555287956, "trialdata": {"rt": 958, "stimulus": "<p id='stroop-text' class='stroop-blue'>BLUE</p>", "response": "b", "stimulus-type": "congruent", "word": "blue", "color": "blue", "correct_response": "b", "trial_id": "stroop-trial-1-congruent-7", "trial_type": "html-keyboard-response", "trial_index": 124, "time_elapsed": 285061, "internal_node_id": "0.0-6.0-29.0"}}, {"uniqueid": "w73367762:a24960593", "current_trial": 125, "dateTime": 1664555290041, "trialdata": {"rt": 1580, "stimulus": "<p id='stroop-text' class='stroop-red'>RED</p>", "response": "r", "stimulus-type": "congruent", "word": "red", "color": "red", "correct_response": "r", "trial_id": "stroop-trial-1-congruent-22", "trial_type": "html-keyboard-response", "trial_index": 125, "time_elapsed": 287145, "internal_node_id": "0.0-6.0-30.0"}}, {"uniqueid": "w73367762:a24960593", "current_trial": 126, "dateTime": 1664555291725, "trialdata": {"rt": 1172, "stimulus": "<p id='stroop-text' class='stroop-blue'>GREEN</p>", "response": "b", "stimulus-type": "incongruent", "word": "green", "color": "blue", "correct_response": "b", "trial_id": "stroop-trial-1-incongruent-12", "trial_type": "html-keyboard-response", "trial_index": 126, "time_elapsed": 288830, "internal_node_id": "0.0-6.0-31.0"}}, {"uniqueid": "w73367762:a24960593", "current_trial": 127, "dateTime": 1664555293066, "trialdata": {"rt": 835, "stimulus": "<p id='stroop-text' class='stroop-green'>GREEN</p>", "response": "g", "stimulus-type": "congruent", "word": "green", "color": "green", "correct_response": "g", "trial_id": "stroop-trial-1-congruent-16", "trial_type": "html-keyboard-response", "trial_index": 127, "time_elapsed": 290170, "internal_node_id": "0.0-6.0-32.0"}}, {"uniqueid": "w73367762:a24960593", "current_trial": 128, "dateTime": 1664555294455, "trialdata": {"rt": 878, "stimulus": "<p id='stroop-text' class='stroop-red'>GREEN</p>", "response": "y", "stimulus-type": "incongruent", "word": "green", "color": "red", "correct_response": "r", "trial_id": "stroop-trial-1-incongruent-29", "trial_type": "html-keyboard-response", "trial_index": 128, "time_elapsed": 291559, "internal_node_id": "0.0-6.0-33.0"}}, {"uniqueid": "w73367762:a24960593", "current_trial": 129, "dateTime": 1664555295789, "trialdata": {"rt": 824, "stimulus": "<p id='stroop-text' class='stroop-yellow'>BRAIN</p>", "response": "y", "stimulus-type": "unrelated", "word": "BRAIN", "color": "yellow", "correct_response": "y", "trial_id": "stroop-trial-1-unrelated-26", "trial_type": "html-keyboard-response", "trial_index": 129, "time_elapsed": 292893, "internal_node_id": "0.0-6.0-34.0"}}, {"uniqueid": "w73367762:a24960593", "current_trial": 130, "dateTime": 1664555297732, "trialdata": {"rt": 1434, "stimulus": "<p id='stroop-text' class='stroop-green'>BLUE</p>", "response": "g", "stimulus-type": "incongruent", "word": "blue", "color": "green", "correct_response": "g", "trial_id": "stroop-trial-1-incongruent-25", "trial_type": "html-keyboard-response", "trial_index": 130, "time_elapsed": 294837, "internal_node_id": "0.0-6.0-35.0"}}, {"uniqueid": "w73367762:a24960593", "current_trial": 131, "dateTime": 1664555299065, "trialdata": {"rt": 828, "stimulus": "<p id='stroop-text' class='stroop-red'>BLUE</p>", "response": "r", "stimulus-type": "incongruent", "word": "blue", "color": "red", "correct_response": "r", "trial_id": "stroop-trial-1-incongruent-30", "trial_type": "html-keyboard-response", "trial_index": 131, "time_elapsed": 296170, "internal_node_id": "0.0-6.0-36.0"}}, {"uniqueid": "w73367762:a24960593", "current_trial": 132, "dateTime": 1664555300365, "trialdata": {"rt": 781, "stimulus": "<p id='stroop-text' class='stroop-red'>RED</p>", "response": "r", "stimulus-type": "congruent", "word": "red", "color": "red", "correct_response": "r", "trial_id": "stroop-trial-1-congruent-12", "trial_type": "html-keyboard-response", "trial_index": 132, "time_elapsed": 297469, "internal_node_id": "0.0-6.0-37.0"}}, {"uniqueid": "w73367762:a24960593", "current_trial": 133, "dateTime": 1664555301780, "trialdata": {"rt": 903, "stimulus": "<p id='stroop-text' class='stroop-yellow'>YELLOW</p>", "response": "y", "stimulus-type": "congruent", "word": "yellow", "color": "yellow", "correct_response": "y", "trial_id": "stroop-trial-1-congruent-13", "trial_type": "html-keyboard-response", "trial_index": 133, "time_elapsed": 298885, "internal_node_id": "0.0-6.0-38.0"}}, {"uniqueid": "w73367762:a24960593", "current_trial": 134, "dateTime": 1664555303026, "trialdata": {"rt": 739, "stimulus": "<p id='stroop-text' class='stroop-yellow'>STONE</p>", "response": "y", "stimulus-type": "unrelated", "word": "STONE", "color": "yellow", "correct_response": "y", "trial_id": "stroop-trial-1-unrelated-3", "trial_type": "html-keyboard-response", "trial_index": 134, "time_elapsed": 300130, "internal_node_id": "0.0-6.0-39.0"}}, {"uniqueid": "w73367762:a24960593", "current_trial": 135, "dateTime": 1664555304099, "trialdata": {"rt": 564, "stimulus": "<p id='stroop-text' class='stroop-yellow'>DOG</p>", "response": "y", "stimulus-type": "unrelated", "word": "DOG", "color": "yellow", "correct_response": "y", "trial_id": "stroop-trial-1-unrelated-17", "trial_type": "html-keyboard-response", "trial_index": 135, "time_elapsed": 301204, "internal_node_id": "0.0-6.0-40.0"}}, {"uniqueid": "w73367762:a24960593", "current_trial": 136, "dateTime": 1664555305690, "trialdata": {"rt": 1081, "stimulus": "<p id='stroop-text' class='stroop-green'>MONKEY</p>", "response": "g", "stimulus-type": "unrelated", "word": "MONKEY", "color": "green", "correct_response": "g", "trial_id": "stroop-trial-1-unrelated-9", "trial_type": "html-keyboard-response", "trial_index": 136, "time_elapsed": 302794, "internal_node_id": "0.0-6.0-41.0"}}, {"uniqueid": "w73367762:a24960593", "current_trial": 137, "dateTime": 1664555306726, "trialdata": {"rt": 526, "stimulus": "<p id='stroop-text' class='stroop-blue'>GREEN</p>", "response": "b", "stimulus-type": "incongruent", "word": "green", "color": "blue", "correct_response": "b", "trial_id": "stroop-trial-1-incongruent-6", "trial_type": "html-keyboard-response", "trial_index": 137, "time_elapsed": 303831, "internal_node_id": "0.0-6.0-42.0"}}, {"uniqueid": "w73367762:a24960593", "current_trial": 138, "dateTime": 1664555308089, "trialdata": {"rt": 854, "stimulus": "<p id='stroop-text' class='stroop-red'>BOTTLE</p>", "response": "r", "stimulus-type": "unrelated", "word": "BOTTLE", "color": "red", "correct_response": "r", "trial_id": "stroop-trial-1-unrelated-6", "trial_type": "html-keyboard-response", "trial_index": 138, "time_elapsed": 305193, "internal_node_id": "0.0-6.0-43.0"}}, {"uniqueid": "w73367762:a24960593", "current_trial": 139, "dateTime": 1664555309523, "trialdata": {"rt": 925, "stimulus": "<p id='stroop-text' class='stroop-yellow'>YELLOW</p>", "response": "y", "stimulus-type": "congruent", "word": "yellow", "color": "yellow", "correct_response": "y", "trial_id": "stroop-trial-1-congruent-2", "trial_type": "html-keyboard-response", "trial_index": 139, "time_elapsed": 306628, "internal_node_id": "0.0-6.0-44.0"}}, {"uniqueid": "w73367762:a24960593", "current_trial": 140, "dateTime": 1664555311432, "trialdata": {"rt": 1400, "stimulus": "<p id='stroop-text' class='stroop-blue'>BLUE</p>", "response": "b", "stimulus-type": "congruent", "word": "blue", "color": "blue", "correct_response": "b", "trial_id": "stroop-trial-1-congruent-26", "trial_type": "html-keyboard-response", "trial_index": 140, "time_elapsed": 308536, "internal_node_id": "0.0-6.0-45.0"}}, {"uniqueid": "w73367762:a24960593", "current_trial": 141, "dateTime": 1664555312803, "trialdata": {"rt": 858, "stimulus": "<p id='stroop-text' class='stroop-yellow'>GREEN</p>", "response": "y", "stimulus-type": "incongruent", "word": "green", "color": "yellow", "correct_response": "y", "trial_id": "stroop-trial-1-incongruent-13", "trial_type": "html-keyboard-response", "trial_index": 141, "time_elapsed": 309906, "internal_node_id": "0.0-6.0-46.0"}}, {"uniqueid": "w73367762:a24960593", "current_trial": 142, "dateTime": 1664555314023, "trialdata": {"rt": 710, "stimulus": "<p id='stroop-text' class='stroop-green'>GREEN</p>", "response": "g", "stimulus-type": "congruent", "word": "green", "color": "green", "correct_response": "g", "trial_id": "stroop-trial-1-congruent-17", "trial_type": "html-keyboard-response", "trial_index": 142, "time_elapsed": 311128, "internal_node_id": "0.0-6.0-47.0"}}, {"uniqueid": "w73367762:a24960593", "current_trial": 143, "dateTime": 1664555315409, "trialdata": {"rt": 882, "stimulus": "<p id='stroop-text' class='stroop-green'>YELLOW</p>", "response": "g", "stimulus-type": "incongruent", "word": "yellow", "color": "green", "correct_response": "g", "trial_id": "stroop-trial-1-incongruent-23", "trial_type": "html-keyboard-response", "trial_index": 143, "time_elapsed": 312514, "internal_node_id": "0.0-6.0-48.0"}}, {"uniqueid": "w73367762:a24960593", "current_trial": 144, "dateTime": 1664555317345, "trialdata": {"rt": 1425, "stimulus": "<p id='stroop-text' class='stroop-yellow'>BLUE</p>", "response": "y", "stimulus-type": "incongruent", "word": "blue", "color": "yellow", "correct_response": "y", "trial_id": "stroop-trial-1-incongruent-3", "trial_type": "html-keyboard-response", "trial_index": 144, "time_elapsed": 314449, "internal_node_id": "0.0-6.0-49.0"}}, {"uniqueid": "w73367762:a24960593", "current_trial": 145, "dateTime": 1664555318774, "trialdata": {"rt": 920, "stimulus": "<p id='stroop-text' class='stroop-yellow'>YELLOW</p>", "response": "y", "stimulus-type": "congruent", "word": "yellow", "color": "yellow", "correct_response": "y", "trial_id": "stroop-trial-1-congruent-19", "trial_type": "html-keyboard-response", "trial_index": 145, "time_elapsed": 315878, "internal_node_id": "0.0-6.0-50.0"}}, {"uniqueid": "w73367762:a24960593", "current_trial": 146, "dateTime": 1664555320573, "trialdata": {"rt": 1290, "stimulus": "<p id='stroop-text' class='stroop-yellow'>RED</p>", "response": "y", "stimulus-type": "incongruent", "word": "red", "color": "yellow", "correct_response": "y", "trial_id": "stroop-trial-1-incongruent-17", "trial_type": "html-keyboard-response", "trial_index": 146, "time_elapsed": 317678, "internal_node_id": "0.0-6.0-51.0"}}, {"uniqueid": "w73367762:a24960593", "current_trial": 147, "dateTime": 1664555321927, "trialdata": {"rt": 840, "stimulus": "<p id='stroop-text' class='stroop-green'>BOTTLE</p>", "response": "g", "stimulus-type": "unrelated", "word": "BOTTLE", "color": "green", "correct_response": "g", "trial_id": "stroop-trial-1-unrelated-7", "trial_type": "html-keyboard-response", "trial_index": 147, "time_elapsed": 319031, "internal_node_id": "0.0-6.0-52.0"}}, {"uniqueid": "w73367762:a24960593", "current_trial": 148, "dateTime": 1664555323355, "trialdata": {"rt": 919, "stimulus": "<p id='stroop-text' class='stroop-red'>SHIP</p>", "response": "r", "stimulus-type": "unrelated", "word": "SHIP", "color": "red", "correct_response": "r", "trial_id": "stroop-trial-1-unrelated-30", "trial_type": "html-keyboard-response", "trial_index": 148, "time_elapsed": 320459, "internal_node_id": "0.0-6.0-53.0"}}, {"uniqueid": "w73367762:a24960593", "current_trial": 149, "dateTime": 1664555324804, "trialdata": {"rt": 942, "stimulus": "<p id='stroop-text' class='stroop-yellow'>YELLOW</p>", "response": "y", "stimulus-type": "congruent", "word": "yellow", "color": "yellow", "correct_response": "y", "trial_id": "stroop-trial-1-congruent-6", "trial_type": "html-keyboard-response", "trial_index": 149, "time_elapsed": 321907, "internal_node_id": "0.0-6.0-54.0"}}, {"uniqueid": "w73367762:a24960593", "current_trial": 150, "dateTime": 1664555326688, "trialdata": {"rt": 1372, "stimulus": "<p id='stroop-text' class='stroop-blue'>RED</p>", "response": "b", "stimulus-type": "incongruent", "word": "red", "color": "blue", "correct_response": "b", "trial_id": "stroop-trial-1-incongruent-5", "trial_type": "html-keyboard-response", "trial_index": 150, "time_elapsed": 323793, "internal_node_id": "0.0-6.0-55.0"}}, {"uniqueid": "w73367762:a24960593", "current_trial": 151, "dateTime": 1664555328611, "trialdata": {"rt": 1411, "stimulus": "<p id='stroop-text' class='stroop-red'>RED</p>", "response": "r", "stimulus-type": "congruent", "word": "red", "color": "red", "correct_response": "r", "trial_id": "stroop-trial-1-congruent-14", "trial_type": "html-keyboard-response", "trial_index": 151, "time_elapsed": 325716, "internal_node_id": "0.0-6.0-56.0"}}, {"uniqueid": "w73367762:a24960593", "current_trial": 152, "dateTime": 1664555330512, "trialdata": {"rt": 1389, "stimulus": "<p id='stroop-text' class='stroop-blue'>WINDOW</p>", "response": "b", "stimulus-type": "unrelated", "word": "WINDOW", "color": "blue", "correct_response": "b", "trial_id": "stroop-trial-1-unrelated-1", "trial_type": "html-keyboard-response", "trial_index": 152, "time_elapsed": 327616, "internal_node_id": "0.0-6.0-57.0"}}, {"uniqueid": "w73367762:a24960593", "current_trial": 153, "dateTime": 1664555331856, "trialdata": {"rt": 832, "stimulus": "<p id='stroop-text' class='stroop-red'>RED</p>", "response": "r", "stimulus-type": "congruent", "word": "red", "color": "red", "correct_response": "r", "trial_id": "stroop-trial-1-congruent-29", "trial_type": "html-keyboard-response", "trial_index": 153, "time_elapsed": 328960, "internal_node_id": "0.0-6.0-58.0"}}, {"uniqueid": "w73367762:a24960593", "current_trial": 154, "dateTime": 1664555333212, "trialdata": {"rt": 847, "stimulus": "<p id='stroop-text' class='stroop-green'>STONE</p>", "response": "g", "stimulus-type": "unrelated", "word": "STONE", "color": "green", "correct_response": "g", "trial_id": "stroop-trial-1-unrelated-29", "trial_type": "html-keyboard-response", "trial_index": 154, "time_elapsed": 330316, "internal_node_id": "0.0-6.0-59.0"}}, {"uniqueid": "w73367762:a24960593", "current_trial": 155, "dateTime": 1664555334488, "trialdata": {"rt": 764, "stimulus": "<p id='stroop-text' class='stroop-yellow'>BOAT</p>", "response": "y", "stimulus-type": "unrelated", "word": "BOAT", "color": "yellow", "correct_response": "y", "trial_id": "stroop-trial-1-unrelated-21", "trial_type": "html-keyboard-response", "trial_index": 155, "time_elapsed": 331592, "internal_node_id": "0.0-6.0-60.0"}}, {"uniqueid": "w73367762:a24960593", "current_trial": 156, "dateTime": 1664555336028, "trialdata": {"rt": 1025, "stimulus": "<p id='stroop-text' class='stroop-green'>RED</p>", "response": "g", "stimulus-type": "incongruent", "word": "red", "color": "green", "correct_response": "g", "trial_id": "stroop-trial-1-incongruent-28", "trial_type": "html-keyboard-response", "trial_index": 156, "time_elapsed": 333133, "internal_node_id": "0.0-6.0-61.0"}}, {"uniqueid": "w73367762:a24960593", "current_trial": 157, "dateTime": 1664555337140, "trialdata": {"rt": 600, "stimulus": "<p id='stroop-text' class='stroop-green'>GREEN</p>", "response": "g", "stimulus-type": "congruent", "word": "green", "color": "green", "correct_response": "g", "trial_id": "stroop-trial-1-congruent-30", "trial_type": "html-keyboard-response", "trial_index": 157, "time_elapsed": 334244, "internal_node_id": "0.0-6.0-62.0"}}, {"uniqueid": "w73367762:a24960593", "current_trial": 158, "dateTime": 1664555338682, "trialdata": {"rt": 1030, "stimulus": "<p id='stroop-text' class='stroop-red'>GREEN</p>", "response": "r", "stimulus-type": "incongruent", "word": "green", "color": "red", "correct_response": "r", "trial_id": "stroop-trial-1-incongruent-21", "trial_type": "html-keyboard-response", "trial_index": 158, "time_elapsed": 335786, "internal_node_id": "0.0-6.0-63.0"}}, {"uniqueid": "w73367762:a24960593", "current_trial": 159, "dateTime": 1664555340513, "trialdata": {"rt": 1323, "stimulus": "<p id='stroop-text' class='stroop-yellow'>YELLOW</p>", "response": "y", "stimulus-type": "congruent", "word": "yellow", "color": "yellow", "correct_response": "y", "trial_id": "stroop-trial-1-congruent-3", "trial_type": "html-keyboard-response", "trial_index": 159, "time_elapsed": 337617, "internal_node_id": "0.0-6.0-64.0"}}, {"uniqueid": "w73367762:a24960593", "current_trial": 160, "dateTime": 1664555341848, "trialdata": {"rt": 824, "stimulus": "<p id='stroop-text' class='stroop-red'>RED</p>", "response": "r", "stimulus-type": "congruent", "word": "red", "color": "red", "correct_response": "r", "trial_id": "stroop-trial-1-congruent-27", "trial_type": "html-keyboard-response", "trial_index": 160, "time_elapsed": 338952, "internal_node_id": "0.0-6.0-65.0"}}, {"uniqueid": "w73367762:a24960593", "current_trial": 161, "dateTime": 1664555342862, "trialdata": {"rt": 504, "stimulus": "<p id='stroop-text' class='stroop-red'>RED</p>", "response": "r", "stimulus-type": "congruent", "word": "red", "color": "red", "correct_response": "r", "trial_id": "stroop-trial-1-congruent-15", "trial_type": "html-keyboard-response", "trial_index": 161, "time_elapsed": 339966, "internal_node_id": "0.0-6.0-66.0"}}, {"uniqueid": "w73367762:a24960593", "current_trial": 162, "dateTime": 1664555344222, "trialdata": {"rt": 850, "stimulus": "<p id='stroop-text' class='stroop-green'>GREEN</p>", "response": "g", "stimulus-type": "congruent", "word": "green", "color": "green", "correct_response": "g", "trial_id": "stroop-trial-1-congruent-10", "trial_type": "html-keyboard-response", "trial_index": 162, "time_elapsed": 341327, "internal_node_id": "0.0-6.0-67.0"}}, {"uniqueid": "w73367762:a24960593", "current_trial": 163, "dateTime": 1664555345578, "trialdata": {"rt": 848, "stimulus": "<p id='stroop-text' class='stroop-yellow'>BLUE</p>", "response": "y", "stimulus-type": "incongruent", "word": "blue", "color": "yellow", "correct_response": "y", "trial_id": "stroop-trial-1-incongruent-7", "trial_type": "html-keyboard-response", "trial_index": 163, "time_elapsed": 342682, "internal_node_id": "0.0-6.0-68.0"}}, {"uniqueid": "w73367762:a24960593", "current_trial": 164, "dateTime": 1664555346891, "trialdata": {"rt": 791, "stimulus": "<p id='stroop-text' class='stroop-yellow'>BOAT</p>", "response": "y", "stimulus-type": "unrelated", "word": "BOAT", "color": "yellow", "correct_response": "y", "trial_id": "stroop-trial-1-unrelated-18", "trial_type": "html-keyboard-response", "trial_index": 164, "time_elapsed": 343995, "internal_node_id": "0.0-6.0-69.0"}}, {"uniqueid": "w73367762:a24960593", "current_trial": 165, "dateTime": 1664555348292, "trialdata": {"rt": 889, "stimulus": "<p id='stroop-text' class='stroop-blue'>BOTTLE</p>", "response": "b", "stimulus-type": "unrelated", "word": "BOTTLE", "color": "blue", "correct_response": "b", "trial_id": "stroop-trial-1-unrelated-14", "trial_type": "html-keyboard-response", "trial_index": 165, "time_elapsed": 345396, "internal_node_id": "0.0-6.0-70.0"}}, {"uniqueid": "w73367762:a24960593", "current_trial": 166, "dateTime": 1664555349563, "trialdata": {"rt": 763, "stimulus": "<p id='stroop-text' class='stroop-blue'>BLUE</p>", "response": "b", "stimulus-type": "congruent", "word": "blue", "color": "blue", "correct_response": "b", "trial_id": "stroop-trial-1-congruent-5", "trial_type": "html-keyboard-response", "trial_index": 166, "time_elapsed": 346667, "internal_node_id": "0.0-6.0-71.0"}}, {"uniqueid": "w73367762:a24960593", "current_trial": 167, "dateTime": 1664555351001, "trialdata": {"rt": 926, "stimulus": "<p id='stroop-text' class='stroop-green'>RED</p>", "response": "g", "stimulus-type": "incongruent", "word": "red", "color": "green", "correct_response": "g", "trial_id": "stroop-trial-1-incongruent-19", "trial_type": "html-keyboard-response", "trial_index": 167, "time_elapsed": 348105, "internal_node_id": "0.0-6.0-72.0"}}, {"uniqueid": "w73367762:a24960593", "current_trial": 168, "dateTime": 1664555352265, "trialdata": {"rt": 755, "stimulus": "<p id='stroop-text' class='stroop-green'>STONE</p>", "response": "g", "stimulus-type": "unrelated", "word": "STONE", "color": "green", "correct_response": "g", "trial_id": "stroop-trial-1-unrelated-27", "trial_type": "html-keyboard-response", "trial_index": 168, "time_elapsed": 349369, "internal_node_id": "0.0-6.0-73.0"}}, {"uniqueid": "w73367762:a24960593", "current_trial": 169, "dateTime": 1664555353763, "trialdata": {"rt": 990, "stimulus": "<p id='stroop-text' class='stroop-yellow'>YELLOW</p>", "response": "y", "stimulus-type": "congruent", "word": "yellow", "color": "yellow", "correct_response": "y", "trial_id": "stroop-trial-1-congruent-1", "trial_type": "html-keyboard-response", "trial_index": 169, "time_elapsed": 350867, "internal_node_id": "0.0-6.0-74.0"}}, {"uniqueid": "w73367762:a24960593", "current_trial": 170, "dateTime": 1664555355068, "trialdata": {"rt": 794, "stimulus": "<p id='stroop-text' class='stroop-blue'>BLUE</p>", "response": "b", "stimulus-type": "congruent", "word": "blue", "color": "blue", "correct_response": "b", "trial_id": "stroop-trial-1-congruent-11", "trial_type": "html-keyboard-response", "trial_index": 170, "time_elapsed": 352172, "internal_node_id": "0.0-6.0-75.0"}}, {"uniqueid": "w73367762:a24960593", "current_trial": 171, "dateTime": 1664555356266, "trialdata": {"rt": 686, "stimulus": "<p id='stroop-text' class='stroop-green'>GREEN</p>", "response": "g", "stimulus-type": "congruent", "word": "green", "color": "green", "correct_response": "g", "trial_id": "stroop-trial-1-congruent-9", "trial_type": "html-keyboard-response", "trial_index": 171, "time_elapsed": 353370, "internal_node_id": "0.0-6.0-76.0"}}, {"uniqueid": "w73367762:a24960593", "current_trial": 172, "dateTime": 1664555358270, "trialdata": {"rt": 1487, "stimulus": "<p id='stroop-text' class='stroop-red'>BLUE</p>", "response": "r", "stimulus-type": "incongruent", "word": "blue", "color": "red", "correct_response": "r", "trial_id": "stroop-trial-1-incongruent-9", "trial_type": "html-keyboard-response", "trial_index": 172, "time_elapsed": 355375, "internal_node_id": "0.0-6.0-77.0"}}, {"uniqueid": "w73367762:a24960593", "current_trial": 173, "dateTime": 1664555359788, "trialdata": {"rt": 1010, "stimulus": "<p id='stroop-text' class='stroop-yellow'>BRIDGE</p>", "response": "y", "stimulus-type": "unrelated", "word": "BRIDGE", "color": "yellow", "correct_response": "y", "trial_id": "stroop-trial-1-unrelated-12", "trial_type": "html-keyboard-response", "trial_index": 173, "time_elapsed": 356892, "internal_node_id": "0.0-6.0-78.0"}}, {"uniqueid": "w73367762:a24960593", "current_trial": 174, "dateTime": 1664555361229, "trialdata": {"rt": 931, "stimulus": "<p id='stroop-text' class='stroop-green'>MONKEY</p>", "response": "g", "stimulus-type": "unrelated", "word": "MONKEY", "color": "green", "correct_response": "g", "trial_id": "stroop-trial-1-unrelated-23", "trial_type": "html-keyboard-response", "trial_index": 174, "time_elapsed": 358333, "internal_node_id": "0.0-6.0-79.0"}}, {"uniqueid": "w73367762:a24960593", "current_trial": 175, "dateTime": 1664555362714, "trialdata": {"rt": 972, "stimulus": "<p id='stroop-text' class='stroop-yellow'>RED</p>", "response": "y", "stimulus-type": "incongruent", "word": "red", "color": "yellow", "correct_response": "y", "trial_id": "stroop-trial-1-incongruent-8", "trial_type": "html-keyboard-response", "trial_index": 175, "time_elapsed": 359818, "internal_node_id": "0.0-6.0-80.0"}}, {"uniqueid": "w73367762:a24960593", "current_trial": 176, "dateTime": 1664555364574, "trialdata": {"rt": 1351, "stimulus": "<p id='stroop-text' class='stroop-yellow'>BOTTLE</p>", "response": "y", "stimulus-type": "unrelated", "word": "BOTTLE", "color": "yellow", "correct_response": "y", "trial_id": "stroop-trial-1-unrelated-4", "trial_type": "html-keyboard-response", "trial_index": 176, "time_elapsed": 361678, "internal_node_id": "0.0-6.0-81.0"}}, {"uniqueid": "w73367762:a24960593", "current_trial": 177, "dateTime": 1664555366617, "trialdata": {"rt": 1532, "stimulus": "<p id='stroop-text' class='stroop-blue'>MONKEY</p>", "response": "b", "stimulus-type": "unrelated", "word": "MONKEY", "color": "blue", "correct_response": "b", "trial_id": "stroop-trial-1-unrelated-20", "trial_type": "html-keyboard-response", "trial_index": 177, "time_elapsed": 363722, "internal_node_id": "0.0-6.0-82.0"}}, {"uniqueid": "w73367762:a24960593", "current_trial": 178, "dateTime": 1664555367932, "trialdata": {"rt": 807, "stimulus": "<p id='stroop-text' class='stroop-yellow'>YELLOW</p>", "response": "y", "stimulus-type": "congruent", "word": "yellow", "color": "yellow", "correct_response": "y", "trial_id": "stroop-trial-1-congruent-25", "trial_type": "html-keyboard-response", "trial_index": 178, "time_elapsed": 365036, "internal_node_id": "0.0-6.0-83.0"}}, {"uniqueid": "w73367762:a24960593", "current_trial": 179, "dateTime": 1664555369535, "trialdata": {"rt": 1094, "stimulus": "<p id='stroop-text' class='stroop-blue'>BRAIN</p>", "response": "b", "stimulus-type": "unrelated", "word": "BRAIN", "color": "blue", "correct_response": "b", "trial_id": "stroop-trial-1-unrelated-22", "trial_type": "html-keyboard-response", "trial_index": 179, "time_elapsed": 366639, "internal_node_id": "0.0-6.0-84.0"}}, {"uniqueid": "w73367762:a24960593", "current_trial": 180, "dateTime": 1664555370912, "trialdata": {"rt": 867, "stimulus": "<p id='stroop-text' class='stroop-yellow'>YELLOW</p>", "response": "y", "stimulus-type": "congruent", "word": "yellow", "color": "yellow", "correct_response": "y", "trial_id": "stroop-trial-1-congruent-21", "trial_type": "html-keyboard-response", "trial_index": 180, "time_elapsed": 368016, "internal_node_id": "0.0-6.0-85.0"}}, {"uniqueid": "w73367762:a24960593", "current_trial": 181, "dateTime": 1664555372195, "trialdata": {"rt": 770, "stimulus": "<p id='stroop-text' class='stroop-red'>BLUE</p>", "response": "r", "stimulus-type": "incongruent", "word": "blue", "color": "red", "correct_response": "r", "trial_id": "stroop-trial-1-incongruent-20", "trial_type": "html-keyboard-response", "trial_index": 181, "time_elapsed": 369300, "internal_node_id": "0.0-6.0-86.0"}}, {"uniqueid": "w73367762:a24960593", "current_trial": 182, "dateTime": 1664555374020, "trialdata": {"rt": 1321, "stimulus": "<p id='stroop-text' class='stroop-blue'>GREEN</p>", "response": "b", "stimulus-type": "incongruent", "word": "green", "color": "blue", "correct_response": "b", "trial_id": "stroop-trial-1-incongruent-22", "trial_type": "html-keyboard-response", "trial_index": 182, "time_elapsed": 371125, "internal_node_id": "0.0-6.0-87.0"}}, {"uniqueid": "w73367762:a24960593", "current_trial": 183, "dateTime": 1664555375121, "trialdata": {"rt": 589, "stimulus": "<p id='stroop-text' class='stroop-blue'>BLUE</p>", "response": "b", "stimulus-type": "congruent", "word": "blue", "color": "blue", "correct_response": "b", "trial_id": "stroop-trial-1-congruent-8", "trial_type": "html-keyboard-response", "trial_index": 183, "time_elapsed": 372225, "internal_node_id": "0.0-6.0-88.0"}}, {"uniqueid": "w73367762:a24960593", "current_trial": 184, "dateTime": 1664555376412, "trialdata": {"rt": 777, "stimulus": "<p id='stroop-text' class='stroop-yellow'>BLUE</p>", "response": "y", "stimulus-type": "incongruent", "word": "blue", "color": "yellow", "correct_response": "y", "trial_id": "stroop-trial-1-incongruent-15", "trial_type": "html-keyboard-response", "trial_index": 184, "time_elapsed": 373516, "internal_node_id": "0.0-6.0-89.0"}}, {"uniqueid": "w73367762:a24960593", "current_trial": 185, "dateTime": 1664555394751, "trialdata": {"rt": 17829, "stimulus": "  <h1> End of block! </h1>\n\n  You have reached the end of the block 2/5. If you need a short break, feel free to take one now before moving on.\n\n  <br><br>\n  In the next block, you will complete another 90 rounds of this game.\n\n  <br><br>\n  <div style='text-align: center;'>Press <code>space</code> to begin.</div>\n  <br><br>\n<div style='text-align: center;'>(If the experiment doesn't continue, try clicking on the text and then pressing <code>space</code>.)</div>", "response": " ", "trial_id": "stroop_1_ready_3", "trial_type": "html-keyboard-response", "trial_index": 185, "time_elapsed": 391856, "internal_node_id": "0.0-7.0"}}, {"uniqueid": "w73367762:a24960593", "current_trial": 186, "dateTime": 1664555396060, "trialdata": {"rt": 1298, "stimulus": "<p id='stroop-text' class='stroop-yellow'>YELLOW</p>", "response": "y", "stimulus-type": "congruent", "word": "yellow", "color": "yellow", "correct_response": "y", "trial_id": "stroop-trial-1-congruent-26", "trial_type": "html-keyboard-response", "trial_index": 186, "time_elapsed": 393164, "internal_node_id": "0.0-8.0-0.0"}}, {"uniqueid": "w73367762:a24960593", "current_trial": 187, "dateTime": 1664555397471, "trialdata": {"rt": 902, "stimulus": "<p id='stroop-text' class='stroop-red'>RED</p>", "response": "r", "stimulus-type": "congruent", "word": "red", "color": "red", "correct_response": "r", "trial_id": "stroop-trial-1-congruent-7", "trial_type": "html-keyboard-response", "trial_index": 187, "time_elapsed": 394575, "internal_node_id": "0.0-8.0-1.0"}}, {"uniqueid": "w73367762:a24960593", "current_trial": 188, "dateTime": 1664555398656, "trialdata": {"rt": 672, "stimulus": "<p id='stroop-text' class='stroop-red'>YELLOW</p>", "response": "y", "stimulus-type": "incongruent", "word": "yellow", "color": "red", "correct_response": "r", "trial_id": "stroop-trial-1-incongruent-16", "trial_type": "html-keyboard-response", "trial_index": 188, "time_elapsed": 395760, "internal_node_id": "0.0-8.0-2.0"}}, {"uniqueid": "w73367762:a24960593", "current_trial": 189, "dateTime": 1664555399844, "trialdata": {"rt": 677, "stimulus": "<p id='stroop-text' class='stroop-red'>RED</p>", "response": "r", "stimulus-type": "congruent", "word": "red", "color": "red", "correct_response": "r", "trial_id": "stroop-trial-1-congruent-12", "trial_type": "html-keyboard-response", "trial_index": 189, "time_elapsed": 396949, "internal_node_id": "0.0-8.0-3.0"}}, {"uniqueid": "w73367762:a24960593", "current_trial": 190, "dateTime": 1664555401129, "trialdata": {"rt": 779, "stimulus": "<p id='stroop-text' class='stroop-green'>GREEN</p>", "response": "g", "stimulus-type": "congruent", "word": "green", "color": "green", "correct_response": "g", "trial_id": "stroop-trial-1-congruent-20", "trial_type": "html-keyboard-response", "trial_index": 190, "time_elapsed": 398233, "internal_node_id": "0.0-8.0-4.0"}}, {"uniqueid": "w73367762:a24960593", "current_trial": 191, "dateTime": 1664555402601, "trialdata": {"rt": 958, "stimulus": "<p id='stroop-text' class='stroop-red'>GREEN</p>", "response": "r", "stimulus-type": "incongruent", "word": "green", "color": "red", "correct_response": "r", "trial_id": "stroop-trial-1-incongruent-7", "trial_type": "html-keyboard-response", "trial_index": 191, "time_elapsed": 399705, "internal_node_id": "0.0-8.0-5.0"}}, {"uniqueid": "w73367762:a24960593", "current_trial": 192, "dateTime": 1664555403967, "trialdata": {"rt": 854, "stimulus": "<p id='stroop-text' class='stroop-yellow'>YELLOW</p>", "response": "y", "stimulus-type": "congruent", "word": "yellow", "color": "yellow", "correct_response": "y", "trial_id": "stroop-trial-1-congruent-13", "trial_type": "html-keyboard-response", "trial_index": 192, "time_elapsed": 401072, "internal_node_id": "0.0-8.0-6.0"}}, {"uniqueid": "w73367762:a24960593", "current_trial": 193, "dateTime": 1664555405620, "trialdata": {"rt": 1140, "stimulus": "<p id='stroop-text' class='stroop-blue'>GREEN</p>", "response": "b", "stimulus-type": "incongruent", "word": "green", "color": "blue", "correct_response": "b", "trial_id": "stroop-trial-1-incongruent-15", "trial_type": "html-keyboard-response", "trial_index": 193, "time_elapsed": 402725, "internal_node_id": "0.0-8.0-7.0"}}, {"uniqueid": "w73367762:a24960593", "current_trial": 194, "dateTime": 1664555407067, "trialdata": {"rt": 935, "stimulus": "<p id='stroop-text' class='stroop-red'>FORK</p>", "response": "r", "stimulus-type": "unrelated", "word": "FORK", "color": "red", "correct_response": "r", "trial_id": "stroop-trial-1-unrelated-11", "trial_type": "html-keyboard-response", "trial_index": 194, "time_elapsed": 404172, "internal_node_id": "0.0-8.0-8.0"}}, {"uniqueid": "w73367762:a24960593", "current_trial": 195, "dateTime": 1664555408553, "trialdata": {"rt": 981, "stimulus": "<p id='stroop-text' class='stroop-green'>BLUE</p>", "response": "g", "stimulus-type": "incongruent", "word": "blue", "color": "green", "correct_response": "g", "trial_id": "stroop-trial-1-incongruent-5", "trial_type": "html-keyboard-response", "trial_index": 195, "time_elapsed": 405658, "internal_node_id": "0.0-8.0-9.0"}}, {"uniqueid": "w73367762:a24960593", "current_trial": 196, "dateTime": 1664555410014, "trialdata": {"rt": 956, "stimulus": "<p id='stroop-text' class='stroop-yellow'>BLUE</p>", "response": "y", "stimulus-type": "incongruent", "word": "blue", "color": "yellow", "correct_response": "y", "trial_id": "stroop-trial-1-incongruent-27", "trial_type": "html-keyboard-response", "trial_index": 196, "time_elapsed": 407118, "internal_node_id": "0.0-8.0-10.0"}}, {"uniqueid": "w73367762:a24960593", "current_trial": 197, "dateTime": 1664555411514, "trialdata": {"rt": 995, "stimulus": "<p id='stroop-text' class='stroop-red'>WINDOW</p>", "response": "r", "stimulus-type": "unrelated", "word": "WINDOW", "color": "red", "correct_response": "r", "trial_id": "stroop-trial-1-unrelated-18", "trial_type": "html-keyboard-response", "trial_index": 197, "time_elapsed": 408618, "internal_node_id": "0.0-8.0-11.0"}}, {"uniqueid": "w73367762:a24960593", "current_trial": 198, "dateTime": 1664555413096, "trialdata": {"rt": 1074, "stimulus": "<p id='stroop-text' class='stroop-blue'>STONE</p>", "response": "b", "stimulus-type": "unrelated", "word": "STONE", "color": "blue", "correct_response": "b", "trial_id": "stroop-trial-1-unrelated-30", "trial_type": "html-keyboard-response", "trial_index": 198, "time_elapsed": 410200, "internal_node_id": "0.0-8.0-12.0"}}, {"uniqueid": "w73367762:a24960593", "current_trial": 199, "dateTime": 1664555414510, "trialdata": {"rt": 904, "stimulus": "<p id='stroop-text' class='stroop-yellow'>YELLOW</p>", "response": "y", "stimulus-type": "congruent", "word": "yellow", "color": "yellow", "correct_response": "y", "trial_id": "stroop-trial-1-congruent-9", "trial_type": "html-keyboard-response", "trial_index": 199, "time_elapsed": 411614, "internal_node_id": "0.0-8.0-13.0"}}, {"uniqueid": "w73367762:a24960593", "current_trial": 200, "dateTime": 1664555417801, "trialdata": {"rt": 2780, "stimulus": "<p id='stroop-text' class='stroop-yellow'>BLUE</p>", "response": "y", "stimulus-type": "incongruent", "word": "blue", "color": "yellow", "correct_response": "y", "trial_id": "stroop-trial-1-incongruent-13", "trial_type": "html-keyboard-response", "trial_index": 200, "time_elapsed": 414905, "internal_node_id": "0.0-8.0-14.0"}}, {"uniqueid": "w73367762:a24960593", "current_trial": 201, "dateTime": 1664555418942, "trialdata": {"rt": 629, "stimulus": "<p id='stroop-text' class='stroop-yellow'>YELLOW</p>", "response": "y", "stimulus-type": "congruent", "word": "yellow", "color": "yellow", "correct_response": "y", "trial_id": "stroop-trial-1-congruent-19", "trial_type": "html-keyboard-response", "trial_index": 201, "time_elapsed": 416046, "internal_node_id": "0.0-8.0-15.0"}}, {"uniqueid": "w73367762:a24960593", "current_trial": 202, "dateTime": 1664555420378, "trialdata": {"rt": 926, "stimulus": "<p id='stroop-text' class='stroop-blue'>GREEN</p>", "response": "b", "stimulus-type": "incongruent", "word": "green", "color": "blue", "correct_response": "b", "trial_id": "stroop-trial-1-incongruent-20", "trial_type": "html-keyboard-response", "trial_index": 202, "time_elapsed": 417482, "internal_node_id": "0.0-8.0-16.0"}}, {"uniqueid": "w73367762:a24960593", "current_trial": 203, "dateTime": 1664555421562, "trialdata": {"rt": 672, "stimulus": "<p id='stroop-text' class='stroop-blue'>BRAIN</p>", "response": "b", "stimulus-type": "unrelated", "word": "BRAIN", "color": "blue", "correct_response": "b", "trial_id": "stroop-trial-1-unrelated-24", "trial_type": "html-keyboard-response", "trial_index": 203, "time_elapsed": 418666, "internal_node_id": "0.0-8.0-17.0"}}, {"uniqueid": "w73367762:a24960593", "current_trial": 204, "dateTime": 1664555422529, "trialdata": {"rt": 460, "stimulus": "<p id='stroop-text' class='stroop-blue'>FORK</p>", "response": "b", "stimulus-type": "unrelated", "word": "FORK", "color": "blue", "correct_response": "b", "trial_id": "stroop-trial-1-unrelated-15", "trial_type": "html-keyboard-response", "trial_index": 204, "time_elapsed": 419633, "internal_node_id": "0.0-8.0-18.0"}}, {"uniqueid": "w73367762:a24960593", "current_trial": 205, "dateTime": 1664555423744, "trialdata": {"rt": 702, "stimulus": "<p id='stroop-text' class='stroop-red'>MONKEY</p>", "response": "r", "stimulus-type": "unrelated", "word": "MONKEY", "color": "red", "correct_response": "r", "trial_id": "stroop-trial-1-unrelated-14", "trial_type": "html-keyboard-response", "trial_index": 205, "time_elapsed": 420849, "internal_node_id": "0.0-8.0-19.0"}}, {"uniqueid": "w73367762:a24960593", "current_trial": 206, "dateTime": 1664555425540, "trialdata": {"rt": 1282, "stimulus": "<p id='stroop-text' class='stroop-green'>DOG</p>", "response": "g", "stimulus-type": "unrelated", "word": "DOG", "color": "green", "correct_response": "g", "trial_id": "stroop-trial-1-unrelated-23", "trial_type": "html-keyboard-response", "trial_index": 206, "time_elapsed": 422644, "internal_node_id": "0.0-8.0-20.0"}}, {"uniqueid": "w73367762:a24960593", "current_trial": 207, "dateTime": 1664555426944, "trialdata": {"rt": 893, "stimulus": "<p id='stroop-text' class='stroop-red'>GREEN</p>", "response": "r", "stimulus-type": "incongruent", "word": "green", "color": "red", "correct_response": "r", "trial_id": "stroop-trial-1-incongruent-29", "trial_type": "html-keyboard-response", "trial_index": 207, "time_elapsed": 424048, "internal_node_id": "0.0-8.0-21.0"}}, {"uniqueid": "w73367762:a24960593", "current_trial": 208, "dateTime": 1664555427899, "trialdata": {"rt": 441, "stimulus": "<p id='stroop-text' class='stroop-red'>RED</p>", "response": "r", "stimulus-type": "congruent", "word": "red", "color": "red", "correct_response": "r", "trial_id": "stroop-trial-1-congruent-8", "trial_type": "html-keyboard-response", "trial_index": 208, "time_elapsed": 425003, "internal_node_id": "0.0-8.0-22.0"}}, {"uniqueid": "w73367762:a24960593", "current_trial": 209, "dateTime": 1664555428861, "trialdata": {"rt": 448, "stimulus": "<p id='stroop-text' class='stroop-red'>BOTTLE</p>", "response": "r", "stimulus-type": "unrelated", "word": "BOTTLE", "color": "red", "correct_response": "r", "trial_id": "stroop-trial-1-unrelated-4", "trial_type": "html-keyboard-response", "trial_index": 209, "time_elapsed": 425966, "internal_node_id": "0.0-8.0-23.0"}}, {"uniqueid": "w73367762:a24960593", "current_trial": 210, "dateTime": 1664555429801, "trialdata": {"rt": 436, "stimulus": "<p id='stroop-text' class='stroop-red'>BLUE</p>", "response": "r", "stimulus-type": "incongruent", "word": "blue", "color": "red", "correct_response": "r", "trial_id": "stroop-trial-1-incongruent-19", "trial_type": "html-keyboard-response", "trial_index": 210, "time_elapsed": 426905, "internal_node_id": "0.0-8.0-24.0"}}, {"uniqueid": "w73367762:a24960593", "current_trial": 211, "dateTime": 1664555431141, "trialdata": {"rt": 827, "stimulus": "<p id='stroop-text' class='stroop-yellow'>RED</p>", "response": "y", "stimulus-type": "incongruent", "word": "red", "color": "yellow", "correct_response": "y", "trial_id": "stroop-trial-1-incongruent-22", "trial_type": "html-keyboard-response", "trial_index": 211, "time_elapsed": 428246, "internal_node_id": "0.0-8.0-25.0"}}, {"uniqueid": "w73367762:a24960593", "current_trial": 212, "dateTime": 1664555432147, "trialdata": {"rt": 495, "stimulus": "<p id='stroop-text' class='stroop-yellow'>YELLOW</p>", "response": "y", "stimulus-type": "congruent", "word": "yellow", "color": "yellow", "correct_response": "y", "trial_id": "stroop-trial-1-congruent-30", "trial_type": "html-keyboard-response", "trial_index": 212, "time_elapsed": 429251, "internal_node_id": "0.0-8.0-26.0"}}, {"uniqueid": "w73367762:a24960593", "current_trial": 213, "dateTime": 1664555433096, "trialdata": {"rt": 431, "stimulus": "<p id='stroop-text' class='stroop-yellow'>STONE</p>", "response": "y", "stimulus-type": "unrelated", "word": "STONE", "color": "yellow", "correct_response": "y", "trial_id": "stroop-trial-1-unrelated-25", "trial_type": "html-keyboard-response", "trial_index": 213, "time_elapsed": 430200, "internal_node_id": "0.0-8.0-27.0"}}, {"uniqueid": "w73367762:a24960593", "current_trial": 214, "dateTime": 1664555434350, "trialdata": {"rt": 733, "stimulus": "<p id='stroop-text' class='stroop-red'>BLUE</p>", "response": "r", "stimulus-type": "incongruent", "word": "blue", "color": "red", "correct_response": "r", "trial_id": "stroop-trial-1-incongruent-24", "trial_type": "html-keyboard-response", "trial_index": 214, "time_elapsed": 431455, "internal_node_id": "0.0-8.0-28.0"}}, {"uniqueid": "w73367762:a24960593", "current_trial": 215, "dateTime": 1664555435791, "trialdata": {"rt": 928, "stimulus": "<p id='stroop-text' class='stroop-green'>BLUE</p>", "response": "g", "stimulus-type": "incongruent", "word": "blue", "color": "green", "correct_response": "g", "trial_id": "stroop-trial-1-incongruent-10", "trial_type": "html-keyboard-response", "trial_index": 215, "time_elapsed": 432895, "internal_node_id": "0.0-8.0-29.0"}}, {"uniqueid": "w73367762:a24960593", "current_trial": 216, "dateTime": 1664555436995, "trialdata": {"rt": 692, "stimulus": "<p id='stroop-text' class='stroop-yellow'>YELLOW</p>", "response": "y", "stimulus-type": "congruent", "word": "yellow", "color": "yellow", "correct_response": "y", "trial_id": "stroop-trial-1-congruent-29", "trial_type": "html-keyboard-response", "trial_index": 216, "time_elapsed": 434099, "internal_node_id": "0.0-8.0-30.0"}}, {"uniqueid": "w73367762:a24960593", "current_trial": 217, "dateTime": 1664555438368, "trialdata": {"rt": 852, "stimulus": "<p id='stroop-text' class='stroop-blue'>BLUE</p>", "response": "b", "stimulus-type": "congruent", "word": "blue", "color": "blue", "correct_response": "b", "trial_id": "stroop-trial-1-congruent-22", "trial_type": "html-keyboard-response", "trial_index": 217, "time_elapsed": 435472, "internal_node_id": "0.0-8.0-31.0"}}, {"uniqueid": "w73367762:a24960593", "current_trial": 218, "dateTime": 1664555439865, "trialdata": {"rt": 981, "stimulus": "<p id='stroop-text' class='stroop-red'>RED</p>", "response": "r", "stimulus-type": "congruent", "word": "red", "color": "red", "correct_response": "r", "trial_id": "stroop-trial-1-congruent-3", "trial_type": "html-keyboard-response", "trial_index": 218, "time_elapsed": 436969, "internal_node_id": "0.0-8.0-32.0"}}, {"uniqueid": "w73367762:a24960593", "current_trial": 219, "dateTime": 1664555441316, "trialdata": {"rt": 938, "stimulus": "<p id='stroop-text' class='stroop-green'>WINDOW</p>", "response": "g", "stimulus-type": "unrelated", "word": "WINDOW", "color": "green", "correct_response": "g", "trial_id": "stroop-trial-1-unrelated-29", "trial_type": "html-keyboard-response", "trial_index": 219, "time_elapsed": 438420, "internal_node_id": "0.0-8.0-33.0"}}, {"uniqueid": "w73367762:a24960593", "current_trial": 220, "dateTime": 1664555442872, "trialdata": {"rt": 1042, "stimulus": "<p id='stroop-text' class='stroop-blue'>GREEN</p>", "response": "b", "stimulus-type": "incongruent", "word": "green", "color": "blue", "correct_response": "b", "trial_id": "stroop-trial-1-incongruent-30", "trial_type": "html-keyboard-response", "trial_index": 220, "time_elapsed": 439976, "internal_node_id": "0.0-8.0-34.0"}}, {"uniqueid": "w73367762:a24960593", "current_trial": 221, "dateTime": 1664555444357, "trialdata": {"rt": 973, "stimulus": "<p id='stroop-text' class='stroop-yellow'>WINDOW</p>", "response": "y", "stimulus-type": "unrelated", "word": "WINDOW", "color": "yellow", "correct_response": "y", "trial_id": "stroop-trial-1-unrelated-9", "trial_type": "html-keyboard-response", "trial_index": 221, "time_elapsed": 441461, "internal_node_id": "0.0-8.0-35.0"}}, {"uniqueid": "w73367762:a24960593", "current_trial": 222, "dateTime": 1664555446044, "trialdata": {"rt": 1180, "stimulus": "<p id='stroop-text' class='stroop-yellow'>BLUE</p>", "response": "y", "stimulus-type": "incongruent", "word": "blue", "color": "yellow", "c