{"condition": 0, "counterbalance": 0, "assignmentId": "a33298483", "workerId": "w51266225", "hitId": "h40321629", "currenttrial": 401, "bonus": 0, "data": [{"uniqueid": "w51266225:a33298483", "current_trial": 0, "dateTime": 1664554958846, "trialdata": {"success": true, "trial_type": "fullscreen", "trial_index": 0, "time_elapsed": 5990, "internal_node_id": "0.0-0.0"}}, {"uniqueid": "w51266225:a33298483", "current_trial": 1, "dateTime": 1664555036911, "trialdata": {"view_history": [{"page_index": 0, "viewing_time": 78052}], "rt": 78054, "trial_id": "exp_instructions_distractor", "trial_type": "instructions", "trial_index": 1, "time_elapsed": 84056, "internal_node_id": "0.0-1.0"}}, {"uniqueid": "w51266225:a33298483", "current_trial": 2, "dateTime": 1664555125302, "trialdata": {"view_history": [{"page_index": 0, "viewing_time": 88385}], "rt": 88387, "trial_id": "color_game_instructions", "trial_type": "instructions", "trial_index": 2, "time_elapsed": 172447, "internal_node_id": "0.0-2.0"}}, {"uniqueid": "w51266225:a33298483", "current_trial": 3, "dateTime": 1664555148928, "trialdata": {"rt": 23623, "stimulus": "<h1> Get ready to start the game! </h1>\n\nThank you for reading the instructions. Get ready start with the first of 5 block(s) of this game.\n<br><br>\nIn this first block, you will complete 90 rounds of this game before moving on.\n<br><br>\nRemember, the better you perform, the bigger your bonus will be!\n<br><br>\n<div style='text-align: center;'>Press <code>space</code> to begin.</div>", "response": " ", "trial_id": "stroop_1_ready_1", "trial_type": "html-keyboard-response", "trial_index": 3, "time_elapsed": 196073, "internal_node_id": "0.0-3.0"}}, {"uniqueid": "w51266225:a33298483", "current_trial": 4, "dateTime": 1664555151478, "trialdata": {"rt": 2495, "stimulus": "<p id='stroop-text' class='stroop-yellow'>MONKEY</p>", "response": "y", "stimulus-type": "unrelated", "word": "MONKEY", "color": "yellow", "correct_response": "y", "trial_id": "stroop-trial-1-unrelated-6", "trial_type": "html-keyboard-response", "trial_index": 4, "time_elapsed": 198622, "internal_node_id": "0.0-4.0-0.0"}}, {"uniqueid": "w51266225:a33298483", "current_trial": 5, "dateTime": 1664555154051, "trialdata": {"rt": 2070, "stimulus": "<p id='stroop-text' class='stroop-green'>YELLOW</p>", "response": "g", "stimulus-type": "incongruent", "word": "yellow", "color": "green", "correct_response": "g", "trial_id": "stroop-trial-1-incongruent-30", "trial_type": "html-keyboard-response", "trial_index": 5, "time_elapsed": 201196, "internal_node_id": "0.0-4.0-1.0"}}, {"uniqueid": "w51266225:a33298483", "current_trial": 6, "dateTime": 1664555157018, "trialdata": {"rt": 2462, "stimulus": "<p id='stroop-text' class='stroop-blue'>DOG</p>", "response": "b", "stimulus-type": "unrelated", "word": "DOG", "color": "blue", "correct_response": "b", "trial_id": "stroop-trial-1-unrelated-27", "trial_type": "html-keyboard-response", "trial_index": 6, "time_elapsed": 204163, "internal_node_id": "0.0-4.0-2.0"}}, {"uniqueid": "w51266225:a33298483", "current_trial": 7, "dateTime": 1664555159205, "trialdata": {"rt": 1684, "stimulus": "<p id='stroop-text' class='stroop-yellow'>BRAIN</p>", "response": "y", "stimulus-type": "unrelated", "word": "BRAIN", "color": "yellow", "correct_response": "y", "trial_id": "stroop-trial-1-unrelated-29", "trial_type": "html-keyboard-response", "trial_index": 7, "time_elapsed": 206350, "internal_node_id": "0.0-4.0-3.0"}}, {"uniqueid": "w51266225:a33298483", "current_trial": 8, "dateTime": 1664555160965, "trialdata": {"rt": 1255, "stimulus": "<p id='stroop-text' class='stroop-green'>BRIDGE</p>", "response": "g", "stimulus-type": "unrelated", "word": "BRIDGE", "color": "green", "correct_response": "g", "trial_id": "stroop-trial-1-unrelated-19", "trial_type": "html-keyboard-response", "trial_index": 8, "time_elapsed": 208110, "internal_node_id": "0.0-4.0-4.0"}}, {"uniqueid": "w51266225:a33298483", "current_trial": 9, "dateTime": 1664555162972, "trialdata": {"rt": 1502, "stimulus": "<p id='stroop-text' class='stroop-yellow'>YELLOW</p>", "response": "y", "stimulus-type": "congruent", "word": "yellow", "color": "yellow", "correct_response": "y", "trial_id": "stroop-trial-1-congruent-19", "trial_type": "html-keyboard-response", "trial_index": 9, "time_elapsed": 210116, "internal_node_id": "0.0-4.0-5.0"}}, {"uniqueid": "w51266225:a33298483", "current_trial": 10, "dateTime": 1664555165003, "trialdata": {"rt": 1527, "stimulus": "<p id='stroop-text' class='stroop-red'>RED</p>", "response": "r", "stimulus-type": "congruent", "word": "red", "color": "red", "correct_response": "r", "trial_id": "stroop-trial-1-congruent-3", "trial_type": "html-keyboard-response", "trial_index": 10, "time_elapsed": 212148, "internal_node_id": "0.0-4.0-6.0"}}, {"uniqueid": "w51266225:a33298483", "current_trial": 11, "dateTime": 1664555168176, "trialdata": {"rt": 2669, "stimulus": "<p id='stroop-text' class='stroop-green'>YELLOW</p>", "response": "g", "stimulus-type": "incongruent", "word": "yellow", "color": "green", "correct_response": "g", "trial_id": "stroop-trial-1-incongruent-20", "trial_type": "html-keyboard-response", "trial_index": 11, "time_elapsed": 215321, "internal_node_id": "0.0-4.0-7.0"}}, {"uniqueid": "w51266225:a33298483", "current_trial": 12, "dateTime": 1664555171167, "trialdata": {"rt": 2486, "stimulus": "<p id='stroop-text' class='stroop-yellow'>BLUE</p>", "response": "y", "stimulus-type": "incongruent", "word": "blue", "color": "yellow", "correct_response": "y", "trial_id": "stroop-trial-1-incongruent-16", "trial_type": "html-keyboard-response", "trial_index": 12, "time_elapsed": 218311, "internal_node_id": "0.0-4.0-8.0"}}, {"uniqueid": "w51266225:a33298483", "current_trial": 13, "dateTime": 1664555173213, "trialdata": {"rt": 1539, "stimulus": "<p id='stroop-text' class='stroop-green'>FORK</p>", "response": "g", "stimulus-type": "unrelated", "word": "FORK", "color": "green", "correct_response": "g", "trial_id": "stroop-trial-1-unrelated-2", "trial_type": "html-keyboard-response", "trial_index": 13, "time_elapsed": 220357, "internal_node_id": "0.0-4.0-9.0"}}, {"uniqueid": "w51266225:a33298483", "current_trial": 14, "dateTime": 1664555175256, "trialdata": {"rt": 1539, "stimulus": "<p id='stroop-text' class='stroop-blue'>YELLOW</p>", "response": "b", "stimulus-type": "incongruent", "word": "yellow", "color": "blue", "correct_response": "b", "trial_id": "stroop-trial-1-incongruent-4", "trial_type": "html-keyboard-response", "trial_index": 14, "time_elapsed": 222400, "internal_node_id": "0.0-4.0-10.0"}}, {"uniqueid": "w51266225:a33298483", "current_trial": 15, "dateTime": 1664555178019, "trialdata": {"rt": 2261, "stimulus": "<p id='stroop-text' class='stroop-green'>GREEN</p>", "response": "g", "stimulus-type": "congruent", "word": "green", "color": "green", "correct_response": "g", "trial_id": "stroop-trial-1-congruent-22", "trial_type": "html-keyboard-response", "trial_index": 15, "time_elapsed": 225164, "internal_node_id": "0.0-4.0-11.0"}}, {"uniqueid": "w51266225:a33298483", "current_trial": 16, "dateTime": 1664555179402, "trialdata": {"rt": 869, "stimulus": "<p id='stroop-text' class='stroop-green'>GREEN</p>", "response": "g", "stimulus-type": "congruent", "word": "green", "color": "green", "correct_response": "g", "trial_id": "stroop-trial-1-congruent-23", "trial_type": "html-keyboard-response", "trial_index": 16, "time_elapsed": 226546, "internal_node_id": "0.0-4.0-12.0"}}, {"uniqueid": "w51266225:a33298483", "current_trial": 17, "dateTime": 1664555182100, "trialdata": {"rt": 2195, "stimulus": "<p id='stroop-text' class='stroop-blue'>YELLOW</p>", "response": "b", "stimulus-type": "incongruent", "word": "yellow", "color": "blue", "correct_response": "b", "trial_id": "stroop-trial-1-incongruent-3", "trial_type": "html-keyboard-response", "trial_index": 17, "time_elapsed": 229245, "internal_node_id": "0.0-4.0-13.0"}}, {"uniqueid": "w51266225:a33298483", "current_trial": 18, "dateTime": 1664555184026, "trialdata": {"rt": 1421, "stimulus": "<p id='stroop-text' class='stroop-green'>GREEN</p>", "response": "g", "stimulus-type": "congruent", "word": "green", "color": "green", "correct_response": "g", "trial_id": "stroop-trial-1-congruent-25", "trial_type": "html-keyboard-response", "trial_index": 18, "time_elapsed": 231171, "internal_node_id": "0.0-4.0-14.0"}}, {"uniqueid": "w51266225:a33298483", "current_trial": 19, "dateTime": 1664555185923, "trialdata": {"rt": 1394, "stimulus": "<p id='stroop-text' class='stroop-red'>RED</p>", "response": "r", "stimulus-type": "congruent", "word": "red", "color": "red", "correct_response": "r", "trial_id": "stroop-trial-1-congruent-30", "trial_type": "html-keyboard-response", "trial_index": 19, "time_elapsed": 233068, "internal_node_id": "0.0-4.0-15.0"}}, {"uniqueid": "w51266225:a33298483", "current_trial": 20, "dateTime": 1664555187439, "trialdata": {"rt": 1007, "stimulus": "<p id='stroop-text' class='stroop-red'>DOG</p>", "response": "r", "stimulus-type": "unrelated", "word": "DOG", "color": "red", "correct_response": "r", "trial_id": "stroop-trial-1-unrelated-17", "trial_type": "html-keyboard-response", "trial_index": 20, "time_elapsed": 234584, "internal_node_id": "0.0-4.0-16.0"}}, {"uniqueid": "w51266225:a33298483", "current_trial": 21, "dateTime": 1664555189046, "trialdata": {"rt": 1104, "stimulus": "<p id='stroop-text' class='stroop-green'>GREEN</p>", "response": "g", "stimulus-type": "congruent", "word": "green", "color": "green", "correct_response": "g", "trial_id": "stroop-trial-1-congruent-18", "trial_type": "html-keyboard-response", "trial_index": 21, "time_elapsed": 236190, "internal_node_id": "0.0-4.0-17.0"}}, {"uniqueid": "w51266225:a33298483", "current_trial": 22, "dateTime": 1664555190774, "trialdata": {"rt": 1225, "stimulus": "<p id='stroop-text' class='stroop-yellow'>YELLOW</p>", "response": "y", "stimulus-type": "congruent", "word": "yellow", "color": "yellow", "correct_response": "y", "trial_id": "stroop-trial-1-congruent-17", "trial_type": "html-keyboard-response", "trial_index": 22, "time_elapsed": 237918, "internal_node_id": "0.0-4.0-18.0"}}, {"uniqueid": "w51266225:a33298483", "current_trial": 23, "dateTime": 1664555192479, "trialdata": {"rt": 1200, "stimulus": "<p id='stroop-text' class='stroop-blue'>RED</p>", "response": "b", "stimulus-type": "incongruent", "word": "red", "color": "blue", "correct_response": "b", "trial_id": "stroop-trial-1-incongruent-19", "trial_type": "html-keyboard-response", "trial_index": 23, "time_elapsed": 239623, "internal_node_id": "0.0-4.0-19.0"}}, {"uniqueid": "w51266225:a33298483", "current_trial": 24, "dateTime": 1664555194741, "trialdata": {"rt": 1758, "stimulus": "<p id='stroop-text' class='stroop-red'>RED</p>", "response": "r", "stimulus-type": "congruent", "word": "red", "color": "red", "correct_response": "r", "trial_id": "stroop-trial-1-congruent-20", "trial_type": "html-keyboard-response", "trial_index": 24, "time_elapsed": 241885, "internal_node_id": "0.0-4.0-20.0"}}, {"uniqueid": "w51266225:a33298483", "current_trial": 25, "dateTime": 1664555196048, "trialdata": {"rt": 803, "stimulus": "<p id='stroop-text' class='stroop-red'>BOTTLE</p>", "response": "r", "stimulus-type": "unrelated", "word": "BOTTLE", "color": "red", "correct_response": "r", "trial_id": "stroop-trial-1-unrelated-3", "trial_type": "html-keyboard-response", "trial_index": 25, "time_elapsed": 243192, "internal_node_id": "0.0-4.0-21.0"}}, {"uniqueid": "w51266225:a33298483", "current_trial": 26, "dateTime": 1664555197186, "trialdata": {"rt": 634, "stimulus": "<p id='stroop-text' class='stroop-red'>YELLOW</p>", "response": "r", "stimulus-type": "incongruent", "word": "yellow", "color": "red", "correct_response": "r", "trial_id": "stroop-trial-1-incongruent-26", "trial_type": "html-keyboard-response", "trial_index": 26, "time_elapsed": 244331, "internal_node_id": "0.0-4.0-22.0"}}, {"uniqueid": "w51266225:a33298483", "current_trial": 27, "dateTime": 1664555198784, "trialdata": {"rt": 1086, "stimulus": "<p id='stroop-text' class='stroop-green'>YELLOW</p>", "response": "g", "stimulus-type": "incongruent", "word": "yellow", "color": "green", "correct_response": "g", "trial_id": "stroop-trial-1-incongruent-29", "trial_type": "html-keyboard-response", "trial_index": 27, "time_elapsed": 245928, "internal_node_id": "0.0-4.0-23.0"}}, {"uniqueid": "w51266225:a33298483", "current_trial": 28, "dateTime": 1664555200265, "trialdata": {"rt": 978, "stimulus": "<p id='stroop-text' class='stroop-yellow'>YELLOW</p>", "response": "y", "stimulus-type": "congruent", "word": "yellow", "color": "yellow", "correct_response": "y", "trial_id": "stroop-trial-1-congruent-8", "trial_type": "html-keyboard-response", "trial_index": 28, "time_elapsed": 247409, "internal_node_id": "0.0-4.0-24.0"}}, {"uniqueid": "w51266225:a33298483", "current_trial": 29, "dateTime": 1664555201893, "trialdata": {"rt": 1124, "stimulus": "<p id='stroop-text' class='stroop-blue'>MONKEY</p>", "response": "b", "stimulus-type": "unrelated", "word": "MONKEY", "color": "blue", "correct_response": "b", "trial_id": "stroop-trial-1-unrelated-22", "trial_type": "html-keyboard-response", "trial_index": 29, "time_elapsed": 249038, "internal_node_id": "0.0-4.0-25.0"}}, {"uniqueid": "w51266225:a33298483", "current_trial": 30, "dateTime": 1664555203729, "trialdata": {"rt": 1331, "stimulus": "<p id='stroop-text' class='stroop-green'>BLUE</p>", "response": "g", "stimulus-type": "incongruent", "word": "blue", "color": "green", "correct_response": "g", "trial_id": "stroop-trial-1-incongruent-2", "trial_type": "html-keyboard-response", "trial_index": 30, "time_elapsed": 250873, "internal_node_id": "0.0-4.0-26.0"}}, {"uniqueid": "w51266225:a33298483", "current_trial": 31, "dateTime": 1664555205338, "trialdata": {"rt": 1104, "stimulus": "<p id='stroop-text' class='stroop-yellow'>YELLOW</p>", "response": "y", "stimulus-type": "congruent", "word": "yellow", "color": "yellow", "correct_response": "y", "trial_id": "stroop-trial-1-congruent-1", "trial_type": "html-keyboard-response", "trial_index": 31, "time_elapsed": 252483, "internal_node_id": "0.0-4.0-27.0"}}, {"uniqueid": "w51266225:a33298483", "current_trial": 32, "dateTime": 1664555207735, "trialdata": {"rt": 1887, "stimulus": "<p id='stroop-text' class='stroop-red'>BRIDGE</p>", "response": "r", "stimulus-type": "unrelated", "word": "BRIDGE", "color": "red", "correct_response": "r", "trial_id": "stroop-trial-1-unrelated-13", "trial_type": "html-keyboard-response", "trial_index": 32, "time_elapsed": 254880, "internal_node_id": "0.0-4.0-28.0"}}, {"uniqueid": "w51266225:a33298483", "current_trial": 33, "dateTime": 1664555209828, "trialdata": {"rt": 1588, "stimulus": "<p id='stroop-text' class='stroop-blue'>RED</p>", "response": "b", "stimulus-type": "incongruent", "word": "red", "color": "blue", "correct_response": "b", "trial_id": "stroop-trial-1-incongruent-5", "trial_type": "html-keyboard-response", "trial_index": 33, "time_elapsed": 256972, "internal_node_id": "0.0-4.0-29.0"}}, {"uniqueid": "w51266225:a33298483", "current_trial": 34, "dateTime": 1664555211997, "trialdata": {"rt": 1665, "stimulus": "<p id='stroop-text' class='stroop-red'>YELLOW</p>", "response": "r", "stimulus-type": "incongruent", "word": "yellow", "color": "red", "correct_response": "r", "trial_id": "stroop-trial-1-incongruent-8", "trial_type": "html-keyboard-response", "trial_index": 34, "time_elapsed": 259142, "internal_node_id": "0.0-4.0-30.0"}}, {"uniqueid": "w51266225:a33298483", "current_trial": 35, "dateTime": 1664555213529, "trialdata": {"rt": 1027, "stimulus": "<p id='stroop-text' class='stroop-yellow'>GREEN</p>", "response": "y", "stimulus-type": "incongruent", "word": "green", "color": "yellow", "correct_response": "y", "trial_id": "stroop-trial-1-incongruent-10", "trial_type": "html-keyboard-response", "trial_index": 35, "time_elapsed": 260673, "internal_node_id": "0.0-4.0-31.0"}}, {"uniqueid": "w51266225:a33298483", "current_trial": 36, "dateTime": 1664555215514, "trialdata": {"rt": 1480, "stimulus": "<p id='stroop-text' class='stroop-blue'>BLUE</p>", "response": "b", "stimulus-type": "congruent", "word": "blue", "color": "blue", "correct_response": "b", "trial_id": "stroop-trial-1-congruent-5", "trial_type": "html-keyboard-response", "trial_index": 36, "time_elapsed": 262658, "internal_node_id": "0.0-4.0-32.0"}}, {"uniqueid": "w51266225:a33298483", "current_trial": 37, "dateTime": 1664555217271, "trialdata": {"rt": 1255, "stimulus": "<p id='stroop-text' class='stroop-green'>FORK</p>", "response": "g", "stimulus-type": "unrelated", "word": "FORK", "color": "green", "correct_response": "g", "trial_id": "stroop-trial-1-unrelated-18", "trial_type": "html-keyboard-response", "trial_index": 37, "time_elapsed": 264416, "internal_node_id": "0.0-4.0-33.0"}}, {"uniqueid": "w51266225:a33298483", "current_trial": 38, "dateTime": 1664555218949, "trialdata": {"rt": 1174, "stimulus": "<p id='stroop-text' class='stroop-red'>GREEN</p>", "response": "r", "stimulus-type": "incongruent", "word": "green", "color": "red", "correct_response": "r", "trial_id": "stroop-trial-1-incongruent-21", "trial_type": "html-keyboard-response", "trial_index": 38, "time_elapsed": 266093, "internal_node_id": "0.0-4.0-34.0"}}, {"uniqueid": "w51266225:a33298483", "current_trial": 39, "dateTime": 1664555221129, "trialdata": {"rt": 1677, "stimulus": "<p id='stroop-text' class='stroop-blue'>GREEN</p>", "response": "b", "stimulus-type": "incongruent", "word": "green", "color": "blue", "correct_response": "b", "trial_id": "stroop-trial-1-incongruent-12", "trial_type": "html-keyboard-response", "trial_index": 39, "time_elapsed": 268274, "internal_node_id": "0.0-4.0-35.0"}}, {"uniqueid": "w51266225:a33298483", "current_trial": 40, "dateTime": 1664555223534, "trialdata": {"rt": 1900, "stimulus": "<p id='stroop-text' class='stroop-green'>BOAT</p>", "response": "g", "stimulus-type": "unrelated", "word": "BOAT", "color": "green", "correct_response": "g", "trial_id": "stroop-trial-1-unrelated-8", "trial_type": "html-keyboard-response", "trial_index": 40, "time_elapsed": 270678, "internal_node_id": "0.0-4.0-36.0"}}, {"uniqueid": "w51266225:a33298483", "current_trial": 41, "dateTime": 1664555224852, "trialdata": {"rt": 814, "stimulus": "<p id='stroop-text' class='stroop-green'>GREEN</p>", "response": "g", "stimulus-type": "congruent", "word": "green", "color": "green", "correct_response": "g", "trial_id": "stroop-trial-1-congruent-10", "trial_type": "html-keyboard-response", "trial_index": 41, "time_elapsed": 271997, "internal_node_id": "0.0-4.0-37.0"}}, {"uniqueid": "w51266225:a33298483", "current_trial": 42, "dateTime": 1664555226682, "trialdata": {"rt": 1325, "stimulus": "<p id='stroop-text' class='stroop-red'>BOTTLE</p>", "response": "r", "stimulus-type": "unrelated", "word": "BOTTLE", "color": "red", "correct_response": "r", "trial_id": "stroop-trial-1-unrelated-20", "trial_type": "html-keyboard-response", "trial_index": 42, "time_elapsed": 273826, "internal_node_id": "0.0-4.0-38.0"}}, {"uniqueid": "w51266225:a33298483", "current_trial": 43, "dateTime": 1664555228154, "trialdata": {"rt": 968, "stimulus": "<p id='stroop-text' class='stroop-green'>YELLOW</p>", "response": "g", "stimulus-type": "incongruent", "word": "yellow", "color": "green", "correct_response": "g", "trial_id": "stroop-trial-1-incongruent-15", "trial_type": "html-keyboard-response", "trial_index": 43, "time_elapsed": 275298, "internal_node_id": "0.0-4.0-39.0"}}, {"uniqueid": "w51266225:a33298483", "current_trial": 44, "dateTime": 1664555229663, "trialdata": {"rt": 1004, "stimulus": "<p id='stroop-text' class='stroop-blue'>BLUE</p>", "response": "b", "stimulus-type": "congruent", "word": "blue", "color": "blue", "correct_response": "b", "trial_id": "stroop-trial-1-congruent-4", "trial_type": "html-keyboard-response", "trial_index": 44, "time_elapsed": 276808, "internal_node_id": "0.0-4.0-40.0"}}, {"uniqueid": "w51266225:a33298483", "current_trial": 45, "dateTime": 1664555233290, "trialdata": {"rt": 3121, "stimulus": "<p id='stroop-text' class='stroop-green'>DOG</p>", "response": "g", "stimulus-type": "unrelated", "word": "DOG", "color": "green", "correct_response": "g", "trial_id": "stroop-trial-1-unrelated-7", "trial_type": "html-keyboard-response", "trial_index": 45, "time_elapsed": 280434, "internal_node_id": "0.0-4.0-41.0"}}, {"uniqueid": "w51266225:a33298483", "current_trial": 46, "dateTime": 1664555234662, "trialdata": {"rt": 869, "stimulus": "<p id='stroop-text' class='stroop-blue'>FORK</p>", "response": "b", "stimulus-type": "unrelated", "word": "FORK", "color": "blue", "correct_response": "b", "trial_id": "stroop-trial-1-unrelated-11", "trial_type": "html-keyboard-response", "trial_index": 46, "time_elapsed": 281807, "internal_node_id": "0.0-4.0-42.0"}}, {"uniqueid": "w51266225:a33298483", "current_trial": 47, "dateTime": 1664555236127, "trialdata": {"rt": 960, "stimulus": "<p id='stroop-text' class='stroop-red'>RED</p>", "response": "r", "stimulus-type": "congruent", "word": "red", "color": "red", "correct_response": "r", "trial_id": "stroop-trial-1-congruent-6", "trial_type": "html-keyboard-response", "trial_index": 47, "time_elapsed": 283271, "internal_node_id": "0.0-4.0-43.0"}}, {"uniqueid": "w51266225:a33298483", "current_trial": 48, "dateTime": 1664555237603, "trialdata": {"rt": 972, "stimulus": "<p id='stroop-text' class='stroop-yellow'>FORK</p>", "response": "y", "stimulus-type": "unrelated", "word": "FORK", "color": "yellow", "correct_response": "y", "trial_id": "stroop-trial-1-unrelated-1", "trial_type": "html-keyboard-response", "trial_index": 48, "time_elapsed": 284748, "internal_node_id": "0.0-4.0-44.0"}}, {"uniqueid": "w51266225:a33298483", "current_trial": 49, "dateTime": 1664555239447, "trialdata": {"rt": 1339, "stimulus": "<p id='stroop-text' class='stroop-green'>RED</p>", "response": "g", "stimulus-type": "incongruent", "word": "red", "color": "green", "correct_response": "g", "trial_id": "stroop-trial-1-incongruent-11", "trial_type": "html-keyboard-response", "trial_index": 49, "time_elapsed": 286592, "internal_node_id": "0.0-4.0-45.0"}}, {"uniqueid": "w51266225:a33298483", "current_trial": 50, "dateTime": 1664555240827, "trialdata": {"rt": 868, "stimulus": "<p id='stroop-text' class='stroop-blue'>BLUE</p>", "response": "b", "stimulus-type": "congruent", "word": "blue", "color": "blue", "correct_response": "b", "trial_id": "stroop-trial-1-congruent-12", "trial_type": "html-keyboard-response", "trial_index": 50, "time_elapsed": 287972, "internal_node_id": "0.0-4.0-46.0"}}, {"uniqueid": "w51266225:a33298483", "current_trial": 51, "dateTime": 1664555242135, "trialdata": {"rt": 803, "stimulus": "<p id='stroop-text' class='stroop-blue'>BLUE</p>", "response": "b", "stimulus-type": "congruent", "word": "blue", "color": "blue", "correct_response": "b", "trial_id": "stroop-trial-1-congruent-16", "trial_type": "html-keyboard-response", "trial_index": 51, "time_elapsed": 289280, "internal_node_id": "0.0-4.0-47.0"}}, {"uniqueid": "w51266225:a33298483", "current_trial": 52, "dateTime": 1664555244358, "trialdata": {"rt": 1720, "stimulus": "<p id='stroop-text' class='stroop-red'>SHIP</p>", "response": "r", "stimulus-type": "unrelated", "word": "SHIP", "color": "red", "correct_response": "r", "trial_id": "stroop-trial-1-unrelated-24", "trial_type": "html-keyboard-response", "trial_index": 52, "time_elapsed": 291503, "internal_node_id": "0.0-4.0-48.0"}}, {"uniqueid": "w51266225:a33298483", "current_trial": 53, "dateTime": 1664555245781, "trialdata": {"rt": 919, "stimulus": "<p id='stroop-text' class='stroop-yellow'>MONKEY</p>", "response": "y", "stimulus-type": "unrelated", "word": "MONKEY", "color": "yellow", "correct_response": "y", "trial_id": "stroop-trial-1-unrelated-15", "trial_type": "html-keyboard-response", "trial_index": 53, "time_elapsed": 292925, "internal_node_id": "0.0-4.0-49.0"}}, {"uniqueid": "w51266225:a33298483", "current_trial": 54, "dateTime": 1664555247775, "trialdata": {"rt": 1490, "stimulus": "<p id='stroop-text' class='stroop-red'>RED</p>", "response": "r", "stimulus-type": "congruent", "word": "red", "color": "red", "correct_response": "r", "trial_id": "stroop-trial-1-congruent-7", "trial_type": "html-keyboard-response", "trial_index": 54, "time_elapsed": 294919, "internal_node_id": "0.0-4.0-50.0"}}, {"uniqueid": "w51266225:a33298483", "current_trial": 55, "dateTime": 1664555249249, "trialdata": {"rt": 971, "stimulus": "<p id='stroop-text' class='stroop-red'>RED</p>", "response": "r", "stimulus-type": "congruent", "word": "red", "color": "red", "correct_response": "r", "trial_id": "stroop-trial-1-congruent-24", "trial_type": "html-keyboard-response", "trial_index": 55, "time_elapsed": 296394, "internal_node_id": "0.0-4.0-51.0"}}, {"uniqueid": "w51266225:a33298483", "current_trial": 56, "dateTime": 1664555250874, "trialdata": {"rt": 1121, "stimulus": "<p id='stroop-text' class='stroop-yellow'>SHIP</p>", "response": "y", "stimulus-type": "unrelated", "word": "SHIP", "color": "yellow", "correct_response": "y", "trial_id": "stroop-trial-1-unrelated-21", "trial_type": "html-keyboard-response", "trial_index": 56, "time_elapsed": 298018, "internal_node_id": "0.0-4.0-52.0"}}, {"uniqueid": "w51266225:a33298483", "current_trial": 57, "dateTime": 1664555252470, "trialdata": {"rt": 1090, "stimulus": "<p id='stroop-text' class='stroop-red'>RED</p>", "response": "r", "stimulus-type": "congruent", "word": "red", "color": "red", "correct_response": "r", "trial_id": "stroop-trial-1-congruent-21", "trial_type": "html-keyboard-response", "trial_index": 57, "time_elapsed": 299614, "internal_node_id": "0.0-4.0-53.0"}}, {"uniqueid": "w51266225:a33298483", "current_trial": 58, "dateTime": 1664555254066, "trialdata": {"rt": 1091, "stimulus": "<p id='stroop-text' class='stroop-yellow'>RED</p>", "response": "y", "stimulus-type": "incongruent", "word": "red", "color": "yellow", "correct_response": "y", "trial_id": "stroop-trial-1-incongruent-14", "trial_type": "html-keyboard-response", "trial_index": 58, "time_elapsed": 301210, "internal_node_id": "0.0-4.0-54.0"}}, {"uniqueid": "w51266225:a33298483", "current_trial": 59, "dateTime": 1664555255943, "trialdata": {"rt": 1371, "stimulus": "<p id='stroop-text' class='stroop-blue'>RED</p>", "response": "b", "stimulus-type": "incongruent", "word": "red", "color": "blue", "correct_response": "b", "trial_id": "stroop-trial-1-incongruent-22", "trial_type": "html-keyboard-response", "trial_index": 59, "time_elapsed": 303086, "internal_node_id": "0.0-4.0-55.0"}}, {"uniqueid": "w51266225:a33298483", "current_trial": 60, "dateTime": 1664555257099, "trialdata": {"rt": 652, "stimulus": "<p id='stroop-text' class='stroop-blue'>WINDOW</p>", "response": "b", "stimulus-type": "unrelated", "word": "WINDOW", "color": "blue", "correct_response": "b", "trial_id": "stroop-trial-1-unrelated-16", "trial_type": "html-keyboard-response", "trial_index": 60, "time_elapsed": 304244, "internal_node_id": "0.0-4.0-56.0"}}, {"uniqueid": "w51266225:a33298483", "current_trial": 61, "dateTime": 1664555258738, "trialdata": {"rt": 1135, "stimulus": "<p id='stroop-text' class='stroop-yellow'>STONE</p>", "response": "y", "stimulus-type": "unrelated", "word": "STONE", "color": "yellow", "correct_response": "y", "trial_id": "stroop-trial-1-unrelated-14", "trial_type": "html-keyboard-response", "trial_index": 61, "time_elapsed": 305882, "internal_node_id": "0.0-4.0-57.0"}}, {"uniqueid": "w51266225:a33298483", "current_trial": 62, "dateTime": 1664555260051, "trialdata": {"rt": 810, "stimulus": "<p id='stroop-text' class='stroop-yellow'>WINDOW</p>", "response": "y", "stimulus-type": "unrelated", "word": "WINDOW", "color": "yellow", "correct_response": "y", "trial_id": "stroop-trial-1-unrelated-12", "trial_type": "html-keyboard-response", "trial_index": 62, "time_elapsed": 307196, "internal_node_id": "0.0-4.0-58.0"}}, {"uniqueid": "w51266225:a33298483", "current_trial": 63, "dateTime": 1664555261608, "trialdata": {"rt": 1053, "stimulus": "<p id='stroop-text' class='stroop-blue'>BLUE</p>", "response": "b", "stimulus-type": "congruent", "word": "blue", "color": "blue", "correct_response": "b", "trial_id": "stroop-trial-1-congruent-28", "trial_type": "html-keyboard-response", "trial_index": 63, "time_elapsed": 308753, "internal_node_id": "0.0-4.0-59.0"}}, {"uniqueid": "w51266225:a33298483", "current_trial": 64, "dateTime": 1664555262911, "trialdata": {"rt": 800, "stimulus": "<p id='stroop-text' class='stroop-yellow'>BLUE</p>", "response": "y", "stimulus-type": "incongruent", "word": "blue", "color": "yellow", "correct_response": "y", "trial_id": "stroop-trial-1-incongruent-1", "trial_type": "html-keyboard-response", "trial_index": 64, "time_elapsed": 310055, "internal_node_id": "0.0-4.0-60.0"}}, {"uniqueid": "w51266225:a33298483", "current_trial": 65, "dateTime": 1664555264195, "trialdata": {"rt": 778, "stimulus": "<p id='stroop-text' class='stroop-blue'>BLUE</p>", "response": "b", "stimulus-type": "congruent", "word": "blue", "color": "blue", "correct_response": "b", "trial_id": "stroop-trial-1-congruent-15", "trial_type": "html-keyboard-response", "trial_index": 65, "time_elapsed": 311340, "internal_node_id": "0.0-4.0-61.0"}}, {"uniqueid": "w51266225:a33298483", "current_trial": 66, "dateTime": 1664555265396, "trialdata": {"rt": 697, "stimulus": "<p id='stroop-text' class='stroop-blue'>BLUE</p>", "response": "b", "stimulus-type": "congruent", "word": "blue", "color": "blue", "correct_response": "b", "trial_id": "stroop-trial-1-congruent-26", "trial_type": "html-keyboard-response", "trial_index": 66, "time_elapsed": 312540, "internal_node_id": "0.0-4.0-62.0"}}, {"uniqueid": "w51266225:a33298483", "current_trial": 67, "dateTime": 1664555266737, "trialdata": {"rt": 837, "stimulus": "<p id='stroop-text' class='stroop-green'>GREEN</p>", "response": "g", "stimulus-type": "congruent", "word": "green", "color": "green", "correct_response": "g", "trial_id": "stroop-trial-1-congruent-2", "trial_type": "html-keyboard-response", "trial_index": 67, "time_elapsed": 313881, "internal_node_id": "0.0-4.0-63.0"}}, {"uniqueid": "w51266225:a33298483", "current_trial": 68, "dateTime": 1664555268268, "trialdata": {"rt": 1026, "stimulus": "<p id='stroop-text' class='stroop-red'>WINDOW</p>", "response": "r", "stimulus-type": "unrelated", "word": "WINDOW", "color": "red", "correct_response": "r", "trial_id": "stroop-trial-1-unrelated-9", "trial_type": "html-keyboard-response", "trial_index": 68, "time_elapsed": 315412, "internal_node_id": "0.0-4.0-64.0"}}, {"uniqueid": "w51266225:a33298483", "current_trial": 69, "dateTime": 1664555269654, "trialdata": {"rt": 882, "stimulus": "<p id='stroop-text' class='stroop-red'>GREEN</p>", "response": "r", "stimulus-type": "incongruent", "word": "green", "color": "red", "correct_response": "r", "trial_id": "stroop-trial-1-incongruent-13", "trial_type": "html-keyboard-response", "trial_index": 69, "time_elapsed": 316798, "internal_node_id": "0.0-4.0-65.0"}}, {"uniqueid": "w51266225:a33298483", "current_trial": 70, "dateTime": 1664555271165, "trialdata": {"rt": 999, "stimulus": "<p id='stroop-text' class='stroop-blue'>DOG</p>", "response": "b", "stimulus-type": "unrelated", "word": "DOG", "color": "blue", "correct_response": "b", "trial_id": "stroop-trial-1-unrelated-30", "trial_type": "html-keyboard-response", "trial_index": 70, "time_elapsed": 318310, "internal_node_id": "0.0-4.0-66.0"}}, {"uniqueid": "w51266225:a33298483", "current_trial": 71, "dateTime": 1664555272973, "trialdata": {"rt": 1304, "stimulus": "<p id='stroop-text' class='stroop-yellow'>GREEN</p>", "response": "y", "stimulus-type": "incongruent", "word": "green", "color": "yellow", "correct_response": "y", "trial_id": "stroop-trial-1-incongruent-18", "trial_type": "html-keyboard-response", "trial_index": 71, "time_elapsed": 320118, "internal_node_id": "0.0-4.0-67.0"}}, {"uniqueid": "w51266225:a33298483", "current_trial": 72, "dateTime": 1664555274381, "trialdata": {"rt": 904, "stimulus": "<p id='stroop-text' class='stroop-blue'>CHAIR</p>", "response": "b", "stimulus-type": "unrelated", "word": "CHAIR", "color": "blue", "correct_response": "b", "trial_id": "stroop-trial-1-unrelated-26", "trial_type": "html-keyboard-response", "trial_index": 72, "time_elapsed": 321526, "internal_node_id": "0.0-4.0-68.0"}}, {"uniqueid": "w51266225:a33298483", "current_trial": 73, "dateTime": 1664555275786, "trialdata": {"rt": 899, "stimulus": "<p id='stroop-text' class='stroop-yellow'>YELLOW</p>", "response": "y", "stimulus-type": "congruent", "word": "yellow", "color": "yellow", "correct_response": "y", "trial_id": "stroop-trial-1-congruent-27", "trial_type": "html-keyboard-response", "trial_index": 73, "time_elapsed": 322930, "internal_node_id": "0.0-4.0-69.0"}}, {"uniqueid": "w51266225:a33298483", "current_trial": 74, "dateTime": 1664555277199, "trialdata": {"rt": 910, "stimulus": "<p id='stroop-text' class='stroop-red'>RED</p>", "response": "r", "stimulus-type": "congruent", "word": "red", "color": "red", "correct_response": "r", "trial_id": "stroop-trial-1-congruent-11", "trial_type": "html-keyboard-response", "trial_index": 74, "time_elapsed": 324344, "internal_node_id": "0.0-4.0-70.0"}}, {"uniqueid": "w51266225:a33298483", "current_trial": 75, "dateTime": 1664555278872, "trialdata": {"rt": 1167, "stimulus": "<p id='stroop-text' class='stroop-green'>RED</p>", "response": "g", "stimulus-type": "incongruent", "word": "red", "color": "green", "correct_response": "g", "trial_id": "stroop-trial-1-incongruent-28", "trial_type": "html-keyboard-response", "trial_index": 75, "time_elapsed": 326016, "internal_node_id": "0.0-4.0-71.0"}}, {"uniqueid": "w51266225:a33298483", "current_trial": 76, "dateTime": 1664555280670, "trialdata": {"rt": 1292, "stimulus": "<p id='stroop-text' class='stroop-green'>MONKEY</p>", "response": "g", "stimulus-type": "unrelated", "word": "MONKEY", "color": "green", "correct_response": "g", "trial_id": "stroop-trial-1-unrelated-23", "trial_type": "html-keyboard-response", "trial_index": 76, "time_elapsed": 327815, "internal_node_id": "0.0-4.0-72.0"}}, {"uniqueid": "w51266225:a33298483", "current_trial": 77, "dateTime": 1664555282753, "trialdata": {"rt": 1577, "stimulus": "<p id='stroop-text' class='stroop-blue'>RED</p>", "response": "b", "stimulus-type": "incongruent", "word": "red", "color": "blue", "correct_response": "b", "trial_id": "stroop-trial-1-incongruent-27", "trial_type": "html-keyboard-response", "trial_index": 77, "time_elapsed": 329898, "internal_node_id": "0.0-4.0-73.0"}}, {"uniqueid": "w51266225:a33298483", "current_trial": 78, "dateTime": 1664555284323, "trialdata": {"rt": 1066, "stimulus": "<p id='stroop-text' class='stroop-green'>DOG</p>", "response": "g", "stimulus-type": "unrelated", "word": "DOG", "color": "green", "correct_response": "g", "trial_id": "stroop-trial-1-unrelated-5", "trial_type": "html-keyboard-response", "trial_index": 78, "time_elapsed": 331467, "internal_node_id": "0.0-4.0-74.0"}}, {"uniqueid": "w51266225:a33298483", "current_trial": 79, "dateTime": 1664555285715, "trialdata": {"rt": 889, "stimulus": "<p id='stroop-text' class='stroop-yellow'>YELLOW</p>", "response": "y", "stimulus-type": "congruent", "word": "yellow", "color": "yellow", "correct_response": "y", "trial_id": "stroop-trial-1-congruent-9", "trial_type": "html-keyboard-response", "trial_index": 79, "time_elapsed": 332859, "internal_node_id": "0.0-4.0-75.0"}}, {"uniqueid": "w51266225:a33298483", "current_trial": 80, "dateTime": 1664555287476, "trialdata": {"rt": 1257, "stimulus": "<p id='stroop-text' class='stroop-yellow'>BLUE</p>", "response": "y", "stimulus-type": "incongruent", "word": "blue", "color": "yellow", "correct_response": "y", "trial_id": "stroop-trial-1-incongruent-7", "trial_type": "html-keyboard-response", "trial_index": 80, "time_elapsed": 334621, "internal_node_id": "0.0-4.0-76.0"}}, {"uniqueid": "w51266225:a33298483", "current_trial": 81, "dateTime": 1664555288764, "trialdata": {"rt": 784, "stimulus": "<p id='stroop-text' class='stroop-yellow'>GREEN</p>", "response": "y", "stimulus-type": "incongruent", "word": "green", "color": "yellow", "correct_response": "y", "trial_id": "stroop-trial-1-incongruent-9", "trial_type": "html-keyboard-response", "trial_index": 81, "time_elapsed": 335908, "internal_node_id": "0.0-4.0-77.0"}}, {"uniqueid": "w51266225:a33298483", "current_trial": 82, "dateTime": 1664555289892, "trialdata": {"rt": 624, "stimulus": "<p id='stroop-text' class='stroop-yellow'>BLUE</p>", "response": "y", "stimulus-type": "incongruent", "word": "blue", "color": "yellow", "correct_response": "y", "trial_id": "stroop-trial-1-incongruent-24", "trial_type": "html-keyboard-response", "trial_index": 82, "time_elapsed": 337037, "internal_node_id": "0.0-4.0-78.0"}}, {"uniqueid": "w51266225:a33298483", "current_trial": 83, "dateTime": 1664555291380, "trialdata": {"rt": 983, "stimulus": "<p id='stroop-text' class='stroop-green'>BOAT</p>", "response": "g", "stimulus-type": "unrelated", "word": "BOAT", "color": "green", "correct_response": "g", "trial_id": "stroop-trial-1-unrelated-25", "trial_type": "html-keyboard-response", "trial_index": 83, "time_elapsed": 338525, "internal_node_id": "0.0-4.0-79.0"}}, {"uniqueid": "w51266225:a33298483", "current_trial": 84, "dateTime": 1664555292333, "trialdata": {"rt": 447, "stimulus": "<p id='stroop-text' class='stroop-yellow'>YELLOW</p>", "response": "g", "stimulus-type": "congruent", "word": "yellow", "color": "yellow", "correct_response": "y", "trial_id": "stroop-trial-1-congruent-13", "trial_type": "html-keyboard-response", "trial_index": 84, "time_elapsed": 339478, "internal_node_id": "0.0-4.0-80.0"}}, {"uniqueid": "w51266225:a33298483", "current_trial": 85, "dateTime": 1664555294252, "trialdata": {"rt": 1414, "stimulus": "<p id='stroop-text' class='stroop-red'>RED</p>", "response": "r", "stimulus-type": "congruent", "word": "red", "color": "red", "correct_response": "r", "trial_id": "stroop-trial-1-congruent-29", "trial_type": "html-keyboard-response", "trial_index": 85, "time_elapsed": 341397, "internal_node_id": "0.0-4.0-81.0"}}, {"uniqueid": "w51266225:a33298483", "current_trial": 86, "dateTime": 1664555295790, "trialdata": {"rt": 1034, "stimulus": "<p id='stroop-text' class='stroop-blue'>GREEN</p>", "response": "b", "stimulus-type": "incongruent", "word": "green", "color": "blue", "correct_response": "b", "trial_id": "stroop-trial-1-incongruent-25", "trial_type": "html-keyboard-response", "trial_index": 86, "time_elapsed": 342935, "internal_node_id": "0.0-4.0-82.0"}}, {"uniqueid": "w51266225:a33298483", "current_trial": 87, "dateTime": 1664555297521, "trialdata": {"rt": 1227, "stimulus": "<p id='stroop-text' class='stroop-green'>BLUE</p>", "response": "g", "stimulus-type": "incongruent", "word": "blue", "color": "green", "correct_response": "g", "trial_id": "stroop-trial-1-incongruent-6", "trial_type": "html-keyboard-response", "trial_index": 87, "time_elapsed": 344666, "internal_node_id": "0.0-4.0-83.0"}}, {"uniqueid": "w51266225:a33298483", "current_trial": 88, "dateTime": 1664555299018, "trialdata": {"rt": 993, "stimulus": "<p id='stroop-text' class='stroop-red'>RED</p>", "response": "r", "stimulus-type": "congruent", "word": "red", "color": "red", "correct_response": "r", "trial_id": "stroop-trial-1-congruent-14", "trial_type": "html-keyboard-response", "trial_index": 88, "time_elapsed": 346163, "internal_node_id": "0.0-4.0-84.0"}}, {"uniqueid": "w51266225:a33298483", "current_trial": 89, "dateTime": 1664555300700, "trialdata": {"rt": 1179, "stimulus": "<p id='stroop-text' class='stroop-yellow'>RED</p>", "response": "y", "stimulus-type": "incongruent", "word": "red", "color": "yellow", "correct_response": "y", "trial_id": "stroop-trial-1-incongruent-23", "trial_type": "html-keyboard-response", "trial_index": 89, "time_elapsed": 347845, "internal_node_id": "0.0-4.0-85.0"}}, {"uniqueid": "w51266225:a33298483", "current_trial": 90, "dateTime": 1664555301967, "trialdata": {"rt": 763, "stimulus": "<p id='stroop-text' class='stroop-yellow'>FORK</p>", "response": "y", "stimulus-type": "unrelated", "word": "FORK", "color": "yellow", "correct_response": "y", "trial_id": "stroop-trial-1-unrelated-4", "trial_type": "html-keyboard-response", "trial_index": 90, "time_elapsed": 349111, "internal_node_id": "0.0-4.0-86.0"}}, {"uniqueid": "w51266225:a33298483", "current_trial": 91, "dateTime": 1664555303929, "trialdata": {"rt": 1457, "stimulus": "<p id='stroop-text' class='stroop-red'>YELLOW</p>", "response": "r", "stimulus-type": "incongruent", "word": "yellow", "color": "red", "correct_response": "r", "trial_id": "stroop-trial-1-incongruent-17", "trial_type": "html-keyboard-response", "trial_index": 91, "time_elapsed": 351073, "internal_node_id": "0.0-4.0-87.0"}}, {"uniqueid": "w51266225:a33298483", "current_trial": 92, "dateTime": 1664555305672, "trialdata": {"rt": 1238, "stimulus": "<p id='stroop-text' class='stroop-blue'>FORK</p>", "response": "b", "stimulus-type": "unrelated", "word": "FORK", "color": "blue", "correct_response": "b", "trial_id": "stroop-trial-1-unrelated-10", "trial_type": "html-keyboard-response", "trial_index": 92, "time_elapsed": 352817, "internal_node_id": "0.0-4.0-88.0"}}, {"uniqueid": "w51266225:a33298483", "current_trial": 93, "dateTime": 1664555307007, "trialdata": {"rt": 828, "stimulus": "<p id='stroop-text' class='stroop-blue'>BOTTLE</p>", "response": "b", "stimulus-type": "unrelated", "word": "BOTTLE", "color": "blue", "correct_response": "b", "trial_id": "stroop-trial-1-unrelated-28", "trial_type": "html-keyboard-response", "trial_index": 93, "time_elapsed": 354152, "internal_node_id": "0.0-4.0-89.0"}}, {"uniqueid": "w51266225:a33298483", "current_trial": 94, "dateTime": 1664555326128, "trialdata": {"rt": 18616, "stimulus": "  <h1> End of block! </h1>\n\n  You have reached the end of the block 1/5. If you need a short break, feel free to take one now before moving on.\n\n  <br><br>\n  In the next block, you will complete another 90 rounds of this game.\n\n  <br><br>\n  <div style='text-align: center;'>Press <code>space</code> to begin.</div>\n  <br><br>\n<div style='text-align: center;'>(If the experiment doesn't continue, try clicking on the text and then pressing <code>space</code>.)</div>", "response": " ", "trial_id": "stroop_1_ready_2", "trial_type": "html-keyboard-response", "trial_index": 94, "time_elapsed": 373273, "internal_node_id": "0.0-5.0"}}, {"uniqueid": "w51266225:a33298483", "current_trial": 95, "dateTime": 1664555327241, "trialdata": {"rt": 1108, "stimulus": "<p id='stroop-text' class='stroop-yellow'>BOAT</p>", "response": "y", "stimulus-type": "unrelated", "word": "BOAT", "color": "yellow", "correct_response": "y", "trial_id": "stroop-trial-1-unrelated-24", "trial_type": "html-keyboard-response", "trial_index": 95, "time_elapsed": 374386, "internal_node_id": "0.0-6.0-0.0"}}, {"uniqueid": "w51266225:a33298483", "current_trial": 96, "dateTime": 1664555328915, "trialdata": {"rt": 1168, "stimulus": "<p id='stroop-text' class='stroop-red'>GREEN</p>", "response": "r", "stimulus-type": "incongruent", "word": "green", "color": "red", "correct_response": "r", "trial_id": "stroop-trial-1-incongruent-19", "trial_type": "html-keyboard-response", "trial_index": 96, "time_elapsed": 376059, "internal_node_id": "0.0-6.0-1.0"}}, {"uniqueid": "w51266225:a33298483", "current_trial": 97, "dateTime": 1664555330181, "trialdata": {"rt": 763, "stimulus": "<p id='stroop-text' class='stroop-red'>RED</p>", "response": "r", "stimulus-type": "congruent", "word": "red", "color": "red", "correct_response": "r", "trial_id": "stroop-trial-1-congruent-14", "trial_type": "html-keyboard-response", "trial_index": 97, "time_elapsed": 377326, "internal_node_id": "0.0-6.0-2.0"}}, {"uniqueid": "w51266225:a33298483", "current_trial": 98, "dateTime": 1664555331741, "trialdata": {"rt": 1056, "stimulus": "<p id='stroop-text' class='stroop-green'>FORK</p>", "response": "g", "stimulus-type": "unrelated", "word": "FORK", "color": "green", "correct_response": "g", "trial_id": "stroop-trial-1-unrelated-1", "trial_type": "html-keyboard-response", "trial_index": 98, "time_elapsed": 378886, "internal_node_id": "0.0-6.0-3.0"}}, {"uniqueid": "w51266225:a33298483", "current_trial": 99, "dateTime": 1664555333250, "trialdata": {"rt": 1004, "stimulus": "<p id='stroop-text' class='stroop-yellow'>RED</p>", "response": "y", "stimulus-type": "incongruent", "word": "red", "color": "yellow", "correct_response": "y", "trial_id": "stroop-trial-1-incongruent-28", "trial_type": "html-keyboard-response", "trial_index": 99, "time_elapsed": 380395, "internal_node_id": "0.0-6.0-4.0"}}, {"uniqueid": "w51266225:a33298483", "current_trial": 100, "dateTime": 1664555334805, "trialdata": {"rt": 1050, "stimulus": "<p id='stroop-text' class='stroop-blue'>WINDOW</p>", "response": "b", "stimulus-type": "unrelated", "word": "WINDOW", "color": "blue", "correct_response": "b", "trial_id": "stroop-trial-1-unrelated-5", "trial_type": "html-keyboard-response", "trial_index": 100, "time_elapsed": 381949, "internal_node_id": "0.0-6.0-5.0"}}, {"uniqueid": "w51266225:a33298483", "current_trial": 101, "dateTime": 1664555336362, "trialdata": {"rt": 1051, "stimulus": "<p id='stroop-text' class='stroop-green'>RED</p>", "response": "g", "stimulus-type": "incongruent", "word": "red", "color": "green", "correct_response": "g", "trial_id": "stroop-trial-1-incongruent-23", "trial_type": "html-keyboard-response", "trial_index": 101, "time_elapsed": 383504, "internal_node_id": "0.0-6.0-6.0"}}, {"uniqueid": "w51266225:a33298483", "current_trial": 102, "dateTime": 1664555337303, "trialdata": {"rt": 437, "stimulus": "<p id='stroop-text' class='stroop-green'>GREEN</p>", "response": "g", "stimulus-type": "congruent", "word": "green", "color": "green", "correct_response": "g", "trial_id": "stroop-trial-1-congruent-22", "trial_type": "html-keyboard-response", "trial_index": 102, "time_elapsed": 384448, "internal_node_id": "0.0-6.0-7.0"}}, {"uniqueid": "w51266225:a33298483", "current_trial": 103, "dateTime": 1664555338580, "trialdata": {"rt": 771, "stimulus": "<p id='stroop-text' class='stroop-red'>WINDOW</p>", "response": "r", "stimulus-type": "unrelated", "word": "WINDOW", "color": "red", "correct_response": "r", "trial_id": "stroop-trial-1-unrelated-9", "trial_type": "html-keyboard-response", "trial_index": 103, "time_elapsed": 385724, "internal_node_id": "0.0-6.0-8.0"}}, {"uniqueid": "w51266225:a33298483", "current_trial": 104, "dateTime": 1664555340617, "trialdata": {"rt": 1533, "stimulus": "<p id='stroop-text' class='stroop-yellow'>BOTTLE</p>", "response": "y", "stimulus-type": "unrelated", "word": "BOTTLE", "color": "yellow", "correct_response": "y", "trial_id": "stroop-trial-1-unrelated-28", "trial_type": "html-keyboard-response", "trial_index": 104, "time_elapsed": 387762, "internal_node_id": "0.0-6.0-9.0"}}, {"uniqueid": "w51266225:a33298483", "current_trial": 105, "dateTime": 1664555342295, "trialdata": {"rt": 1174, "stimulus": "<p id='stroop-text' class='stroop-blue'>BLUE</p>", "response": "b", "stimulus-type": "congruent", "word": "blue", "color": "blue", "correct_response": "b", "trial_id": "stroop-trial-1-congruent-28", "trial_type": "html-keyboard-response", "trial_index": 105, "time_elapsed": 389439, "internal_node_id": "0.0-6.0-10.0"}}, {"uniqueid": "w51266225:a33298483", "current_trial": 106, "dateTime": 1664555343681, "trialdata": {"rt": 881, "stimulus": "<p id='stroop-text' class='stroop-green'>MONKEY</p>", "response": "g", "stimulus-type": "unrelated", "word": "MONKEY", "color": "green", "correct_response": "g", "trial_id": "stroop-trial-1-unrelated-29", "trial_type": "html-keyboard-response", "trial_index": 106, "time_elapsed": 390825, "internal_node_id": "0.0-6.0-11.0"}}, {"uniqueid": "w51266225:a33298483", "current_trial": 107, "dateTime": 1664555345014, "trialdata": {"rt": 830, "stimulus": "<p id='stroop-text' class='stroop-green'>BLUE</p>", "response": "g", "stimulus-type": "incongruent", "word": "blue", "color": "green", "correct_response": "g", "trial_id": "stroop-trial-1-incongruent-4", "trial_type": "html-keyboard-response", "trial_index": 107, "time_elapsed": 392159, "internal_node_id": "0.0-6.0-12.0"}}, {"uniqueid": "w51266225:a33298483", "current_trial": 108, "dateTime": 1664555346361, "trialdata": {"rt": 843, "stimulus": "<p id='stroop-text' class='stroop-yellow'>YELLOW</p>", "response": "y", "stimulus-type": "congruent", "word": "yellow", "color": "yellow", "correct_response": "y", "trial_id": "stroop-trial-1-congruent-29", "trial_type": "html-keyboard-response", "trial_index": 108, "time_elapsed": 393506, "internal_node_id": "0.0-6.0-13.0"}}, {"uniqueid": "w51266225:a33298483", "current_trial": 109, "dateTime": 1664555348066, "trialdata": {"rt": 1202, "stimulus": "<p id='stroop-text' class='stroop-blue'>BOTTLE</p>", "response": "b", "stimulus-type": "unrelated", "word": "BOTTLE", "color": "blue", "correct_response": "b", "trial_id": "stroop-trial-1-unrelated-13", "trial_type": "html-keyboard-response", "trial_index": 109, "time_elapsed": 395211, "internal_node_id": "0.0-6.0-14.0"}}, {"uniqueid": "w51266225:a33298483", "current_trial": 110, "dateTime": 1664555349534, "trialdata": {"rt": 962, "stimulus": "<p id='stroop-text' class='stroop-yellow'>GREEN</p>", "response": "y", "stimulus-type": "incongruent", "word": "green", "color": "yellow", "correct_response": "y", "trial_id": "stroop-trial-1-incongruent-2", "trial_type": "html-keyboard-response", "trial_index": 110, "time_elapsed": 396679, "internal_node_id": "0.0-6.0-15.0"}}, {"uniqueid": "w51266225:a33298483", "current_trial": 111, "dateTime": 1664555352136, "trialdata": {"rt": 2098, "stimulus": "<p id='stroop-text' class='stroop-green'>GREEN</p>", "response": "g", "stimulus-type": "congruent", "word": "green", "color": "green", "correct_response": "g", "trial_id": "stroop-trial-1-congruent-30", "trial_type": "html-keyboard-response", "trial_index": 111, "time_elapsed": 399280, "internal_node_id": "0.0-6.0-16.0"}}, {"uniqueid": "w51266225:a33298483", "current_trial": 112, "dateTime": 1664555353588, "trialdata": {"rt": 946, "stimulus": "<p id='stroop-text' class='stroop-blue'>BLUE</p>", "response": "b", "stimulus-type": "congruent", "word": "blue", "color": "blue", "correct_response": "b", "trial_id": "stroop-trial-1-congruent-5", "trial_type": "html-keyboard-response", "trial_index": 112, "time_elapsed": 400732, "internal_node_id": "0.0-6.0-17.0"}}, {"uniqueid": "w51266225:a33298483", "current_trial": 113, "dateTime": 1664555354682, "trialdata": {"rt": 589, "stimulus": "<p id='stroop-text' class='stroop-blue'>BLUE</p>", "response": "b", "stimulus-type": "congruent", "word": "blue", "color": "blue", "correct_response": "b", "trial_id": "stroop-trial-1-congruent-25", "trial_type": "html-keyboard-response", "trial_index": 113, "time_elapsed": 401826, "internal_node_id": "0.0-6.0-18.0"}}, {"uniqueid": "w51266225:a33298483", "current_trial": 114, "dateTime": 1664555356708, "trialdata": {"rt": 1521, "stimulus": "<p id='stroop-text' class='stroop-green'>BRAIN</p>", "response": "g", "stimulus-type": "unrelated", "word": "BRAIN", "color": "green", "correct_response": "g", "trial_id": "stroop-trial-1-unrelated-22", "trial_type": "html-keyboard-response", "trial_index": 114, "time_elapsed": 403852, "internal_node_id": "0.0-6.0-19.0"}}, {"uniqueid": "w51266225:a33298483", "current_trial": 115, "dateTime": 1664555357792, "trialdata": {"rt": 581, "stimulus": "<p id='stroop-text' class='stroop-green'>GREEN</p>", "response": "g", "stimulus-type": "congruent", "word": "green", "color": "green", "correct_response": "g", "trial_id": "stroop-trial-1-congruent-1", "trial_type": "html-keyboard-response", "trial_index": 115, "time_elapsed": 404937, "internal_node_id": "0.0-6.0-20.0"}}, {"uniqueid": "w51266225:a33298483", "current_trial": 116, "dateTime": 1664555358918, "trialdata": {"rt": 617, "stimulus": "<p id='stroop-text' class='stroop-green'>BRIDGE</p>", "response": "g", "stimulus-type": "unrelated", "word": "BRIDGE", "color": "green", "correct_response": "g", "trial_id": "stroop-trial-1-unrelated-19", "trial_type": "html-keyboard-response", "trial_index": 116, "time_elapsed": 406062, "internal_node_id": "0.0-6.0-21.0"}}, {"uniqueid": "w51266225:a33298483", "current_trial": 117, "dateTime": 1664555360680, "trialdata": {"rt": 1257, "stimulus": "<p id='stroop-text' class='stroop-yellow'>RED</p>", "response": "y", "stimulus-type": "incongruent", "word": "red", "color": "yellow", "correct_response": "y", "trial_id": "stroop-trial-1-incongruent-7", "trial_type": "html-keyboard-response", "trial_index": 117, "time_elapsed": 407824, "internal_node_id": "0.0-6.0-22.0"}}, {"uniqueid": "w51266225:a33298483", "current_trial": 118, "dateTime": 1664555362132, "trialdata": {"rt": 948, "stimulus": "<p id='stroop-text' class='stroop-green'>YELLOW</p>", "response": "g", "stimulus-type": "incongruent", "word": "yellow", "color": "green", "correct_response": "g", "trial_id": "stroop-trial-1-incongruent-30", "trial_type": "html-keyboard-response", "trial_index": 118, "time_elapsed": 409276, "internal_node_id": "0.0-6.0-23.0"}}, {"uniqueid": "w51266225:a33298483", "current_trial": 119, "dateTime": 1664555363250, "trialdata": {"rt": 612, "stimulus": "<p id='stroop-text' class='stroop-green'>GREEN</p>", "response": "g", "stimulus-type": "congruent", "word": "green", "color": "green", "correct_response": "g", "trial_id": "stroop-trial-1-congruent-4", "trial_type": "html-keyboard-response", "trial_index": 119, "time_elapsed": 410394, "internal_node_id": "0.0-6.0-24.0"}}, {"uniqueid": "w51266225:a33298483", "current_trial": 120, "dateTime": 1664555364646, "trialdata": {"rt": 892, "stimulus": "<p id='stroop-text' class='stroop-red'>RED</p>", "response": "r", "stimulus-type": "congruent", "word": "red", "color": "red", "correct_response": "r", "trial_id": "stroop-trial-1-congruent-26", "trial_type": "html-keyboard-response", "trial_index": 120, "time_elapsed": 411790, "internal_node_id": "0.0-6.0-25.0"}}, {"uniqueid": "w51266225:a33298483", "current_trial": 121, "dateTime": 1664555366034, "trialdata": {"rt": 883, "stimulus": "<p id='stroop-text' class='stroop-blue'>YELLOW</p>", "response": "b", "stimulus-type": "incongruent", "word": "yellow", "color": "blue", "correct_response": "b", "trial_id": "stroop-trial-1-incongruent-26", "trial_type": "html-keyboard-response", "trial_index": 121, "time_elapsed": 413178, "internal_node_id": "0.0-6.0-26.0"}}, {"uniqueid": "w51266225:a33298483", "current_trial": 122, "dateTime": 1664555367227, "trialdata": {"rt": 690, "stimulus": "<p id='stroop-text' class='stroop-blue'>BOTTLE</p>", "response": "b", "stimulus-type": "unrelated", "word": "BOTTLE", "color": "blue", "correct_response": "b", "trial_id": "stroop-trial-1-unrelated-21", "trial_type": "html-keyboard-response", "trial_index": 122, "time_elapsed": 414372, "internal_node_id": "0.0-6.0-27.0"}}, {"uniqueid": "w51266225:a33298483", "current_trial": 123, "dateTime": 1664555369206, "trialdata": {"rt": 1475, "stimulus": "<p id='stroop-text' class='stroop-red'>FORK</p>", "response": "r", "stimulus-type": "unrelated", "word": "FORK", "color": "red", "correct_response": "r", "trial_id": "stroop-trial-1-unrelated-6", "trial_type": "html-keyboard-response", "trial_index": 123, "time_elapsed": 416350, "internal_node_id": "0.0-6.0-28.0"}}, {"uniqueid": "w51266225:a33298483", "current_trial": 124, "dateTime": 1664555370479, "trialdata": {"rt": 767, "stimulus": "<p id='stroop-text' class='stroop-green'>RED</p>", "response": "g", "stimulus-type": "incongruent", "word": "red", "color": "green", "correct_response": "g", "trial_id": "stroop-trial-1-incongruent-29", "trial_type": "html-keyboard-response", "trial_index": 124, "time_elapsed": 417623, "internal_node_id": "0.0-6.0-29.0"}}, {"uniqueid": "w51266225:a33298483", "current_trial": 125, "dateTime": 1664555371698, "trialdata": {"rt": 715, "stimulus": "<p id='stroop-text' class='stroop-red'>RED</p>", "response": "r", "stimulus-type": "congruent", "word": "red", "color": "red", "correct_response": "r", "trial_id": "stroop-trial-1-congruent-3", "trial_type": "html-keyboard-response", "trial_index": 125, "time_elapsed": 418842, "internal_node_id": "0.0-6.0-30.0"}}, {"uniqueid": "w51266225:a33298483", "current_trial": 126, "dateTime": 1664555373014, "trialdata": {"rt": 812, "stimulus": "<p id='stroop-text' class='stroop-blue'>BLUE</p>", "response": "b", "stimulus-type": "congruent", "word": "blue", "color": "blue", "correct_response": "b", "trial_id": "stroop-trial-1-congruent-21", "trial_type": "html-keyboard-response", "trial_index": 126, "time_elapsed": 420158, "internal_node_id": "0.0-6.0-31.0"}}, {"uniqueid": "w51266225:a33298483", "current_trial": 127, "dateTime": 1664555374212, "trialdata": {"rt": 694, "stimulus": "<p id='stroop-text' class='stroop-blue'>MONKEY</p>", "response": "b", "stimulus-type": "unrelated", "word": "MONKEY", "color": "blue", "correct_response": "b", "trial_id": "stroop-trial-1-unrelated-16", "trial_type": "html-keyboard-response", "trial_index": 127, "time_elapsed": 421357, "internal_node_id": "0.0-6.0-32.0"}}, {"uniqueid": "w51266225:a33298483", "current_trial": 128, "dateTime": 1664555375494, "trialdata": {"rt": 777, "stimulus": "<p id='stroop-text' class='stroop-yellow'>WINDOW</p>", "response": "y", "stimulus-type": "unrelated", "word": "WINDOW", "color": "yellow", "correct_response": "y", "trial_id": "stroop-trial-1-unrelated-26", "trial_type": "html-keyboard-response", "trial_index": 128, "time_elapsed": 422638, "internal_node_id": "0.0-6.0-33.0"}}, {"uniqueid": "w51266225:a33298483", "current_trial": 129, "dateTime": 1664555376801, "trialdata": {"rt": 804, "stimulus": "<p id='stroop-text' class='stroop-yellow'>BLUE</p>", "response": "y", "stimulus-type": "incongruent", "word": "blue", "color": "yellow", "correct_response": "y", "trial_id": "stroop-trial-1-incongruent-20", "trial_type": "html-keyboard-response", "trial_index": 129, "time_elapsed": 423945, "internal_node_id": "0.0-6.0-34.0"}}, {"uniqueid": "w51266225:a33298483", "current_trial": 130, "dateTime": 1664555377956, "trialdata": {"rt": 647, "stimulus": "<p id='stroop-text' class='stroop-yellow'>YELLOW</p>", "response": "y", "stimulus-type": "congruent", "word": "yellow", "color": "yellow", "correct_response": "y", "trial_id": "stroop-trial-1-congruent-7", "trial_type": "html-keyboard-response", "trial_index": 130, "time_elapsed": 425100, "internal_node_id": "0.0-6.0-35.0"}}, {"uniqueid": "w51266225:a33298483", "current_trial": 131, "dateTime": 1664555379135, "trialdata": {"rt": 674, "stimulus": "<p id='stroop-text' class='stroop-blue'>BLUE</p>", "response": "b", "stimulus-type": "congruent", "word": "blue", "color": "blue", "correct_response": "b", "trial_id": "stroop-trial-1-congruent-23", "trial_type": "html-keyboard-response", "trial_index": 131, "time_elapsed": 426280, "internal_node_id": "0.0-6.0-36.0"}}, {"uniqueid": "w51266225:a33298483", "current_trial": 132, "dateTime": 1664555380492, "trialdata": {"rt": 851, "stimulus": "<p id='stroop-text' class='stroop-yellow'>BLUE</p>", "response": "y", "stimulus-type": "incongruent", "word": "blue", "color": "yellow", "correct_response": "y", "trial_id": "stroop-trial-1-incongruent-18", "trial_type": "html-keyboard-response", "trial_index": 132, "time_elapsed": 427636, "internal_node_id": "0.0-6.0-37.0"}}, {"uniqueid": "w51266225:a33298483", "current_trial": 133, "dateTime": 1664555381711, "trialdata": {"rt": 715, "stimulus": "<p id='stroop-text' class='stroop-yellow'>RED</p>", "response": "y", "stimulus-type": "incongruent", "word": "red", "color": "yellow", "correct_response": "y", "trial_id": "stroop-trial-1-incongruent-11", "trial_type": "html-keyboard-response", "trial_index": 133, "time_elapsed": 428856, "internal_node_id": "0.0-6.0-38.0"}}, {"uniqueid": "w51266225:a33298483", "current_trial": 134, "dateTime": 1664555383093, "trialdata": {"rt": 877, "stimulus": "<p id='stroop-text' class='stroop-blue'>BLUE</p>", "response": "b", "stimulus-type": "congruent", "word": "blue", "color": "blue", "correct_response": "b", "trial_id": "stroop-trial-1-congruent-16", "trial_type": "html-keyboard-response", "trial_index": 134, "time_elapsed": 430237, "internal_node_id": "0.0-6.0-39.0"}}, {"uniqueid": "w51266225:a33298483", "current_trial": 135, "dateTime": 1664555384514, "trialdata": {"rt": 917, "stimulus": "<p id='stroop-text' class='stroop-red'>STONE</p>", "response": "r", "stimulus-type": "unrelated", "word": "STONE", "color": "red", "correct_response": "r", "trial_id": "stroop-trial-1-unrelated-3", "trial_type": "html-keyboard-response", "trial_index": 135, "time_elapsed": 431658, "internal_node_id": "0.0-6.0-40.0"}}, {"uniqueid": "w51266225:a33298483", "current_trial": 136, "dateTime": 1664555386999, "trialdata": {"rt": 1981, "stimulus": "<p id='stroop-text' class='stroop-blue'>BLUE</p>", "response": "b", "stimulus-type": "congruent", "word": "blue", "color": "blue", "correct_response": "b", "trial_id": "stroop-trial-1-congruent-18", "trial_type": "html-keyboard-response", "trial_index": 136, "time_elapsed": 434143, "internal_node_id": "0.0-6.0-41.0"}}, {"uniqueid": "w51266225:a33298483", "current_trial": 137, "dateTime": 1664555388688, "trialdata": {"rt": 1181, "stimulus": "<p id='stroop-text' class='stroop-red'>GREEN</p>", "response": "r", "stimulus-type": "incongruent", "word": "green", "color": "red", "correct_response": "r", "trial_id": "stroop-trial-1-incongruent-24", "trial_type": "html-keyboard-response", "trial_index": 137, "time_elapsed": 435832, "internal_node_id": "0.0-6.0-42.0"}}, {"uniqueid": "w51266225:a33298483", "current_trial": 138, "dateTime": 1664555389728, "trialdata": {"rt": 536, "stimulus": "<p id='stroop-text' class='stroop-red'>RED</p>", "response": "r", "stimulus-type": "congruent", "word": "red", "color": "red", "correct_response": "r", "trial_id": "stroop-trial-1-congruent-6", "trial_type": "html-keyboard-response", "trial_index": 138, "time_elapsed": 436872, "internal_node_id": "0.0-6.0-43.0"}}, {"uniqueid": "w51266225:a33298483", "current_trial": 139, "dateTime": 1664555390767, "trialdata": {"rt": 535, "stimulus": "<p id='stroop-text' class='stroop-red'>BLUE</p>", "response": "r", "stimulus-type": "incongruent", "word": "blue", "color": "red", "correct_response": "r", "trial_id": "stroop-trial-1-incongruent-5", "trial_type": "html-keyboard-response", "trial_index": 139, "time_elapsed": 437911, "internal_node_id": "0.0-6.0-44.0"}}, {"uniqueid": "w51266225:a33298483", "current_trial": 140, "dateTime": 1664555392840, "trialdata": {"rt": 1566, "stimulus": "<p id='stroop-text' class='stroop-green'>BRIDGE</p>", "response": "g", "stimulus-type": "unrelated", "word": "BRIDGE", "color": "green", "correct_response": "g", "trial_id": "stroop-trial-1-unrelated-7", "trial_type": "html-keyboard-response", "trial_index": 140, "time_elapsed": 439984, "internal_node_id": "0.0-6.0-45.0"}}, {"uniqueid": "w51266225:a33298483", "current_trial": 141, "dateTime": 1664555394673, "trialdata": {"rt": 1329, "stimulus": "<p id='stroop-text' class='stroop-blue'>GREEN</p>", "response": "b", "stimulus-type": "incongruent", "word": "green", "color": "blue", "correct_response": "b", "trial_id": "stroop-trial-1-incongruent-12", "trial_type": "html-keyboard-response", "trial_index": 141, "time_elapsed": 441818, "internal_node_id": "0.0-6.0-46.0"}}, {"uniqueid": "w51266225:a33298483", "current_trial": 142, "dateTime": 1664555396511, "trialdata": {"rt": 1330, "stimulus": "<p id='stroop-text' class='stroop-green'>BLUE</p>", "response": "g", "stimulus-type": "incongruent", "word": "blue", "color": "green", "correct_response": "g", "trial_id": "stroop-trial-1-incongruent-27", "trial_type": "html-keyboard-response", "trial_index": 142, "time_elapsed": 443656, "internal_node_id": "0.0-6.0-47.0"}}, {"uniqueid": "w51266225:a33298483", "current_trial": 143, "dateTime": 1664555397792, "trialdata": {"rt": 776, "stimulus": "<p id='stroop-text' class='stroop-yellow'>BLUE</p>", "response": "y", "stimulus-type": "incongruent", "word": "blue", "color": "yellow", "correct_response": "y", "trial_id": "stroop-trial-1-incongruent-25", "trial_type": "html-keyboard-response", "trial_index": 143, "time_elapsed": 444937, "internal_node_id": "0.0-6.0-48.0"}}, {"uniqueid": "w51266225:a33298483", "current_trial": 144, "dateTime": 1664555399265, "trialdata": {"rt": 967, "stimulus": "<p id='stroop-text' class='stroop-blue'>FORK</p>", "response": "b", "stimulus-type": "unrelated", "word": "FORK", "color": "blue", "correct_response": "b", "trial_id": "stroop-trial-1-unrelated-15", "trial_type": "html-keyboard-response", "trial_index": 144, "time_elapsed": 446409, "internal_node_id": "0.0-6.0-49.0"}}, {"uniqueid": "w51266225:a33298483", "current_trial": 145, "dateTime": 1664555400289, "trialdata": {"rt": 518, "stimulus": "<p id='stroop-text' class='stroop-blue'>BLUE</p>", "response": "b", "stimulus-type": "congruent", "word": "blue", "color": "blue", "correct_response": "b", "trial_id": "stroop-trial-1-congruent-19", "trial_type": "html-keyboard-response", "trial_index": 145, "time_elapsed": 447433, "internal_node_id": "0.0-6.0-50.0"}}, {"uniqueid": "w51266225:a33298483", "current_trial": 146, "dateTime": 1664555401262, "trialdata": {"rt": 468, "stimulus": "<p id='stroop-text' class='stroop-blue'>MONKEY</p>", "response": "b", "stimulus-type": "unrelated", "word": "MONKEY", "color": "blue", "correct_response": "b", "trial_id": "stroop-trial-1-unrelated-17", "trial_type": "html-keyboard-response", "trial_index": 146, "time_elapsed": 448407, "internal_node_id": "0.0-6.0-51.0"}}, {"uniqueid": "w51266225:a33298483", "current_trial": 147, "dateTime": 1664555402222, "trialdata": {"rt": 455, "stimulus": "<p id='stroop-text' class='stroop-blue'>BLUE</p>", "response": "b", "stimulus-type": "congruent", "word": "blue", "color": "blue", "correct_response": "b", "trial_id": "stroop-trial-1-congruent-10", "trial_type": "html-keyboard-response", "trial_index": 147, "time_elapsed": 449367, "internal_node_id": "0.0-6.0-52.0"}}, {"uniqueid": "w51266225:a33298483", "current_trial": 148, "dateTime": 1664555405070, "trialdata": {"rt": 2341, "stimulus": "<p id='stroop-text' class='stroop-yellow'>YELLOW</p>", "response": "y", "stimulus-type": "congruent", "word": "yellow", "color": "yellow", "correct_response": "y", "trial_id": "stroop-trial-1-congruent-27", "trial_type": "html-keyboard-response", "trial_index": 148, "time_elapsed": 452215, "internal_node_id": "0.0-6.0-53.0"}}, {"uniqueid": "w51266225:a33298483", "current_trial": 149, "dateTime": 1664555406388, "trialdata": {"rt": 813, "stimulus": "<p id='stroop-text' class='stroop-red'>RED</p>", "response": "r", "stimulus-type": "congruent", "word": "red", "color": "red", "correct_response": "r", "trial_id": "stroop-trial-1-congruent-24", "trial_type": "html-keyboard-response", "trial_index": 149, "time_elapsed": 453533, "internal_node_id": "0.0-6.0-54.0"}}, {"uniqueid": "w51266225:a33298483", "current_trial": 150, "dateTime": 1664555408691, "trialdata": {"rt": 1795, "stimulus": "<p id='stroop-text' class='stroop-blue'>BLUE</p>", "response": "b", "stimulus-type": "congruent", "word": "blue", "color": "blue", "correct_response": "b", "trial_id": "stroop-trial-1-congruent-15", "trial_type": "html-keyboard-response", "trial_index": 150, "time_elapsed": 455835, "internal_node_id": "0.0-6.0-55.0"}}, {"uniqueid": "w51266225:a33298483", "current_trial": 151, "dateTime": 1664555410397, "trialdata": {"rt": 1202, "stimulus": "<p id='stroop-text' class='stroop-green'>YELLOW</p>", "response": "g", "stimulus-type": "incongruent", "word": "yellow", "color": "green", "correct_response": "g", "trial_id": "stroop-trial-1-incongruent-9", "trial_type": "html-keyboard-response", "trial_index": 151, "time_elapsed": 457542, "internal_node_id": "0.0-6.0-56.0"}}, {"uniqueid": "w51266225:a33298483", "current_trial": 152, "dateTime": 1664555411664, "trialdata": {"rt": 761, "stimulus": "<p id='stroop-text' class='stroop-red'>RED</p>", "response": "r", "stimulus-type": "congruent", "word": "red", "color": "red", "correct_response": "r", "trial_id": "stroop-trial-1-congruent-20", "trial_type": "html-keyboard-response", "trial_index": 152, "time_elapsed": 458809, "internal_node_id": "0.0-6.0-57.0"}}, {"uniqueid": "w51266225:a33298483", "current_trial": 153, "dateTime": 1664555413043, "trialdata": {"rt": 873, "stimulus": "<p id='stroop-text' class='stroop-green'>GREEN</p>", "response": "g", "stimulus-type": "congruent", "word": "green", "color": "green", "correct_response": "g", "trial_id": "stroop-trial-1-congruent-13", "trial_type": "html-keyboard-response", "trial_index": 153, "time_elapsed": 460187, "internal_node_id": "0.0-6.0-58.0"}}, {"uniqueid": "w51266225:a33298483", "current_trial": 154, "dateTime": 1664555414833, "trialdata": {"rt": 1285, "stimulus": "<p id='stroop-text' class='stroop-yellow'>WINDOW</p>", "response": "y", "stimulus-type": "unrelated", "word": "WINDOW", "color": "yellow", "correct_response": "y", "trial_id": "stroop-trial-1-unrelated-11", "trial_type": "html-keyboard-response", "trial_index": 154, "time_elapsed": 461977, "internal_node_id": "0.0-6.0-59.0"}}, {"uniqueid": "w51266225:a33298483", "current_trial": 155, "dateTime": 1664555416268, "trialdata": {"rt": 929, "stimulus": "<p id='stroop-text' class='stroop-red'>GREEN</p>", "response": "r", "stimulus-type": "incongruent", "word": "green", "color": "red", "correct_response": "r", "trial_id": "stroop-trial-1-incongruent-16", "trial_type": "html-keyboard-response", "trial_index": 155, "time_elapsed": 463412, "internal_node_id": "0.0-6.0-60.0"}}, {"uniqueid": "w51266225:a33298483", "current_trial": 156, "dateTime": 1664555418191, "trialdata": {"rt": 1418, "stimulus": "<p id='stroop-text' class='stroop-yellow'>BOAT</p>", "response": "y", "stimulus-type": "unrelated", "word": "BOAT", "color": "yellow", "correct_response": "y", "trial_id": "stroop-trial-1-unrelated-18", "trial_type": "html-keyboard-response", "trial_index": 156, "time_elapsed": 465335, "internal_node_id": "0.0-6.0-61.0"}}, {"uniqueid": "w51266225:a33298483", "current_trial": 157, "dateTime": 1664555419486, "trialdata": {"rt": 791, "stimulus": "<p id='stroop-text' class='stroop-yellow'>RED</p>", "response": "y", "stimulus-type": "incongruent", "word": "red", "color": "yellow", "correct_response": "y", "trial_id": "stroop-trial-1-incongruent-14", "trial_type": "html-keyboard-response", "trial_index": 157, "time_elapsed": 466630, "internal_node_id": "0.0-6.0-62.0"}}, {"uniqueid": "w51266225:a33298483", "current_trial": 158, "dateTime": 1664555420964, "trialdata": {"rt": 973, "stimulus": "<p id='stroop-text' class='stroop-green'>YELLOW</p>", "response": "g", "stimulus-type": "incongruent", "word": "yellow", "color": "green", "correct_response": "g", "trial_id": "stroop-trial-1-incongruent-21", "trial_type": "html-keyboard-response", "trial_index": 158, "time_elapsed": 468108, "internal_node_id": "0.0-6.0-63.0"}}, {"uniqueid": "w51266225:a33298483", "current_trial": 159, "dateTime": 1664555422567, "trialdata": {"rt": 1098, "stimulus": "<p id='stroop-text' class='stroop-blue'>BLUE</p>", "response": "b", "stimulus-type": "congruent", "word": "blue", "color": "blue", "correct_response": "b", "trial_id": "stroop-trial-1-congruent-2", "trial_type": "html-keyboard-response", "trial_index": 159, "time_elapsed": 469711, "internal_node_id": "0.0-6.0-64.0"}}, {"uniqueid": "w51266225:a33298483", "current_trial": 160, "dateTime": 1664555424177, "trialdata": {"rt": 1106, "stimulus": "<p id='stroop-text' class='stroop-yellow'>FORK</p>", "response": "y", "stimulus-type": "unrelated", "word": "FORK", "color": "yellow", "correct_response": "y", "trial_id": "stroop-trial-1-unrelated-12", "trial_type": "html-keyboard-response", "trial_index": 160, "time_elapsed": 471322, "internal_node_id": "0.0-6.0-65.0"}}, {"uniqueid": "w51266225:a33298483", "current_trial": 161, "dateTime": 1664555426015, "trialdata": {"rt": 1332, "stimulus": "<p id='stroop-text' class='stroop-green'>BOTTLE</p>", "response": "g", "stimulus-type": "unrelated", "word": "BOTTLE", "color": "green", "correct_response": "g", "trial_id": "stroop-trial-1-unrelated-25", "trial_type": "html-keyboard-response", "trial_index": 161, "time_elapsed": 473159, "internal_node_id": "0.0-6.0-66.0"}}, {"uniqueid": "w51266225:a33298483", "current_trial": 162, "dateTime": 1664555427391, "trialdata": {"rt": 871, "stimulus": "<p id='stroop-text' class='stroop-red'>BRAIN</p>", "response": "r", "stimulus-type": "unrelated", "word": "BRAIN", "color": "red", "correct_response": "r", "trial_id": "stroop-trial-1-unrelated-2", "trial_type": "html-keyboard-response", "trial_index": 162, "time_elapsed": 474535, "internal_node_id": "0.0-6.0-67.0"}}, {"uniqueid": "w51266225:a33298483", "current_trial": 163, "dateTime": 1664555428589, "trialdata": {"rt": 691, "stimulus": "<p id='stroop-text' class='stroop-red'>BLUE</p>", "response": "r", "stimulus-type": "incongruent", "word": "blue", "color": "red", "correct_response": "r", "trial_id": "stroop-trial-1-incongruent-10", "trial_type": "html-keyboard-response", "trial_index": 163, "time_elapsed": 475733, "internal_node_id": "0.0-6.0-68.0"}}, {"uniqueid": "w51266225:a33298483", "current_trial": 164, "dateTime": 1664555430115, "trialdata": {"rt": 1014, "stimulus": "<p id='stroop-text' class='stroop-green'>YELLOW</p>", "response": "g", "stimulus-type": "incongruent", "word": "yellow", "color": "green", "correct_response": "g", "trial_id": "stroop-trial-1-incongruent-3", "trial_type": "html-keyboard-response", "trial_index": 164, "time_elapsed": 477259, "internal_node_id": "0.0-6.0-69.0"}}, {"uniqueid": "w51266225:a33298483", "current_trial": 165, "dateTime": 1664555431649, "trialdata": {"rt": 1030, "stimulus": "<p id='stroop-text' class='stroop-green'>RED</p>", "response": "g", "stimulus-type": "incongruent", "word": "red", "color": "green", "correct_response": "g", "trial_id": "stroop-trial-1-incongruent-1", "trial_type": "html-keyboard-response", "trial_index": 165, "time_elapsed": 478794, "internal_node_id": "0.0-6.0-70.0"}}, {"uniqueid": "w51266225:a33298483", "current_trial": 166, "dateTime": 1664555433233, "trialdata": {"rt": 1078, "stimulus": "<p id='stroop-text' class='stroop-yellow'>SHIP</p>", "response": "y", "stimulus-type": "unrelated", "word": "SHIP", "color": "yellow", "correct_response": "y", "trial_id": "stroop-trial-1-unrelated-14", "trial_type": "html-keyboard-response", "trial_index": 166, "time_elapsed": 480378, "internal_node_id": "0.0-6.0-71.0"}}, {"uniqueid": "w51266225:a33298483", "current_trial": 167, "dateTime": 1664555434833, "trialdata": {"rt": 1095, "stimulus": "<p id='stroop-text' class='stroop-red'>GREEN</p>", "response": "r", "stimulus-type": "incongruent", "word": "green", "color": "red", "correct_response": "r", "trial_id": "stroop-trial-1-incongruent-13", "trial_type": "html-keyboard-response", "trial_index": 167, "time_elapsed": 481977, "internal_node_id": "0.0-6.0-72.0"}}, {"uniqueid": "w51266225:a33298483", "current_trial": 168, "dateTime": 1664555436160, "trialdata": {"rt": 823, "stimulus": "<p id='stroop-text' class='stroop-green'>RED</p>", "response": "g", "stimulus-type": "incongruent", "word": "red", "color": "green", "correct_response": "g", "trial_id": "stroop-trial-1-incongruent-17", "trial_type": "html-keyboard-response", "trial_index": 168, "time_elapsed": 483305, "internal_node_id": "0.0-6.0-73.0"}}, {"uniqueid": "w51266225:a33298483", "current_trial": 169, "dateTime": 1664555437590, "trialdata": {"rt": 924, "stimulus": "<p id='stroop-text' class='stroop-yellow'>YELLOW</p>", "response": "y", "stimulus-type": "congruent", "word": "yellow", "color": "yellow", "correct_response": "y", "trial_id": "stroop-trial-1-congruent-12", "trial_type": "html-keyboard-response", "trial_index": 169, "time_elapsed": 484735, "internal_node_id": "0.0-6.0-74.0"}}, {"uniqueid": "w51266225:a33298483", "current_trial": 170, "dateTime": 1664555439071, "trialdata": {"rt": 975, "stimulus": "<p id='stroop-text' class='stroop-green'>GREEN</p>", "response": "g", "stimulus-type": "congruent", "word": "green", "color": "green", "correct_response": "g", "trial_id": "stroop-trial-1-congruent-11", "trial_type": "html-keyboard-response", "trial_index": 170, "time_elapsed": 486216, "internal_node_id": "0.0-6.0-75.0"}}, {"uniqueid": "w51266225:a33298483", "current_trial": 171, "dateTime": 1664555441839, "trialdata": {"rt": 2263, "stimulus": "<p id='stroop-text' class='stroop-red'>BLUE</p>", "response": "r", "stimulus-type": "incongruent", "word": "blue", "color": "red", "correct_response": "r", "trial_id": "stroop-trial-1-incongruent-22", "trial_type": "html-keyboard-response", "trial_index": 171, "time_elapsed": 488984, "internal_node_id": "0.0-6.0-76.0"}}, {"uniqueid": "w51266225:a33298483", "current_trial": 172, "dateTime": 1664555444907, "trialdata": {"rt": 2563, "stimulus": "<p id='stroop-text' class='stroop-green'>BLUE</p>", "response": "g", "stimulus-type": "incongruent", "word": "blue", "color": "green", "correct_response": "g", "trial_id": "stroop-trial-1-incongruent-6", "trial_type": "html-keyboard-response", "trial_index": 172, "time_elapsed": 492052, "internal_node_id": "0.0-6.0-77.0"}}, {"uniqueid": "w51266225:a33298483", "current_trial": 173, "dateTime": 1664555446175, "trialdata": {"rt": 763, "stimulus": "<p id='stroop-text' class='stroop-yellow'>MONKEY</p>", "response": "y", "stimulus-type": "unrelated", "word": "MONKEY", "color": "yellow", "correct_response": "y", "trial_id": "stroop-trial-1-unrelated-4", "trial_type": "html-keyboard-response", "trial_index": 173, "time_elapsed": 493319, "internal_node_id": "0.0-6.0-78.0"}}, {"uniqueid": "w51266225:a33298483", "current_trial": 174, "dateTime": 1664555447597, "trialdata": {"rt": 917, "stimulus": "<p id='stroop-text' class='stroop-red'>RED</p>", "response": "r", "stimulus-type": "congruent", "word": "red", "color": "red", "correct_response": "r", "trial_id": "stroop-trial-1-congruent-8", "trial_type": "html-keyboard-response", "trial_index": 174, "time_elapsed": 494742, "internal_node_id": "0.0-6.0-79.0"}}, {"uniqueid": "w51266225:a33298483", "current_trial": 175, "dateTime": 1664555448884, "trialdata": {"rt": 781, "stimulus": "<p id='stroop-text' class='stroop-yellow'>YELLOW</p>", "response": "y", "stimulus-type": "congruent", "word": "yellow", "color": "yellow", "correct_response": "y", "trial_id": "stroop-trial-1-congruent-9", "trial_type": "html-keyboard-response", "trial_index": 175, "time_elapsed": 496029, "internal_node_id": "0.0-6.0-80.0"}}, {"uniqueid": "w51266225:a33298483", "current_trial": 176, "dateTime": 1664555450518, "trialdata": {"rt": 1128, "stimulus": "<p id='stroop-text' class='stroop-green'>BOAT</p>", "response": "g", "stimulus-type": "unrelated", "word": "BOAT", "color": "green", "correct_response": "g", "trial_id": "stroop-trial-1-unrelated-27", "trial_type": "html-keyboard-response", "trial_index": 176, "time_elapsed": 497662, "internal_node_id": "0.0-6.0-81.0"}}, {"uniqueid": "w51266225:a33298483", "current_trial": 177, "dateTime": 1664555451759, "trialdata": {"rt": 734, "stimulus": "<p id='stroop-text' class='stroop-blue'>DOG</p>", "response": "b", "stimulus-type": "unrelated", "word": "DOG", "color": "blue", "correct_response": "b", "trial_id": "stroop-trial-1-unrelated-10", "trial_type": "html-keyboard-response", "trial_index": 177, "time_elapsed": 498904, "internal_node_id": "0.0-6.0-82.0"}}, {"uniqueid": "w51266225:a33298483", "current_trial": 178, "dateTime": 1664555452848, "trialdata": {"rt": 583, "stimulus": "<p id='stroop-text' class='stroop-blue'>FORK</p>", "response": "b", "stimulus-type": "unrelated", "word": "FORK", "color": "blue", "correct_response": "b", "trial_id": "stroop-trial-1-unrelated-23", "trial_type": "html-keyboard-response", "trial_index": 178, "time_elapsed": 499992, "internal_node_id": "0.0-6.0-83.0"}}, {"uniqueid": "w51266225:a33298483", "current_trial": 179, "dateTime": 1664555454183, "trialdata": {"rt": 831, "stimulus": "<p id='stroop-text' class='stroop-red'>FORK</p>", "response": "r", "stimulus-type": "unrelated", "word": "FORK", "color": "red", "correct_response": "r", "trial_id": "stroop-trial-1-unrelated-30", "trial_type": "html-keyboard-response", "trial_index": 179, "time_elapsed": 501327, "internal_node_id": "0.0-6.0-84.0"}}, {"uniqueid": "w51266225:a33298483", "current_trial": 180, "dateTime": 1664555455614, "trialdata": {"rt": 926, "stimulus": "<p id='stroop-text' class='stroop-blue'>FORK</p>", "response": "b", "stimulus-type": "unrelated", "word": "FORK", "color": "blue", "correct_response": "b", "trial_id": "stroop-trial-1-unrelated-8", "trial_type": "html-keyboard-response", "trial_index": 180, "time_elapsed": 502759, "internal_node_id": "0.0-6.0-85.0"}}, {"uniqueid": "w51266225:a33298483", "current_trial": 181, "dateTime": 1664555457111, "trialdata": {"rt": 991, "stimulus": "<p id='stroop-text' class='stroop-red'>CHAIR</p>", "response": "r", "stimulus-type": "unrelated", "word": "CHAIR", "color": "red", "correct_response": "r", "trial_id": "stroop-trial-1-unrelated-20", "trial_type": "html-keyboard-response", "trial_index": 181, "time_elapsed": 504255, "internal_node_id": "0.0-6.0-86.0"}}, {"uniqueid": "w51266225:a33298483", "current_trial": 182, "dateTime": 1664555461209, "trialdata": {"rt": 3593, "stimulus": "<p id='stroop-text' class='stroop-green'>BLUE</p>", "response": "g", "stimulus-type": "incongruent", "word": "blue", "color": "green", "correct_response": "g", "trial_id": "stroop-trial-1-incongruent-8", "trial_type": "html-keyboard-response", "trial_index": 182, "time_elapsed": 508353, "internal_node_id": "0.0-6.0-87.0"}}, {"uniqueid": "w51266225:a33298483", "current_trial": 183, "dateTime": 1664555462651, "trialdata": {"rt": 935, "stimulus": "<p id='stroop-text' class='stroop-yellow'>YELLOW</p>", "response": "y", "stimulus-type": "congruent", "word": "yellow", "color": "yellow", "correct_response": "y", "trial_id": "stroop-trial-1-congruent-17", "trial_type": "html-keyboard-response", "trial_index": 183, "time_elapsed": 509795, "internal_node_id": "0.0-6.0-88.0"}}, {"uniqueid": "w51266225:a33298483", "current_trial": 184, "dateTime": 1664555464141, "trialdata": {"rt": 985, "stimulus": "<p id='stroop-text' class='stroop-yellow'>BLUE</p>", "response": "y", "stimulus-type": "incongruent", "word": "blue", "color": "yellow", "correct_response": "y", "trial_id": "stroop-trial-1-incongruent-15", "trial_type": "html-keyboard-response", "trial_index": 184, "time_elapsed": 511286, "internal_node_id": "0.0-6.0-89.0"}}, {"uniqueid": "w51266225:a33298483", "current_trial": 185, "dateTime": 1664555475582, "trialdata": {"rt": 10934, "stimulus": "  <h1> End of block! </h1>\n\n  You have reached the end of the block 2/5. If you need a short break, feel free to take one now before moving on.\n\n  <br><br>\n  In the next block, you will complete another 90 rounds of this game.\n\n  <br><br>\n  <div style='text-align: center;'>Press <code>space</code> to begin.</div>\n  <br><br>\n<div style='text-align: center;'>(If the experiment doesn't continue, try clicking on the text and then pressing <code>space</code>.)</div>", "response": " ", "trial_id": "stroop_1_ready_3", "trial_type": "html-keyboard-response", "trial_index": 185, "time_elapsed": 522727, "internal_node_id": "0.0-7.0"}}, {"uniqueid": "w51266225:a33298483", "current_trial": 186, "dateTime": 1664555476852, "trialdata": {"rt": 1264, "stimulus": "<p id='stroop-text' class='stroop-green'>RED</p>", "response": "g", "stimulus-type": "incongruent", "word": "red", "color": "green", "correct_response": "g", "trial_id": "stroop-trial-1-incongruent-6", "trial_type": "html-keyboard-response", "trial_index": 186, "time_elapsed": 523997, "internal_node_id": "0.0-8.0-0.0"}}, {"uniqueid": "w51266225:a33298483", "current_trial": 187, "dateTime": 1664555478294, "trialdata": {"rt": 934, "stimulus": "<p id='stroop-text' class='stroop-yellow'>BRAIN</p>", "response": "y", "stimulus-type": "unrelated", "word": "BRAIN", "color": "yellow", "correct_response": "y", "trial_id": "stroop-trial-1-unrelated-22", "trial_type": "html-keyboard-response", "trial_index": 187, "time_elapsed": 525438, "internal_node_id": "0.0-8.0-1.0"}}, {"uniqueid": "w51266225:a33298483", "current_trial": 188, "dateTime": 1664555479368, "trialdata": {"rt": 568, "stimulus": "<p id='stroop-text' class='stroop-yellow'>YELLOW</p>", "response": "y", "stimulus-type": "congruent", "word": "yellow", "color": "yellow", "correct_response": "y", "trial_id": "stroop-trial-1-congruent-14", "trial_type": "html-keyboard-response", "trial_index": 188, "time_elapsed": 526512, "internal_node_id": "0.0-8.0-2.0"}}, {"uniqueid": "w51266225:a33298483", "current_trial": 189, "dateTime": 1664555480283, "trialdata": {"rt": 410, "stimulus": "<p id='stroop-text' class='stroop-yellow'>GREEN</p>", "response": "y", "stimulus-type": "incongruent", "word": "green", "color": "yellow", "correct_response": "y", "trial_id": "stroop-trial-1-incongruent-25", "trial_type": "html-keyboard-response", "trial_index": 189, "time_elapsed": 527428, "internal_node_id": "0.0-8.0-3.0"}}, {"uniqueid": "w51266225:a33298483", "current_trial": 190, "dateTime": 1664555481198, "trialdata": {"rt": 408, "stimulus": "<p id='stroop-text' class='stroop-yellow'>BLUE</p>", "response": "y", "stimulus-type": "incongruent", "word": "blue", "color": "yellow", "correct_response": "y", "trial_id": "stroop-trial-1-incongruent-7", "trial_type": "html-keyboard-response", "trial_index": 190, "time_elapsed": 528343, "internal_node_id": "0.0-8.0-4.0"}}, {"uniqueid": "w51266225:a33298483", "current_trial": 191, "dateTime": 1664555482668, "trialdata": {"rt": 964, "stimulus": "<p id='stroop-text' class='stroop-blue'>FORK</p>", "response": "b", "stimulus-type": "unrelated", "word": "FORK", "color": "blue", "correct_response": "b", "trial_id": "stroop-trial-1-unrelated-23", "trial_type": "html-keyboard-response", "trial_index": 191, "time_elapsed": 529812, "internal_node_id": "0.0-8.0-5.0"}}, {"uniqueid": "w51266225:a33298483", "current_trial": 192, "dateTime": 1664555484099, "trialdata": {"rt": 925, "stimulus": "<p id='stroop-text' class='stroop-red'>BLUE</p>", "response": "r", "stimulus-type": "incongruent", "word": "blue", "color": "red", "correct_response": "r", "trial_id": "stroop-trial-1-incongruent-2", "trial_type": "html-keyboard-response", "trial_index": 192, "time_elapsed": 531244, "internal_node_id": "0.0-8.0-6.0"}}, {"uniqueid": "w51266225:a33298483", "current_trial": 193, "dateTime": 1664555485813, "trialdata": {"rt": 1205, "stimulus": "<p id='stroop-text' class='stroop-blue'>STONE</p>", "response": "b", "stimulus-type": "unrelated", "word": "STONE", "color": "blue", "correct_response": "b", "trial_id": "stroop-trial-1-unrelated-20", "trial_type": "html-keyboard-response", "trial_index": 193, "time_elapsed": 532957, "internal_node_id": "0.0-8.0-7.0"}}, {"uniqueid": "w51266225:a33298483", "current_trial": 194, "dateTime": 1664555486751, "trialdata": {"rt": 433, "stimulus": "<p id='stroop-text' class='stroop-blue'>MONKEY</p>", "response": "b", "stimulus-type": "unrelated", "word": "MONKEY", "color": "blue", "correct_response": "b", "trial_id": "stroop-trial-1-unrelated-6", "trial_type": "html-keyboard-response", "trial_index": 194, "time_elapsed": 533895, "internal_node_id": "0.0-8.0-8.0"}}, {"uniqueid": "w51266225:a33298483", "current_trial": 195, "dateTime": 1664555488384, "trialdata": {"rt": 1128, "stimulus": "<p id='stroop-text' class='stroop-yellow'>RED</p>", "response": "y", "stimulus-type": "incongruent", "word": "red", "color": "yellow", "correct_response": "y", "trial_id": "stroop-trial-1-incongruent-19", "trial_type": "html-keyboard-response", "trial_index": 195, "time_elapsed": 535528, "internal_node_id": "0.0-8.0-9.0"}}, {"uniqueid": "w51266225:a33298483", "current_trial": 196, "dateTime": 1664555489610, "trialdata": {"rt": 721, "stimulus": "<p id='stroop-text' class='stroop-green'>BRIDGE</p>", "response": "g", "stimulus-type": "unrelated", "word": "BRIDGE", "color": "green", "correct_response": "g", "trial_id": "stroop-trial-1-unrelated-8", "trial_type": "html-keyboard-response", "trial_index": 196, "time_elapsed": 536755, "internal_node_id": "0.0-8.0-10.0"}}, {"uniqueid": "w51266225:a33298483", "current_trial": 197, "dateTime": 1664555490590, "trialdata": {"rt": 473, "stimulus": "<p id='stroop-text' class='stroop-green'>GREEN</p>", "response": "g", "stimulus-type": "congruent", "word": "green", "color": "green", "correct_response": "g", "trial_id": "stroop-trial-1-congruent-28", "trial_type": "html-keyboard-response", "trial_index": 197, "time_elapsed": 537735, "internal_node_id": "0.0-8.0-11.0"}}, {"uniqueid": "w51266225:a33298483", "current_trial": 198, "dateTime": 1664555491527, "trialdata": {"rt": 431, "stimulus": "<p id='stroop-text' class='stroop-green'>GREEN</p>", "response": "g", "stimulus-type": "congruent", "word": "green", "color": "green", "correct_response": "g", "trial_id": "stroop-trial-1-congruent-1", "trial_type": "html-keyboard-response", "trial_index": 198, "time_elapsed": 538671, "internal_node_id": "0.0-8.0-12.0"}}, {"uniqueid": "w51266225:a33298483", "current_trial": 199, "dateTime": 1664555493321, "trialdata": {"rt": 1289, "stimulus": "<p id='stroop-text' class='stroop-red'>BRIDGE</p>", "response": "r", "stimulus-type": "unrelated", "word": "BRIDGE", "color": "red", "correct_response": "r", "trial_id": "stroop-trial-1-unrelated-11", "trial_type": "html-keyboard-response", "trial_index": 199, "time_elapsed": 540466, "internal_node_id": "0.0-8.0-13.0"}}, {"uniqueid": "w51266225:a33298483", "current_trial": 200, "dateTime": 1664555494676, "trialdata": {"rt": 848, "stimulus": "<p id='stroop-text' class='stroop-blue'>YELLOW</p>", "response": "b", "stimulus-type": "incongruent", "word": "yellow", "color": "blue", "correct_response": "b", "trial_id": "stroop-trial-1-incongruent-9", "trial_type": "html-keyboard-response", "trial_index": 200, "time_elapsed": 541820, "internal_node_id": "0.0-8.0-14.0"}}, {"uniqueid": "w51266225:a33298483", "current_trial": 201, "dateTime": 1664555496013, "trialdata": {"rt": 832, "stimulus": "<p id='stroop-text' class='stroop-green'>GREEN</p>", "response": "g", "stimulus-type": "congruent", "word": "green", "color": "green", "correct_response": "g", "trial_id": "stroop-trial-1-congruent-2", "trial_type": "html-keyboard-response", "trial_index": 201, "time_elapsed": 543157, "internal_node_id": "0.0-8.0-15.0"}}, {"uniqueid": "w51266225:a33298483", "current_trial": 202, "dateTime": 1664555497299, "trialdata": {"rt": 781, "stimulus": "<p id='stroop-text' class='stroop-blue'>BLUE</p>", "response": "b", "stimulus-type": "congruent", "word": "blue", "color": "blue", "correct_response": "b", "trial_id": "stroop-trial-1-congruent-6", "trial_type": "html-keyboard-response", "trial_index": 202, "time_elapsed": 544443, "internal_node_id": "0.0-8.0-16.0"}}, {"uniqueid": "w51266225:a33298483", "current_trial": 203, "dateTime": 1664555498597, "trialdata": {"rt": 792, "stimulus": "<p id='stroop-text' class='stroop-red'>BLUE</p>", "response": "r", "stimulus-type": "incongruent", "word": "blue", "color": "red", "correct_response": "r", "trial_id": "stroop-trial-1-incongruent-24", "trial_type": "html-keyboard-response", "trial_index": 203, "time_elapsed": 545741, "internal_node_id": "0.0-8.0-17.0"}}, {"uniqueid": "w51266225:a33298483", "current_trial": 204, "dateTime": 1664555499769, "trialdata": {"rt": 666, "stimulus": "<p id='stroop-text' class='stroop-yellow'>YELLOW</p>", "response": "y", "stimulus-type": "congruent", "word": "yellow", "color": "yellow", "correct_response": "y", "trial_id": "stroop-trial-1-congruent-12", "trial_type": "html-keyboard-response", "trial_index": 204, "time_elapsed": 546913, "internal_node_id": "0.0-8.0-18.0"}}, {"uniqueid": "w51266225:a33298483", "current_trial": 205, "dateTime": 1664555501648, "trialdata": {"rt": 1373, "stimulus": "<p id='stroop-text' class='stroop-green'>STONE</p>", "response": "g", "stimulus-type": "unrelated", "word": "STONE", "color": "green", "correct_response": "g", "trial_id": "stroop-trial-1-unrelated-27", "trial_type": "html-keyboard-response", "trial_index": 205, "time_elapsed": 548793, "internal_node_id": "0.0-8.0-19.0"}}, {"uniqueid": "w51266225:a33298483", "current_trial": 206, "dateTime": 1664555504576, "trialdata": {"rt": 2417, "stimulus": "<p id='stroop-text' class='stroop-red'>BLUE</p>", "response": "r", "stimulus-type": "incongruent", "word": "blue", "color": "red", "correct_response": "r", "trial_id": "stroop-trial-1-incongruent-11", "trial_type": "html-keyboard-response", "trial_index": 206, "time_elapsed": 551720, "internal_node_id": "0.0-8.0-20.0"}}, {"uniqueid": "w51266225:a33298483", "current_trial": 207, "dateTime": 1664555505840, "trialdata": {"rt": 758, "stimulus": "<p id='stroop-text' class='stroop-red'>RED</p>", "response": "r", "stimulus-type": "congruent", "word": "red", "color": "red", "correct_response": "r", "trial_id": "stroop-trial-1-congruent-3", "trial_type": "html-keyboard-response", "trial_index": 207, "time_elapsed": 552985, "internal_node_id": "0.0-8.0-21.0"}}, {"uniqueid": "w51266225:a33298483", "current_trial": 208, "dateTime": 1664555506951, "trialdata": {"rt": 606, "stimulus": "<p id='stroop-text' class='stroop-red'>RED</p>", "response": "r", "stimulus-type": "congruent", "word": "red", "color": "red", "correct_response": "r", "trial_id": "stroop-trial-1-congruent-21", "trial_type": "html-keyboard-response", "trial_index": 208, "time_elapsed": 554096, "internal_node_id": "0.0-8.0-22.0"}}, {"uniqueid": "w51266225:a33298483", "current_trial": 209, "dateTime": 1664555508165, "trialdata": {"rt": 708, "stimulus": "<p id='stroop-text' class='stroop-yellow'>STONE</p>", "response": "y", "stimulus-type": "unrelated", "word": "STONE", "color": "yellow", "correct_response": "y", "trial_id": "stroop-trial-1-unrelated-1", "trial_type": "html-keyboard-response", "trial_index": 209, "time_elapsed": 555310, "internal_node_id": "0.0-8.0-23.0"}}, {"uniqueid": "w51266225:a33298483", "current_trial": 210, "dateTime": 1664555509421, "trialdata": {"rt": 750, "stimulus": "<p id='stroop-text' class='stroop-green'>BLUE</p>", "response": "g", "stimulus-type": "incongruent", "word": "blue", "color": "green", "correct_response": "g", "trial_id": "stroop-trial-1-incongruent-12", "trial_type": "html-keyboard-response", "trial_index": 210, "time_elapsed": 556565, "internal_node_id": "0.0-8.0-24.0"}}, {"uniqueid": "w51266225:a33298483", "current_trial": 211, "dateTime": 1664555510968, "trialdata": {"rt": 1040, "stimulus": "<p id='stroop-text' class='stroop-red'>YELLOW</p>", "response": "r", "stimulus-type": "incongruent", "word": "yellow", "color": "red", "correct_response": "r", "trial_id": "stroop-trial-1-incongruent-29", "trial_type": "html-keyboard-response", "trial_index": 211, "time_elapsed": 558113, "internal_node_id": "0.0-8.0-25.0"}}, {"uniqueid": "w51266225:a33298483", "current_trial": 212, "dateTime": 1664555512311, "trialdata": {"rt": 836, "stimulus": "<p id='stroop-text' class='stroop-blue'>GREEN</p>", "response": "b", "stimulus-type": "incongruent", "word": "green", "color": "blue", "correct_response": "b", "trial_id": "stroop-trial-1-incongruent-23", "trial_type": "html-keyboard-response", "trial_index": 212, "time_elapsed": 559455, "internal_node_id": "0.0-8.0-26.0"}}, {"uniqueid": "w51266225:a33298483", "current_trial": 213, "dateTime": 1664555513544, "trialdata": {"rt": 728, "stimulus": "<p id='stroop-text' class='stroop-green'>BOAT</p>", "response": "g", "stimulus-type": "unrelated", "word": "BOAT", "color": "green", "correct_response": "g", "trial_id": "stroop-trial-1-unrelated-16", "trial_type": "html-keyboard-response", "trial_index": 213, "time_elapsed": 560688, "internal_node_id": "0.0-8.0-27.0"}}, {"uniqueid": "w51266225:a33298483", "current_trial": 214, "dateTime": 1664555515262, "trialdata": {"rt": 1204, "stimulus": "<p id='stroop-text' class='stroop-yellow'>YELLOW</p>", "response": "y", "stimulus-type": "congruent", "word": "yellow", "color": "yellow", "correct_response": "y", "trial_id": "stroop-trial-1-congruent-20", "trial_type": "html-keyboard-response", "trial_index": 214, "time_elapsed": 562407, "internal_node_id": "0.0-8.0-28.0"}}, {"uniqueid": "w51266225:a33298483", "current_trial": 215, "dateTime": 1664555516809, "trialdata": {"rt": 1042, "stimulus": "<p id='stroop-text' class='stroop-green'>BLUE</p>", "response": "g", "stimulus-type": "incongruent", "word": "blue", "color": "green", "correct_response": "g", "trial_id": "stroop-trial-1-incongruent-15", "trial_type": "html-keyboard-response", "trial_index": 215, "time_elapsed": 563954, "internal_node_id": "0.0-8.0-29.0"}}, {"uniqueid": "w51266225:a33298483", "current_trial": 216, "dateTime": 1664555518497, "trialdata": {"rt": 1182, "stimulus": "<p id='stroop-text' class='stroop-red'>BLUE</p>", "response": "r", "stimulus-type": "incongruent", "word": "blue", "color": "red", "correct_response": "r", "trial_id": "stroop-trial-1-incongruent-13", "trial_type": "html-keyboard-response", "trial_index": 216, "time_elapsed": 565642, "internal_node_id": "0.0-8.0-30.0"}}, {"uniqueid": "w51266225:a33298483", "current_trial": 217, "dateTime": 1664555519673, "trialdata": {"rt": 670, "stimulus": "<p id='stroop-text' class='stroop-red'>RED</p>", "response": "r", "stimulus-type": "congruent", "word": "red", "color": "red", "correct_response": "r", "trial_id": "stroop-trial-1-congruent-29", "trial_type": "html-keyboard-response", "trial_index": 217, "time_elapsed": 566817, "internal_node_id": "0.0-8.0-31.0"}}, {"uniqueid": "w51266225:a33298483", "current_trial": 218, "dateTime": 1664555521333, "trialdata": {"rt": 1154, "stimulus": "<p id='stroop-text' class='stroop-blue'>BRIDGE</p>", "response": "b", "stimulus-type": "unrelated", "word": "BRIDGE", "color": "blue", "correct_response": "b", "trial_id": "stroop-trial-1-unrelated-15", "trial_type": "html-keyboard-response", "trial_index": 218, "time_elapsed": 568478, "internal_node_id": "0.0-8.0-32.0"}}, {"uniqueid": "w51266225:a33298483", "current_trial": 219, "dateTime": 1664555522996, "trialdata": {"rt": 1157, "stimulus": "<p id='stroop-text' class='stroop-red'>GREEN</p>", "response": "r", "stimulus-type": "incongruent", "word": "green", "color": "red", "correct_response": "r", "trial_id": "stroop-trial-1-incongruent-27", "trial_type": "html-keyboard-response", "trial_index": 219, "time_elapsed": 570140, "internal_node_id": "0.0-8.0-33.0"}}, {"uniqueid": "w51266225:a33298483", "current_trial": 220, "dateTime": 1664555524382, "trialdata": {"rt": 881, "stimulus": "<p id='stroop-text' class='stroop-green'>SHIP</p>", "response": "g", "stimulus-type": "unrelated", "word": "SHIP", "color": "green", "correct_response": "g", "trial_id": "stroop-trial-1-unrelated-2", "trial_type": "html-keyboard-response", "trial_index": 220, "time_elapsed": 571527, "internal_node_id": "0.0-8.0-34.0"}}, {"uniqueid": "w51266225:a33298483", "current_trial": 221, "dateTime": 1664555526527, "trialdata": {"rt": 1637, "stimulus": "<p id='stroop-text' class='stroop-blue'>BLUE</p>", "response": "b", "stimulus-type": "congruent", "word": "blue", "color": "blue", "correct_response": "b", "trial_id": "stroop-trial-1-congruent-22", "trial_type": "html-keyboard-response", "trial_index": 221, "time_elapsed": 573671, "internal_node_id": "0.0-8.0-35.0"}}, {"uniqueid": "w51266225:a33298483", "current_trial": 222, "dateTime": 1664555527982, "trialdata": {"rt": 944, "stimulus": "<p id='stroop-text' class='stroop-yellow'>BRAIN</p>", "response": "y", "stimulus-type": "unrelated", "word": "BRAIN", "color": "yellow", "correct_response": "y", "trial_id":