{"condition": 0, "counterbalance": 0, "assignmentId": "a18742479", "workerId": "w47713748", "hitId": "h95679545", "currenttrial": 965, "bonus": 0, "data": [{"uniqueid": "w47713748:a18742479", "current_trial": 0, "dateTime": 1664555155498, "trialdata": {"success": true, "trial_type": "fullscreen", "trial_index": 0, "time_elapsed": 4975, "internal_node_id": "0.0-0.0"}}, {"uniqueid": "w47713748:a18742479", "current_trial": 1, "dateTime": 1664555174635, "trialdata": {"view_history": [{"page_index": 0, "viewing_time": 19128}], "rt": 19130, "trial_id": "exp_instructions_distractor", "trial_type": "instructions", "trial_index": 1, "time_elapsed": 24113, "internal_node_id": "0.0-1.0"}}, {"uniqueid": "w47713748:a18742479", "current_trial": 2, "dateTime": 1664555222558, "trialdata": {"view_history": [{"page_index": 0, "viewing_time": 47918}], "rt": 47918, "trial_id": "color_game_instructions", "trial_type": "instructions", "trial_index": 2, "time_elapsed": 72036, "internal_node_id": "0.0-2.0"}}, {"uniqueid": "w47713748:a18742479", "current_trial": 3, "dateTime": 1664555227203, "trialdata": {"rt": 4642, "stimulus": "<h1> Get ready to start the game! </h1>\n\nThank you for reading the instructions. Get ready start with the first of 5 block(s) of this game.\n<br><br>\nIn this first block, you will complete 90 rounds of this game before moving on.\n<br><br>\nRemember, the better you perform, the bigger your bonus will be!\n<br><br>\n<div style='text-align: center;'>Press <code>space</code> to begin.</div>", "response": " ", "trial_id": "stroop_1_ready_1", "trial_type": "html-keyboard-response", "trial_index": 3, "time_elapsed": 76681, "internal_node_id": "0.0-3.0"}}, {"uniqueid": "w47713748:a18742479", "current_trial": 4, "dateTime": 1664555228408, "trialdata": {"rt": 1198, "stimulus": "<p id='stroop-text' class='stroop-red'>RED</p>", "response": "r", "stimulus-type": "congruent", "word": "red", "color": "red", "correct_response": "r", "trial_id": "stroop-trial-1-congruent-22", "trial_type": "html-keyboard-response", "trial_index": 4, "time_elapsed": 77885, "internal_node_id": "0.0-4.0-0.0"}}, {"uniqueid": "w47713748:a18742479", "current_trial": 5, "dateTime": 1664555231885, "trialdata": {"rt": 2974, "stimulus": "<p id='stroop-text' class='stroop-red'>GREEN</p>", "response": "g", "stimulus-type": "incongruent", "word": "green", "color": "red", "correct_response": "r", "trial_id": "stroop-trial-1-incongruent-16", "trial_type": "html-keyboard-response", "trial_index": 5, "time_elapsed": 81363, "internal_node_id": "0.0-4.0-1.0"}}, {"uniqueid": "w47713748:a18742479", "current_trial": 6, "dateTime": 1664555233438, "trialdata": {"rt": 1050, "stimulus": "<p id='stroop-text' class='stroop-blue'>BLUE</p>", "response": "b", "stimulus-type": "congruent", "word": "blue", "color": "blue", "correct_response": "b", "trial_id": "stroop-trial-1-congruent-4", "trial_type": "html-keyboard-response", "trial_index": 6, "time_elapsed": 82916, "internal_node_id": "0.0-4.0-2.0"}}, {"uniqueid": "w47713748:a18742479", "current_trial": 7, "dateTime": 1664555234782, "trialdata": {"rt": 839, "stimulus": "<p id='stroop-text' class='stroop-red'>RED</p>", "response": "r", "stimulus-type": "congruent", "word": "red", "color": "red", "correct_response": "r", "trial_id": "stroop-trial-1-congruent-2", "trial_type": "html-keyboard-response", "trial_index": 7, "time_elapsed": 84260, "internal_node_id": "0.0-4.0-3.0"}}, {"uniqueid": "w47713748:a18742479", "current_trial": 8, "dateTime": 1664555237398, "trialdata": {"rt": 2113, "stimulus": "<p id='stroop-text' class='stroop-red'>BLUE</p>", "response": "r", "stimulus-type": "incongruent", "word": "blue", "color": "red", "correct_response": "r", "trial_id": "stroop-trial-1-incongruent-24", "trial_type": "html-keyboard-response", "trial_index": 8, "time_elapsed": 86875, "internal_node_id": "0.0-4.0-4.0"}}, {"uniqueid": "w47713748:a18742479", "current_trial": 9, "dateTime": 1664555238875, "trialdata": {"rt": 973, "stimulus": "<p id='stroop-text' class='stroop-yellow'>YELLOW</p>", "response": "y", "stimulus-type": "congruent", "word": "yellow", "color": "yellow", "correct_response": "y", "trial_id": "stroop-trial-1-congruent-14", "trial_type": "html-keyboard-response", "trial_index": 9, "time_elapsed": 88353, "internal_node_id": "0.0-4.0-5.0"}}, {"uniqueid": "w47713748:a18742479", "current_trial": 10, "dateTime": 1664555240667, "trialdata": {"rt": 1289, "stimulus": "<p id='stroop-text' class='stroop-green'>BRIDGE</p>", "response": "g", "stimulus-type": "unrelated", "word": "BRIDGE", "color": "green", "correct_response": "g", "trial_id": "stroop-trial-1-unrelated-12", "trial_type": "html-keyboard-response", "trial_index": 10, "time_elapsed": 90145, "internal_node_id": "0.0-4.0-6.0"}}, {"uniqueid": "w47713748:a18742479", "current_trial": 11, "dateTime": 1664555242154, "trialdata": {"rt": 984, "stimulus": "<p id='stroop-text' class='stroop-yellow'>YELLOW</p>", "response": "y", "stimulus-type": "congruent", "word": "yellow", "color": "yellow", "correct_response": "y", "trial_id": "stroop-trial-1-congruent-9", "trial_type": "html-keyboard-response", "trial_index": 11, "time_elapsed": 91632, "internal_node_id": "0.0-4.0-7.0"}}, {"uniqueid": "w47713748:a18742479", "current_trial": 12, "dateTime": 1664555243964, "trialdata": {"rt": 1307, "stimulus": "<p id='stroop-text' class='stroop-red'>FORK</p>", "response": "r", "stimulus-type": "unrelated", "word": "FORK", "color": "red", "correct_response": "r", "trial_id": "stroop-trial-1-unrelated-5", "trial_type": "html-keyboard-response", "trial_index": 12, "time_elapsed": 93441, "internal_node_id": "0.0-4.0-8.0"}}, {"uniqueid": "w47713748:a18742479", "current_trial": 13, "dateTime": 1664555245440, "trialdata": {"rt": 973, "stimulus": "<p id='stroop-text' class='stroop-yellow'>BRIDGE</p>", "response": "y", "stimulus-type": "unrelated", "word": "BRIDGE", "color": "yellow", "correct_response": "y", "trial_id": "stroop-trial-1-unrelated-16", "trial_type": "html-keyboard-response", "trial_index": 13, "time_elapsed": 94918, "internal_node_id": "0.0-4.0-9.0"}}, {"uniqueid": "w47713748:a18742479", "current_trial": 14, "dateTime": 1664555246988, "trialdata": {"rt": 1045, "stimulus": "<p id='stroop-text' class='stroop-blue'>GREEN</p>", "response": "b", "stimulus-type": "incongruent", "word": "green", "color": "blue", "correct_response": "b", "trial_id": "stroop-trial-1-incongruent-3", "trial_type": "html-keyboard-response", "trial_index": 14, "time_elapsed": 96465, "internal_node_id": "0.0-4.0-10.0"}}, {"uniqueid": "w47713748:a18742479", "current_trial": 15, "dateTime": 1664555248297, "trialdata": {"rt": 805, "stimulus": "<p id='stroop-text' class='stroop-green'>GREEN</p>", "response": "g", "stimulus-type": "congruent", "word": "green", "color": "green", "correct_response": "g", "trial_id": "stroop-trial-1-congruent-10", "trial_type": "html-keyboard-response", "trial_index": 15, "time_elapsed": 97774, "internal_node_id": "0.0-4.0-11.0"}}, {"uniqueid": "w47713748:a18742479", "current_trial": 16, "dateTime": 1664555249619, "trialdata": {"rt": 820, "stimulus": "<p id='stroop-text' class='stroop-yellow'>GREEN</p>", "response": "y", "stimulus-type": "incongruent", "word": "green", "color": "yellow", "correct_response": "y", "trial_id": "stroop-trial-1-incongruent-26", "trial_type": "html-keyboard-response", "trial_index": 16, "time_elapsed": 99097, "internal_node_id": "0.0-4.0-12.0"}}, {"uniqueid": "w47713748:a18742479", "current_trial": 17, "dateTime": 1664555251650, "trialdata": {"rt": 1528, "stimulus": "<p id='stroop-text' class='stroop-green'>BLUE</p>", "response": "g", "stimulus-type": "incongruent", "word": "blue", "color": "green", "correct_response": "g", "trial_id": "stroop-trial-1-incongruent-2", "trial_type": "html-keyboard-response", "trial_index": 17, "time_elapsed": 101128, "internal_node_id": "0.0-4.0-13.0"}}, {"uniqueid": "w47713748:a18742479", "current_trial": 18, "dateTime": 1664555252868, "trialdata": {"rt": 713, "stimulus": "<p id='stroop-text' class='stroop-blue'>BLUE</p>", "response": "b", "stimulus-type": "congruent", "word": "blue", "color": "blue", "correct_response": "b", "trial_id": "stroop-trial-1-congruent-12", "trial_type": "html-keyboard-response", "trial_index": 18, "time_elapsed": 102345, "internal_node_id": "0.0-4.0-14.0"}}, {"uniqueid": "w47713748:a18742479", "current_trial": 19, "dateTime": 1664555253963, "trialdata": {"rt": 591, "stimulus": "<p id='stroop-text' class='stroop-red'>GREEN</p>", "response": "r", "stimulus-type": "incongruent", "word": "green", "color": "red", "correct_response": "r", "trial_id": "stroop-trial-1-incongruent-8", "trial_type": "html-keyboard-response", "trial_index": 19, "time_elapsed": 103441, "internal_node_id": "0.0-4.0-15.0"}}, {"uniqueid": "w47713748:a18742479", "current_trial": 20, "dateTime": 1664555255391, "trialdata": {"rt": 925, "stimulus": "<p id='stroop-text' class='stroop-green'>BLUE</p>", "response": "b", "stimulus-type": "incongruent", "word": "blue", "color": "green", "correct_response": "g", "trial_id": "stroop-trial-1-incongruent-6", "trial_type": "html-keyboard-response", "trial_index": 20, "time_elapsed": 104869, "internal_node_id": "0.0-4.0-16.0"}}, {"uniqueid": "w47713748:a18742479", "current_trial": 21, "dateTime": 1664555256658, "trialdata": {"rt": 764, "stimulus": "<p id='stroop-text' class='stroop-yellow'>YELLOW</p>", "response": "y", "stimulus-type": "congruent", "word": "yellow", "color": "yellow", "correct_response": "y", "trial_id": "stroop-trial-1-congruent-17", "trial_type": "html-keyboard-response", "trial_index": 21, "time_elapsed": 106136, "internal_node_id": "0.0-4.0-17.0"}}, {"uniqueid": "w47713748:a18742479", "current_trial": 22, "dateTime": 1664555258198, "trialdata": {"rt": 1035, "stimulus": "<p id='stroop-text' class='stroop-blue'>STONE</p>", "response": "b", "stimulus-type": "unrelated", "word": "STONE", "color": "blue", "correct_response": "b", "trial_id": "stroop-trial-1-unrelated-24", "trial_type": "html-keyboard-response", "trial_index": 22, "time_elapsed": 107676, "internal_node_id": "0.0-4.0-18.0"}}, {"uniqueid": "w47713748:a18742479", "current_trial": 23, "dateTime": 1664555259359, "trialdata": {"rt": 657, "stimulus": "<p id='stroop-text' class='stroop-yellow'>YELLOW</p>", "response": "y", "stimulus-type": "congruent", "word": "yellow", "color": "yellow", "correct_response": "y", "trial_id": "stroop-trial-1-congruent-28", "trial_type": "html-keyboard-response", "trial_index": 23, "time_elapsed": 108837, "internal_node_id": "0.0-4.0-19.0"}}, {"uniqueid": "w47713748:a18742479", "current_trial": 24, "dateTime": 1664555260614, "trialdata": {"rt": 750, "stimulus": "<p id='stroop-text' class='stroop-green'>BOAT</p>", "response": "g", "stimulus-type": "unrelated", "word": "BOAT", "color": "green", "correct_response": "g", "trial_id": "stroop-trial-1-unrelated-3", "trial_type": "html-keyboard-response", "trial_index": 24, "time_elapsed": 110092, "internal_node_id": "0.0-4.0-20.0"}}, {"uniqueid": "w47713748:a18742479", "current_trial": 25, "dateTime": 1664555261954, "trialdata": {"rt": 837, "stimulus": "<p id='stroop-text' class='stroop-green'>YELLOW</p>", "response": "g", "stimulus-type": "incongruent", "word": "yellow", "color": "green", "correct_response": "g", "trial_id": "stroop-trial-1-incongruent-13", "trial_type": "html-keyboard-response", "trial_index": 25, "time_elapsed": 111432, "internal_node_id": "0.0-4.0-21.0"}}, {"uniqueid": "w47713748:a18742479", "current_trial": 26, "dateTime": 1664555263231, "trialdata": {"rt": 773, "stimulus": "<p id='stroop-text' class='stroop-blue'>BLUE</p>", "response": "b", "stimulus-type": "congruent", "word": "blue", "color": "blue", "correct_response": "b", "trial_id": "stroop-trial-1-congruent-26", "trial_type": "html-keyboard-response", "trial_index": 26, "time_elapsed": 112709, "internal_node_id": "0.0-4.0-22.0"}}, {"uniqueid": "w47713748:a18742479", "current_trial": 27, "dateTime": 1664555264379, "trialdata": {"rt": 645, "stimulus": "<p id='stroop-text' class='stroop-red'>RED</p>", "response": "r", "stimulus-type": "congruent", "word": "red", "color": "red", "correct_response": "r", "trial_id": "stroop-trial-1-congruent-15", "trial_type": "html-keyboard-response", "trial_index": 27, "time_elapsed": 113857, "internal_node_id": "0.0-4.0-23.0"}}, {"uniqueid": "w47713748:a18742479", "current_trial": 28, "dateTime": 1664555265861, "trialdata": {"rt": 977, "stimulus": "<p id='stroop-text' class='stroop-blue'>DOG</p>", "response": "b", "stimulus-type": "unrelated", "word": "DOG", "color": "blue", "correct_response": "b", "trial_id": "stroop-trial-1-unrelated-30", "trial_type": "html-keyboard-response", "trial_index": 28, "time_elapsed": 115339, "internal_node_id": "0.0-4.0-24.0"}}, {"uniqueid": "w47713748:a18742479", "current_trial": 29, "dateTime": 1664555267312, "trialdata": {"rt": 949, "stimulus": "<p id='stroop-text' class='stroop-blue'>BOAT</p>", "response": "b", "stimulus-type": "unrelated", "word": "BOAT", "color": "blue", "correct_response": "b", "trial_id": "stroop-trial-1-unrelated-6", "trial_type": "html-keyboard-response", "trial_index": 29, "time_elapsed": 116790, "internal_node_id": "0.0-4.0-25.0"}}, {"uniqueid": "w47713748:a18742479", "current_trial": 30, "dateTime": 1664555268688, "trialdata": {"rt": 872, "stimulus": "<p id='stroop-text' class='stroop-green'>STONE</p>", "response": "g", "stimulus-type": "unrelated", "word": "STONE", "color": "green", "correct_response": "g", "trial_id": "stroop-trial-1-unrelated-28", "trial_type": "html-keyboard-response", "trial_index": 30, "time_elapsed": 118165, "internal_node_id": "0.0-4.0-26.0"}}, {"uniqueid": "w47713748:a18742479", "current_trial": 31, "dateTime": 1664555270586, "trialdata": {"rt": 1394, "stimulus": "<p id='stroop-text' class='stroop-green'>BLUE</p>", "response": "g", "stimulus-type": "incongruent", "word": "blue", "color": "green", "correct_response": "g", "trial_id": "stroop-trial-1-incongruent-14", "trial_type": "html-keyboard-response", "trial_index": 31, "time_elapsed": 120064, "internal_node_id": "0.0-4.0-27.0"}}, {"uniqueid": "w47713748:a18742479", "current_trial": 32, "dateTime": 1664555272259, "trialdata": {"rt": 1169, "stimulus": "<p id='stroop-text' class='stroop-blue'>SHIP</p>", "response": "b", "stimulus-type": "unrelated", "word": "SHIP", "color": "blue", "correct_response": "b", "trial_id": "stroop-trial-1-unrelated-10", "trial_type": "html-keyboard-response", "trial_index": 32, "time_elapsed": 121737, "internal_node_id": "0.0-4.0-28.0"}}, {"uniqueid": "w47713748:a18742479", "current_trial": 33, "dateTime": 1664555273606, "trialdata": {"rt": 844, "stimulus": "<p id='stroop-text' class='stroop-yellow'>YELLOW</p>", "response": "y", "stimulus-type": "congruent", "word": "yellow", "color": "yellow", "correct_response": "y", "trial_id": "stroop-trial-1-congruent-24", "trial_type": "html-keyboard-response", "trial_index": 33, "time_elapsed": 123083, "internal_node_id": "0.0-4.0-29.0"}}, {"uniqueid": "w47713748:a18742479", "current_trial": 34, "dateTime": 1664555274879, "trialdata": {"rt": 770, "stimulus": "<p id='stroop-text' class='stroop-yellow'>RED</p>", "response": "y", "stimulus-type": "incongruent", "word": "red", "color": "yellow", "correct_response": "y", "trial_id": "stroop-trial-1-incongruent-9", "trial_type": "html-keyboard-response", "trial_index": 34, "time_elapsed": 124356, "internal_node_id": "0.0-4.0-30.0"}}, {"uniqueid": "w47713748:a18742479", "current_trial": 35, "dateTime": 1664555276135, "trialdata": {"rt": 751, "stimulus": "<p id='stroop-text' class='stroop-red'>RED</p>", "response": "r", "stimulus-type": "congruent", "word": "red", "color": "red", "correct_response": "r", "trial_id": "stroop-trial-1-congruent-21", "trial_type": "html-keyboard-response", "trial_index": 35, "time_elapsed": 125612, "internal_node_id": "0.0-4.0-31.0"}}, {"uniqueid": "w47713748:a18742479", "current_trial": 36, "dateTime": 1664555277410, "trialdata": {"rt": 770, "stimulus": "<p id='stroop-text' class='stroop-yellow'>CHAIR</p>", "response": "y", "stimulus-type": "unrelated", "word": "CHAIR", "color": "yellow", "correct_response": "y", "trial_id": "stroop-trial-1-unrelated-1", "trial_type": "html-keyboard-response", "trial_index": 36, "time_elapsed": 126887, "internal_node_id": "0.0-4.0-32.0"}}, {"uniqueid": "w47713748:a18742479", "current_trial": 37, "dateTime": 1664555278828, "trialdata": {"rt": 915, "stimulus": "<p id='stroop-text' class='stroop-blue'>GREEN</p>", "response": "b", "stimulus-type": "incongruent", "word": "green", "color": "blue", "correct_response": "b", "trial_id": "stroop-trial-1-incongruent-11", "trial_type": "html-keyboard-response", "trial_index": 37, "time_elapsed": 128305, "internal_node_id": "0.0-4.0-33.0"}}, {"uniqueid": "w47713748:a18742479", "current_trial": 38, "dateTime": 1664555280087, "trialdata": {"rt": 754, "stimulus": "<p id='stroop-text' class='stroop-green'>CHAIR</p>", "response": "g", "stimulus-type": "unrelated", "word": "CHAIR", "color": "green", "correct_response": "g", "trial_id": "stroop-trial-1-unrelated-13", "trial_type": "html-keyboard-response", "trial_index": 38, "time_elapsed": 129565, "internal_node_id": "0.0-4.0-34.0"}}, {"uniqueid": "w47713748:a18742479", "current_trial": 39, "dateTime": 1664555281298, "trialdata": {"rt": 706, "stimulus": "<p id='stroop-text' class='stroop-blue'>BLUE</p>", "response": "b", "stimulus-type": "congruent", "word": "blue", "color": "blue", "correct_response": "b", "trial_id": "stroop-trial-1-congruent-23", "trial_type": "html-keyboard-response", "trial_index": 39, "time_elapsed": 130776, "internal_node_id": "0.0-4.0-35.0"}}, {"uniqueid": "w47713748:a18742479", "current_trial": 40, "dateTime": 1664555283136, "trialdata": {"rt": 1336, "stimulus": "<p id='stroop-text' class='stroop-green'>BLUE</p>", "response": "g", "stimulus-type": "incongruent", "word": "blue", "color": "green", "correct_response": "g", "trial_id": "stroop-trial-1-incongruent-20", "trial_type": "html-keyboard-response", "trial_index": 40, "time_elapsed": 132614, "internal_node_id": "0.0-4.0-36.0"}}, {"uniqueid": "w47713748:a18742479", "current_trial": 41, "dateTime": 1664555284212, "trialdata": {"rt": 572, "stimulus": "<p id='stroop-text' class='stroop-green'>BLUE</p>", "response": "g", "stimulus-type": "incongruent", "word": "blue", "color": "green", "correct_response": "g", "trial_id": "stroop-trial-1-incongruent-23", "trial_type": "html-keyboard-response", "trial_index": 41, "time_elapsed": 133690, "internal_node_id": "0.0-4.0-37.0"}}, {"uniqueid": "w47713748:a18742479", "current_trial": 42, "dateTime": 1664555285364, "trialdata": {"rt": 647, "stimulus": "<p id='stroop-text' class='stroop-blue'>BOAT</p>", "response": "b", "stimulus-type": "unrelated", "word": "BOAT", "color": "blue", "correct_response": "b", "trial_id": "stroop-trial-1-unrelated-21", "trial_type": "html-keyboard-response", "trial_index": 42, "time_elapsed": 134842, "internal_node_id": "0.0-4.0-38.0"}}, {"uniqueid": "w47713748:a18742479", "current_trial": 43, "dateTime": 1664555286603, "trialdata": {"rt": 734, "stimulus": "<p id='stroop-text' class='stroop-blue'>GREEN</p>", "response": "b", "stimulus-type": "incongruent", "word": "green", "color": "blue", "correct_response": "b", "trial_id": "stroop-trial-1-incongruent-12", "trial_type": "html-keyboard-response", "trial_index": 43, "time_elapsed": 136081, "internal_node_id": "0.0-4.0-39.0"}}, {"uniqueid": "w47713748:a18742479", "current_trial": 44, "dateTime": 1664555287739, "trialdata": {"rt": 631, "stimulus": "<p id='stroop-text' class='stroop-red'>RED</p>", "response": "r", "stimulus-type": "congruent", "word": "red", "color": "red", "correct_response": "r", "trial_id": "stroop-trial-1-congruent-1", "trial_type": "html-keyboard-response", "trial_index": 44, "time_elapsed": 137217, "internal_node_id": "0.0-4.0-40.0"}}, {"uniqueid": "w47713748:a18742479", "current_trial": 45, "dateTime": 1664555289063, "trialdata": {"rt": 821, "stimulus": "<p id='stroop-text' class='stroop-green'>GREEN</p>", "response": "g", "stimulus-type": "congruent", "word": "green", "color": "green", "correct_response": "g", "trial_id": "stroop-trial-1-congruent-25", "trial_type": "html-keyboard-response", "trial_index": 45, "time_elapsed": 138540, "internal_node_id": "0.0-4.0-41.0"}}, {"uniqueid": "w47713748:a18742479", "current_trial": 46, "dateTime": 1664555290582, "trialdata": {"rt": 1013, "stimulus": "<p id='stroop-text' class='stroop-green'>RED</p>", "response": "g", "stimulus-type": "incongruent", "word": "red", "color": "green", "correct_response": "g", "trial_id": "stroop-trial-1-incongruent-25", "trial_type": "html-keyboard-response", "trial_index": 46, "time_elapsed": 140059, "internal_node_id": "0.0-4.0-42.0"}}, {"uniqueid": "w47713748:a18742479", "current_trial": 47, "dateTime": 1664555291531, "trialdata": {"rt": 447, "stimulus": "<p id='stroop-text' class='stroop-green'>RED</p>", "response": "g", "stimulus-type": "incongruent", "word": "red", "color": "green", "correct_response": "g", "trial_id": "stroop-trial-1-incongruent-18", "trial_type": "html-keyboard-response", "trial_index": 47, "time_elapsed": 141009, "internal_node_id": "0.0-4.0-43.0"}}, {"uniqueid": "w47713748:a18742479", "current_trial": 48, "dateTime": 1664555292641, "trialdata": {"rt": 606, "stimulus": "<p id='stroop-text' class='stroop-blue'>BRAIN</p>", "response": "b", "stimulus-type": "unrelated", "word": "BRAIN", "color": "blue", "correct_response": "b", "trial_id": "stroop-trial-1-unrelated-4", "trial_type": "html-keyboard-response", "trial_index": 48, "time_elapsed": 142119, "internal_node_id": "0.0-4.0-44.0"}}, {"uniqueid": "w47713748:a18742479", "current_trial": 49, "dateTime": 1664555293646, "trialdata": {"rt": 500, "stimulus": "<p id='stroop-text' class='stroop-green'>DOG</p>", "response": "g", "stimulus-type": "unrelated", "word": "DOG", "color": "green", "correct_response": "g", "trial_id": "stroop-trial-1-unrelated-15", "trial_type": "html-keyboard-response", "trial_index": 49, "time_elapsed": 143123, "internal_node_id": "0.0-4.0-45.0"}}, {"uniqueid": "w47713748:a18742479", "current_trial": 50, "dateTime": 1664555294822, "trialdata": {"rt": 674, "stimulus": "<p id='stroop-text' class='stroop-blue'>BLUE</p>", "response": "b", "stimulus-type": "congruent", "word": "blue", "color": "blue", "correct_response": "b", "trial_id": "stroop-trial-1-congruent-3", "trial_type": "html-keyboard-response", "trial_index": 50, "time_elapsed": 144300, "internal_node_id": "0.0-4.0-46.0"}}, {"uniqueid": "w47713748:a18742479", "current_trial": 51, "dateTime": 1664555295830, "trialdata": {"rt": 504, "stimulus": "<p id='stroop-text' class='stroop-green'>DOG</p>", "response": "g", "stimulus-type": "unrelated", "word": "DOG", "color": "green", "correct_response": "g", "trial_id": "stroop-trial-1-unrelated-8", "trial_type": "html-keyboard-response", "trial_index": 51, "time_elapsed": 145307, "internal_node_id": "0.0-4.0-47.0"}}, {"uniqueid": "w47713748:a18742479", "current_trial": 52, "dateTime": 1664555296783, "trialdata": {"rt": 450, "stimulus": "<p id='stroop-text' class='stroop-green'>DOG</p>", "response": "g", "stimulus-type": "unrelated", "word": "DOG", "color": "green", "correct_response": "g", "trial_id": "stroop-trial-1-unrelated-11", "trial_type": "html-keyboard-response", "trial_index": 52, "time_elapsed": 146260, "internal_node_id": "0.0-4.0-48.0"}}, {"uniqueid": "w47713748:a18742479", "current_trial": 53, "dateTime": 1664555297751, "trialdata": {"rt": 466, "stimulus": "<p id='stroop-text' class='stroop-green'>GREEN</p>", "response": "g", "stimulus-type": "congruent", "word": "green", "color": "green", "correct_response": "g", "trial_id": "stroop-trial-1-congruent-19", "trial_type": "html-keyboard-response", "trial_index": 53, "time_elapsed": 147229, "internal_node_id": "0.0-4.0-49.0"}}, {"uniqueid": "w47713748:a18742479", "current_trial": 54, "dateTime": 1664555298727, "trialdata": {"rt": 473, "stimulus": "<p id='stroop-text' class='stroop-green'>RED</p>", "response": "g", "stimulus-type": "incongruent", "word": "red", "color": "green", "correct_response": "g", "trial_id": "stroop-trial-1-incongruent-28", "trial_type": "html-keyboard-response", "trial_index": 54, "time_elapsed": 148205, "internal_node_id": "0.0-4.0-50.0"}}, {"uniqueid": "w47713748:a18742479", "current_trial": 55, "dateTime": 1664555300042, "trialdata": {"rt": 810, "stimulus": "<p id='stroop-text' class='stroop-yellow'>BLUE</p>", "response": "y", "stimulus-type": "incongruent", "word": "blue", "color": "yellow", "correct_response": "y", "trial_id": "stroop-trial-1-incongruent-29", "trial_type": "html-keyboard-response", "trial_index": 55, "time_elapsed": 149520, "internal_node_id": "0.0-4.0-51.0"}}, {"uniqueid": "w47713748:a18742479", "current_trial": 56, "dateTime": 1664555301074, "trialdata": {"rt": 528, "stimulus": "<p id='stroop-text' class='stroop-blue'>BLUE</p>", "response": "b", "stimulus-type": "congruent", "word": "blue", "color": "blue", "correct_response": "b", "trial_id": "stroop-trial-1-congruent-30", "trial_type": "html-keyboard-response", "trial_index": 56, "time_elapsed": 150551, "internal_node_id": "0.0-4.0-52.0"}}, {"uniqueid": "w47713748:a18742479", "current_trial": 57, "dateTime": 1664555302043, "trialdata": {"rt": 464, "stimulus": "<p id='stroop-text' class='stroop-yellow'>YELLOW</p>", "response": "y", "stimulus-type": "congruent", "word": "yellow", "color": "yellow", "correct_response": "y", "trial_id": "stroop-trial-1-congruent-20", "trial_type": "html-keyboard-response", "trial_index": 57, "time_elapsed": 151521, "internal_node_id": "0.0-4.0-53.0"}}, {"uniqueid": "w47713748:a18742479", "current_trial": 58, "dateTime": 1664555303286, "trialdata": {"rt": 738, "stimulus": "<p id='stroop-text' class='stroop-green'>BLUE</p>", "response": "g", "stimulus-type": "incongruent", "word": "blue", "color": "green", "correct_response": "g", "trial_id": "stroop-trial-1-incongruent-7", "trial_type": "html-keyboard-response", "trial_index": 58, "time_elapsed": 152764, "internal_node_id": "0.0-4.0-54.0"}}, {"uniqueid": "w47713748:a18742479", "current_trial": 59, "dateTime": 1664555304398, "trialdata": {"rt": 607, "stimulus": "<p id='stroop-text' class='stroop-red'>BLUE</p>", "response": "r", "stimulus-type": "incongruent", "word": "blue", "color": "red", "correct_response": "r", "trial_id": "stroop-trial-1-incongruent-21", "trial_type": "html-keyboard-response", "trial_index": 59, "time_elapsed": 153875, "internal_node_id": "0.0-4.0-55.0"}}, {"uniqueid": "w47713748:a18742479", "current_trial": 60, "dateTime": 1664555305591, "trialdata": {"rt": 690, "stimulus": "<p id='stroop-text' class='stroop-blue'>GREEN</p>", "response": "b", "stimulus-type": "incongruent", "word": "green", "color": "blue", "correct_response": "b", "trial_id": "stroop-trial-1-incongruent-17", "trial_type": "html-keyboard-response", "trial_index": 60, "time_elapsed": 155069, "internal_node_id": "0.0-4.0-56.0"}}, {"uniqueid": "w47713748:a18742479", "current_trial": 61, "dateTime": 1664555306812, "trialdata": {"rt": 717, "stimulus": "<p id='stroop-text' class='stroop-yellow'>YELLOW</p>", "response": "y", "stimulus-type": "congruent", "word": "yellow", "color": "yellow", "correct_response": "y", "trial_id": "stroop-trial-1-congruent-6", "trial_type": "html-keyboard-response", "trial_index": 61, "time_elapsed": 156290, "internal_node_id": "0.0-4.0-57.0"}}, {"uniqueid": "w47713748:a18742479", "current_trial": 62, "dateTime": 1664555307901, "trialdata": {"rt": 585, "stimulus": "<p id='stroop-text' class='stroop-yellow'>DOG</p>", "response": "y", "stimulus-type": "unrelated", "word": "DOG", "color": "yellow", "correct_response": "y", "trial_id": "stroop-trial-1-unrelated-17", "trial_type": "html-keyboard-response", "trial_index": 62, "time_elapsed": 157378, "internal_node_id": "0.0-4.0-58.0"}}, {"uniqueid": "w47713748:a18742479", "current_trial": 63, "dateTime": 1664555309089, "trialdata": {"rt": 684, "stimulus": "<p id='stroop-text' class='stroop-blue'>MONKEY</p>", "response": "b", "stimulus-type": "unrelated", "word": "MONKEY", "color": "blue", "correct_response": "b", "trial_id": "stroop-trial-1-unrelated-26", "trial_type": "html-keyboard-response", "trial_index": 63, "time_elapsed": 158567, "internal_node_id": "0.0-4.0-59.0"}}, {"uniqueid": "w47713748:a18742479", "current_trial": 64, "dateTime": 1664555310275, "trialdata": {"rt": 682, "stimulus": "<p id='stroop-text' class='stroop-red'>YELLOW</p>", "response": "r", "stimulus-type": "incongruent", "word": "yellow", "color": "red", "correct_response": "r", "trial_id": "stroop-trial-1-incongruent-30", "trial_type": "html-keyboard-response", "trial_index": 64, "time_elapsed": 159752, "internal_node_id": "0.0-4.0-60.0"}}, {"uniqueid": "w47713748:a18742479", "current_trial": 65, "dateTime": 1664555311381, "trialdata": {"rt": 601, "stimulus": "<p id='stroop-text' class='stroop-yellow'>GREEN</p>", "response": "y", "stimulus-type": "incongruent", "word": "green", "color": "yellow", "correct_response": "y", "trial_id": "stroop-trial-1-incongruent-10", "trial_type": "html-keyboard-response", "trial_index": 65, "time_elapsed": 160858, "internal_node_id": "0.0-4.0-61.0"}}, {"uniqueid": "w47713748:a18742479", "current_trial": 66, "dateTime": 1664555312468, "trialdata": {"rt": 584, "stimulus": "<p id='stroop-text' class='stroop-green'>MONKEY</p>", "response": "g", "stimulus-type": "unrelated", "word": "MONKEY", "color": "green", "correct_response": "g", "trial_id": "stroop-trial-1-unrelated-19", "trial_type": "html-keyboard-response", "trial_index": 66, "time_elapsed": 161946, "internal_node_id": "0.0-4.0-62.0"}}, {"uniqueid": "w47713748:a18742479", "current_trial": 67, "dateTime": 1664555313642, "trialdata": {"rt": 671, "stimulus": "<p id='stroop-text' class='stroop-blue'>GREEN</p>", "response": "b", "stimulus-type": "incongruent", "word": "green", "color": "blue", "correct_response": "b", "trial_id": "stroop-trial-1-incongruent-4", "trial_type": "html-keyboard-response", "trial_index": 67, "time_elapsed": 163120, "internal_node_id": "0.0-4.0-63.0"}}, {"uniqueid": "w47713748:a18742479", "current_trial": 68, "dateTime": 1664555314665, "trialdata": {"rt": 519, "stimulus": "<p id='stroop-text' class='stroop-red'>FORK</p>", "response": "r", "stimulus-type": "unrelated", "word": "FORK", "color": "red", "correct_response": "r", "trial_id": "stroop-trial-1-unrelated-22", "trial_type": "html-keyboard-response", "trial_index": 68, "time_elapsed": 164143, "internal_node_id": "0.0-4.0-64.0"}}, {"uniqueid": "w47713748:a18742479", "current_trial": 69, "dateTime": 1664555315817, "trialdata": {"rt": 649, "stimulus": "<p id='stroop-text' class='stroop-green'>GREEN</p>", "response": "g", "stimulus-type": "congruent", "word": "green", "color": "green", "correct_response": "g", "trial_id": "stroop-trial-1-congruent-5", "trial_type": "html-keyboard-response", "trial_index": 69, "time_elapsed": 165295, "internal_node_id": "0.0-4.0-65.0"}}, {"uniqueid": "w47713748:a18742479", "current_trial": 70, "dateTime": 1664555317095, "trialdata": {"rt": 775, "stimulus": "<p id='stroop-text' class='stroop-red'>BRAIN</p>", "response": "r", "stimulus-type": "unrelated", "word": "BRAIN", "color": "red", "correct_response": "r", "trial_id": "stroop-trial-1-unrelated-20", "trial_type": "html-keyboard-response", "trial_index": 70, "time_elapsed": 166572, "internal_node_id": "0.0-4.0-66.0"}}, {"uniqueid": "w47713748:a18742479", "current_trial": 71, "dateTime": 1664555318228, "trialdata": {"rt": 629, "stimulus": "<p id='stroop-text' class='stroop-green'>STONE</p>", "response": "g", "stimulus-type": "unrelated", "word": "STONE", "color": "green", "correct_response": "g", "trial_id": "stroop-trial-1-unrelated-29", "trial_type": "html-keyboard-response", "trial_index": 71, "time_elapsed": 167705, "internal_node_id": "0.0-4.0-67.0"}}, {"uniqueid": "w47713748:a18742479", "current_trial": 72, "dateTime": 1664555319425, "trialdata": {"rt": 694, "stimulus": "<p id='stroop-text' class='stroop-green'>STONE</p>", "response": "g", "stimulus-type": "unrelated", "word": "STONE", "color": "green", "correct_response": "g", "trial_id": "stroop-trial-1-unrelated-27", "trial_type": "html-keyboard-response", "trial_index": 72, "time_elapsed": 168902, "internal_node_id": "0.0-4.0-68.0"}}, {"uniqueid": "w47713748:a18742479", "current_trial": 73, "dateTime": 1664555320393, "trialdata": {"rt": 464, "stimulus": "<p id='stroop-text' class='stroop-green'>GREEN</p>", "response": "g", "stimulus-type": "congruent", "word": "green", "color": "green", "correct_response": "g", "trial_id": "stroop-trial-1-congruent-13", "trial_type": "html-keyboard-response", "trial_index": 73, "time_elapsed": 169871, "internal_node_id": "0.0-4.0-69.0"}}, {"uniqueid": "w47713748:a18742479", "current_trial": 74, "dateTime": 1664555321481, "trialdata": {"rt": 583, "stimulus": "<p id='stroop-text' class='stroop-blue'>BLUE</p>", "response": "b", "stimulus-type": "congruent", "word": "blue", "color": "blue", "correct_response": "b", "trial_id": "stroop-trial-1-congruent-16", "trial_type": "html-keyboard-response", "trial_index": 74, "time_elapsed": 170959, "internal_node_id": "0.0-4.0-70.0"}}, {"uniqueid": "w47713748:a18742479", "current_trial": 75, "dateTime": 1664555322509, "trialdata": {"rt": 524, "stimulus": "<p id='stroop-text' class='stroop-red'>BLUE</p>", "response": "r", "stimulus-type": "incongruent", "word": "blue", "color": "red", "correct_response": "r", "trial_id": "stroop-trial-1-incongruent-15", "trial_type": "html-keyboard-response", "trial_index": 75, "time_elapsed": 171986, "internal_node_id": "0.0-4.0-71.0"}}, {"uniqueid": "w47713748:a18742479", "current_trial": 76, "dateTime": 1664555323502, "trialdata": {"rt": 491, "stimulus": "<p id='stroop-text' class='stroop-green'>GREEN</p>", "response": "g", "stimulus-type": "congruent", "word": "green", "color": "green", "correct_response": "g", "trial_id": "stroop-trial-1-congruent-8", "trial_type": "html-keyboard-response", "trial_index": 76, "time_elapsed": 172980, "internal_node_id": "0.0-4.0-72.0"}}, {"uniqueid": "w47713748:a18742479", "current_trial": 77, "dateTime": 1664555324646, "trialdata": {"rt": 641, "stimulus": "<p id='stroop-text' class='stroop-red'>BOAT</p>", "response": "r", "stimulus-type": "unrelated", "word": "BOAT", "color": "red", "correct_response": "r", "trial_id": "stroop-trial-1-unrelated-18", "trial_type": "html-keyboard-response", "trial_index": 77, "time_elapsed": 174124, "internal_node_id": "0.0-4.0-73.0"}}, {"uniqueid": "w47713748:a18742479", "current_trial": 78, "dateTime": 1664555325701, "trialdata": {"rt": 552, "stimulus": "<p id='stroop-text' class='stroop-blue'>BLUE</p>", "response": "b", "stimulus-type": "congruent", "word": "blue", "color": "blue", "correct_response": "b", "trial_id": "stroop-trial-1-congruent-11", "trial_type": "html-keyboard-response", "trial_index": 78, "time_elapsed": 175179, "internal_node_id": "0.0-4.0-74.0"}}, {"uniqueid": "w47713748:a18742479", "current_trial": 79, "dateTime": 1664555326977, "trialdata": {"rt": 771, "stimulus": "<p id='stroop-text' class='stroop-green'>BRIDGE</p>", "response": "g", "stimulus-type": "unrelated", "word": "BRIDGE", "color": "green", "correct_response": "g", "trial_id": "stroop-trial-1-unrelated-14", "trial_type": "html-keyboard-response", "trial_index": 79, "time_elapsed": 176455, "internal_node_id": "0.0-4.0-75.0"}}, {"uniqueid": "w47713748:a18742479", "current_trial": 80, "dateTime": 1664555327978, "trialdata": {"rt": 496, "stimulus": "<p id='stroop-text' class='stroop-green'>DOG</p>", "response": "g", "stimulus-type": "unrelated", "word": "DOG", "color": "green", "correct_response": "g", "trial_id": "stroop-trial-1-unrelated-7", "trial_type": "html-keyboard-response", "trial_index": 80, "time_elapsed": 177455, "internal_node_id": "0.0-4.0-76.0"}}, {"uniqueid": "w47713748:a18742479", "current_trial": 81, "dateTime": 1664555329222, "trialdata": {"rt": 741, "stimulus": "<p id='stroop-text' class='stroop-yellow'>STONE</p>", "response": "y", "stimulus-type": "unrelated", "word": "STONE", "color": "yellow", "correct_response": "y", "trial_id": "stroop-trial-1-unrelated-9", "trial_type": "html-keyboard-response", "trial_index": 81, "time_elapsed": 178700, "internal_node_id": "0.0-4.0-77.0"}}, {"uniqueid": "w47713748:a18742479", "current_trial": 82, "dateTime": 1664555330359, "trialdata": {"rt": 633, "stimulus": "<p id='stroop-text' class='stroop-red'>RED</p>", "response": "r", "stimulus-type": "congruent", "word": "red", "color": "red", "correct_response": "r", "trial_id": "stroop-trial-1-congruent-18", "trial_type": "html-keyboard-response", "trial_index": 82, "time_elapsed": 179837, "internal_node_id": "0.0-4.0-78.0"}}, {"uniqueid": "w47713748:a18742479", "current_trial": 83, "dateTime": 1664555331457, "trialdata": {"rt": 594, "stimulus": "<p id='stroop-text' class='stroop-green'>GREEN</p>", "response": "g", "stimulus-type": "congruent", "word": "green", "color": "green", "correct_response": "g", "trial_id": "stroop-trial-1-congruent-7", "trial_type": "html-keyboard-response", "trial_index": 83, "time_elapsed": 180934, "internal_node_id": "0.0-4.0-79.0"}}, {"uniqueid": "w47713748:a18742479", "current_trial": 84, "dateTime": 1664555332533, "trialdata": {"rt": 571, "stimulus": "<p id='stroop-text' class='stroop-blue'>GREEN</p>", "response": "b", "stimulus-type": "incongruent", "word": "green", "color": "blue", "correct_response": "b", "trial_id": "stroop-trial-1-incongruent-22", "trial_type": "html-keyboard-response", "trial_index": 84, "time_elapsed": 182011, "internal_node_id": "0.0-4.0-80.0"}}, {"uniqueid": "w47713748:a18742479", "current_trial": 85, "dateTime": 1664555333637, "trialdata": {"rt": 600, "stimulus": "<p id='stroop-text' class='stroop-yellow'>STONE</p>", "response": "y", "stimulus-type": "unrelated", "word": "STONE", "color": "yellow", "correct_response": "y", "trial_id": "stroop-trial-1-unrelated-23", "trial_type": "html-keyboard-response", "trial_index": 85, "time_elapsed": 183115, "internal_node_id": "0.0-4.0-81.0"}}, {"uniqueid": "w47713748:a18742479", "current_trial": 86, "dateTime": 1664555334881, "trialdata": {"rt": 741, "stimulus": "<p id='stroop-text' class='stroop-blue'>BOTTLE</p>", "response": "b", "stimulus-type": "unrelated", "word": "BOTTLE", "color": "blue", "correct_response": "b", "trial_id": "stroop-trial-1-unrelated-2", "trial_type": "html-keyboard-response", "trial_index": 86, "time_elapsed": 184359, "internal_node_id": "0.0-4.0-82.0"}}, {"uniqueid": "w47713748:a18742479", "current_trial": 87, "dateTime": 1664555335925, "trialdata": {"rt": 541, "stimulus": "<p id='stroop-text' class='stroop-yellow'>BLUE</p>", "response": "y", "stimulus-type": "incongruent", "word": "blue", "color": "yellow", "correct_response": "y", "trial_id": "stroop-trial-1-incongruent-1", "trial_type": "html-keyboard-response", "trial_index": 87, "time_elapsed": 185403, "internal_node_id": "0.0-4.0-83.0"}}, {"uniqueid": "w47713748:a18742479", "current_trial": 88, "dateTime": 1664555336991, "trialdata": {"rt": 563, "stimulus": "<p id='stroop-text' class='stroop-red'>RED</p>", "response": "r", "stimulus-type": "congruent", "word": "red", "color": "red", "correct_response": "r", "trial_id": "stroop-trial-1-congruent-29", "trial_type": "html-keyboard-response", "trial_index": 88, "time_elapsed": 186469, "internal_node_id": "0.0-4.0-84.0"}}, {"uniqueid": "w47713748:a18742479", "current_trial": 89, "dateTime": 1664555338068, "trialdata": {"rt": 573, "stimulus": "<p id='stroop-text' class='stroop-green'>GREEN</p>", "response": "g", "stimulus-type": "congruent", "word": "green", "color": "green", "correct_response": "g", "trial_id": "stroop-trial-1-congruent-27", "trial_type": "html-keyboard-response", "trial_index": 89, "time_elapsed": 187546, "internal_node_id": "0.0-4.0-85.0"}}, {"uniqueid": "w47713748:a18742479", "current_trial": 90, "dateTime": 1664555339339, "trialdata": {"rt": 768, "stimulus": "<p id='stroop-text' class='stroop-blue'>GREEN</p>", "response": "b", "stimulus-type": "incongruent", "word": "green", "color": "blue", "correct_response": "b", "trial_id": "stroop-trial-1-incongruent-5", "trial_type": "html-keyboard-response", "trial_index": 90, "time_elapsed": 188817, "internal_node_id": "0.0-4.0-86.0"}}, {"uniqueid": "w47713748:a18742479", "current_trial": 91, "dateTime": 1664555340488, "trialdata": {"rt": 645, "stimulus": "<p id='stroop-text' class='stroop-green'>YELLOW</p>", "response": "g", "stimulus-type": "incongruent", "word": "yellow", "color": "green", "correct_response": "g", "trial_id": "stroop-trial-1-incongruent-19", "trial_type": "html-keyboard-response", "trial_index": 91, "time_elapsed": 189965, "internal_node_id": "0.0-4.0-87.0"}}, {"uniqueid": "w47713748:a18742479", "current_trial": 92, "dateTime": 1664555341737, "trialdata": {"rt": 746, "stimulus": "<p id='stroop-text' class='stroop-yellow'>GREEN</p>", "response": "y", "stimulus-type": "incongruent", "word": "green", "color": "yellow", "correct_response": "y", "trial_id": "stroop-trial-1-incongruent-27", "trial_type": "html-keyboard-response", "trial_index": 92, "time_elapsed": 191214, "internal_node_id": "0.0-4.0-88.0"}}, {"uniqueid": "w47713748:a18742479", "current_trial": 93, "dateTime": 1664555342909, "trialdata": {"rt": 669, "stimulus": "<p id='stroop-text' class='stroop-yellow'>SHIP</p>", "response": "y", "stimulus-type": "unrelated", "word": "SHIP", "color": "yellow", "correct_response": "y", "trial_id": "stroop-trial-1-unrelated-25", "trial_type": "html-keyboard-response", "trial_index": 93, "time_elapsed": 192386, "internal_node_id": "0.0-4.0-89.0"}}, {"uniqueid": "w47713748:a18742479", "current_trial": 94, "dateTime": 1664555378085, "trialdata": {"rt": 34671, "stimulus": "  <h1> End of block! </h1>\n\n  You have reached the end of the block 1/5. If you need a short break, feel free to take one now before moving on.\n\n  <br><br>\n  In the next block, you will complete another 90 rounds of this game.\n\n  <br><br>\n  <div style='text-align: center;'>Press <code>space</code> to begin.</div>\n  <br><br>\n<div style='text-align: center;'>(If the experiment doesn't continue, try clicking on the text and then pressing <code>space</code>.)</div>", "response": " ", "trial_id": "stroop_1_ready_2", "trial_type": "html-keyboard-response", "trial_index": 94, "time_elapsed": 227563, "internal_node_id": "0.0-5.0"}}, {"uniqueid": "w47713748:a18742479", "current_trial": 95, "dateTime": 1664555378943, "trialdata": {"rt": 854, "stimulus": "<p id='stroop-text' class='stroop-blue'>RED</p>", "response": "b", "stimulus-type": "incongruent", "word": "red", "color": "blue", "correct_response": "b", "trial_id": "stroop-trial-1-incongruent-10", "trial_type": "html-keyboard-response", "trial_index": 95, "time_elapsed": 228420, "internal_node_id": "0.0-6.0-0.0"}}, {"uniqueid": "w47713748:a18742479", "current_trial": 96, "dateTime": 1664555380192, "trialdata": {"rt": 746, "stimulus": "<p id='stroop-text' class='stroop-blue'>YELLOW</p>", "response": "b", "stimulus-type": "incongruent", "word": "yellow", "color": "blue", "correct_response": "b", "trial_id": "stroop-trial-1-incongruent-8", "trial_type": "html-keyboard-response", "trial_index": 96, "time_elapsed": 229670, "internal_node_id": "0.0-6.0-1.0"}}, {"uniqueid": "w47713748:a18742479", "current_trial": 97, "dateTime": 1664555381593, "trialdata": {"rt": 896, "stimulus": "<p id='stroop-text' class='stroop-red'>GREEN</p>", "response": "r", "stimulus-type": "incongruent", "word": "green", "color": "red", "correct_response": "r", "trial_id": "stroop-trial-1-incongruent-9", "trial_type": "html-keyboard-response", "trial_index": 97, "time_elapsed": 231071, "internal_node_id": "0.0-6.0-2.0"}}, {"uniqueid": "w47713748:a18742479", "current_trial": 98, "dateTime": 1664555382773, "trialdata": {"rt": 676, "stimulus": "<p id='stroop-text' class='stroop-yellow'>BOTTLE</p>", "response": "y", "stimulus-type": "unrelated", "word": "BOTTLE", "color": "yellow", "correct_response": "y", "trial_id": "stroop-trial-1-unrelated-10", "trial_type": "html-keyboard-response", "trial_index": 98, "time_elapsed": 232250, "internal_node_id": "0.0-6.0-3.0"}}, {"uniqueid": "w47713748:a18742479", "current_trial": 99, "dateTime": 1664555383814, "trialdata": {"rt": 538, "stimulus": "<p id='stroop-text' class='stroop-yellow'>YELLOW</p>", "response": "y", "stimulus-type": "congruent", "word": "yellow", "color": "yellow", "correct_response": "y", "trial_id": "stroop-trial-1-congruent-9", "trial_type": "html-keyboard-response", "trial_index": 99, "time_elapsed": 233291, "internal_node_id": "0.0-6.0-4.0"}}, {"uniqueid": "w47713748:a18742479", "current_trial": 100, "dateTime": 1664555384864, "trialdata": {"rt": 546, "stimulus": "<p id='stroop-text' class='stroop-blue'>GREEN</p>", "response": "b", "stimulus-type": "incongruent", "word": "green", "color": "blue", "correct_response": "b", "trial_id": "stroop-trial-1-incongruent-11", "trial_type": "html-keyboard-response", "trial_index": 100, "time_elapsed": 234342, "internal_node_id": "0.0-6.0-5.0"}}, {"uniqueid": "w47713748:a18742479", "current_trial": 101, "dateTime": 1664555386005, "trialdata": {"rt": 637, "stimulus": "<p id='stroop-text' class='stroop-green'>GREEN</p>", "response": "g", "stimulus-type": "congruent", "word": "green", "color": "green", "correct_response": "g", "trial_id": "stroop-trial-1-congruent-23", "trial_type": "html-keyboard-response", "trial_index": 101, "time_elapsed": 235482, "internal_node_id": "0.0-6.0-6.0"}}, {"uniqueid": "w47713748:a18742479", "current_trial": 102, "dateTime": 1664555387206, "trialdata": {"rt": 698, "stimulus": "<p id='stroop-text' class='stroop-blue'>WINDOW</p>", "response": "b", "stimulus-type": "unrelated", "word": "WINDOW", "color": "blue", "correct_response": "b", "trial_id": "stroop-trial-1-unrelated-23", "trial_type": "html-keyboard-response", "trial_index": 102, "time_elapsed": 236684, "internal_node_id": "0.0-6.0-7.0"}}, {"uniqueid": "w47713748:a18742479", "current_trial": 103, "dateTime": 1664555388238, "trialdata": {"rt": 528, "stimulus": "<p id='stroop-text' class='stroop-red'>BLUE</p>", "response": "r", "stimulus-type": "incongruent", "word": "blue", "color": "red", "correct_response": "r", "trial_id": "stroop-trial-1-incongruent-1", "trial_type": "html-keyboard-response", "trial_index": 103, "time_elapsed": 237715, "internal_node_id": "0.0-6.0-8.0"}}, {"uniqueid": "w47713748:a18742479", "current_trial": 104, "dateTime": 1664555389264, "trialdata": {"rt": 523, "stimulus": "<p id='stroop-text' class='stroop-red'>BOTTLE</p>", "response": "r", "stimulus-type": "unrelated", "word": "BOTTLE", "color": "red", "correct_response": "r", "trial_id": "stroop-trial-1-unrelated-12", "trial_type": "html-keyboard-response", "trial_index": 104, "time_elapsed": 238742, "internal_node_id": "0.0-6.0-9.0"}}, {"uniqueid": "w47713748:a18742479", "current_trial": 105, "dateTime": 1664555390259, "trialdata": {"rt": 490, "stimulus": "<p id='stroop-text' class='stroop-yellow'>YELLOW</p>", "response": "y", "stimulus-type": "congruent", "word": "yellow", "color": "yellow", "correct_response": "y", "trial_id": "stroop-trial-1-congruent-12", "trial_type": "html-keyboard-response", "trial_index": 105, "time_elapsed": 239737, "internal_node_id": "0.0-6.0-10.0"}}, {"uniqueid": "w47713748:a18742479", "current_trial": 106, "dateTime": 1664555391649, "trialdata": {"rt": 886, "stimulus": "<p id='stroop-text' class='stroop-blue'>BLUE</p>", "response": "b", "stimulus-type": "congruent", "word": "blue", "color": "blue", "correct_response": "b", "trial_id": "stroop-trial-1-congruent-4", "trial_type": "html-keyboard-response", "trial_index": 106, "time_elapsed": 241127, "internal_node_id": "0.0-6.0-11.0"}}, {"uniqueid": "w47713748:a18742479", "current_trial": 107, "dateTime": 1664555392735, "trialdata": {"rt": 582, "stimulus": "<p id='stroop-text' class='stroop-red'>CHAIR</p>", "response": "r", "stimulus-type": "unrelated", "word": "CHAIR", "color": "red", "correct_response": "r", "trial_id": "stroop-trial-1-unrelated-17", "trial_type": "html-keyboard-response", "trial_index": 107, "time_elapsed": 242212, "internal_node_id": "0.0-6.0-12.0"}}, {"uniqueid": "w47713748:a18742479", "current_trial": 108, "dateTime": 1664555393745, "trialdata": {"rt": 508, "stimulus": "<p id='stroop-text' class='stroop-yellow'>FORK</p>", "response": "y", "stimulus-type": "unrelated", "word": "FORK", "color": "yellow", "correct_response": "y", "trial_id": "stroop-trial-1-unrelated-18", "trial_type": "html-keyboard-response", "trial_index": 108, "time_elapsed": 243223, "internal_node_id": "0.0-6.0-13.0"}}, {"uniqueid": "w47713748:a18742479", "current_trial": 109, "dateTime": 1664555394964, "trialdata": {"rt": 714, "stimulus": "<p id='stroop-text' class='stroop-blue'>YELLOW</p>", "response": "b", "stimulus-type": "incongruent", "word": "yellow", "color": "blue", "correct_response": "b", "trial_id": "stroop-trial-1-incongruent-17", "trial_type": "html-keyboard-response", "trial_index": 109, "time_elapsed": 244442, "internal_node_id": "0.0-6.0-14.0"}}, {"uniqueid": "w47713748:a18742479", "current_trial": 110, "dateTime": 1664555395938, "trialdata": {"rt": 469, "stimulus": "<p id='stroop-text' class='stroop-blue'>BLUE</p>", "response": "b", "stimulus-type": "congruent", "word": "blue", "color": "blue", "correct_response": "b", "trial_id": "stroop-trial-1-congruent-19", "trial_type": "html-keyboard-response", "trial_index": 110, "time_elapsed": 245415, "internal_node_id": "0.0-6.0-15.0"}}, {"uniqueid": "w47713748:a18742479", "current_trial": 111, "dateTime": 1664555396952, "trialdata": {"rt": 510, "stimulus": "<p id='stroop-text' class='stroop-blue'>STONE</p>", "response": "b", "stimulus-type": "unrelated", "word": "STONE", "color": "blue", "correct_response": "b", "trial_id": "stroop-trial-1-unrelated-1", "trial_type": "html-keyboard-response", "trial_index": 111, "time_elapsed": 246429, "internal_node_id": "0.0-6.0-16.0"}}, {"uniqueid": "w47713748:a18742479", "current_trial": 112, "dateTime": 1664555398050, "trialdata": {"rt": 593, "stimulus": "<p id='stroop-text' class='stroop-red'>RED</p>", "response": "r", "stimulus-type": "congruent", "word": "red", "color": "red", "correct_response": "r", "trial_id": "stroop-trial-1-congruent-26", "trial_type": "html-keyboard-response", "trial_index": 112, "time_elapsed": 247528, "internal_node_id": "0.0-6.0-17.0"}}, {"uniqueid": "w47713748:a18742479", "current_trial": 113, "dateTime": 1664555399173, "trialdata": {"rt": 619, "stimulus": "<p id='stroop-text' class='stroop-green'>YELLOW</p>", "response": "g", "stimulus-type": "incongruent", "word": "yellow", "color": "green", "correct_response": "g", "trial_id": "stroop-trial-1-incongruent-7", "trial_type": "html-keyboard-response", "trial_index": 113, "time_elapsed": 248651, "internal_node_id": "0.0-6.0-18.0"}}, {"uniqueid": "w47713748:a18742479", "current_trial": 114, "dateTime": 1664555400083, "trialdata": {"rt": 408, "stimulus": "<p id='stroop-text' class='stroop-green'>WINDOW</p>", "response": "g", "stimulus-type": "unrelated", "word": "WINDOW", "color": "green", "correct_response": "g", "trial_id": "stroop-trial-1-unrelated-21", "trial_type": "html-keyboard-response", "trial_index": 114, "time_elapsed": 249561, "internal_node_id": "0.0-6.0-19.0"}}, {"uniqueid": "w47713748:a18742479", "current_trial": 115, "dateTime": 1664555401000, "trialdata": {"rt": 414, "stimulus": "<p id='stroop-text' class='stroop-green'>YELLOW</p>", "response": "g", "stimulus-type": "incongruent", "word": "yellow", "color": "green", "correct_response": "g", "trial_id": "stroop-trial-1-incongruent-20", "trial_type": "html-keyboard-response", "trial_index": 115, "time_elapsed": 250478, "internal_node_id": "0.0-6.0-20.0"}}, {"uniqueid": "w47713748:a18742479", "current_trial": 116, "dateTime": 1664555402013, "trialdata": {"rt": 510, "stimulus": "<p id='stroop-text' class='stroop-blue'>BRIDGE</p>", "response": "b", "stimulus-type": "unrelated", "word": "BRIDGE", "color": "blue", "correct_response": "b", "trial_id": "stroop-trial-1-unrelated-25", "trial_type": "html-keyboard-response", "trial_index": 116, "time_elapsed": 251491, "internal_node_id": "0.0-6.0-21.0"}}, {"uniqueid": "w47713748:a18742479", "current_trial": 117, "dateTime": 1664555403089, "trialdata": {"rt": 570, "stimulus": "<p id='stroop-text' class='stroop-green'>GREEN</p>", "response": "g", "stimulus-type": "congruent", "word": "green", "color": "green", "correct_response": "g", "trial_id": "stroop-trial-1-congruent-8", "trial_type": "html-keyboard-response", "trial_index": 117, "time_elapsed": 252567, "internal_node_id": "0.0-6.0-22.0"}}, {"uniqueid": "w47713748:a18742479", "current_trial": 118, "dateTime": 1664555404085, "trialdata": {"rt": 492, "stimulus": "<p id='stroop-text' class='stroop-yellow'>YELLOW</p>", "response": "y", "stimulus-type": "congruent", "word": "yellow", "color": "yellow", "correct_response": "y", "trial_id": "stroop-trial-1-congruent-14", "trial_type": "html-keyboard-response", "trial_index": 118, "time_elapsed": 253563, "internal_node_id": "0.0-6.0-23.0"}}, {"uniqueid": "w47713748:a18742479", "current_trial": 119, "dateTime": 1664555405037, "trialdata": {"rt": 448, "stimulus": "<p id='stroop-text' class='stroop-red'>RED</p>", "response": "r", "stimulus-type": "congruent", "word": "red", "color": "red", "correct_response": "r", "trial_id": "stroop-trial-1-congruent-20", "trial_type": "html-keyboard-response", "trial_index": 119, "time_elapsed": 254514, "internal_node_id": "0.0-6.0-24.0"}}, {"uniqueid": "w47713748:a18742479", "current_trial": 120, "dateTime": 1664555406243, "trialdata": {"rt": 704, "stimulus": "<p id='stroop-text' class='stroop-green'>RED</p>", "response": "g", "stimulus-type": "incongruent", "word": "red", "color": "green", "correct_response": "g", "trial_id": "stroop-trial-1-incongruent-5", "trial_type": "html-keyboard-response", "trial_index": 120, "time_elapsed": 255721, "internal_node_id": "0.0-6.0-25.0"}}, {"uniqueid": "w47713748:a18742479", "current_trial": 121, "dateTime": 1664555407202, "trialdata": {"rt": 453, "stimulus": "<p id='stroop-text' class='stroop-blue'>BRAIN</p>", "response": "b", "stimulus-type": "unrelated", "word": "BRAIN", "color": "blue", "correct_response": "b", "trial_id": "stroop-trial-1-unrelated-19", "trial_type": "html-keyboard-response", "trial_index": 121, "time_elapsed": 256679, "internal_node_id": "0.0-6.0-26.0"}}, {"uniqueid": "w47713748:a18742479", "current_trial": 122, "dateTime": 1664555408255, "trialdata": {"rt": 550, "stimulus": "<p id='stroop-text' class='stroop-yellow'>BLUE</p>", "response": "y", "stimulus-type": "incongruent", "word": "blue", "color": "yellow", "correct_response": "y", "trial_id": "stroop-trial-1-incongruent-24", "trial_type": "html-keyboard-response", "trial_index": 122, "time_elapsed": 257733, "internal_node_id": "0.0-6.0-27.0"}}, {"uniqueid": "w47713748:a18742479", "current_trial": 123, "dateTime": 1664555409370, "trialdata": {"rt": 611, "stimulus": "<p id='stroop-text' class='stroop-green'>MONKEY</p>", "response": "g", "stimulus-type": "unrelated", "word": "MONKEY", "color": "green", "correct_response": "g", "trial_id": "stroop-trial-1-unrelated-2", "trial_type": "html-keyboard-response", "trial_index": 123, "time_elapsed": 258848, "internal_node_id": "0.0-6.0-28.0"}}, {"uniqueid": "w47713748:a18742479", "current_trial": 124, "dateTime": 1664555410398, "trialdata": {"rt": 524, "stimulus": "<p id='stroop-text' class='stroop-red'>CHAIR</p>", "response": "r", "stimulus-type": "unrelated", "word": "CHAIR", "color": "red", "correct_response": "r", "trial_id": "stroop-trial-1-unrelated-15", "trial_type": "html-keyboard-response", "trial_index": 124, "time_elapsed": 259876, "internal_node_id": "0.0-6.0-29.0"}}, {"uniqueid": "w47713748:a18742479", "current_trial": 125, "dateTime": 1664555411531, "trialdata": {"rt": 627, "stimulus": "<p id='stroop-text' class='stroop-yellow'>YELLOW</p>", "response": "y", "stimulus-type": "congruent", "word": "yellow", "color": "yellow", "correct_response": "y", "trial_id": "stroop-trial-1-congruent-13", "trial_type": "html-keyboard-response", "trial_index": 125, "time_elapsed": 261008, "internal_node_id": "0.0-6.0-30.0"}}, {"uniqueid": "w47713748:a18742479", "current_trial": 126, "dateTime": 1664555412543, "trialdata": {"rt": 509, "stimulus": "<p id='stroop-text' class='stroop-blue'>BOAT</p>", "response": "b", "stimulus-type": "unrelated", "word": "BOAT", "color": "blue", "correct_response": "b", "trial_id": "stroop-trial-1-unrelated-30", "trial_type": "html-keyboard-response", "trial_index": 126, "time_elapsed": 262021, "internal_node_id": "0.0-6.0-31.0"}}, {"uniqueid": "w47713748:a18742479", "current_trial": 127, "dateTime": 1664555413653, "trialdata": {"rt": 606, "stimulus": "<p id='stroop-text' class='stroop-yellow'>RED</p>", "response": "y", "stimulus-type": "incongruent", "word": "red", "color": "yellow", "correct_response": "y", "trial_id": "stroop-trial-1-incongruent-27", "trial_type": "html-keyboard-response", "trial_index": 127, "time_elapsed": 263131, "internal_node_id": "0.0-6.0-32.0"}}, {"uniqueid": "w47713748:a18742479", "current_trial": 128, "dateTime": 1664555415184, "trialdata": {"rt": 1026, "stimulus": "<p id='stroop-text' class='stroop-green'>YELLOW</p>", "response": "g", "stimulus-type": "incongruent", "word": "yellow", "color": "green", "correct_response": "g", "trial_id": "stroop-trial-1-incongruent-3", "trial_type": "html-keyboard-response", "trial_index": 128, "time_elapsed": 264661, "internal_node_id": "0.0-6.0-33.0"}}, {"uniqueid": "w47713748:a18742479", "current_trial": 129, "dateTime": 1664555416219, "trialdata": {"rt": 531, "stimulus": "<p id='stroop-text' class='stroop-red'>RED</p>", "response": "r", "stimulus-type": "congruent", "word": "red", "color": "red", "correct_response": "r", "trial_id": "stroop-trial-1-congruent-1", "trial_type": "html-keyboard-response", "trial_index": 129, "time_elapsed": 265696, "internal_node_id": "0.0-6.0-34.0"}}, {"uniqueid": "w47713748:a18742479", "current_trial": 130, "dateTime": 1664555417247, "trialdata": {"rt": 522, "stimulus": "<p id='stroop-text' class='stroop-blue'>BLUE</p>", "response": "b", "stimulus-type": "congruent", "word": "blue", "color": "blue", "correct_response": "b", "trial_id": "stroop-trial-1-congruent-21", "trial_type": "html-keyboard-response", "trial_index": 130, "time_elapsed": 266724, "internal_node_id": "0.0-6.0-35.0"}}, {"uniqueid": "w47713748:a18742479", "current_trial": 131, "dateTime": 1664555418292, "trialdata": {"rt": 540, "stimulus": "<p id='stroop-text' class='stroop-yellow'>RED</p>", "response": "y", "stimulus-type": "incongruent", "word": "red", "color": "yellow", "correct_response": "y", "trial_id": "stroop-trial-1-incongruent-21", "trial_type": "html-keyboard-response", "trial_index": 131, "time_elapsed": 267769, "internal_node_id": "0.0-6.0-36.0"}}, {"uniqueid": "w47713748:a18742479", "current_trial": 132, "dateTime": 1664555419429, "trialdata": {"rt": 632, "stimulus": "<p id='stroop-text' class='stroop-red'>RED</p>", "response": "r", "stimulus-type": "congruent", "word": "red", "color": "red", "correct_response": "r", "trial_id": "stroop-trial-1-congruent-5", "trial_type": "html-keyboard-response", "trial_index": 132, "time_elapsed": 268906, "internal_node_id": "0.0-6.0-37.0"}}, {"uniqueid": "w47713748:a18742479", "current_trial": 133, "dateTime": 1664555420461, "trialdata": {"rt": 526, "stimulus": "<p id='stroop-text' class='stroop-red'>GREEN</p>", "response": "r", "stimulus-type": "incongruent", "word": "green", "color": "red", "correct_response": "r", "trial_id": "stroop-trial-1-incongruent-22", "trial_type": "html-keyboard-response", "trial_index": 133, "time_elapsed": 269938, "internal_node_id": "0.0-6.0-38.0"}}, {"uniqueid": "w47713748:a18742479", "current_trial": 134, "dateTime": 1664555421640, "trialdata": {"rt": 676, "stimulus": "<p id='stroop-text' class='stroop-blue'>RED</p>", "response": "b", "stimulus-type": "incongruent", "word": "red", "color": "blue", "correct_response": "b", "trial_id": "stroop-trial-1-incongruent-2", "trial_type": "html-keyboard-response", "trial_index": 134, "time_elapsed": 271118, "internal_node_id": "0.0-6.0-39.0"}}, {"uniqueid": "w47713748:a18742479", "current_trial": 135, "dateTime": 1664555422803, "trialdata": {"rt": 658, "stimulus": "<p id='stroop-text' class='stroop-blue'>BLUE</p>", "response": "b", "stimulus-type": "congruent", "word": "blue", "color": "blue", "correct_response": "b", "trial_id": "stroop-trial-1-congruent-29", "trial_type": "html-keyboard-response", "trial_index": 135, "time_elapsed": 272281, "internal_node_id": "0.0-6.0-40.0"}}, {"uniqueid": "w47713748:a18742479", "current_trial": 136, "dateTime": 1664555423786, "trialdata": {"rt": 479, "stimulus": "<p id='stroop-text' class='stroop-blue'>YELLOW</p>", "response": "b", "stimulus-type": "incongruent", "word": "yellow", "color": "blue", "correct_response": "b", "trial_id": "stroop-trial-1-incongruent-18", "trial_type": "html-keyboard-response", "trial_index": 136, "time_elapsed": 273264, "internal_node_id": "0.0-6.0-41.0"}}, {"uniqueid": "w47713748:a18742479", "current_trial": 137, "dateTime": 1664555424751, "trialdata": {"rt": 461, "stimulus": "<p id='stroop-text' class='stroop-blue'>BLUE</p>", "response": "b", "stimulus-type": "congruent", "word": "blue", "color": "blue", "correct_response": "b", "trial_id": "stroop-trial-1-congruent-7", "trial_type": "html-keyboard-response", "trial_index": 137, "time_elapsed": 274228, "internal_node_id": "0.0-6.0-42.0"}}, {"uniqueid": "w47713748:a18742479", "current_trial": 138, "dateTime": 1664555425704, "trialdata": {"rt": 450, "stimulus": "<p id='stroop-text' class='stroop-blue'>BRIDGE</p>", "response": "b", "stimulus-type": "unrelated", "word": "BRIDGE", "color": "blue", "correct_response": "b", "trial_id": "stroop-trial-1-unrelated-16", "trial_type": "html-keyboard-response", "trial_index": 138, "time_elapsed": 275182, "internal_node_id": "0.0-6.0-43.0"}}, {"uniqueid": "w47713748:a18742479", "current_trial": 139, "dateTime": 1664555426694, "trialdata": {"rt": 485, "stimulus": "<p id='stroop-text' class='stroop-green'>STONE</p>", "response": "r", "stimulus-type": "unrelated", "word": "STONE", "color": "green", "correct_response": "g", "trial_id": "stroop-trial-1-unrelated-6", "trial_type": "html-keyboard-response", "trial_index": 139, "time_elapsed": 276171, "internal_node_id": "0.0-6.0-44.0"}}, {"uniqueid": "w47713748:a18742479", "current_trial": 140, "dateTime": 1664555427886, "trialdata": {"rt": 689, "stimulus": "<p id='stroop-text' class='stroop-yellow'>BLUE</p>", "response": "y", "stimulus-type": "incongruent", "word": "blue", "color": "yellow", "correct_response": "y", "trial_id": "stroop-trial-1-incongruent-16", "trial_type": "html-keyboard-response", "trial_index": 140, "time_elapsed": 277363, "internal_node_id": "0.0-6.0-45.0"}}, {"uniqueid": "w47713748:a18742479", "current_trial": 141, "dateTime": 1664555429457, "trialdata": {"rt": 1067, "stimulus": "<p id='stroop-text' class='stroop-blue'>DOG</p>", "response": "b", "stimulus-type": "unrelated", "word": "DOG", "color": "blue", "correct_response": "b", "trial_id": "stroop-trial-1-unrelated-7", "trial_type": "html-keyboard-response", "trial_index": 141, "time_elapsed": 278935, "internal_node_id": "0.0-6.0-46.0"}}, {"uniqueid": "w47713748:a18742479", "current_trial": 142, "dateTime": 1664555430459, "trialdata": {"rt": 499, "stimulus": "<p id='stroop-text' class='stroop-green'>STONE</p>", "response": "g", "stimulus-type": "unrelated", "word": "STONE", "color": "green", "correct_response": "g", "trial_id": "stroop-trial-1-unrelated-26", "trial_type": "html-keyboard-response", "trial_index": 142, "time_elapsed": 279937, "internal_node_id": "0.0-6.0-47.0"}}, {"uniqueid": "w47713748:a18742479", "current_trial": 143, "dateTime": 1664555431432, "trialdata": {"rt": 468, "stimulus": "<p id='stroop-text' class='stroop-green'>YELLOW</p>", "response": "g", "stimulus-type": "incongruent", "word": "yellow", "color": "green", "correct_response": "g", "trial_id": "stroop-trial-1-incongruent-25", "trial_type": "html-keyboard-response", "trial_index": 143, "time_elapsed": 280910, "internal_node_id": "0.0-6.0-48.0"}}, {"uniqueid": "w47713748:a18742479", "current_trial": 144, "dateTime": 1664555432328, "trialdata": {"rt": 391, "stimulus": "<p id='stroop-text' class='stroop-green'>RED</p>", "response": "g", "stimulus-type": "incongruent", "word": "red", "color": "green", "correct_response": "g", "trial_id": "stroop-trial-1-incongruent-14", "trial_type": "html-keyboard-response", "trial_index": 144, "time_elapsed": 281805, "internal_node_id": "0.0-6.0-49.0"}}, {"uniqueid": "w47713748:a18742479", "current_trial": 145, "dateTime": 1664555433340, "trialdata": {"rt": 506, "stimulus": "<p id='stroop-text' class='stroop-blue'>BLUE</p>", "response": "b", "stimulus-type": "congruent", "word": "blue", "color": "blue", "correct_response": "b", "trial_id": "stroop-trial-1-congruent-30", "trial_type": "html-keyboard-response", "trial_index": 145, "time_elapsed": 282817, "internal_node_id": "0.0-6.0-50.0"}}, {"uniqueid": "w47713748:a18742479", "current_trial": 146, "dateTime": 1664555434346, "trialdata": {"rt": 502, "stimulus": "<p id='stroop-text' class='stroop-yellow'>RED</p>", "response": "y", "stimulus-type": "incongruent", "word": "red", "color": "yellow", "correct_response": "y", "trial_id": "stroop-trial-1-incongruent-15", "trial_type": "html-keyboard-response", "trial_index": 146, "time_elapsed": 283823, "internal_node_id": "0.0-6.0-51.0"}}, {"uniqueid": "w47713748:a18742479", "current_trial": 147, "dateTime": 1664555435581, "trialdata": {"rt": 731, "stimulus": "<p id='stroop-text' class='stroop-red'>DOG</p>", "response": "r", "stimulus-type": "unrelated", "word": "DOG", "color": "red", "correct_response": "r", "trial_id": "stroop-trial-1-unrelated-3", "trial_type": "html-keyboard-response", "trial_index": 147, "time_elapsed": 285058, "internal_node_id": "0.0-6.0-52.0"}}, {"uniqueid": "w47713748:a18742479", "current_trial": 148, "dateTime": 1664555436716, "trialdata": {"rt": 631, "stimulus": "<p id='stroop-text' class='stroop-blue'>GREEN</p>", "response": "b", "stimulus-type": "incongruent", "word": "green", "color": "blue", "correct_response": "b", "trial_id": "stroop-trial-1-incongruent-4", "trial_type": "html-keyboard-response", "trial_index": 148, "time_elapsed": 286194, "internal_node_id": "0.0-6.0-53.0"}}, {"uniqueid": "w47713748:a18742479", "current_trial": 149, "dateTime": 1664555437807, "trialdata": {"rt": 587, "stimulus": "<p id='stroop-text' class='stroop-yellow'>YELLOW</p>", "response": "y", "stimulus-type": "congruent", "word": "yellow", "color": "yellow", "correct_response": "y", "trial_id": "stroop-trial-1-congruent-18", "trial_type": "html-keyboard-response", "trial_index": 149, "time_elapsed": 287285, "internal_node_id": "0.0-6.0-54.0"}}, {"uniqueid": "w47713748:a18742479", "current_trial": 150, "dateTime": 1664555438918, "trialdata": {"rt": 607, "stimulus": "<p id='stroop-text' class='stroop-green'>GREEN</p>", "response": "g", "stimulus-type": "congruent", "word": "green", "color": "green", "correct_response": "g", "trial_id": "stroop-trial-1-congruent-3", "trial_type": "html-keyboard-response", "trial_index": 150, "time_elapsed": 288396, "internal_node_id": "0.0-6.0-55.0"}}, {"uniqueid": "w47713748:a18742479", "current_trial": 151, "dateTime": 1664555440031, "trialdata": {"rt": 608, "stimulus": "<p id='stroop-text' class='stroop-yellow'>YELLOW</p>", "response": "y", "stimulus-type": "congruent", "word": "yellow", "color": "yellow", "correct_response": "y", "trial_id": "stroop-trial-1-congruent-10", "trial_type": "html-keyboard-response", "trial_index": 151, "time_elapsed": 289509, "internal_node_id": "0.0-6.0-56.0"}}, {"uniqueid": "w47713748:a18742479", "current_trial": 152, "dateTime": 1664555441051, "trialdata": {"rt": 514, "stimulus": "<p id='stroop-text' class='stroop-yellow'>YELLOW</p>", "response": "y", "stimulus-type": "congruent", "word": "yellow", "color": "yellow", "correct_response": "y", "trial_id": "stroop-trial-1-congruent-22", "trial_type": "html-keyboard-response", "trial_index": 152, "time_elapsed": 290529, "internal_node_id": "0.0-6.0-57.0"}}, {"uniqueid": "w47713748:a18742479", "current_trial": 153, "dateTime": 1664555442137, "trialdata": {"rt": 582, "stimulus": "<p id='stroop-text' class='stroop-red'>RED</p>", "response": "r", "stimulus-type": "congruent", "word": "red", "color": "red", "correct_response": "r", "trial_id": "stroop-trial-1-congruent-6", "trial_type": "html-keyboard-response", "trial_index": 153, "time_elapsed": 291615, "internal_node_id": "0.0-6.0-58.0"}}, {"uniqueid": "w47713748:a18742479", "current_trial": 154, "dateTime": 1664555443126, "trialdata": {"rt": 483, "stimulus": "<p id='stroop-text' class='stroop-blue'>BOAT</p>", "response": "b", "stimulus-type": "unrelated", "word": "BOAT", "color": "blue", "correct_response": "b", "trial_id": "stroop-trial-1-unrelated-29", "trial_type": "html-keyboard-response", "trial_index": 154, "time_elapsed": 292604, "internal_node_id": "0.0-6.0-59.0"}}, {"uniqueid": "w47713748:a18742479", "current_trial": 155, "dateTime": 1664555444403, "trialdata": {"rt": 772, "stimulus": "<p id='stroop-text' class='stroop-yellow'>RED</p>", "response": "y", "stimulus-type": "incongruent", "word": "red", "color": "yellow", "correct_response": "y", "trial_id": "stroop-trial-1-incongruent-28", "trial_type": "html-keyboard-response", "trial_index": 155, "time_elapsed": 293880, "internal_node_id": "0.0-6.0-60.0"}}, {"uniqueid": "w47713748:a18742479", "current_trial": 156, "dateTime": 1664555445668, "trialdata": {"rt": 760, "stimulus": "<p id='stroop-text' class='stroop-yellow'>GREEN</p>", "response": "g", "stimulus-type": "incongruent", "word": "green", "color": "yellow", "correct_response": "y", "trial_id": "stroop-trial-1-incongruent-23", "trial_type": "html-keyboard-response", "trial_index": 156, "time_elapsed": 295146, "internal_node_id": "0.0-6.0-61.0"}}, {"uniqueid": "w47713748:a18742479", "current_trial": 157, "dateTime": 1664555447649, "trialdata": {"rt": 1475, "stimulus": "<p id='stroop-text' class='stroop-red'>WINDOW</p>", "response": "r", "stimulus-type": "unrelated", "word": "WINDOW", "color": "red", "correct_response": "r", "trial_id": "stroop-trial-1-unrelated-5", "trial_type": "html-keyboard-response", "trial_index": 157, "time_elapsed": 297126, "internal_node_id": "0.0-6.0-62.0"}}, {"uniqueid": "w47713748:a18742479", "current_trial": 158, "dateTime": 1664555448664, "trialdata": {"rt": 511, "stimulus": "<p id='stroop-text' class='stroop-blue'>BLUE</p>", "response": "b", "stimulus-type": "congruent", "word": "blue", "color": "blue", "correct_response": "b", "trial_id": "stroop-trial-1-congruent-24", "trial_type": "html-keyboard-response", "trial_index": 158, "time_elapsed": 298142, "internal_node_id": "0.0-6.0-63.0"}}, {"uniqueid": "w47713748:a18742479", "current_trial": 159, "dateTime": 1664555449845, "trialdata": {"rt": 676, "stimulus": "<p id='stroop-text' class='stroop-red'>MONKEY</p>", "response": "r", "stimulus-type": "unrelated", "word": "MONKEY", "color": "red", "correct_response": "r", "trial_id": "stroop-trial-1-unrelated-27", "trial_type": "html-keyboard-response", "trial_index": 159, "time_elapsed": 299323, "internal_node_id": "0.0-6.0-64.0"}}, {"uniqueid": "w47713748:a18742479", "current_trial": 160, "dateTime": 1664555451748, "trialdata": {"rt": 1397, "stimulus": "<p id='stroop-text' class='stroop-green'>RED</p>", "response": "g", "stimulus-type": "incongruent", "word": "red", "color": "green", "correct_response": "g", "trial_id": "stroop-trial-1-incongruent-29", "trial_type": "html-keyboard-response", "trial_index": 160, "time_elapsed": 301226, "internal_node_id": "0.0-6.0-65.0"}}, {"uniqueid": "w47713748:a18742479", "current_trial": 161, "dateTime": 1664555452862, "trialdata": {"rt": 610, "stimulus": "<p id='stroop-text' class='stroop-yellow'>CHAIR</p>", "response": "y", "stimulus-type": "unrelated", "word": "CHAIR", "color": "yellow", "correct_response": "y", "trial_id": "stroop-trial-1-unrelated-4", "trial_type": "html-keyboard-response", "trial_index": 161, "time_elapsed": 302339, "internal_node_id": "0.0-6.0-66.0"}}, {"uniqueid": "w47713748:a18742479", "current_trial": 162, "dateTime": 1664555454023, "trialdata": {"rt": 657, "stimulus": "<p id='stroop-text' class='stroop-blue'>BLUE</p>", "response": "b", "stimulus-type": "congruent", "word": "blue", "color": "blue", "correct_response": "b", "trial_id": "stroop-trial-1-congruent-15", "trial_type": "html-keyboard-response", "trial_index": 162, "time_elapsed": 303500, "internal_node_id": "0.0-6.0-67.0"}}, {"uniqueid": "w47713748:a18742479", "current_trial": 163, "dateTime": 1664555455002, "trialdata": {"rt": 474, "stimulus": "<p id='stroop-text' class='stroop-blue'>BLUE</p>", "response": "b", "stimulus-type": "congruent", "word": "blue", "color": "blue", "correct_response": "b", "trial_id": "stroop-trial-1-congruent-2", "trial_type": "html-keyboard-response", "trial_index": 163, "time_elapsed": 304480, "internal_node_id": "0.0-6.0-68.0"}}, {"uniqueid": "w47713748:a18742479", "current_trial": 164, "dateTime": 1664555456056, "trialdata": {"rt": 549, "stimulus": "<p id='stroop-text' class='stroop-yellow'>YELLOW</p>", "response": "y", "stimulus-type": "congruent", "word": "yellow", "color": "yellow", "correct_response": "y", "trial_id": "stroop-trial-1-congruent-28", "trial_type": "html-keyboard-response", "trial_index": 164, "time_elapsed": 305533, "internal_node_id": "0.0-6.0-69.0"}}, {"uniqueid": "w47713748:a18742479", "current_trial": 165, "dateTime": 1664555457292, "trialdata": {"rt": 730, "stimulus": "<p id='stroop-text' class='stroop-red'>BOTTLE</p>", "response": "r", "stimulus-type": "unrelated", "word": "BOTTLE", "color": "red", "correct_response": "r", "trial_id": "stroop-trial-1-unrelated-20", "trial_type": "html-keyboard-response", "trial_index": 165, "time_elapsed": 306769, "internal_node_id": "0.0-6.0-70.0"}}, {"uniqueid": "w47713748:a18742479", "current_trial": 166, "dateTime": 1664555458282, "trialdata": {"rt": 486, "stimulus": "<p id='stroop-text' class='stroop-green'>GREEN</p>", "response": "g", "stimulus-type": "congruent", "word": "green", "color": "green", "correct_response": "g", "trial_id": "stroop-trial-1-congruent-17", "trial_type": "html-keyboard-response", "trial_index": 166, "time_elapsed": 307760, "internal_node_id": "0.0-6.0-71.0"}}, {"uniqueid": "w47713748:a18742479", "current_trial": 167, "dateTime": 1664555459420, "trialdata": {"rt": 633, "stimulus": "<p id='stroop-text' class='stroop-red'>RED</p>", "response": "r", "stimulus-type": "congruent", "word": "red", "color": "red", "correct_response": "r", "trial_id": "stroop-trial-1-congruent-16", "trial_type": "html-keyboard-response", "trial_index": 167, "time_elapsed": 308897, "internal_node_id": "0.0-6.0-72.0"}}, {"uniqueid": "w47713748:a18742479", "current_trial": 168, "dateTime": 1664555460829, "trialdata": {"rt": 905, "stimulus": "<p id='stroop-text' class='stroop-yellow'>GREEN</p>", "response": "g", "stimulus-type": "incongruent", "word": "green", "color": "yellow", "correct_response": "y", "trial_id": "stroop-trial-1-incongruent-13", "trial_type": "html-keyboard-response", "trial_index": 168, "time_elapsed": 310307, "internal_node_id": "0.0-6.0-73.0"}}, {"uniqueid": "w47713748:a18742479", "current_trial": 169, "dateTime": 1664555463193, "trialdata": {"rt": 1861, "stimulus": "<p id='stroop-text' class='stroop-red'>BOTTLE</p>", "response": "r", "stimulus-type": "unrelated", "word": "BOTTLE", "color": "red", "correct_response": "r", "trial_id": "stroop-trial-1-unrelated-24", "trial_type": "html-keyboard-response", "trial_index": 169, "time_elapsed": 312671, "internal_node_id": "0.0-6.0-74.0"}}, {"uniqueid": "w47713748:a18742479", "current_trial": 170, "dateTime": 1664555464354, "trialdata": {"rt": 656, "stimulus": "<p id='stroop-text' class='stroop-red'>YELLOW</p>", "response": "r", "stimulus-type": "incongruent", "word": "yellow", "color": "red", "correct_response": "r", "trial_id": "stroop-trial-1-incongruent-19", "trial_type": "html-keyboard-response", "trial_index": 170, "time_elapsed": 313831, "internal_node_id": "0.0-6.0-75.0"}}, {"uniqueid": "w47713748:a18742479", "current_trial": 171, "dateTime": 1664555465459, "trialdata": {"rt": 599, "stimulus": "<p id='stroop-text' class='stroop-blue'>STONE</p>", "response": "b", "stimulus-type": "unrelated", "word": "STONE", "color": "blue", "correct_response": "b", "trial_id": "stroop-trial-1-unrelated-11", "trial_type": "html-keyboard-response", "trial_index": 171, "time_elapsed": 314936, "internal_node_id": "0.0-6.0-76.0"}}, {"uniqueid": "w47713748:a18742479", "current_trial": 172, "dateTime": 1664555467170, "trialdata": {"rt": 1207, "stimulus": "<p id='stroop-text' class='stroop-red'>WINDOW</p>", "response": "r", "stimulus-type": "unrelated", "word": "WINDOW", "color": "red", "correct_response": "r", "trial_id": "stroop-trial-1-unrelated-28", "trial_type": "html-keyboard-response", "trial_index": 172, "time_elapsed": 316648, "internal_node_id": "0.0-6.0-77.0"}}, {"uniqueid": "w47713748:a18742479", "current_trial": 173, "dateTime": 1664555468297, "trialdata": {"rt": 621, "stimulus": "<p id='stroop-text' class='stroop-yellow'>YELLOW</p>", "response": "y", "stimulus-type": "congruent", "word": "yellow", "color": "yellow", "correct_response": "y", "trial_id": "stroop-trial-1-congruent-25", "trial_type": "html-keyboard-response", "trial_index": 173, "time_elapsed": 317775, "internal_node_id": "0.0-6.0-78.0"}}, {"uniqueid": "w47713748:a18742479", "current_trial": 174, "dateTime": 1664555470141, "trialdata": {"rt": 1339, "stimulus": "<p id='stroop-text' class='stroop-red'>GREEN</p>", "response": "r", "stimulus-type": "incongruent", "word": "green", "color": "red", "correct_response": "r", "trial_id": "stroop-trial-1-incongruent-12", "trial_type": "html-keyboard-response", "trial_index": 174, "time_elapsed": 319619, "internal_node_id": "0.0-6.0-79.0"}}, {"uniqueid": "w47713748:a18742479", "current_trial": 175, "dateTime": 1664555471233, "trialdata": {"rt": 588, "stimulus": "<p id='stroop-text' class='stroop-blue'>RED</p>", "response": "b", "stimulus-type": "incongruent", "word": "red", "color": "blue", "correct_response": "b", "trial_id": "stroop-trial-1-incongruent-26", "trial_type": "html-keyboard-response", "trial_index": 175, "time_elapsed": 320711, "internal_node_id": "0.0-6.0-80.0"}}, {"uniqueid": "w47713748:a18742479", "current_trial": 176, "dateTime": 1664555472496, "trialdata": {"rt": 758, "stimulus": "<p id='stroop-text' class='stroop-red'>RED</p>", "response": "r", "stimulus-type": "congruent", "word": "red", "color": "red", "correct_response": "r", "trial_id": "stroop-trial-1-congruent-11", "trial_type": "html-keyboard-response", "trial_index": 176, "time_elapsed": 321974, "internal_node_id": "0.0-6.0-81.0"}}, {"uniqueid": "w47713748:a18742479", "current_trial": 177, "dateTime": 1664555473974, "trialdata": {"rt": 973, "stimulus": "<p id='stroop-text' class='stroop-red'>BOTTLE</p>", "response": "r", "stimulus-type": "unrelated", "word": "BOTTLE", "color": "red", "correct_response": "r", "trial_id": "stroop-trial-1-unrelated-8", "trial_type": "html-keyboard-response", "trial_index": 177, "time_elapsed": 323451, "internal_node_id": "0.0-6.0-82.0"}}, {"uniqueid": "w47713748:a18742479", "current_trial": 178, "dateTime": 1664555475233, "trialdata": {"rt": 754, "stimulus": "<p id='stroop-text' class='stroop-green'>BRIDGE</p>", "response": "g", "stimulus-type": "unrelated", "word": "BRIDGE", "color": "green", "correct_response": "g", "trial_id": "stroop-trial-1-unrelated-9", "trial_type": "html-keyboard-response", "trial_index": 178, "time_elapsed": 324711, "internal_node_id": "0.0-6.0-83.0"}}, {"uniqueid": "w47713748:a18742479", "current_trial": 179, "dateTime": 1664555476332, "trialdata": {"rt": 593, "stimulus": "<p id='stroop-text' class='stroop-green'>STONE</p>", "response": "g", "stimulus-type": "unrelated", "word": "STONE", "color": "green", "correct_response": "g", "trial_id": "stroop-trial-1-unrelated-14", "trial_type": "html-keyboard-response", "trial_index": 179, "time_elapsed": 325809, "internal_node_id": "0.0-6.0-84.0"}}, {"uniqueid": "w47713748:a18742479", "current_trial": 180, "dateTime": 1664555477770, "trialdata": {"rt": 933, "stimulus": "<p id='stroop-text' class='stroop-blue'>BRAIN</p>", "response": "b", "stimulus-type": "unrelated", "word": "BRAIN", "color": "blue", "correct_response": "b", "trial_id": "stroop-trial-1-unrelated-13", "trial_type": "html-keyboard-response", "trial_index": 180, "time_elapsed": 327248, "internal_node_id": "0.0-6.0-85.0"}}, {"uniqueid": "w47713748:a18742479", "current_trial": 181, "dateTime": 1664555479540, "trialdata": {"rt": 1264, "stimulus": "<p id='stroop-text' class='stroop-green'>BLUE</p>", "response": "g", "stimulus-type": "incongruent", "word": "blue", "color": "green", "correct_response": "g", "trial_id": "stroop-trial-1-incongruent-30", "trial_type": "html-keyboard-response", "trial_index": 181, "time_elapsed": 329018, "internal_node_id": "0.0-6.0-86.0"}}, {"uniqueid": "w47713748:a18742479", "current_trial": 182, "dateTime": 1664555480878, "trialdata": {"rt": 834, "stimulus": "<p id='stroop-text' class='stroop-yellow'>YELLOW</p>", "response": "y", "stimulus-type": "congruent", "word": "yellow", "color": "yellow", "correct_response": "y", "trial_id": "stroop-trial-1-congruent-27", "trial_type": "html-keyboard-response", "trial_index": 182, "time_elapsed": 330356, "internal_node_id": "0.0-6.0-87.0"}}, {"uniqueid": "w47713748:a18742479", "current_trial": 183, "dateTime": 1664555481982, "trialdata": {"rt": 600, "stimulus": "<p id='stroop-text' class='stroop-blue'>BRIDGE</p>", "response": "b", "stimulus-type": "unrelated", "word": "BRIDGE", "color": "blue", "correct_response": "b", "trial_id": "stroop-trial-1-unrelated-22", "trial_type": "html-keyboard-response", "trial_index": 183, "time_elapsed": 331460, "internal_node_id": "0.0-6.0-88.0"}}, {"uniqueid": "w47713748:a18742479", "current_trial": 184, "dateTime": 1664555483611, "trialdata": {"rt": 1124, "stimulus": "<p id='stroop-text' class='stroop-red'>BLUE</p>", "response": "r", "stimulus-type": "incongruent", "word": "blue", "color": "red", "correct_response": "r", "trial_id": "stroop-trial-1-incongruent-6", "trial_type": "html-keyboard-response", "trial_index": 184, "time_elapsed": 333088, "internal_node_id": "0.0-6.0-89.0"}}, {"uniqueid": "w47713748:a18742479", "current_trial": 185, "dateTime": 1664555628293, "trialdata": {"rt": 144173, "stimulus": "  <h1> End of block! </h1>\n\n  You have reached the end of the block 2/5. If you need a short break, feel free to take one now before moving on.\n\n  <br><br>\n  In the next block, you will complete another 90 rounds of this game.\n\n  <br><br>\n  <div style='text-align: center;'>Press <code>space</code> to begin.</div>\n  <br><br>\n<div style='text-align: center;'>(If the experiment doesn't continue, try clicking on the text and then pressing <code>space</code>.)</div>", "response": " ", "trial_id": "stroop_1_ready_3", "trial_type": "html-keyboard-response", "trial_index": 185, "time_elapsed": 477770, "internal_node_id": "0.0-7.0"}}, {"uniqueid": "w47713748:a18742479", "current_trial": 186, "dateTime": 1664555629626, "trialdata": {"rt": 1329, "stimulus": "<p id='stroop-text' class='stroop-red'>DOG</p>", "response": "r", "stimulus-type": "unrelated", "word": "DOG", "color": "red", "correct_response": "r", "trial_id": "stroop-trial-1-unrelated-29", "trial_type": "html-keyboard-response", "trial_index": 186, "time_elapsed": 479103, "internal_node_id": "0.0-8.0-0.0"}}, {"uniqueid": "w47713748:a18742479", "current_trial": 187, "dateTime": 1664555630827, "trialdata": {"rt": 697, "stimulus": "<p id='stroop-text' class='stroop-blue'>BLUE</p>", "response": "b", "stimulus-type": "congruent", "word": "blue", "color": "blue", "correct_response": "b", "trial_id": "stroop-trial-1-congruent-24", "trial_type": "html-keyboard-response", "trial_index": 187, "time_elapsed": 480305, "internal_node_id": "0.0-8.0-1.0"}}, {"uniqueid": "w47713748:a18742479", "current_trial": 188, "dateTime": 1664555632606, "trialdata": {"rt": 1273, "stimulus": "<p id='stroop-text' class='stroop-red'>BLUE</p>", "response": "r", "stimulus-type": "incongruent", "word": "blue", "color": "red", "correct_response": "r", "trial_id": "stroop-trial-1-incongruent-11", "trial_type": "html-keyboard-response", "trial_index": 188, "time_elapsed": 482083, "internal_node_id": "0.0-8.0-2.0"}}, {"uniqueid": "w47713748:a18742479", "current_trial": 189, "dateTime": 1664555633909, "trialdata": {"rt": 798, "stimulus": "<p id='stroop-text' class='stroop-yellow'>BLUE</p>", "response": "y", "stimulus-type": "incongruent", "word": "blue", "color": "yellow", "correct_response": "y", "trial_id": "stroop-trial-1-incongruent-23", "trial_type": "html-keyboard-response", "trial_index": 189, "time_elapsed": 483387, "internal_node_id": "0.0-8.0-3.0"}}, {"uniqueid": "w47713748:a18742479", "current_trial": 190, "dateTime": 1664555635046, "trialdata": {"rt": 632, "stimulus": "<p id='stroop-text' class='stroop-green'>GREEN</p>", "response": "g", "stimulus-type": "congruent", "word": "green", "color": "green", "correct_response": "g", "trial_id": "stroop-trial-1-congruent-8", "trial_type": "html-keyboard-response", "trial_index": 190, "time_elapsed": 484523, "internal_node_id": "0.0-8.0-4.0"}}, {"uniqueid": "w47713748:a18742479", "current_trial": 191, "dateTime": 1664555636364, "trialdata": {"rt": 813, "stimulus": "<p id='stroop-text' class='stroop-red'>MONKEY</p>", "response": "r", "stimulus-type": "unrelated", "word": "MONKEY", "color": "red", "correct_response": "r", "trial_id": "stroop-trial-1-unrelated-15", "trial_type": "html-keyboard-response", "trial_index": 191, "time_elapsed": 485842, "internal_node_id": "0.0-8.0-5.0"}}, {"uniqueid": "w47713748:a18742479", "current_trial": 192, "dateTime": 1664555637833, "trialdata": {"rt": 965, "stimulus": "<p id='stroop-text' class='stroop-green'>RED</p>", "response": "g", "stimulus-type": "incongruent", "word": "red", "color": "green", "correct_response": "g", "trial_id": "stroop-trial-1-incongruent-30", "trial_type": "html-keyboard-response", "trial_index": 192, "time_elapsed": 487310, "internal_node_id": "0.0-8.0-6.0"}}, {"uniqueid": "w47713748:a18742479", "current_trial": 193, "dateTime": 1664555639044, "trialdata": {"rt": 707, "stimulus": "<p id='stroop-text' class='stroop-blue'>SHIP</p>", "response": "b", "stimulus-type": "unrelated", "word": "SHIP", "color": "blue", "correct_response": "b", "trial_id": "stroop-trial-1-unrelated-26", "trial_type": "html-keyboard-response", "trial_index": 193, "time_elapsed": 488521, "internal_node_id": "0.0-8.0-7.0"}}, {"uniqueid": "w47713748:a18742479", "current_trial": 194, "dateTime": 1664555640170, "trialdata": {"rt": 621, "stimulus": "<p id='stroop-text' class='stroop-green'>GREEN</p>", "response": "g", "stimulus-type": "congruent", "word": "green", "color": "green", "correct_response": "g", "trial_id": "stroop-trial-1-congruent-19", "trial_type": "html-keyboard-response", "trial_index": 194, "time_elapsed": 489648, "internal_node_id": "0.0-8.0-8.0"}}, {"uniqueid": "w47713748:a18742479", "current_trial": 195, "dateTime": 1664555641301, "trialdata": {"rt": 625, "stimulus": "<p id='stroop-text' class='stroop-yellow'>YELLOW</p>", "response": "y", "stimulus-type": "congruent", "word": "yellow", "color": "yellow", "correct_response": "y", "trial_id": "stroop-trial-1-congruent-26", "trial_type": "html-keyboard-response", "trial_index": 195, "time_elapsed": 490779, "internal_node_id": "0.0-8.0-9.0"}}, {"uniqueid": "w47713748:a18742479", "current_trial": 196, "dateTime": 1664555642577, "trialdata": {"rt": 770, "stimulus": "<p id='stroop-text' class='stroop-red'>BOAT</p>", "response": "r", "stimulus-type": "unrelated", "word": "BOAT", "color": "red", "correct_response": "r", "trial_id": "stroop-trial-1-unrelated-7", "trial_type": "html-keyboard-response", "trial_index": 196, "time_elapsed": 492055, "internal_node_id": "0.0-8.0-10.0"}}, {"uniqueid": "w47713748:a18742479", "current_trial": 197, "dateTime": 1664555643957, "trialdata": {"rt": 876, "stimulus": "<p id='stroop-text' class='stroop-blue'>BRAIN</p>", "response": "b", "stimulus-type": "unrelated", "word": "BRAIN", "color": "blue", "correct_response": "b", "trial_id": "stroop-trial-1-unrelated-25", "trial_type": "html-keyboard-response", "trial_index": 197, "time_elapsed": 493435, "internal_node_id": "0.0-8.0-11.0"}}, {"uniqueid": "w47713748:a18742479", "current_trial": 198, "dateTime": 1664555645329, "trialdata": {"rt": 866, "stimulus": "<p id='stroop-text' class='stroop-blue'>GREEN</p>", "response": "g", "stimulus-type": "incongruent", "word": "green", "color": "blue", "correct_response": "b", "trial_id": "stroop-trial-1-incongruent-7", "trial_type": "html-keyboard-response", "trial_index": 198, "time_elapsed": 494807, "internal_node_id": "0.0-8.0-12.0"}}, {"uniqueid": "w47713748:a18742479", "current_trial": 199, "dateTime": 1664555646623, "trialdata": {"rt": 790, "stimulus": "<p id='stroop-text' class='stroop-blue'>BLUE</p>", "response": "b", "stimulus-type": "congruent", "word": "blue", "color": "blue", "correct_response": "b", "trial_id": "stroop-trial-1-congruent-11", "trial_type": "html-keyboard-response", "trial_index": 199, "time_elapsed": 496101, "internal_node_id": "0.0-8.0-13.0"}}, {"uniqueid": "w47713748:a18742479", "current_trial": 200, "dateTime": 1664555648552, "trialdata": {"rt": 1424, "stimulus": "<p id='stroop-text' class='stroop-green'>BLUE</p>", "response": "g", "stimulus-type": "incongruent", "word": "blue", "color": "green", "correct_response": "g", "trial_id": "stroop-trial-1-incongruent-8", "trial_type": "html-keyboard-response", "trial_index": 200, "time_elapsed": 498029, "internal_node_id": "0.0-8.0-14.0"}}, {"uniqueid": "w47713748:a18742479", "current_trial": 201, "dateTime": 1664555649649, "trialdata": {"rt": 592, "stimulus": "<p id='stroop-text' class='stroop-red'>RED</p>", "response": "r", "stimulus-type": "congruent", "word": "red", "color": "red", "correct_response": "r", "trial_id": "stroop-trial-1-congruent-22", "trial_type": "html-keyboard-response", "trial_index": 201, "time_elapsed": 499127, "internal_node_id": "0.0-8.0-15.0"}}, {"uniqueid": "w47713748:a18742479", "current_trial": 202, "dateTime": 1664555650805, "trialdata": {"rt": 653, "stimulus": "<p id='stroop-text' class='stroop-yellow'>YELLOW</p>", "response": "y", "stimulus-type": "congruent", "word": "yellow", "color": "yellow", "correct_response": "y", "trial_id": "stroop-trial-1-congruent-4", "trial_type": "html-keyboard-response", "trial_index": 202, "time_elapsed": 500283, "internal_node_id": "0.0-8.0-16.0"}}, {"uniqueid": "w47713748:a18742479", "current_trial": 203, "dateTime": 1664555652522, "trialdata": {"rt": 1211, "stimulus": "<p id='stroop-text' class='stroop-yellow'>RED</p>", "response": "y", "stimulus-type": "incongruent", "word": "red", "color": "yellow", "correct_response": "y", "trial_id": "stroop-trial-1-incongruent-18", "trial_type": "html-keyboard-response", "trial_index": 203, "time_elapsed": 501999, "internal_node_id": "0.0-8.0-17.0"}}, {"uniqueid": "w47713748:a18742479", "current_trial": 204, "dateTime": 1664555653852, "trialdata": {"rt": 825, "stimulus": "<p id='stroop-text' class='stroop-yellow'>BRAIN</p>", "response": "y", "stimulus-type": "unrelated", "word": "BRAIN", "color": "yellow", "correct_response": "y", "trial_id": "stroop-trial-1-unrelated-30", "trial_type": "html-keyboard-response", "trial_index": 204, "time_elapsed": 503329, "internal_node_id": "0.0-8.0-18.0"}}, {"uniqueid": "w47713748:a18742479", "current_trial": 205, "dateTime": 1664555655132, "trialdata": {"rt": 775, "stimulus": "<p id='stroop-text' class='stroop-blue'>BLUE</p>", "response": "b", "stimulus-type": "congruent", "word": "blue", "color": "blue", "correct_response": "b", "trial_id": "stroop-trial-1-congruent-13", "trial_type": "html-keyboard-response", "trial_index": 205, "time_elapsed": 504609, "internal_node_id": "0.0-8.0-19.0"}}, {"uniqueid": "w47713748:a18742479", "current_trial": 206, "dateTime": 1664555656587, "trialdata": {"rt": 950, "stimulus": "<p id='stroop-text' class='stroop-green'>YELLOW</p>", "response": "g", "stimulus-type": "incongruent", "word": "yellow", "color": "green", "correct_response": "g", "trial_id": "stroop-trial-1-incongruent-25", "trial_type": "html-keyboard-response", "trial_index": 206, "time_elapsed": 506065, "internal_node_id": "0.0-8.0-20.0"}}, {"uniqueid": "w47713748:a18742479", "current_trial": 207, "dateTime": 1664555657902, "trialdata": {"rt": 810, "stimulus": "<p id='stroop-text' class='stroop-green'>CHAIR</p>", "response": "g", "stimulus-type": "unrelated", "word": "CHAIR", "color": "green", "correct_response": "g", "trial_id": "stroop-trial-1-unrelated-18", "trial_type": "html-keyboard-response", "trial_index": 207, "time_elapsed": 507380, "internal_node_id": "0.0-8.0-21.0"}}, {"uniqueid": "w47713748:a18742479", "current_trial": 208, "dateTime": 1664555659113, "trialdata": {"rt": 705, "stimulus": "<p id='stroop-text' class='stroop-yellow'>YELLOW</p>", "response": "y", "stimulus-type": "congruent", "word": "yellow", "color": "yellow", "correct_response": "y", "trial_id": "stroop-trial-1-congruent-16", "trial_type": "html-keyboard-response", "trial_index": 208, "time_elapsed": 508591, "internal_node_id": "0.0-8.0-22.0"}}, {"uniqueid": "w47713748:a18742479", "current_trial": 209, "dateTime": 1664555660326, "trialdata": {"rt": 709, "stimulus": "<p id='stroop-text' class='stroop-red'>BOAT</p>", "response": "r", "stimulus-type": "unrelated", "word": "BOAT", "color": "red", "correct_response": "r", "trial_id": "stroop-trial-1-unrelated-3", "trial_type": "html-keyboard-response", "trial_index": 209, "time_elapsed": 509804, "internal_node_id": "0.0-8.0-23.0"}}, {"uniqueid": "w47713748:a18742479", "current_trial": 210, "dateTime": 1664555661452, "trialdata": {"rt": 620, "stimulus": "<p id='stroop-text' class='stroop-blue'>STONE</p>", "response": "b", "stimulus-type": "unrelated", "word": "STONE", "color": "blue", "correct_response": "b", "trial_id": "stroop-trial-1-unrelated-10", "trial_type": "html-keyboard-response", "trial_index": 210, "time_elapsed": 510930, "internal_node_id": "0.0-8.0-24.0"}}, {"uniqueid": "w47713748:a18742479", "current_trial": 211, "dateTime": 1664555662965, "trialdata": {"rt": 1008, "stimulus": "<p id='stroop-text' class='stroop-red'>RED</p>", "response": "r", "stimulus-type": "congruent", "word": "red", "color": "red", "correct_response": "r", "trial_id": "stroop-trial-1-congruent-18", "trial_type": "html-keyboard-response", "trial_index": 211, "time_elapsed": 512443, "internal_node_id": "0.0-8.0-25.0"}}, {"uniqueid": "w47713748:a18742479", "current_trial": 212, "dateTime": 1664555664205, "trialdata": {"rt": 735, "stimulus": "<p id='stroop-text' class='stroop-green'>BRAIN</p>", "response": "g", "stimulus-type": "unrelated", "word": "BRAIN", "color": "green", "correct_response": "g", "trial_id": "stroop-trial-1-unrelated-9", "trial_type": "html-keyboard-response", "trial_index": 212, "time_elapsed": 513683, "internal_node_id": "0.0-8.0-26.0"}}, {"uniqueid": "w47713748:a18742479", "current_trial": 213, "dateTime": 1664555665409, "trialdata": {"rt": 698, "stimulus": "<p id='stroop-text' class='stroop-red'>CHAIR</p>", "response": "r", "stimulus-type": "unrelated", "word": "CHAIR", "color": "red", "correct_response": "r", "trial_id": "stroop-trial-1-unrelated-23", "trial_type": "html-keyboard-response", "trial_index": 213, "time_elapsed": 514886, "internal_node_id": "0.0-8.0-27.0"}}, {"uniqueid": "w47713748:a18742479", "current_trial": 214, "dateTime": 1664555666550, "trialdata": {"rt": 637, "stimulus": "<p id='stroop-text' class='stroop-red'>BOAT</p>", "response": "r", "stimulus-type": "unrelated", "word": "BOAT", "color": "red", "correct_response": "r", "trial_id": "stroop-trial-1-unrelated-20", "trial_type": "html-keyboard-response", "trial_index": 214, "time_elapsed": 516027, "internal_node_id": "0.0-8.0-28.0"}}, {"uniqueid": "w47713748:a18742479", "current_trial": 215, "dateTime": 1664555667880, "trialdata": {"rt": 825, "stimulus": "<p id='stroop-text' class='stroop-red'>GREEN</p>", "response": "r", "stimulus-type": "incongruent", "word": "green", "color": "red", "correct_response": "r", "trial_id": "stroop-trial-1-incongruent-4", "trial_type": "html-keyboard-response", "trial_index": 215, "time_elapsed": 517357, "internal_node_id": "0.0-8.0-29.0"}}, {"uniqueid": "w47713748:a18742479", "current_trial": 216, "dateTime": 1664555669267, "trialdata": {"rt": 883, "stimulus": "<p id='stroop-text' class='stroop-yellow'>BLUE</p>", "response": "y", "stimulus-type": "incongruent", "word": "blue", "color": "yellow", "correct_response": "y", "trial_id": "stroop-trial-1-incongruent-14", "trial_type": "html-keyboard-response", "trial_index": 216, "time_elapsed": 518745, "internal_node_id": "0.0-8.0-30.0"}}, {"uniqueid": "w47713748:a18742479", "current_trial": 217, "dateTime": 1664555670623, "trialdata": {"rt": 850, "stimulus": "<p id='stroop-text' class='stroop-yellow'>BRIDGE</p>", "response": "y", "stimulus-type": "unrelated", "word": "BRIDGE", "color": "yellow", "correct_response": "y", "trial_id": "stroop-trial-1-unrelated-16", "trial_type": "html-keyboard-response", "trial_index": 217, "time_elapsed": 520100, "internal_node_id": "0.0-8.0-31.0"}}, {"uniqueid": "w47713748:a18742479", "current_trial": 218, "dateTime": 1664555671704, "trialdata": {"rt": 577, "stimulus": "<p id='stroop-text' class='stroop-yellow'>BRAIN</p>", "response": "y", "stimulus-type": "unrelated", "word": "BRAIN", "color": "yellow", "correct_response": "y", "trial_id": "stroop-trial-1-unrelated-2", "trial_type": "html-keyboard-response", "trial_index": 218, "time_elapsed": 521182, "internal_node_id": "0.0-8.0-32.0"}}, {"uniqueid": "w47713748:a18742479", "current_trial": 219, "dateTime": 1664555672766, "trialdata": {"rt": 556, "stimulus": "<p id='stroop-text' class='stroop-green'>GREEN</p>", "response": "g", "stimulus-type": "congruent", "word": "green", "color": "green", "correct_response": "g", "trial_id": "stroop-trial-1-congruent-25", "trial_type": "html-keyboard-response", "trial_index": 219, "time_elapsed": 522243, "internal_node_id": "0.0-8.0-33.0"}}, {"uniqueid": "w47713748:a18742479", "current_trial": 220, "dateTime": 1664555674174, "trialdata": {"rt": 904, "stimulus": "<p id='stroop-text' class='stroop-red'>BLUE</p>", "response": "r", "stimulus-type": "incongruent", "word": "blue", "color": "red", "correct_response": "r", "trial_id": "stroop-trial-1-incongruent-6", "trial_type": "html-keyboard-response", "trial_index": 220, "time_elapsed": 523651, "internal_node_id": "0.0-8.0-34.0"}}, {"uniqueid": "w47713748:a18742479", "current_trial": 221, "dateTime": 1664555675277, "trialdata": {"rt": 599, "stimulus": "<p id='stroop-text' class='stroop-yellow'>STONE</p>", "response": "y", "stimulus-type": "unrelated", "word": "STONE", "color": "yellow", "correct_response": "y", "trial_id": "stroop-trial-1-unrelated-21", "trial_type": "html-keyboard-response", "trial_index": 221, "time_elapsed": 524754, "internal_node_id": "0.0-8.0-35.0"}}, {"uniqueid": "w47713748:a18742479", "current_trial": 222, "dateTime": 1664555676468, "trialdata": {"rt": 687, "stimulus": "<p id='stroop-text' class='stroop-green'>WINDOW</p>", "response": "g", "stimulus-type": "unrelated", "word": "WINDOW", "color": "green", "correct_response": "g", "trial_id": "stroop-trial-1-unrelated-6", "trial_type": "html-keyboard-response", "trial_index": 222, "time_elapsed"