{"condition": 0, "counterbalance": 0, "assignmentId": "a77086853", "workerId": "w40713034", "hitId": "h43284566", "currenttrial": 959, "bonus": 0, "data": [{"uniqueid": "w40713034:a77086853", "current_trial": 0, "dateTime": 1664873392597, "trialdata": {"success": true, "trial_type": "fullscreen", "trial_index": 0, "time_elapsed": 2861, "internal_node_id": "0.0-0.0"}}, {"uniqueid": "w40713034:a77086853", "current_trial": 1, "dateTime": 1664873394374, "trialdata": {"view_history": [{"page_index": 0, "viewing_time": 1765}], "rt": 1765, "trial_id": "exp_instructions_distractor", "trial_type": "instructions", "trial_index": 1, "time_elapsed": 4640, "internal_node_id": "0.0-1.0"}}, {"uniqueid": "w40713034:a77086853", "current_trial": 2, "dateTime": 1664873416330, "trialdata": {"view_history": [{"page_index": 0, "viewing_time": 21951}], "rt": 21952, "trial_id": "color_game_instructions", "trial_type": "instructions", "trial_index": 2, "time_elapsed": 26596, "internal_node_id": "0.0-2.0"}}, {"uniqueid": "w40713034:a77086853", "current_trial": 3, "dateTime": 1664873420131, "trialdata": {"rt": 3796, "stimulus": "<h1> Get ready to start the game! </h1>\n\nThank you for reading the instructions. Get ready start with the first of 5 block(s) of this game.\n<br><br>\nIn this first block, you will complete 90 rounds of this game before moving on.\n<br><br>\nRemember, the better you perform, the bigger your bonus will be!\n<br><br>\n<div style='text-align: center;'>Press <code>space</code> to begin.</div>", "response": " ", "trial_id": "stroop_1_ready_1", "trial_type": "html-keyboard-response", "trial_index": 3, "time_elapsed": 30397, "internal_node_id": "0.0-3.0"}}, {"uniqueid": "w40713034:a77086853", "current_trial": 4, "dateTime": 1664873421935, "trialdata": {"rt": 1789, "stimulus": "<p id='stroop-text' class='stroop-green'>YELLOW</p>", "response": "g", "stimulus-type": "incongruent", "word": "yellow", "color": "green", "correct_response": "g", "trial_id": "stroop-trial-1-incongruent-13", "trial_type": "html-keyboard-response", "trial_index": 4, "time_elapsed": 32200, "internal_node_id": "0.0-4.0-0.0"}}, {"uniqueid": "w40713034:a77086853", "current_trial": 5, "dateTime": 1664873423646, "trialdata": {"rt": 1207, "stimulus": "<p id='stroop-text' class='stroop-red'>RED</p>", "response": "r", "stimulus-type": "congruent", "word": "red", "color": "red", "correct_response": "r", "trial_id": "stroop-trial-1-congruent-30", "trial_type": "html-keyboard-response", "trial_index": 5, "time_elapsed": 33911, "internal_node_id": "0.0-4.0-1.0"}}, {"uniqueid": "w40713034:a77086853", "current_trial": 6, "dateTime": 1664873424998, "trialdata": {"rt": 848, "stimulus": "<p id='stroop-text' class='stroop-yellow'>WINDOW</p>", "response": "y", "stimulus-type": "unrelated", "word": "WINDOW", "color": "yellow", "correct_response": "y", "trial_id": "stroop-trial-1-unrelated-30", "trial_type": "html-keyboard-response", "trial_index": 6, "time_elapsed": 35263, "internal_node_id": "0.0-4.0-2.0"}}, {"uniqueid": "w40713034:a77086853", "current_trial": 7, "dateTime": 1664873426742, "trialdata": {"rt": 1240, "stimulus": "<p id='stroop-text' class='stroop-green'>YELLOW</p>", "response": "g", "stimulus-type": "incongruent", "word": "yellow", "color": "green", "correct_response": "g", "trial_id": "stroop-trial-1-incongruent-9", "trial_type": "html-keyboard-response", "trial_index": 7, "time_elapsed": 37007, "internal_node_id": "0.0-4.0-3.0"}}, {"uniqueid": "w40713034:a77086853", "current_trial": 8, "dateTime": 1664873428766, "trialdata": {"rt": 1520, "stimulus": "<p id='stroop-text' class='stroop-red'>SHIP</p>", "response": "r", "stimulus-type": "unrelated", "word": "SHIP", "color": "red", "correct_response": "r", "trial_id": "stroop-trial-1-unrelated-3", "trial_type": "html-keyboard-response", "trial_index": 8, "time_elapsed": 39031, "internal_node_id": "0.0-4.0-4.0"}}, {"uniqueid": "w40713034:a77086853", "current_trial": 9, "dateTime": 1664873430366, "trialdata": {"rt": 1096, "stimulus": "<p id='stroop-text' class='stroop-yellow'>YELLOW</p>", "response": "y", "stimulus-type": "congruent", "word": "yellow", "color": "yellow", "correct_response": "y", "trial_id": "stroop-trial-1-congruent-20", "trial_type": "html-keyboard-response", "trial_index": 9, "time_elapsed": 40631, "internal_node_id": "0.0-4.0-5.0"}}, {"uniqueid": "w40713034:a77086853", "current_trial": 10, "dateTime": 1664873432302, "trialdata": {"rt": 1433, "stimulus": "<p id='stroop-text' class='stroop-blue'>RED</p>", "response": "b", "stimulus-type": "incongruent", "word": "red", "color": "blue", "correct_response": "b", "trial_id": "stroop-trial-1-incongruent-21", "trial_type": "html-keyboard-response", "trial_index": 10, "time_elapsed": 42567, "internal_node_id": "0.0-4.0-6.0"}}, {"uniqueid": "w40713034:a77086853", "current_trial": 11, "dateTime": 1664873434558, "trialdata": {"rt": 1752, "stimulus": "<p id='stroop-text' class='stroop-blue'>YELLOW</p>", "response": "b", "stimulus-type": "incongruent", "word": "yellow", "color": "blue", "correct_response": "b", "trial_id": "stroop-trial-1-incongruent-27", "trial_type": "html-keyboard-response", "trial_index": 11, "time_elapsed": 44823, "internal_node_id": "0.0-4.0-7.0"}}, {"uniqueid": "w40713034:a77086853", "current_trial": 12, "dateTime": 1664873436197, "trialdata": {"rt": 1135, "stimulus": "<p id='stroop-text' class='stroop-yellow'>RED</p>", "response": "y", "stimulus-type": "incongruent", "word": "red", "color": "yellow", "correct_response": "y", "trial_id": "stroop-trial-1-incongruent-26", "trial_type": "html-keyboard-response", "trial_index": 12, "time_elapsed": 46463, "internal_node_id": "0.0-4.0-8.0"}}, {"uniqueid": "w40713034:a77086853", "current_trial": 13, "dateTime": 1664873437710, "trialdata": {"rt": 1001, "stimulus": "<p id='stroop-text' class='stroop-red'>RED</p>", "response": "r", "stimulus-type": "congruent", "word": "red", "color": "red", "correct_response": "r", "trial_id": "stroop-trial-1-congruent-14", "trial_type": "html-keyboard-response", "trial_index": 13, "time_elapsed": 47975, "internal_node_id": "0.0-4.0-9.0"}}, {"uniqueid": "w40713034:a77086853", "current_trial": 14, "dateTime": 1664873439365, "trialdata": {"rt": 1152, "stimulus": "<p id='stroop-text' class='stroop-red'>SHIP</p>", "response": "r", "stimulus-type": "unrelated", "word": "SHIP", "color": "red", "correct_response": "r", "trial_id": "stroop-trial-1-unrelated-21", "trial_type": "html-keyboard-response", "trial_index": 14, "time_elapsed": 49631, "internal_node_id": "0.0-4.0-10.0"}}, {"uniqueid": "w40713034:a77086853", "current_trial": 15, "dateTime": 1664873440926, "trialdata": {"rt": 1057, "stimulus": "<p id='stroop-text' class='stroop-green'>GREEN</p>", "response": "g", "stimulus-type": "congruent", "word": "green", "color": "green", "correct_response": "g", "trial_id": "stroop-trial-1-congruent-22", "trial_type": "html-keyboard-response", "trial_index": 15, "time_elapsed": 51192, "internal_node_id": "0.0-4.0-11.0"}}, {"uniqueid": "w40713034:a77086853", "current_trial": 16, "dateTime": 1664873442302, "trialdata": {"rt": 855, "stimulus": "<p id='stroop-text' class='stroop-green'>STONE</p>", "response": "g", "stimulus-type": "unrelated", "word": "STONE", "color": "green", "correct_response": "g", "trial_id": "stroop-trial-1-unrelated-14", "trial_type": "html-keyboard-response", "trial_index": 16, "time_elapsed": 52567, "internal_node_id": "0.0-4.0-12.0"}}, {"uniqueid": "w40713034:a77086853", "current_trial": 17, "dateTime": 1664873443653, "trialdata": {"rt": 847, "stimulus": "<p id='stroop-text' class='stroop-blue'>BLUE</p>", "response": "b", "stimulus-type": "congruent", "word": "blue", "color": "blue", "correct_response": "b", "trial_id": "stroop-trial-1-congruent-28", "trial_type": "html-keyboard-response", "trial_index": 17, "time_elapsed": 53919, "internal_node_id": "0.0-4.0-13.0"}}, {"uniqueid": "w40713034:a77086853", "current_trial": 18, "dateTime": 1664873445045, "trialdata": {"rt": 887, "stimulus": "<p id='stroop-text' class='stroop-yellow'>GREEN</p>", "response": "y", "stimulus-type": "incongruent", "word": "green", "color": "yellow", "correct_response": "y", "trial_id": "stroop-trial-1-incongruent-29", "trial_type": "html-keyboard-response", "trial_index": 18, "time_elapsed": 55311, "internal_node_id": "0.0-4.0-14.0"}}, {"uniqueid": "w40713034:a77086853", "current_trial": 19, "dateTime": 1664873446457, "trialdata": {"rt": 905, "stimulus": "<p id='stroop-text' class='stroop-green'>FORK</p>", "response": "g", "stimulus-type": "unrelated", "word": "FORK", "color": "green", "correct_response": "g", "trial_id": "stroop-trial-1-unrelated-22", "trial_type": "html-keyboard-response", "trial_index": 19, "time_elapsed": 56722, "internal_node_id": "0.0-4.0-15.0"}}, {"uniqueid": "w40713034:a77086853", "current_trial": 20, "dateTime": 1664873447612, "trialdata": {"rt": 653, "stimulus": "<p id='stroop-text' class='stroop-blue'>BLUE</p>", "response": "b", "stimulus-type": "congruent", "word": "blue", "color": "blue", "correct_response": "b", "trial_id": "stroop-trial-1-congruent-9", "trial_type": "html-keyboard-response", "trial_index": 20, "time_elapsed": 57878, "internal_node_id": "0.0-4.0-16.0"}}, {"uniqueid": "w40713034:a77086853", "current_trial": 21, "dateTime": 1664873448958, "trialdata": {"rt": 842, "stimulus": "<p id='stroop-text' class='stroop-blue'>BRIDGE</p>", "response": "b", "stimulus-type": "unrelated", "word": "BRIDGE", "color": "blue", "correct_response": "b", "trial_id": "stroop-trial-1-unrelated-12", "trial_type": "html-keyboard-response", "trial_index": 21, "time_elapsed": 59223, "internal_node_id": "0.0-4.0-17.0"}}, {"uniqueid": "w40713034:a77086853", "current_trial": 22, "dateTime": 1664873450192, "trialdata": {"rt": 729, "stimulus": "<p id='stroop-text' class='stroop-yellow'>SHIP</p>", "response": "y", "stimulus-type": "unrelated", "word": "SHIP", "color": "yellow", "correct_response": "y", "trial_id": "stroop-trial-1-unrelated-9", "trial_type": "html-keyboard-response", "trial_index": 22, "time_elapsed": 60458, "internal_node_id": "0.0-4.0-18.0"}}, {"uniqueid": "w40713034:a77086853", "current_trial": 23, "dateTime": 1664873451309, "trialdata": {"rt": 611, "stimulus": "<p id='stroop-text' class='stroop-yellow'>YELLOW</p>", "response": "y", "stimulus-type": "congruent", "word": "yellow", "color": "yellow", "correct_response": "y", "trial_id": "stroop-trial-1-congruent-24", "trial_type": "html-keyboard-response", "trial_index": 23, "time_elapsed": 61574, "internal_node_id": "0.0-4.0-19.0"}}, {"uniqueid": "w40713034:a77086853", "current_trial": 24, "dateTime": 1664873452722, "trialdata": {"rt": 909, "stimulus": "<p id='stroop-text' class='stroop-green'>BLUE</p>", "response": "g", "stimulus-type": "incongruent", "word": "blue", "color": "green", "correct_response": "g", "trial_id": "stroop-trial-1-incongruent-22", "trial_type": "html-keyboard-response", "trial_index": 24, "time_elapsed": 62987, "internal_node_id": "0.0-4.0-20.0"}}, {"uniqueid": "w40713034:a77086853", "current_trial": 25, "dateTime": 1664873453849, "trialdata": {"rt": 624, "stimulus": "<p id='stroop-text' class='stroop-blue'>BLUE</p>", "response": "b", "stimulus-type": "congruent", "word": "blue", "color": "blue", "correct_response": "b", "trial_id": "stroop-trial-1-congruent-21", "trial_type": "html-keyboard-response", "trial_index": 25, "time_elapsed": 64114, "internal_node_id": "0.0-4.0-21.0"}}, {"uniqueid": "w40713034:a77086853", "current_trial": 26, "dateTime": 1664873454760, "trialdata": {"rt": 408, "stimulus": "<p id='stroop-text' class='stroop-blue'>BLUE</p>", "response": "b", "stimulus-type": "congruent", "word": "blue", "color": "blue", "correct_response": "b", "trial_id": "stroop-trial-1-congruent-8", "trial_type": "html-keyboard-response", "trial_index": 26, "time_elapsed": 65026, "internal_node_id": "0.0-4.0-22.0"}}, {"uniqueid": "w40713034:a77086853", "current_trial": 27, "dateTime": 1664873455960, "trialdata": {"rt": 696, "stimulus": "<p id='stroop-text' class='stroop-yellow'>STONE</p>", "response": "y", "stimulus-type": "unrelated", "word": "STONE", "color": "yellow", "correct_response": "y", "trial_id": "stroop-trial-1-unrelated-13", "trial_type": "html-keyboard-response", "trial_index": 27, "time_elapsed": 66226, "internal_node_id": "0.0-4.0-23.0"}}, {"uniqueid": "w40713034:a77086853", "current_trial": 28, "dateTime": 1664873457049, "trialdata": {"rt": 582, "stimulus": "<p id='stroop-text' class='stroop-red'>RED</p>", "response": "r", "stimulus-type": "congruent", "word": "red", "color": "red", "correct_response": "r", "trial_id": "stroop-trial-1-congruent-26", "trial_type": "html-keyboard-response", "trial_index": 28, "time_elapsed": 67314, "internal_node_id": "0.0-4.0-24.0"}}, {"uniqueid": "w40713034:a77086853", "current_trial": 29, "dateTime": 1664873458737, "trialdata": {"rt": 1184, "stimulus": "<p id='stroop-text' class='stroop-blue'>YELLOW</p>", "response": "b", "stimulus-type": "incongruent", "word": "yellow", "color": "blue", "correct_response": "b", "trial_id": "stroop-trial-1-incongruent-3", "trial_type": "html-keyboard-response", "trial_index": 29, "time_elapsed": 69002, "internal_node_id": "0.0-4.0-25.0"}}, {"uniqueid": "w40713034:a77086853", "current_trial": 30, "dateTime": 1664873459921, "trialdata": {"rt": 679, "stimulus": "<p id='stroop-text' class='stroop-yellow'>SHIP</p>", "response": "y", "stimulus-type": "unrelated", "word": "SHIP", "color": "yellow", "correct_response": "y", "trial_id": "stroop-trial-1-unrelated-20", "trial_type": "html-keyboard-response", "trial_index": 30, "time_elapsed": 70186, "internal_node_id": "0.0-4.0-26.0"}}, {"uniqueid": "w40713034:a77086853", "current_trial": 31, "dateTime": 1664873461041, "trialdata": {"rt": 616, "stimulus": "<p id='stroop-text' class='stroop-yellow'>YELLOW</p>", "response": "y", "stimulus-type": "congruent", "word": "yellow", "color": "yellow", "correct_response": "y", "trial_id": "stroop-trial-1-congruent-18", "trial_type": "html-keyboard-response", "trial_index": 31, "time_elapsed": 71306, "internal_node_id": "0.0-4.0-27.0"}}, {"uniqueid": "w40713034:a77086853", "current_trial": 32, "dateTime": 1664873462217, "trialdata": {"rt": 672, "stimulus": "<p id='stroop-text' class='stroop-green'>GREEN</p>", "response": "g", "stimulus-type": "congruent", "word": "green", "color": "green", "correct_response": "g", "trial_id": "stroop-trial-1-congruent-4", "trial_type": "html-keyboard-response", "trial_index": 32, "time_elapsed": 72482, "internal_node_id": "0.0-4.0-28.0"}}, {"uniqueid": "w40713034:a77086853", "current_trial": 33, "dateTime": 1664873463337, "trialdata": {"rt": 616, "stimulus": "<p id='stroop-text' class='stroop-yellow'>YELLOW</p>", "response": "y", "stimulus-type": "congruent", "word": "yellow", "color": "yellow", "correct_response": "y", "trial_id": "stroop-trial-1-congruent-7", "trial_type": "html-keyboard-response", "trial_index": 33, "time_elapsed": 73603, "internal_node_id": "0.0-4.0-29.0"}}, {"uniqueid": "w40713034:a77086853", "current_trial": 34, "dateTime": 1664873465153, "trialdata": {"rt": 1310, "stimulus": "<p id='stroop-text' class='stroop-yellow'>RED</p>", "response": "y", "stimulus-type": "incongruent", "word": "red", "color": "yellow", "correct_response": "y", "trial_id": "stroop-trial-1-incongruent-7", "trial_type": "html-keyboard-response", "trial_index": 34, "time_elapsed": 75419, "internal_node_id": "0.0-4.0-30.0"}}, {"uniqueid": "w40713034:a77086853", "current_trial": 35, "dateTime": 1664873466321, "trialdata": {"rt": 663, "stimulus": "<p id='stroop-text' class='stroop-red'>RED</p>", "response": "r", "stimulus-type": "congruent", "word": "red", "color": "red", "correct_response": "r", "trial_id": "stroop-trial-1-congruent-15", "trial_type": "html-keyboard-response", "trial_index": 35, "time_elapsed": 76586, "internal_node_id": "0.0-4.0-31.0"}}, {"uniqueid": "w40713034:a77086853", "current_trial": 36, "dateTime": 1664873467832, "trialdata": {"rt": 1007, "stimulus": "<p id='stroop-text' class='stroop-red'>DOG</p>", "response": "r", "stimulus-type": "unrelated", "word": "DOG", "color": "red", "correct_response": "r", "trial_id": "stroop-trial-1-unrelated-11", "trial_type": "html-keyboard-response", "trial_index": 36, "time_elapsed": 78098, "internal_node_id": "0.0-4.0-32.0"}}, {"uniqueid": "w40713034:a77086853", "current_trial": 37, "dateTime": 1664873469705, "trialdata": {"rt": 1369, "stimulus": "<p id='stroop-text' class='stroop-green'>GREEN</p>", "response": "g", "stimulus-type": "congruent", "word": "green", "color": "green", "correct_response": "g", "trial_id": "stroop-trial-1-congruent-3", "trial_type": "html-keyboard-response", "trial_index": 37, "time_elapsed": 79970, "internal_node_id": "0.0-4.0-33.0"}}, {"uniqueid": "w40713034:a77086853", "current_trial": 38, "dateTime": 1664873471465, "trialdata": {"rt": 1256, "stimulus": "<p id='stroop-text' class='stroop-yellow'>YELLOW</p>", "response": "y", "stimulus-type": "congruent", "word": "yellow", "color": "yellow", "correct_response": "y", "trial_id": "stroop-trial-1-congruent-5", "trial_type": "html-keyboard-response", "trial_index": 38, "time_elapsed": 81730, "internal_node_id": "0.0-4.0-34.0"}}, {"uniqueid": "w40713034:a77086853", "current_trial": 39, "dateTime": 1664873472449, "trialdata": {"rt": 480, "stimulus": "<p id='stroop-text' class='stroop-yellow'>YELLOW</p>", "response": "y", "stimulus-type": "congruent", "word": "yellow", "color": "yellow", "correct_response": "y", "trial_id": "stroop-trial-1-congruent-1", "trial_type": "html-keyboard-response", "trial_index": 39, "time_elapsed": 82714, "internal_node_id": "0.0-4.0-35.0"}}, {"uniqueid": "w40713034:a77086853", "current_trial": 40, "dateTime": 1664873473881, "trialdata": {"rt": 929, "stimulus": "<p id='stroop-text' class='stroop-yellow'>BLUE</p>", "response": "y", "stimulus-type": "incongruent", "word": "blue", "color": "yellow", "correct_response": "y", "trial_id": "stroop-trial-1-incongruent-4", "trial_type": "html-keyboard-response", "trial_index": 40, "time_elapsed": 84147, "internal_node_id": "0.0-4.0-36.0"}}, {"uniqueid": "w40713034:a77086853", "current_trial": 41, "dateTime": 1664873475305, "trialdata": {"rt": 918, "stimulus": "<p id='stroop-text' class='stroop-green'>GREEN</p>", "response": "g", "stimulus-type": "congruent", "word": "green", "color": "green", "correct_response": "g", "trial_id": "stroop-trial-1-congruent-13", "trial_type": "html-keyboard-response", "trial_index": 41, "time_elapsed": 85570, "internal_node_id": "0.0-4.0-37.0"}}, {"uniqueid": "w40713034:a77086853", "current_trial": 42, "dateTime": 1664873476497, "trialdata": {"rt": 689, "stimulus": "<p id='stroop-text' class='stroop-green'>BRIDGE</p>", "response": "g", "stimulus-type": "unrelated", "word": "BRIDGE", "color": "green", "correct_response": "g", "trial_id": "stroop-trial-1-unrelated-18", "trial_type": "html-keyboard-response", "trial_index": 42, "time_elapsed": 86762, "internal_node_id": "0.0-4.0-38.0"}}, {"uniqueid": "w40713034:a77086853", "current_trial": 43, "dateTime": 1664873478065, "trialdata": {"rt": 1065, "stimulus": "<p id='stroop-text' class='stroop-yellow'>RED</p>", "response": "y", "stimulus-type": "incongruent", "word": "red", "color": "yellow", "correct_response": "y", "trial_id": "stroop-trial-1-incongruent-20", "trial_type": "html-keyboard-response", "trial_index": 43, "time_elapsed": 88331, "internal_node_id": "0.0-4.0-39.0"}}, {"uniqueid": "w40713034:a77086853", "current_trial": 44, "dateTime": 1664873479217, "trialdata": {"rt": 648, "stimulus": "<p id='stroop-text' class='stroop-green'>DOG</p>", "response": "g", "stimulus-type": "unrelated", "word": "DOG", "color": "green", "correct_response": "g", "trial_id": "stroop-trial-1-unrelated-2", "trial_type": "html-keyboard-response", "trial_index": 44, "time_elapsed": 89482, "internal_node_id": "0.0-4.0-40.0"}}, {"uniqueid": "w40713034:a77086853", "current_trial": 45, "dateTime": 1664873481033, "trialdata": {"rt": 1312, "stimulus": "<p id='stroop-text' class='stroop-yellow'>RED</p>", "response": "y", "stimulus-type": "incongruent", "word": "red", "color": "yellow", "correct_response": "y", "trial_id": "stroop-trial-1-incongruent-28", "trial_type": "html-keyboard-response", "trial_index": 45, "time_elapsed": 91298, "internal_node_id": "0.0-4.0-41.0"}}, {"uniqueid": "w40713034:a77086853", "current_trial": 46, "dateTime": 1664873482553, "trialdata": {"rt": 1006, "stimulus": "<p id='stroop-text' class='stroop-red'>YELLOW</p>", "response": "r", "stimulus-type": "incongruent", "word": "yellow", "color": "red", "correct_response": "r", "trial_id": "stroop-trial-1-incongruent-6", "trial_type": "html-keyboard-response", "trial_index": 46, "time_elapsed": 92818, "internal_node_id": "0.0-4.0-42.0"}}, {"uniqueid": "w40713034:a77086853", "current_trial": 47, "dateTime": 1664873483905, "trialdata": {"rt": 847, "stimulus": "<p id='stroop-text' class='stroop-green'>CHAIR</p>", "response": "g", "stimulus-type": "unrelated", "word": "CHAIR", "color": "green", "correct_response": "g", "trial_id": "stroop-trial-1-unrelated-29", "trial_type": "html-keyboard-response", "trial_index": 47, "time_elapsed": 94170, "internal_node_id": "0.0-4.0-43.0"}}, {"uniqueid": "w40713034:a77086853", "current_trial": 48, "dateTime": 1664873485117, "trialdata": {"rt": 709, "stimulus": "<p id='stroop-text' class='stroop-green'>BOTTLE</p>", "response": "g", "stimulus-type": "unrelated", "word": "BOTTLE", "color": "green", "correct_response": "g", "trial_id": "stroop-trial-1-unrelated-15", "trial_type": "html-keyboard-response", "trial_index": 48, "time_elapsed": 95382, "internal_node_id": "0.0-4.0-44.0"}}, {"uniqueid": "w40713034:a77086853", "current_trial": 49, "dateTime": 1664873486129, "trialdata": {"rt": 507, "stimulus": "<p id='stroop-text' class='stroop-green'>YELLOW</p>", "response": "g", "stimulus-type": "incongruent", "word": "yellow", "color": "green", "correct_response": "g", "trial_id": "stroop-trial-1-incongruent-15", "trial_type": "html-keyboard-response", "trial_index": 49, "time_elapsed": 96394, "internal_node_id": "0.0-4.0-45.0"}}, {"uniqueid": "w40713034:a77086853", "current_trial": 50, "dateTime": 1664873487385, "trialdata": {"rt": 752, "stimulus": "<p id='stroop-text' class='stroop-blue'>MONKEY</p>", "response": "b", "stimulus-type": "unrelated", "word": "MONKEY", "color": "blue", "correct_response": "b", "trial_id": "stroop-trial-1-unrelated-27", "trial_type": "html-keyboard-response", "trial_index": 50, "time_elapsed": 97651, "internal_node_id": "0.0-4.0-46.0"}}, {"uniqueid": "w40713034:a77086853", "current_trial": 51, "dateTime": 1664873488589, "trialdata": {"rt": 698, "stimulus": "<p id='stroop-text' class='stroop-green'>BLUE</p>", "response": "g", "stimulus-type": "incongruent", "word": "blue", "color": "green", "correct_response": "g", "trial_id": "stroop-trial-1-incongruent-8", "trial_type": "html-keyboard-response", "trial_index": 51, "time_elapsed": 98854, "internal_node_id": "0.0-4.0-47.0"}}, {"uniqueid": "w40713034:a77086853", "current_trial": 52, "dateTime": 1664873489837, "trialdata": {"rt": 744, "stimulus": "<p id='stroop-text' class='stroop-red'>YELLOW</p>", "response": "r", "stimulus-type": "incongruent", "word": "yellow", "color": "red", "correct_response": "r", "trial_id": "stroop-trial-1-incongruent-2", "trial_type": "html-keyboard-response", "trial_index": 52, "time_elapsed": 100102, "internal_node_id": "0.0-4.0-48.0"}}, {"uniqueid": "w40713034:a77086853", "current_trial": 53, "dateTime": 1664873490997, "trialdata": {"rt": 656, "stimulus": "<p id='stroop-text' class='stroop-blue'>BLUE</p>", "response": "b", "stimulus-type": "congruent", "word": "blue", "color": "blue", "correct_response": "b", "trial_id": "stroop-trial-1-congruent-29", "trial_type": "html-keyboard-response", "trial_index": 53, "time_elapsed": 101263, "internal_node_id": "0.0-4.0-49.0"}}, {"uniqueid": "w40713034:a77086853", "current_trial": 54, "dateTime": 1664873492213, "trialdata": {"rt": 711, "stimulus": "<p id='stroop-text' class='stroop-yellow'>FORK</p>", "response": "y", "stimulus-type": "unrelated", "word": "FORK", "color": "yellow", "correct_response": "y", "trial_id": "stroop-trial-1-unrelated-10", "trial_type": "html-keyboard-response", "trial_index": 54, "time_elapsed": 102478, "internal_node_id": "0.0-4.0-50.0"}}, {"uniqueid": "w40713034:a77086853", "current_trial": 55, "dateTime": 1664873493133, "trialdata": {"rt": 415, "stimulus": "<p id='stroop-text' class='stroop-yellow'>RED</p>", "response": "y", "stimulus-type": "incongruent", "word": "red", "color": "yellow", "correct_response": "y", "trial_id": "stroop-trial-1-incongruent-12", "trial_type": "html-keyboard-response", "trial_index": 55, "time_elapsed": 103399, "internal_node_id": "0.0-4.0-51.0"}}, {"uniqueid": "w40713034:a77086853", "current_trial": 56, "dateTime": 1664873494117, "trialdata": {"rt": 480, "stimulus": "<p id='stroop-text' class='stroop-yellow'>RED</p>", "response": "y", "stimulus-type": "incongruent", "word": "red", "color": "yellow", "correct_response": "y", "trial_id": "stroop-trial-1-incongruent-19", "trial_type": "html-keyboard-response", "trial_index": 56, "time_elapsed": 104382, "internal_node_id": "0.0-4.0-52.0"}}, {"uniqueid": "w40713034:a77086853", "current_trial": 57, "dateTime": 1664873494972, "trialdata": {"rt": 352, "stimulus": "<p id='stroop-text' class='stroop-yellow'>BOTTLE</p>", "response": "y", "stimulus-type": "unrelated", "word": "BOTTLE", "color": "yellow", "correct_response": "y", "trial_id": "stroop-trial-1-unrelated-24", "trial_type": "html-keyboard-response", "trial_index": 57, "time_elapsed": 105238, "internal_node_id": "0.0-4.0-53.0"}}, {"uniqueid": "w40713034:a77086853", "current_trial": 58, "dateTime": 1664873496029, "trialdata": {"rt": 553, "stimulus": "<p id='stroop-text' class='stroop-green'>WINDOW</p>", "response": "g", "stimulus-type": "unrelated", "word": "WINDOW", "color": "green", "correct_response": "g", "trial_id": "stroop-trial-1-unrelated-16", "trial_type": "html-keyboard-response", "trial_index": 58, "time_elapsed": 106294, "internal_node_id": "0.0-4.0-54.0"}}, {"uniqueid": "w40713034:a77086853", "current_trial": 59, "dateTime": 1664873497436, "trialdata": {"rt": 902, "stimulus": "<p id='stroop-text' class='stroop-red'>BLUE</p>", "response": "r", "stimulus-type": "incongruent", "word": "blue", "color": "red", "correct_response": "r", "trial_id": "stroop-trial-1-incongruent-30", "trial_type": "html-keyboard-response", "trial_index": 59, "time_elapsed": 107702, "internal_node_id": "0.0-4.0-55.0"}}, {"uniqueid": "w40713034:a77086853", "current_trial": 60, "dateTime": 1664873498557, "trialdata": {"rt": 617, "stimulus": "<p id='stroop-text' class='stroop-blue'>BRIDGE</p>", "response": "b", "stimulus-type": "unrelated", "word": "BRIDGE", "color": "blue", "correct_response": "b", "trial_id": "stroop-trial-1-unrelated-28", "trial_type": "html-keyboard-response", "trial_index": 60, "time_elapsed": 108823, "internal_node_id": "0.0-4.0-56.0"}}, {"uniqueid": "w40713034:a77086853", "current_trial": 61, "dateTime": 1664873499645, "trialdata": {"rt": 584, "stimulus": "<p id='stroop-text' class='stroop-yellow'>YELLOW</p>", "response": "y", "stimulus-type": "congruent", "word": "yellow", "color": "yellow", "correct_response": "y", "trial_id": "stroop-trial-1-congruent-10", "trial_type": "html-keyboard-response", "trial_index": 61, "time_elapsed": 109910, "internal_node_id": "0.0-4.0-57.0"}}, {"uniqueid": "w40713034:a77086853", "current_trial": 62, "dateTime": 1664873500756, "trialdata": {"rt": 608, "stimulus": "<p id='stroop-text' class='stroop-red'>RED</p>", "response": "r", "stimulus-type": "congruent", "word": "red", "color": "red", "correct_response": "r", "trial_id": "stroop-trial-1-congruent-23", "trial_type": "html-keyboard-response", "trial_index": 62, "time_elapsed": 111022, "internal_node_id": "0.0-4.0-58.0"}}, {"uniqueid": "w40713034:a77086853", "current_trial": 63, "dateTime": 1664873501686, "trialdata": {"rt": 424, "stimulus": "<p id='stroop-text' class='stroop-red'>GREEN</p>", "response": "r", "stimulus-type": "incongruent", "word": "green", "color": "red", "correct_response": "r", "trial_id": "stroop-trial-1-incongruent-1", "trial_type": "html-keyboard-response", "trial_index": 63, "time_elapsed": 111951, "internal_node_id": "0.0-4.0-59.0"}}, {"uniqueid": "w40713034:a77086853", "current_trial": 64, "dateTime": 1664873502573, "trialdata": {"rt": 382, "stimulus": "<p id='stroop-text' class='stroop-red'>BOTTLE</p>", "response": "r", "stimulus-type": "unrelated", "word": "BOTTLE", "color": "red", "correct_response": "r", "trial_id": "stroop-trial-1-unrelated-7", "trial_type": "html-keyboard-response", "trial_index": 64, "time_elapsed": 112838, "internal_node_id": "0.0-4.0-60.0"}}, {"uniqueid": "w40713034:a77086853", "current_trial": 65, "dateTime": 1664873503421, "trialdata": {"rt": 343, "stimulus": "<p id='stroop-text' class='stroop-red'>RED</p>", "response": "r", "stimulus-type": "congruent", "word": "red", "color": "red", "correct_response": "r", "trial_id": "stroop-trial-1-congruent-19", "trial_type": "html-keyboard-response", "trial_index": 65, "time_elapsed": 113687, "internal_node_id": "0.0-4.0-61.0"}}, {"uniqueid": "w40713034:a77086853", "current_trial": 66, "dateTime": 1664873504406, "trialdata": {"rt": 481, "stimulus": "<p id='stroop-text' class='stroop-green'>GREEN</p>", "response": "g", "stimulus-type": "congruent", "word": "green", "color": "green", "correct_response": "g", "trial_id": "stroop-trial-1-congruent-6", "trial_type": "html-keyboard-response", "trial_index": 66, "time_elapsed": 114671, "internal_node_id": "0.0-4.0-62.0"}}, {"uniqueid": "w40713034:a77086853", "current_trial": 67, "dateTime": 1664873505366, "trialdata": {"rt": 456, "stimulus": "<p id='stroop-text' class='stroop-blue'>GREEN</p>", "response": "b", "stimulus-type": "incongruent", "word": "green", "color": "blue", "correct_response": "b", "trial_id": "stroop-trial-1-incongruent-10", "trial_type": "html-keyboard-response", "trial_index": 67, "time_elapsed": 115631, "internal_node_id": "0.0-4.0-63.0"}}, {"uniqueid": "w40713034:a77086853", "current_trial": 68, "dateTime": 1664873506548, "trialdata": {"rt": 680, "stimulus": "<p id='stroop-text' class='stroop-blue'>WINDOW</p>", "response": "b", "stimulus-type": "unrelated", "word": "WINDOW", "color": "blue", "correct_response": "b", "trial_id": "stroop-trial-1-unrelated-26", "trial_type": "html-keyboard-response", "trial_index": 68, "time_elapsed": 116814, "internal_node_id": "0.0-4.0-64.0"}}, {"uniqueid": "w40713034:a77086853", "current_trial": 69, "dateTime": 1664873507677, "trialdata": {"rt": 626, "stimulus": "<p id='stroop-text' class='stroop-yellow'>BLUE</p>", "response": "y", "stimulus-type": "incongruent", "word": "blue", "color": "yellow", "correct_response": "y", "trial_id": "stroop-trial-1-incongruent-11", "trial_type": "html-keyboard-response", "trial_index": 69, "time_elapsed": 117943, "internal_node_id": "0.0-4.0-65.0"}}, {"uniqueid": "w40713034:a77086853", "current_trial": 70, "dateTime": 1664873508853, "trialdata": {"rt": 672, "stimulus": "<p id='stroop-text' class='stroop-red'>WINDOW</p>", "response": "r", "stimulus-type": "unrelated", "word": "WINDOW", "color": "red", "correct_response": "r", "trial_id": "stroop-trial-1-unrelated-19", "trial_type": "html-keyboard-response", "trial_index": 70, "time_elapsed": 119118, "internal_node_id": "0.0-4.0-66.0"}}, {"uniqueid": "w40713034:a77086853", "current_trial": 71, "dateTime": 1664873510117, "trialdata": {"rt": 760, "stimulus": "<p id='stroop-text' class='stroop-yellow'>BRAIN</p>", "response": "y", "stimulus-type": "unrelated", "word": "BRAIN", "color": "yellow", "correct_response": "y", "trial_id": "stroop-trial-1-unrelated-4", "trial_type": "html-keyboard-response", "trial_index": 71, "time_elapsed": 120382, "internal_node_id": "0.0-4.0-67.0"}}, {"uniqueid": "w40713034:a77086853", "current_trial": 72, "dateTime": 1664873511341, "trialdata": {"rt": 718, "stimulus": "<p id='stroop-text' class='stroop-red'>BRAIN</p>", "response": "r", "stimulus-type": "unrelated", "word": "BRAIN", "color": "red", "correct_response": "r", "trial_id": "stroop-trial-1-unrelated-23", "trial_type": "html-keyboard-response", "trial_index": 72, "time_elapsed": 121606, "internal_node_id": "0.0-4.0-68.0"}}, {"uniqueid": "w40713034:a77086853", "current_trial": 73, "dateTime": 1664873512589, "trialdata": {"rt": 745, "stimulus": "<p id='stroop-text' class='stroop-blue'>BLUE</p>", "response": "b", "stimulus-type": "congruent", "word": "blue", "color": "blue", "correct_response": "b", "trial_id": "stroop-trial-1-congruent-27", "trial_type": "html-keyboard-response", "trial_index": 73, "time_elapsed": 122854, "internal_node_id": "0.0-4.0-69.0"}}, {"uniqueid": "w40713034:a77086853", "current_trial": 74, "dateTime": 1664873513625, "trialdata": {"rt": 532, "stimulus": "<p id='stroop-text' class='stroop-blue'>BLUE</p>", "response": "b", "stimulus-type": "congruent", "word": "blue", "color": "blue", "correct_response": "b", "trial_id": "stroop-trial-1-congruent-25", "trial_type": "html-keyboard-response", "trial_index": 74, "time_elapsed": 123891, "internal_node_id": "0.0-4.0-70.0"}}, {"uniqueid": "w40713034:a77086853", "current_trial": 75, "dateTime": 1664873514525, "trialdata": {"rt": 395, "stimulus": "<p id='stroop-text' class='stroop-blue'>FORK</p>", "response": "b", "stimulus-type": "unrelated", "word": "FORK", "color": "blue", "correct_response": "b", "trial_id": "stroop-trial-1-unrelated-25", "trial_type": "html-keyboard-response", "trial_index": 75, "time_elapsed": 124790, "internal_node_id": "0.0-4.0-71.0"}}, {"uniqueid": "w40713034:a77086853", "current_trial": 76, "dateTime": 1664873515374, "trialdata": {"rt": 344, "stimulus": "<p id='stroop-text' class='stroop-blue'>RED</p>", "response": "b", "stimulus-type": "incongruent", "word": "red", "color": "blue", "correct_response": "b", "trial_id": "stroop-trial-1-incongruent-17", "trial_type": "html-keyboard-response", "trial_index": 76, "time_elapsed": 125639, "internal_node_id": "0.0-4.0-72.0"}}, {"uniqueid": "w40713034:a77086853", "current_trial": 77, "dateTime": 1664873516389, "trialdata": {"rt": 511, "stimulus": "<p id='stroop-text' class='stroop-red'>RED</p>", "response": "r", "stimulus-type": "congruent", "word": "red", "color": "red", "correct_response": "r", "trial_id": "stroop-trial-1-congruent-2", "trial_type": "html-keyboard-response", "trial_index": 77, "time_elapsed": 126655, "internal_node_id": "0.0-4.0-73.0"}}, {"uniqueid": "w40713034:a77086853", "current_trial": 78, "dateTime": 1664873517349, "trialdata": {"rt": 454, "stimulus": "<p id='stroop-text' class='stroop-green'>GREEN</p>", "response": "g", "stimulus-type": "congruent", "word": "green", "color": "green", "correct_response": "g", "trial_id": "stroop-trial-1-congruent-11", "trial_type": "html-keyboard-response", "trial_index": 78, "time_elapsed": 127614, "internal_node_id": "0.0-4.0-74.0"}}, {"uniqueid": "w40713034:a77086853", "current_trial": 79, "dateTime": 1664873518317, "trialdata": {"rt": 465, "stimulus": "<p id='stroop-text' class='stroop-green'>SHIP</p>", "response": "g", "stimulus-type": "unrelated", "word": "SHIP", "color": "green", "correct_response": "g", "trial_id": "stroop-trial-1-unrelated-1", "trial_type": "html-keyboard-response", "trial_index": 79, "time_elapsed": 128583, "internal_node_id": "0.0-4.0-75.0"}}, {"uniqueid": "w40713034:a77086853", "current_trial": 80, "dateTime": 1664873520041, "trialdata": {"rt": 1216, "stimulus": "<p id='stroop-text' class='stroop-red'>GREEN</p>", "response": "b", "stimulus-type": "incongruent", "word": "green", "color": "red", "correct_response": "r", "trial_id": "stroop-trial-1-incongruent-16", "trial_type": "html-keyboard-response", "trial_index": 80, "time_elapsed": 130306, "internal_node_id": "0.0-4.0-76.0"}}, {"uniqueid": "w40713034:a77086853", "current_trial": 81, "dateTime": 1664873521705, "trialdata": {"rt": 1160, "stimulus": "<p id='stroop-text' class='stroop-green'>STONE</p>", "response": "g", "stimulus-type": "unrelated", "word": "STONE", "color": "green", "correct_response": "g", "trial_id": "stroop-trial-1-unrelated-8", "trial_type": "html-keyboard-response", "trial_index": 81, "time_elapsed": 131970, "internal_node_id": "0.0-4.0-77.0"}}, {"uniqueid": "w40713034:a77086853", "current_trial": 82, "dateTime": 1664873523297, "trialdata": {"rt": 1089, "stimulus": "<p id='stroop-text' class='stroop-red'>BLUE</p>", "response": "r", "stimulus-type": "incongruent", "word": "blue", "color": "red", "correct_response": "r", "trial_id": "stroop-trial-1-incongruent-5", "trial_type": "html-keyboard-response", "trial_index": 82, "time_elapsed": 133563, "internal_node_id": "0.0-4.0-78.0"}}, {"uniqueid": "w40713034:a77086853", "current_trial": 83, "dateTime": 1664873524361, "trialdata": {"rt": 558, "stimulus": "<p id='stroop-text' class='stroop-blue'>BLUE</p>", "response": "b", "stimulus-type": "congruent", "word": "blue", "color": "blue", "correct_response": "b", "trial_id": "stroop-trial-1-congruent-16", "trial_type": "html-keyboard-response", "trial_index": 83, "time_elapsed": 134626, "internal_node_id": "0.0-4.0-79.0"}}, {"uniqueid": "w40713034:a77086853", "current_trial": 84, "dateTime": 1664873525577, "trialdata": {"rt": 711, "stimulus": "<p id='stroop-text' class='stroop-yellow'>BLUE</p>", "response": "y", "stimulus-type": "incongruent", "word": "blue", "color": "yellow", "correct_response": "y", "trial_id": "stroop-trial-1-incongruent-24", "trial_type": "html-keyboard-response", "trial_index": 84, "time_elapsed": 135842, "internal_node_id": "0.0-4.0-80.0"}}, {"uniqueid": "w40713034:a77086853", "current_trial": 85, "dateTime": 1664873527129, "trialdata": {"rt": 1048, "stimulus": "<p id='stroop-text' class='stroop-blue'>GREEN</p>", "response": "b", "stimulus-type": "incongruent", "word": "green", "color": "blue", "correct_response": "b", "trial_id": "stroop-trial-1-incongruent-18", "trial_type": "html-keyboard-response", "trial_index": 85, "time_elapsed": 137394, "internal_node_id": "0.0-4.0-81.0"}}, {"uniqueid": "w40713034:a77086853", "current_trial": 86, "dateTime": 1664873528280, "trialdata": {"rt": 646, "stimulus": "<p id='stroop-text' class='stroop-green'>GREEN</p>", "response": "g", "stimulus-type": "congruent", "word": "green", "color": "green", "correct_response": "g", "trial_id": "stroop-trial-1-congruent-17", "trial_type": "html-keyboard-response", "trial_index": 86, "time_elapsed": 138546, "internal_node_id": "0.0-4.0-82.0"}}, {"uniqueid": "w40713034:a77086853", "current_trial": 87, "dateTime": 1664873529466, "trialdata": {"rt": 674, "stimulus": "<p id='stroop-text' class='stroop-yellow'>BRAIN</p>", "response": "y", "stimulus-type": "unrelated", "word": "BRAIN", "color": "yellow", "correct_response": "y", "trial_id": "stroop-trial-1-unrelated-6", "trial_type": "html-keyboard-response", "trial_index": 87, "time_elapsed": 139731, "internal_node_id": "0.0-4.0-83.0"}}, {"uniqueid": "w40713034:a77086853", "current_trial": 88, "dateTime": 1664873530641, "trialdata": {"rt": 669, "stimulus": "<p id='stroop-text' class='stroop-red'>YELLOW</p>", "response": "r", "stimulus-type": "incongruent", "word": "yellow", "color": "red", "correct_response": "r", "trial_id": "stroop-trial-1-incongruent-14", "trial_type": "html-keyboard-response", "trial_index": 88, "time_elapsed": 140906, "internal_node_id": "0.0-4.0-84.0"}}, {"uniqueid": "w40713034:a77086853", "current_trial": 89, "dateTime": 1664873532033, "trialdata": {"rt": 888, "stimulus": "<p id='stroop-text' class='stroop-yellow'>CHAIR</p>", "response": "y", "stimulus-type": "unrelated", "word": "CHAIR", "color": "yellow", "correct_response": "y", "trial_id": "stroop-trial-1-unrelated-5", "trial_type": "html-keyboard-response", "trial_index": 89, "time_elapsed": 142299, "internal_node_id": "0.0-4.0-85.0"}}, {"uniqueid": "w40713034:a77086853", "current_trial": 90, "dateTime": 1664873533105, "trialdata": {"rt": 568, "stimulus": "<p id='stroop-text' class='stroop-red'>RED</p>", "response": "r", "stimulus-type": "congruent", "word": "red", "color": "red", "correct_response": "r", "trial_id": "stroop-trial-1-congruent-12", "trial_type": "html-keyboard-response", "trial_index": 90, "time_elapsed": 143371, "internal_node_id": "0.0-4.0-86.0"}}, {"uniqueid": "w40713034:a77086853", "current_trial": 91, "dateTime": 1664873534345, "trialdata": {"rt": 734, "stimulus": "<p id='stroop-text' class='stroop-green'>RED</p>", "response": "g", "stimulus-type": "incongruent", "word": "red", "color": "green", "correct_response": "g", "trial_id": "stroop-trial-1-incongruent-25", "trial_type": "html-keyboard-response", "trial_index": 91, "time_elapsed": 144611, "internal_node_id": "0.0-4.0-87.0"}}, {"uniqueid": "w40713034:a77086853", "current_trial": 92, "dateTime": 1664873535625, "trialdata": {"rt": 776, "stimulus": "<p id='stroop-text' class='stroop-yellow'>BLUE</p>", "response": "y", "stimulus-type": "incongruent", "word": "blue", "color": "yellow", "correct_response": "y", "trial_id": "stroop-trial-1-incongruent-23", "trial_type": "html-keyboard-response", "trial_index": 92, "time_elapsed": 145891, "internal_node_id": "0.0-4.0-88.0"}}, {"uniqueid": "w40713034:a77086853", "current_trial": 93, "dateTime": 1664873537625, "trialdata": {"rt": 1493, "stimulus": "<p id='stroop-text' class='stroop-red'>WINDOW</p>", "response": "r", "stimulus-type": "unrelated", "word": "WINDOW", "color": "red", "correct_response": "r", "trial_id": "stroop-trial-1-unrelated-17", "trial_type": "html-keyboard-response", "trial_index": 93, "time_elapsed": 147890, "internal_node_id": "0.0-4.0-89.0"}}, {"uniqueid": "w40713034:a77086853", "current_trial": 94, "dateTime": 1664873549045, "trialdata": {"rt": 10913, "stimulus": "  <h1> End of block! </h1>\n\n  You have reached the end of the block 1/5. If you need a short break, feel free to take one now before moving on.\n\n  <br><br>\n  In the next block, you will complete another 90 rounds of this game.\n\n  <br><br>\n  <div style='text-align: center;'>Press <code>space</code> to begin.</div>\n  <br><br>\n<div style='text-align: center;'>(If the experiment doesn't continue, try clicking on the text and then pressing <code>space</code>.)</div>", "response": " ", "trial_id": "stroop_1_ready_2", "trial_type": "html-keyboard-response", "trial_index": 94, "time_elapsed": 159311, "internal_node_id": "0.0-5.0"}}, {"uniqueid": "w40713034:a77086853", "current_trial": 95, "dateTime": 1664873549916, "trialdata": {"rt": 868, "stimulus": "<p id='stroop-text' class='stroop-red'>FORK</p>", "response": "r", "stimulus-type": "unrelated", "word": "FORK", "color": "red", "correct_response": "r", "trial_id": "stroop-trial-1-unrelated-23", "trial_type": "html-keyboard-response", "trial_index": 95, "time_elapsed": 160182, "internal_node_id": "0.0-6.0-0.0"}}, {"uniqueid": "w40713034:a77086853", "current_trial": 96, "dateTime": 1664873550933, "trialdata": {"rt": 510, "stimulus": "<p id='stroop-text' class='stroop-green'>GREEN</p>", "response": "g", "stimulus-type": "congruent", "word": "green", "color": "green", "correct_response": "g", "trial_id": "stroop-trial-1-congruent-5", "trial_type": "html-keyboard-response", "trial_index": 96, "time_elapsed": 161198, "internal_node_id": "0.0-6.0-1.0"}}, {"uniqueid": "w40713034:a77086853", "current_trial": 97, "dateTime": 1664873552149, "trialdata": {"rt": 712, "stimulus": "<p id='stroop-text' class='stroop-blue'>BLUE</p>", "response": "b", "stimulus-type": "congruent", "word": "blue", "color": "blue", "correct_response": "b", "trial_id": "stroop-trial-1-congruent-4", "trial_type": "html-keyboard-response", "trial_index": 97, "time_elapsed": 162414, "internal_node_id": "0.0-6.0-2.0"}}, {"uniqueid": "w40713034:a77086853", "current_trial": 98, "dateTime": 1664873553285, "trialdata": {"rt": 632, "stimulus": "<p id='stroop-text' class='stroop-yellow'>BLUE</p>", "response": "y", "stimulus-type": "incongruent", "word": "blue", "color": "yellow", "correct_response": "y", "trial_id": "stroop-trial-1-incongruent-27", "trial_type": "html-keyboard-response", "trial_index": 98, "time_elapsed": 163550, "internal_node_id": "0.0-6.0-3.0"}}, {"uniqueid": "w40713034:a77086853", "current_trial": 99, "dateTime": 1664873554637, "trialdata": {"rt": 846, "stimulus": "<p id='stroop-text' class='stroop-red'>YELLOW</p>", "response": "r", "stimulus-type": "incongruent", "word": "yellow", "color": "red", "correct_response": "r", "trial_id": "stroop-trial-1-incongruent-2", "trial_type": "html-keyboard-response", "trial_index": 99, "time_elapsed": 164902, "internal_node_id": "0.0-6.0-4.0"}}, {"uniqueid": "w40713034:a77086853", "current_trial": 100, "dateTime": 1664873555661, "trialdata": {"rt": 519, "stimulus": "<p id='stroop-text' class='stroop-green'>GREEN</p>", "response": "g", "stimulus-type": "congruent", "word": "green", "color": "green", "correct_response": "g", "trial_id": "stroop-trial-1-congruent-10", "trial_type": "html-keyboard-response", "trial_index": 100, "time_elapsed": 165926, "internal_node_id": "0.0-6.0-5.0"}}, {"uniqueid": "w40713034:a77086853", "current_trial": 101, "dateTime": 1664873556932, "trialdata": {"rt": 765, "stimulus": "<p id='stroop-text' class='stroop-yellow'>YELLOW</p>", "response": "y", "stimulus-type": "congruent", "word": "yellow", "color": "yellow", "correct_response": "y", "trial_id": "stroop-trial-1-congruent-7", "trial_type": "html-keyboard-response", "trial_index": 101, "time_elapsed": 167198, "internal_node_id": "0.0-6.0-6.0"}}, {"uniqueid": "w40713034:a77086853", "current_trial": 102, "dateTime": 1664873557837, "trialdata": {"rt": 399, "stimulus": "<p id='stroop-text' class='stroop-yellow'>RED</p>", "response": "y", "stimulus-type": "incongruent", "word": "red", "color": "yellow", "correct_response": "y", "trial_id": "stroop-trial-1-incongruent-16", "trial_type": "html-keyboard-response", "trial_index": 102, "time_elapsed": 168102, "internal_node_id": "0.0-6.0-7.0"}}, {"uniqueid": "w40713034:a77086853", "current_trial": 103, "dateTime": 1664873558668, "trialdata": {"rt": 327, "stimulus": "<p id='stroop-text' class='stroop-yellow'>YELLOW</p>", "response": "y", "stimulus-type": "congruent", "word": "yellow", "color": "yellow", "correct_response": "y", "trial_id": "stroop-trial-1-congruent-26", "trial_type": "html-keyboard-response", "trial_index": 103, "time_elapsed": 168934, "internal_node_id": "0.0-6.0-8.0"}}, {"uniqueid": "w40713034:a77086853", "current_trial": 104, "dateTime": 1664873559494, "trialdata": {"rt": 319, "stimulus": "<p id='stroop-text' class='stroop-yellow'>BOAT</p>", "response": "y", "stimulus-type": "unrelated", "word": "BOAT", "color": "yellow", "correct_response": "y", "trial_id": "stroop-trial-1-unrelated-12", "trial_type": "html-keyboard-response", "trial_index": 104, "time_elapsed": 169759, "internal_node_id": "0.0-6.0-9.0"}}, {"uniqueid": "w40713034:a77086853", "current_trial": 105, "dateTime": 1664873560837, "trialdata": {"rt": 838, "stimulus": "<p id='stroop-text' class='stroop-blue'>RED</p>", "response": "b", "stimulus-type": "incongruent", "word": "red", "color": "blue", "correct_response": "b", "trial_id": "stroop-trial-1-incongruent-9", "trial_type": "html-keyboard-response", "trial_index": 105, "time_elapsed": 171102, "internal_node_id": "0.0-6.0-10.0"}}, {"uniqueid": "w40713034:a77086853", "current_trial": 106, "dateTime": 1664873564136, "trialdata": {"rt": 2794, "stimulus": "<p id='stroop-text' class='stroop-yellow'>GREEN</p>", "response": "y", "stimulus-type": "incongruent", "word": "green", "color": "yellow", "correct_response": "y", "trial_id": "stroop-trial-1-incongruent-24", "trial_type": "html-keyboard-response", "trial_index": 106, "time_elapsed": 174402, "internal_node_id": "0.0-6.0-11.0"}}, {"uniqueid": "w40713034:a77086853", "current_trial": 107, "dateTime": 1664873566250, "trialdata": {"rt": 1608, "stimulus": "<p id='stroop-text' class='stroop-yellow'>MONKEY</p>", "response": "y", "stimulus-type": "unrelated", "word": "MONKEY", "color": "yellow", "correct_response": "y", "trial_id": "stroop-trial-1-unrelated-18", "trial_type": "html-keyboard-response", "trial_index": 107, "time_elapsed": 176515, "internal_node_id": "0.0-6.0-12.0"}}, {"uniqueid": "w40713034:a77086853", "current_trial": 108, "dateTime": 1664873567305, "trialdata": {"rt": 550, "stimulus": "<p id='stroop-text' class='stroop-red'>SHIP</p>", "response": "r", "stimulus-type": "unrelated", "word": "SHIP", "color": "red", "correct_response": "r", "trial_id": "stroop-trial-1-unrelated-11", "trial_type": "html-keyboard-response", "trial_index": 108, "time_elapsed": 177571, "internal_node_id": "0.0-6.0-13.0"}}, {"uniqueid": "w40713034:a77086853", "current_trial": 109, "dateTime": 1664873568377, "trialdata": {"rt": 567, "stimulus": "<p id='stroop-text' class='stroop-yellow'>BRAIN</p>", "response": "y", "stimulus-type": "unrelated", "word": "BRAIN", "color": "yellow", "correct_response": "y", "trial_id": "stroop-trial-1-unrelated-13", "trial_type": "html-keyboard-response", "trial_index": 109, "time_elapsed": 178643, "internal_node_id": "0.0-6.0-14.0"}}, {"uniqueid": "w40713034:a77086853", "current_trial": 110, "dateTime": 1664873569762, "trialdata": {"rt": 879, "stimulus": "<p id='stroop-text' class='stroop-red'>YELLOW</p>", "response": "r", "stimulus-type": "incongruent", "word": "yellow", "color": "red", "correct_response": "r", "trial_id": "stroop-trial-1-incongruent-6", "trial_type": "html-keyboard-response", "trial_index": 110, "time_elapsed": 180027, "internal_node_id": "0.0-6.0-15.0"}}, {"uniqueid": "w40713034:a77086853", "current_trial": 111, "dateTime": 1664873570786, "trialdata": {"rt": 518, "stimulus": "<p id='stroop-text' class='stroop-green'>GREEN</p>", "response": "g", "stimulus-type": "congruent", "word": "green", "color": "green", "correct_response": "g", "trial_id": "stroop-trial-1-congruent-29", "trial_type": "html-keyboard-response", "trial_index": 111, "time_elapsed": 181052, "internal_node_id": "0.0-6.0-16.0"}}, {"uniqueid": "w40713034:a77086853", "current_trial": 112, "dateTime": 1664873571873, "trialdata": {"rt": 583, "stimulus": "<p id='stroop-text' class='stroop-yellow'>YELLOW</p>", "response": "y", "stimulus-type": "congruent", "word": "yellow", "color": "yellow", "correct_response": "y", "trial_id": "stroop-trial-1-congruent-2", "trial_type": "html-keyboard-response", "trial_index": 112, "time_elapsed": 182139, "internal_node_id": "0.0-6.0-17.0"}}, {"uniqueid": "w40713034:a77086853", "current_trial": 113, "dateTime": 1664873573274, "trialdata": {"rt": 893, "stimulus": "<p id='stroop-text' class='stroop-green'>MONKEY</p>", "response": "g", "stimulus-type": "unrelated", "word": "MONKEY", "color": "green", "correct_response": "g", "trial_id": "stroop-trial-1-unrelated-16", "trial_type": "html-keyboard-response", "trial_index": 113, "time_elapsed": 183540, "internal_node_id": "0.0-6.0-18.0"}}, {"uniqueid": "w40713034:a77086853", "current_trial": 114, "dateTime": 1664873574402, "trialdata": {"rt": 623, "stimulus": "<p id='stroop-text' class='stroop-yellow'>YELLOW</p>", "response": "y", "stimulus-type": "congruent", "word": "yellow", "color": "yellow", "correct_response": "y", "trial_id": "stroop-trial-1-congruent-19", "trial_type": "html-keyboard-response", "trial_index": 114, "time_elapsed": 184667, "internal_node_id": "0.0-6.0-19.0"}}, {"uniqueid": "w40713034:a77086853", "current_trial": 115, "dateTime": 1664873575594, "trialdata": {"rt": 688, "stimulus": "<p id='stroop-text' class='stroop-red'>BOAT</p>", "response": "r", "stimulus-type": "unrelated", "word": "BOAT", "color": "red", "correct_response": "r", "trial_id": "stroop-trial-1-unrelated-24", "trial_type": "html-keyboard-response", "trial_index": 115, "time_elapsed": 185859, "internal_node_id": "0.0-6.0-20.0"}}, {"uniqueid": "w40713034:a77086853", "current_trial": 116, "dateTime": 1664873576754, "trialdata": {"rt": 654, "stimulus": "<p id='stroop-text' class='stroop-green'>GREEN</p>", "response": "g", "stimulus-type": "congruent", "word": "green", "color": "green", "correct_response": "g", "trial_id": "stroop-trial-1-congruent-27", "trial_type": "html-keyboard-response", "trial_index": 116, "time_elapsed": 187020, "internal_node_id": "0.0-6.0-21.0"}}, {"uniqueid": "w40713034:a77086853", "current_trial": 117, "dateTime": 1664873578066, "trialdata": {"rt": 807, "stimulus": "<p id='stroop-text' class='stroop-yellow'>RED</p>", "response": "y", "stimulus-type": "incongruent", "word": "red", "color": "yellow", "correct_response": "y", "trial_id": "stroop-trial-1-incongruent-3", "trial_type": "html-keyboard-response", "trial_index": 117, "time_elapsed": 188332, "internal_node_id": "0.0-6.0-22.0"}}, {"uniqueid": "w40713034:a77086853", "current_trial": 118, "dateTime": 1664873579178, "trialdata": {"rt": 606, "stimulus": "<p id='stroop-text' class='stroop-green'>GREEN</p>", "response": "g", "stimulus-type": "congruent", "word": "green", "color": "green", "correct_response": "g", "trial_id": "stroop-trial-1-congruent-14", "trial_type": "html-keyboard-response", "trial_index": 118, "time_elapsed": 189443, "internal_node_id": "0.0-6.0-23.0"}}, {"uniqueid": "w40713034:a77086853", "current_trial": 119, "dateTime": 1664873580801, "trialdata": {"rt": 1119, "stimulus": "<p id='stroop-text' class='stroop-blue'>GREEN</p>", "response": "b", "stimulus-type": "incongruent", "word": "green", "color": "blue", "correct_response": "b", "trial_id": "stroop-trial-1-incongruent-19", "trial_type": "html-keyboard-response", "trial_index": 119, "time_elapsed": 191067, "internal_node_id": "0.0-6.0-24.0"}}, {"uniqueid": "w40713034:a77086853", "current_trial": 120, "dateTime": 1664873581753, "trialdata": {"rt": 446, "stimulus": "<p id='stroop-text' class='stroop-blue'>YELLOW</p>", "response": "b", "stimulus-type": "incongruent", "word": "yellow", "color": "blue", "correct_response": "b", "trial_id": "stroop-trial-1-incongruent-7", "trial_type": "html-keyboard-response", "trial_index": 120, "time_elapsed": 192018, "internal_node_id": "0.0-6.0-25.0"}}, {"uniqueid": "w40713034:a77086853", "current_trial": 121, "dateTime": 1664873583049, "trialdata": {"rt": 791, "stimulus": "<p id='stroop-text' class='stroop-yellow'>GREEN</p>", "response": "y", "stimulus-type": "incongruent", "word": "green", "color": "yellow", "correct_response": "y", "trial_id": "stroop-trial-1-incongruent-26", "trial_type": "html-keyboard-response", "trial_index": 121, "time_elapsed": 193315, "internal_node_id": "0.0-6.0-26.0"}}, {"uniqueid": "w40713034:a77086853", "current_trial": 122, "dateTime": 1664873584642, "trialdata": {"rt": 1089, "stimulus": "<p id='stroop-text' class='stroop-red'>CHAIR</p>", "response": "r", "stimulus-type": "unrelated", "word": "CHAIR", "color": "red", "correct_response": "r", "trial_id": "stroop-trial-1-unrelated-9", "trial_type": "html-keyboard-response", "trial_index": 122, "time_elapsed": 194908, "internal_node_id": "0.0-6.0-27.0"}}, {"uniqueid": "w40713034:a77086853", "current_trial": 123, "dateTime": 1664873585546, "trialdata": {"rt": 399, "stimulus": "<p id='stroop-text' class='stroop-red'>YELLOW</p>", "response": "r", "stimulus-type": "incongruent", "word": "yellow", "color": "red", "correct_response": "r", "trial_id": "stroop-trial-1-incongruent-21", "trial_type": "html-keyboard-response", "trial_index": 123, "time_elapsed": 195811, "internal_node_id": "0.0-6.0-28.0"}}, {"uniqueid": "w40713034:a77086853", "current_trial": 124, "dateTime": 1664873586385, "trialdata": {"rt": 333, "stimulus": "<p id='stroop-text' class='stroop-red'>YELLOW</p>", "response": "r", "stimulus-type": "incongruent", "word": "yellow", "color": "red", "correct_response": "r", "trial_id": "stroop-trial-1-incongruent-28", "trial_type": "html-keyboard-response", "trial_index": 124, "time_elapsed": 196651, "internal_node_id": "0.0-6.0-29.0"}}, {"uniqueid": "w40713034:a77086853", "current_trial": 125, "dateTime": 1664873587322, "trialdata": {"rt": 432, "stimulus": "<p id='stroop-text' class='stroop-yellow'>BLUE</p>", "response": "g", "stimulus-type": "incongruent", "word": "blue", "color": "yellow", "correct_response": "y", "trial_id": "stroop-trial-1-incongruent-12", "trial_type": "html-keyboard-response", "trial_index": 125, "time_elapsed": 197587, "internal_node_id": "0.0-6.0-30.0"}}, {"uniqueid": "w40713034:a77086853", "current_trial": 126, "dateTime": 1664873588561, "trialdata": {"rt": 735, "stimulus": "<p id='stroop-text' class='stroop-yellow'>FORK</p>", "response": "y", "stimulus-type": "unrelated", "word": "FORK", "color": "yellow", "correct_response": "y", "trial_id": "stroop-trial-1-unrelated-7", "trial_type": "html-keyboard-response", "trial_index": 126, "time_elapsed": 198827, "internal_node_id": "0.0-6.0-31.0"}}, {"uniqueid": "w40713034:a77086853", "current_trial": 127, "dateTime": 1664873589377, "trialdata": {"rt": 304, "stimulus": "<p id='stroop-text' class='stroop-yellow'>YELLOW</p>", "response": "y", "stimulus-type": "congruent", "word": "yellow", "color": "yellow", "correct_response": "y", "trial_id": "stroop-trial-1-congruent-12", "trial_type": "html-keyboard-response", "trial_index": 127, "time_elapsed": 199643, "internal_node_id": "0.0-6.0-32.0"}}, {"uniqueid": "w40713034:a77086853", "current_trial": 128, "dateTime": 1664873590225, "trialdata": {"rt": 343, "stimulus": "<p id='stroop-text' class='stroop-yellow'>BLUE</p>", "response": "y", "stimulus-type": "incongruent", "word": "blue", "color": "yellow", "correct_response": "y", "trial_id": "stroop-trial-1-incongruent-14", "trial_type": "html-keyboard-response", "trial_index": 128, "time_elapsed": 200491, "internal_node_id": "0.0-6.0-33.0"}}, {"uniqueid": "w40713034:a77086853", "current_trial": 129, "dateTime": 1664873591387, "trialdata": {"rt": 656, "stimulus": "<p id='stroop-text' class='stroop-green'>BLUE</p>", "response": "g", "stimulus-type": "incongruent", "word": "blue", "color": "green", "correct_response": "g", "trial_id": "stroop-trial-1-incongruent-11", "trial_type": "html-keyboard-response", "trial_index": 129, "time_elapsed": 201652, "internal_node_id": "0.0-6.0-34.0"}}, {"uniqueid": "w40713034:a77086853", "current_trial": 130, "dateTime": 1664873592522, "trialdata": {"rt": 616, "stimulus": "<p id='stroop-text' class='stroop-yellow'>GREEN</p>", "response": "y", "stimulus-type": "incongruent", "word": "green", "color": "yellow", "correct_response": "y", "trial_id": "stroop-trial-1-incongruent-5", "trial_type": "html-keyboard-response", "trial_index": 130, "time_elapsed": 202787, "internal_node_id": "0.0-6.0-35.0"}}, {"uniqueid": "w40713034:a77086853", "current_trial": 131, "dateTime": 1664873593521, "trialdata": {"rt": 494, "stimulus": "<p id='stroop-text' class='stroop-red'>GREEN</p>", "response": "r", "stimulus-type": "incongruent", "word": "green", "color": "red", "correct_response": "r", "trial_id": "stroop-trial-1-incongruent-20", "trial_type": "html-keyboard-response", "trial_index": 131, "time_elapsed": 203787, "internal_node_id": "0.0-6.0-36.0"}}, {"uniqueid": "w40713034:a77086853", "current_trial": 132, "dateTime": 1664873594609, "trialdata": {"rt": 583, "stimulus": "<p id='stroop-text' class='stroop-blue'>BLUE</p>", "response": "b", "stimulus-type": "congruent", "word": "blue", "color": "blue", "correct_response": "b", "trial_id": "stroop-trial-1-congruent-28", "trial_type": "html-keyboard-response", "trial_index": 132, "time_elapsed": 204875, "internal_node_id": "0.0-6.0-37.0"}}, {"uniqueid": "w40713034:a77086853", "current_trial": 133, "dateTime": 1664873595466, "trialdata": {"rt": 350, "stimulus": "<p id='stroop-text' class='stroop-blue'>WINDOW</p>", "response": "b", "stimulus-type": "unrelated", "word": "WINDOW", "color": "blue", "correct_response": "b", "trial_id": "stroop-trial-1-unrelated-5", "trial_type": "html-keyboard-response", "trial_index": 133, "time_elapsed": 205731, "internal_node_id": "0.0-6.0-38.0"}}, {"uniqueid": "w40713034:a77086853", "current_trial": 134, "dateTime": 1664873596305, "trialdata": {"rt": 324, "stimulus": "<p id='stroop-text' class='stroop-blue'>BLUE</p>", "response": "b", "stimulus-type": "congruent", "word": "blue", "color": "blue", "correct_response": "b", "trial_id": "stroop-trial-1-congruent-18", "trial_type": "html-keyboard-response", "trial_index": 134, "time_elapsed": 206571, "internal_node_id": "0.0-6.0-39.0"}}, {"uniqueid": "w40713034:a77086853", "current_trial": 135, "dateTime": 1664873597109, "trialdata": {"rt": 299, "stimulus": "<p id='stroop-text' class='stroop-blue'>GREEN</p>", "response": "b", "stimulus-type": "incongruent", "word": "green", "color": "blue", "correct_response": "b", "trial_id": "stroop-trial-1-incongruent-29", "trial_type": "html-keyboard-response", "trial_index": 135, "time_elapsed": 207375, "internal_node_id": "0.0-6.0-40.0"}}, {"uniqueid": "w40713034:a77086853", "current_trial": 136, "dateTime": 1664873597933, "trialdata": {"rt": 319, "stimulus": "<p id='stroop-text' class='stroop-blue'>BLUE</p>", "response": "b", "stimulus-type": "congruent", "word": "blue", "color": "blue", "correct_response": "b", "trial_id": "stroop-trial-1-congruent-23", "trial_type": "html-keyboard-response", "trial_index": 136, "time_elapsed": 208199, "internal_node_id": "0.0-6.0-41.0"}}, {"uniqueid": "w40713034:a77086853", "current_trial": 137, "dateTime": 1664873599206, "trialdata": {"rt": 768, "stimulus": "<p id='stroop-text' class='stroop-red'>MONKEY</p>", "response": "r", "stimulus-type": "unrelated", "word": "MONKEY", "color": "red", "correct_response": "r", "trial_id": "stroop-trial-1-unrelated-28", "trial_type": "html-keyboard-response", "trial_index": 137, "time_elapsed": 209472, "internal_node_id": "0.0-6.0-42.0"}}, {"uniqueid": "w40713034:a77086853", "current_trial": 138, "dateTime": 1664873600038, "trialdata": {"rt": 319, "stimulus": "<p id='stroop-text' class='stroop-red'>RED</p>", "response": "r", "stimulus-type": "congruent", "word": "red", "color": "red", "correct_response": "r", "trial_id": "stroop-trial-1-congruent-11", "trial_type": "html-keyboard-response", "trial_index": 138, "time_elapsed": 210303, "internal_node_id": "0.0-6.0-43.0"}}, {"uniqueid": "w40713034:a77086853", "current_trial": 139, "dateTime": 1664873601126, "trialdata": {"rt": 583, "stimulus": "<p id='stroop-text' class='stroop-green'>BLUE</p>", "response": "g", "stimulus-type": "incongruent", "word": "blue", "color": "green", "correct_response": "g", "trial_id": "stroop-trial-1-incongruent-30", "trial_type": "html-keyboard-response", "trial_index": 139, "time_elapsed": 211391, "internal_node_id": "0.0-6.0-44.0"}}, {"uniqueid": "w40713034:a77086853", "current_trial": 140, "dateTime": 1664873602814, "trialdata": {"rt": 1183, "stimulus": "<p id='stroop-text' class='stroop-blue'>BRAIN</p>", "response": "b", "stimulus-type": "unrelated", "word": "BRAIN", "color": "blue", "correct_response": "b", "trial_id": "stroop-trial-1-unrelated-21", "trial_type": "html-keyboard-response", "trial_index": 140, "time_elapsed": 213080, "internal_node_id": "0.0-6.0-45.0"}}, {"uniqueid": "w40713034:a77086853", "current_trial": 141, "dateTime": 1664873603661, "trialdata": {"rt": 342, "stimulus": "<p id='stroop-text' class='stroop-blue'>DOG</p>", "response": "b", "stimulus-type": "unrelated", "word": "DOG", "color": "blue", "correct_response": "b", "trial_id": "stroop-trial-1-unrelated-29", "trial_type": "html-keyboard-response", "trial_index": 141, "time_elapsed": 213927, "internal_node_id": "0.0-6.0-46.0"}}, {"uniqueid": "w40713034:a77086853", "current_trial": 142, "dateTime": 1664873604550, "trialdata": {"rt": 383, "stimulus": "<p id='stroop-text' class='stroop-blue'>BLUE</p>", "response": "b", "stimulus-type": "congruent", "word": "blue", "color": "blue", "correct_response": "b", "trial_id": "stroop-trial-1-congruent-16", "trial_type": "html-keyboard-response", "trial_index": 142, "time_elapsed": 214816, "internal_node_id": "0.0-6.0-47.0"}}, {"uniqueid": "w40713034:a77086853", "current_trial": 143, "dateTime": 1664873605678, "trialdata": {"rt": 622, "stimulus": "<p id='stroop-text' class='stroop-green'>GREEN</p>", "response": "g", "stimulus-type": "congruent", "word": "green", "color": "green", "correct_response": "g", "trial_id": "stroop-trial-1-congruent-13", "trial_type": "html-keyboard-response", "trial_index": 143, "time_elapsed": 215944, "internal_node_id": "0.0-6.0-48.0"}}, {"uniqueid": "w40713034:a77086853", "current_trial": 144, "dateTime": 1664873607366, "trialdata": {"rt": 1182, "stimulus": "<p id='stroop-text' class='stroop-blue'>GREEN</p>", "response": "b", "stimulus-type": "incongruent", "word": "green", "color": "blue", "correct_response": "b", "trial_id": "stroop-trial-1-incongruent-18", "trial_type": "html-keyboard-response", "trial_index": 144, "time_elapsed": 217632, "internal_node_id": "0.0-6.0-49.0"}}, {"uniqueid": "w40713034:a77086853", "current_trial": 145, "dateTime": 1664873608477, "trialdata": {"rt": 606, "stimulus": "<p id='stroop-text' class='stroop-green'>DOG</p>", "response": "g", "stimulus-type": "unrelated", "word": "DOG", "color": "green", "correct_response": "g", "trial_id": "stroop-trial-1-unrelated-17", "trial_type": "html-keyboard-response", "trial_index": 145, "time_elapsed": 218743, "internal_node_id": "0.0-6.0-50.0"}}, {"uniqueid": "w40713034:a77086853", "current_trial": 146, "dateTime": 1664873609541, "trialdata": {"rt": 559, "stimulus": "<p id='stroop-text' class='stroop-yellow'>MONKEY</p>", "response": "y", "stimulus-type": "unrelated", "word": "MONKEY", "color": "yellow", "correct_response": "y", "trial_id": "stroop-trial-1-unrelated-4", "trial_type": "html-keyboard-response", "trial_index": 146, "time_elapsed": 219807, "internal_node_id": "0.0-6.0-51.0"}}, {"uniqueid": "w40713034:a77086853", "current_trial": 147, "dateTime": 1664873611269, "trialdata": {"rt": 1223, "stimulus": "<p id='stroop-text' class='stroop-green'>RED</p>", "response": "g", "stimulus-type": "incongruent", "word": "red", "color": "green", "correct_response": "g", "trial_id": "stroop-trial-1-incongruent-8", "trial_type": "html-keyboard-response", "trial_index": 147, "time_elapsed": 221535, "internal_node_id": "0.0-6.0-52.0"}}, {"uniqueid": "w40713034:a77086853", "current_trial": 148, "dateTime": 1664873613470, "trialdata": {"rt": 1696, "stimulus": "<p id='stroop-text' class='stroop-red'>YELLOW</p>", "response": "r", "stimulus-type": "incongruent", "word": "yellow", "color": "red", "correct_response": "r", "trial_id": "stroop-trial-1-incongruent-4", "trial_type": "html-keyboard-response", "trial_index": 148, "time_elapsed": 223735, "internal_node_id": "0.0-6.0-53.0"}}, {"uniqueid": "w40713034:a77086853", "current_trial": 149, "dateTime": 1664873614550, "trialdata": {"rt": 575, "stimulus": "<p id='stroop-text' class='stroop-blue'>BLUE</p>", "response": "b", "stimulus-type": "congruent", "word": "blue", "color": "blue", "correct_response": "b", "trial_id": "stroop-trial-1-congruent-9", "trial_type": "html-keyboard-response", "trial_index": 149, "time_elapsed": 224816, "internal_node_id": "0.0-6.0-54.0"}}, {"uniqueid": "w40713034:a77086853", "current_trial": 150, "dateTime": 1664873615646, "trialdata": {"rt": 591, "stimulus": "<p id='stroop-text' class='stroop-yellow'>FORK</p>", "response": "y", "stimulus-type": "unrelated", "word": "FORK", "color": "yellow", "correct_response": "y", "trial_id": "stroop-trial-1-unrelated-26", "trial_type": "html-keyboard-response", "trial_index": 150, "time_elapsed": 225911, "internal_node_id": "0.0-6.0-55.0"}}, {"uniqueid": "w40713034:a77086853", "current_trial": 151, "dateTime": 1664873616829, "trialdata": {"rt": 671, "stimulus": "<p id='stroop-text' class='stroop-red'>BRIDGE</p>", "response": "r", "stimulus-type": "unrelated", "word": "BRIDGE", "color": "red", "correct_response": "r", "trial_id": "stroop-trial-1-unrelated-14", "trial_type": "html-keyboard-response", "trial_index": 151, "time_elapsed": 227095, "internal_node_id": "0.0-6.0-56.0"}}, {"uniqueid": "w40713034:a77086853", "current_trial": 152, "dateTime": 1664873617989, "trialdata": {"rt": 655, "stimulus": "<p id='stroop-text' class='stroop-blue'>RED</p>", "response": "g", "stimulus-type": "incongruent", "word": "red", "color": "blue", "correct_response": "b", "trial_id": "stroop-trial-1-incongruent-1", "trial_type": "html-keyboard-response", "trial_index": 152, "time_elapsed": 228255, "internal_node_id": "0.0-6.0-57.0"}}, {"uniqueid": "w40713034:a77086853", "current_trial": 153, "dateTime": 1664873619342, "trialdata": {"rt": 846, "stimulus": "<p id='stroop-text' class='stroop-blue'>BLUE</p>", "response": "b", "stimulus-type": "congruent", "word": "blue", "color": "blue", "correct_response": "b", "trial_id": "stroop-trial-1-congruent-1", "trial_type": "html-keyboard-response", "trial_index": 153, "time_elapsed": 229607, "internal_node_id": "0.0-6.0-58.0"}}, {"uniqueid": "w40713034:a77086853", "current_trial": 154, "dateTime": 1664873620541, "trialdata": {"rt": 694, "stimulus": "<p id='stroop-text' class='stroop-red'>GREEN</p>", "response": "r", "stimulus-type": "incongruent", "word": "green", "color": "red", "correct_response": "r", "trial_id": "stroop-trial-1-incongruent-13", "trial_type": "html-keyboard-response", "trial_index": 154, "time_elapsed": 230807, "internal_node_id": "0.0-6.0-59.0"}}, {"uniqueid": "w40713034:a77086853", "current_trial": 155, "dateTime": 1664873621798, "trialdata": {"rt": 751, "stimulus": "<p id='stroop-text' class='stroop-red'>BRIDGE</p>", "response": "r", "stimulus-type": "unrelated", "word": "BRIDGE", "color": "red", "correct_response": "r", "trial_id": "stroop-trial-1-unrelated-10", "trial_type": "html-keyboard-response", "trial_index": 155, "time_elapsed": 232063, "internal_node_id": "0.0-6.0-60.0"}}, {"uniqueid": "w40713034:a77086853", "current_trial": 156, "dateTime": 1664873622797, "trialdata": {"rt": 494, "stimulus": "<p id='stroop-text' class='stroop-blue'>BLUE</p>", "response": "b", "stimulus-type": "congruent", "word": "blue", "color": "blue", "correct_response": "b", "trial_id": "stroop-trial-1-congruent-17", "trial_type": "html-keyboard-response", "trial_index": 156, "time_elapsed": 233063, "internal_node_id": "0.0-6.0-61.0"}}, {"uniqueid": "w40713034:a77086853", "current_trial": 157, "dateTime": 1664873623830, "trialdata": {"rt": 528, "stimulus": "<p id='stroop-text' class='stroop-red'>MONKEY</p>", "response": "r", "stimulus-type": "unrelated", "word": "MONKEY", "color": "red", "correct_response": "r", "trial_id": "stroop-trial-1-unrelated-20", "trial_type": "html-keyboard-response", "trial_index": 157, "time_elapsed": 234096, "internal_node_id": "0.0-6.0-62.0"}}, {"uniqueid": "w40713034:a77086853", "current_trial": 158, "dateTime": 1664873624709, "trialdata": {"rt": 374, "stimulus": "<p id='stroop-text' class='stroop-red'>STONE</p>", "response": "r", "stimulus-type": "unrelated", "word": "STONE", "color": "red", "correct_response": "r", "trial_id": "stroop-trial-1-unrelated-27", "trial_type": "html-keyboard-response", "trial_index": 158, "time_elapsed": 234975, "internal_node_id": "0.0-6.0-63.0"}}, {"uniqueid": "w40713034:a77086853", "current_trial": 159, "dateTime": 1664873625726, "trialdata": {"rt": 510, "stimulus": "<p id='stroop-text' class='stroop-yellow'>FORK</p>", "response": "y", "stimulus-type": "unrelated", "word": "FORK", "color": "yellow", "correct_response": "y", "trial_id": "stroop-trial-1-unrelated-30", "trial_type": "html-keyboard-response", "trial_index": 159, "time_elapsed": 235991, "internal_node_id": "0.0-6.0-64.0"}}, {"uniqueid": "w40713034:a77086853", "current_trial": 160, "dateTime": 1664873626621, "trialdata": {"rt": 392, "stimulus": "<p id='stroop-text' class='stroop-yellow'>YELLOW</p>", "response": "y", "stimulus-type": "congruent", "word": "yellow", "color": "yellow", "correct_response": "y", "trial_id": "stroop-trial-1-congruent-8", "trial_type": "html-keyboard-response", "trial_index": 160, "time_elapsed": 236887, "internal_node_id": "0.0-6.0-65.0"}}, {"uniqueid": "w40713034:a77086853", "current_trial": 161, "dateTime": 1664873627886, "trialdata": {"rt": 760, "stimulus": "<p id='stroop-text' class='stroop-blue'>SHIP</p>", "response": "b", "stimulus-type": "unrelated", "word": "SHIP", "color": "blue", "correct_response": "b", "trial_id": "stroop-trial-1-unrelated-25", "trial_type": "html-keyboard-response", "trial_index": 161, "time_elapsed": 238152, "internal_node_id": "0.0-6.0-66.0"}}, {"uniqueid": "w40713034:a77086853", "current_trial": 162, "dateTime": 1664873629061, "trialdata": {"rt": 660, "stimulus": "<p id='stroop-text' class='stroop-green'>FORK</p>", "response": "g", "stimulus-type": "unrelated", "word": "FORK", "color": "green", "correct_response": "g", "trial_id": "stroop-trial-1-unrelated-3", "trial_type": "html-keyboard-response", "trial_index": 162, "time_elapsed": 239327, "internal_node_id": "0.0-6.0-67.0"}}, {"uniqueid": "w40713034:a77086853", "current_trial": 163, "dateTime": 1664873629886, "trialdata": {"rt": 320, "stimulus": "<p id='stroop-text' class='stroop-green'>GREEN</p>", "response": "g", "stimulus-type": "congruent", "word": "green", "color": "green", "correct_response": "g", "trial_id": "stroop-trial-1-congruent-24", "trial_type": "html-keyboard-response", "trial_index": 163, "time_elapsed": 240151, "internal_node_id": "0.0-6.0-68.0"}}, {"uniqueid": "w40713034:a77086853", "current_trial": 164, "dateTime": 1664873630937, "trialdata": {"rt": 532, "stimulus": "<p id='stroop-text' class='stroop-yellow'>YELLOW</p>", "response": "y", "stimulus-type": "congruent", "word": "yellow", "color": "yellow", "correct_response": "y", "trial_id": "stroop-trial-1-congruent-6", "trial_type": "html-keyboard-response", "trial_index": 164, "time_elapsed": 241203, "internal_node_id": "0.0-6.0-69.0"}}, {"uniqueid": "w40713034:a77086853", "current_trial": 165, "dateTime": 1664873632417, "trialdata": {"rt": 974, "stimulus": "<p id='stroop-text' class='stroop-blue'>WINDOW</p>", "response": "b", "stimulus-type": "unrelated", "word": "WINDOW", "color": "blue", "correct_response": "b", "trial_id": "stroop-trial-1-unrelated-2", "trial_type": "html-keyboard-response", "trial_index": 165, "time_elapsed": 242683, "internal_node_id": "0.0-6.0-70.0"}}, {"uniqueid": "w40713034:a77086853", "current_trial": 166, "dateTime": 1664873633453, "trialdata": {"rt": 530, "stimulus": "<p id='stroop-text' class='stroop-red'>RED</p>", "response": "r", "stimulus-type": "congruent", "word": "red", "color": "red", "correct_response": "r", "trial_id": "stroop-trial-1-congruent-22", "trial_type": "html-keyboard-response", "trial_index": 166, "time_elapsed": 243719, "internal_node_id": "0.0-6.0-71.0"}}, {"uniqueid": "w40713034:a77086853", "current_trial": 167, "dateTime": 1664873634554, "trialdata": {"rt": 596, "stimulus": "<p id='stroop-text' class='stroop-green'>BLUE</p>", "response": "g", "stimulus-type": "incongruent", "word": "blue", "color": "green", "correct_response": "g", "trial_id": "stroop-trial-1-incongruent-10", "trial_type": "html-keyboard-response", "trial_index": 167, "time_elapsed": 244820, "internal_node_id": "0.0-6.0-72.0"}}, {"uniqueid": "w40713034:a77086853", "current_trial": 168, "dateTime": 1664873635706, "trialdata": {"rt": 645, "stimulus": "<p id='stroop-text' class='stroop-blue'>GREEN</p>", "response": "b", "stimulus-type": "incongruent", "word": "green", "color": "blue", "correct_response": "b", "trial_id": "stroop-trial-1-incongruent-25", "trial_type": "html-keyboard-response", "trial_index": 168, "time_elapsed": 245971, "internal_node_id": "0.0-6.0-73.0"}}, {"uniqueid": "w40713034:a77086853", "current_trial": 169, "dateTime": 1664873636777, "trialdata": {"rt": 566, "stimulus": "<p id='stroop-text' class='stroop-red'>RED</p>", "response": "r", "stimulus-type": "congruent", "word": "red", "color": "red", "correct_response": "r", "trial_id": "stroop-trial-1-congruent-21", "trial_type": "html-keyboard-response", "trial_index": 169, "time_elapsed": 247043, "internal_node_id": "0.0-6.0-74.0"}}, {"uniqueid": "w40713034:a77086853", "current_trial": 170, "dateTime": 1664873637881, "trialdata": {"rt": 598, "stimulus": "<p id='stroop-text' class='stroop-green'>BLUE</p>", "response": "g", "stimulus-type": "incongruent", "word": "blue", "color": "green", "correct_response": "g", "trial_id": "stroop-trial-1-incongruent-17", "trial_type": "html-keyboard-response", "trial_index": 170, "time_elapsed": 248147, "internal_node_id": "0.0-6.0-75.0"}}, {"uniqueid": "w40713034:a77086853", "current_trial": 171, "dateTime": 1664873638929, "trialdata": {"rt": 542, "stimulus": "<p id='stroop-text' class='stroop-yellow'>MONKEY</p>", "response": "y", "stimulus-type": "unrelated", "word": "MONKEY", "color": "yellow", "correct_response": "y", "trial_id": "stroop-trial-1-unrelated-1", "trial_type": "html-keyboard-response", "trial_index": 171, "time_elapsed": 249195, "internal_node_id": "0.0-6.0-76.0"}}, {"uniqueid": "w40713034:a77086853", "current_trial": 172, "dateTime": 1664873640153, "trialdata": {"rt": 718, "stimulus": "<p id='stroop-text' class='stroop-blue'>BOAT</p>", "response": "b", "stimulus-type": "unrelated", "word": "BOAT", "color": "blue", "correct_response": "b", "trial_id": "stroop-trial-1-unrelated-15", "trial_type": "html-keyboard-response", "trial_index": 172, "time_elapsed": 250419, "internal_node_id": "0.0-6.0-77.0"}}, {"uniqueid": "w40713034:a77086853", "current_trial": 173, "dateTime": 1664873641161, "trialdata": {"rt": 502, "stimulus": "<p id='stroop-text' class='stroop-green'>GREEN</p>", "response": "g", "stimulus-type": "congruent", "word": "green", "color": "green", "correct_response": "g", "trial_id": "stroop-trial-1-congruent-15", "trial_type": "html-keyboard-response", "trial_index": 173, "time_elapsed": 251427, "internal_node_id": "0.0-6.0-78.0"}}, {"uniqueid": "w40713034:a77086853", "current_trial": 174, "dateTime": 1664873642394, "trialdata": {"rt": 725, "stimulus": "<p id='stroop-text' class='stroop-blue'>DOG</p>", "response": "b", "stimulus-type": "unrelated", "word": "DOG", "color": "blue", "correct_response": "b", "trial_id": "stroop-trial-1-unrelated-6", "trial_type": "html-keyboard-response", "trial_index": 174, "time_elapsed": 252659, "internal_node_id": "0.0-6.0-79.0"}}, {"uniqueid": "w40713034:a77086853", "current_trial": 175, "dateTime": 1664873643473, "trialdata": {"rt": 574, "stimulus": "<p id='stroop-text' class='stroop-red'>SHIP</p>", "response": "r", "stimulus-type": "unrelated", "word": "SHIP", "color": "red", "correct_response": "r", "trial_id": "stroop-trial-1-unrelated-19", "trial_type": "html-keyboard-response", "trial_index": 175, "time_elapsed": 253739, "internal_node_id": "0.0-6.0-80.0"}}, {"uniqueid": "w40713034:a77086853", "current_trial": 176, "dateTime": 1664873644473, "trialdata": {"rt": 496, "stimulus": "<p id='stroop-text' class='stroop-green'>GREEN</p>", "response": "g", "stimulus-type": "congruent", "word": "green", "color": "green", "correct_response": "g", "trial_id": "stroop-trial-1-congruent-3", "trial_type": "html-keyboard-response", "trial_index": 176, "time_elapsed": 254739, "internal_node_id": "0.0-6.0-81.0"}}, {"uniqueid": "w40713034:a77086853", "current_trial": 177, "dateTime": 1664873645874, "trialdata": {"rt": 895, "stimulus": "<p id='stroop-text' class='stroop-blue'>RED</p>", "response": "b", "stimulus-type": "incongruent", "word": "red", "color": "blue", "correct_response": "b", "trial_id": "stroop-trial-1-incongruent-23", "trial_type": "html-keyboard-response", "trial_index": 177, "time_elapsed": 256139, "internal_node_id": "0.0-6.0-82.0"}}, {"uniqueid": "w40713034:a77086853", "current_trial": 178, "dateTime": 1664873646809, "trialdata": {"rt": 431, "stimulus": "<p id='stroop-text' class='stroop-blue'>BLUE</p>", "response": "b", "stimulus-type": "congruent", "word": "blue", "color": "blue", "correct_response": "b", "trial_id": "stroop-trial-1-congruent-25", "trial_type": "html-keyboard-response", "trial_index": 178, "time_elapsed": 257075, "internal_node_id": "0.0-6.0-83.0"}}, {"uniqueid": "w40713034:a77086853", "current_trial": 179, "dateTime": 1664873647762, "trialdata": {"rt": 447, "stimulus": "<p id='stroop-text' class='stroop-green'>GREEN</p>", "response": "g", "stimulus-type": "congruent", "word": "green", "color": "green", "correct_response": "g", "trial_id": "stroop-trial-1-congruent-30", "trial_type": "html-keyboard-response", "trial_index": 179, "time_elapsed": 258027, "internal_node_id": "0.0-6.0-84.0"}}, {"uniqueid": "w40713034:a77086853", "current_trial": 180, "dateTime": 1664873649289, "trialdata": {"rt": 1022, "stimulus": "<p id='stroop-text' class='stroop-red'>YELLOW</p>", "response": "r", "stimulus-type": "incongruent", "word": "yellow", "color": "red", "correct_response": "r", "trial_id": "stroop-trial-1-incongruent-15", "trial_type": "html-keyboard-response", "trial_index": 180, "time_elapsed": 259555, "internal_node_id": "0.0-6.0-85.0"}}, {"uniqueid": "w40713034:a77086853", "current_trial": 181, "dateTime": 1664873650354, "trialdata": {"rt": 560, "stimulus": "<p id='stroop-text' class='stroop-yellow'>YELLOW</p>", "response": "y", "stimulus-type": "congruent", "word": "yellow", "color": "yellow", "correct_response": "y", "trial_id": "stroop-trial-1-congruent-20", "trial_type": "html-keyboard-response", "trial_index": 181, "time_elapsed": 260619, "internal_node_id": "0.0-6.0-86.0"}}, {"uniqueid": "w40713034:a77086853", "current_trial": 182, "dateTime": 1664873651474, "trialdata": {"rt": 613, "stimulus": "<p id='stroop-text' class='stroop-green'>SHIP</p>", "response": "g", "stimulus-type": "unrelated", "word": "SHIP", "color": "green", "correct_response": "g", "trial_id": "stroop-trial-1-unrelated-8", "trial_type": "html-keyboard-response", "trial_index": 182, "time_elapsed": 261739, "internal_node_id": "0.0-6.0-87.0"}}, {"uniqueid": "w40713034:a77086853", "current_trial": 183, "dateTime": 1664873652641, "trialdata": {"rt": 652, "stimulus": "<p id='stroop-text' class='stroop-blue'>YELLOW</p>", "response": "b", "stimulus-type": "incongruent", "word": "yellow", "color": "blue", "correct_response": "b", "trial_id": "stroop-trial-1-incongruent-22", "trial_type": "html-keyboard-response", "trial_index": 183, "time_elapsed": 262907, "internal_node_id": "0.0-6.0-88.0"}}, {"uniqueid": "w40713034:a77086853", "current_trial": 184, "dateTime": 1664873653721, "trialdata": {"rt": 573, "stimulus": "<p id='stroop-text' class='stroop-green'>WINDOW</p>", "response": "g", "stimulus-type": "unrelated", "word": "WINDOW", "color": "green", "correct_response": "g", "trial_id": "stroop-trial-1-unrelated-22", "trial_type": "html-keyboard-response", "trial_index": 184, "time_elapsed": 263987, "internal_node_id": "0.0-6.0-89.0"}}, {"uniqueid": "w40713034:a77086853", "current_trial": 185, "dateTime": 1664873670587, "trialdata": {"rt": 16358, "stimulus": "  <h1> End of block! </h1>\n\n  You have reached the end of the block 2/5. If you need a short break, feel free to take one now before moving on.\n\n  <br><br>\n  In the next block, you will complete another 90 rounds of this game.\n\n  <br><br>\n  <div style='text-align: center;'>Press <code>space</code> to begin.</div>\n  <br><br>\n<div style='text-align: center;'>(If the experiment doesn't continue, try clicking on the text and then pressing <code>space</code>.)</div>", "response": " ", "trial_id": "stroop_1_ready_3", "trial_type": "html-keyboard-response", "trial_index": 185, "time_elapsed": 280852, "internal_node_id": "0.0-7.0"}}, {"uniqueid": "w40713034:a77086853", "current_trial": 186, "dateTime": 1664873672561, "trialdata": {"rt": 1969, "stimulus": "<p id='stroop-text' class='stroop-green'>BLUE</p>", "response": "g", "stimulus-type": "incongruent", "word": "blue", "color": "green", "correct_response": "g", "trial_id": "stroop-trial-1-incongruent-4", "trial_type": "html-keyboard-response", "trial_index": 186, "time_elapsed": 282827, "internal_node_id": "0.0-8.0-0.0"}}, {"uniqueid": "w40713034:a77086853", "current_trial": 187, "dateTime": 1664873673729, "trialdata": {"rt": 661, "stimulus": "<p id='stroop-text' class='stroop-red'>YELLOW</p>", "response": "r", "stimulus-type": "incongruent", "word": "yellow", "color": "red", "correct_response": "r", "trial_id": "stroop-trial-1-incongruent-11", "trial_type": "html-keyboard-response", "trial_index": 187, "time_elapsed": 283995, "internal_node_id": "0.0-8.0-1.0"}}, {"uniqueid": "w40713034:a77086853", "current_trial": 188, "dateTime": 1664873674777, "trialdata": {"rt": 542, "stimulus": "<p id='stroop-text' class='stroop-green'>WINDOW</p>", "response": "g", "stimulus-type": "unrelated", "word": "WINDOW", "color": "green", "correct_response": "g", "trial_id": "stroop-trial-1-unrelated-18", "trial_type": "html-keyboard-response", "trial_index": 188, "time_elapsed": 285043, "internal_node_id": "0.0-8.0-2.0"}}, {"uniqueid": "w40713034:a77086853", "current_trial": 189, "dateTime": 1664873675690, "trialdata": {"rt": 408, "stimulus": "<p id='stroop-text' class='stroop-green'>RED</p>", "response": "g", "stimulus-type": "incongruent", "word": "red", "color": "green", "correct_response": "g", "trial_id": "stroop-trial-1-incongruent-15", "trial_type": "html-keyboard-response", "trial_index": 189, "time_elapsed": 285955, "internal_node_id": "0.0-8.0-3.0"}}, {"uniqueid": "w40713034:a77086853", "current_trial": 190, "dateTime": 1664873676513, "trialdata": {"rt": 317, "stimulus": "<p id='stroop-text' class='stroop-green'>GREEN</p>", "response": "g", "stimulus-type": "congruent", "word": "green", "color": "green", "correct_response": "g", "trial_id": "stroop-trial-1-congruent-2", "trial_type": "html-keyboard-response", "trial_index": 190, "time_elapsed": 286778, "internal_node_id": "0.0-8.0-4.0"}}, {"uniqueid": "w40713034:a77086853", "current_trial": 191, "dateTime": 1664873677473, "trialdata": {"rt": 454, "stimulus": "<p id='stroop-text' class='stroop-blue'>STONE</p>", "response": "b", "stimulus-type": "unrelated", "word": "STONE", "color": "blue", "correct_response": "b", "trial_id": "stroop-trial-1-unrelated-27", "trial_type": "html-keyboard-response", "trial_index": 191, "time_elapsed": 287739, "internal_node_id": "0.0-8.0-5.0"}}, {"uniqueid": "w40713034:a77086853", "current_trial": 192, "dateTime": 1664873678481, "trialdata": {"rt": 502, "stimulus": "<p id='stroop-text' class='stroop-red'>STONE</p>", "response": "r", "stimulus-type": "unrelated", "word": "STONE", "color": "red", "correct_response": "r", "trial_id": "stroop-trial-1-unrelated-23", "trial_type": "html-keyboard-response", "trial_index": 192, "time_elapsed": 288747, "internal_node_id": "0.0-8.0-6.0"}}, {"uniqueid": "w40713034:a77086853", "current_trial": 193, "dateTime": 1664873679569, "trialdata": {"rt": 582, "stimulus": "<p id='stroop-text' class='stroop-green'>RED</p>", "response": "g", "stimulus-type": "incongruent", "word": "red", "color": "green", "correct_response": "g", "trial_id": "stroop-trial-1-incongruent-12", "trial_type": "html-keyboard-response", "trial_index": 193, "time_elapsed": 289835, "internal_node_id": "0.0-8.0-7.0"}}, {"uniqueid": "w40713034:a77086853", "current_trial": 194, "dateTime": 1664873680594, "trialdata": {"rt": 520, "stimulus": "<p id='stroop-text' class='stroop-yellow'>YELLOW</p>", "response": "y", "stimulus-type": "congruent", "word": "yellow", "color": "yellow", "correct_response": "y", "trial_id": "stroop-trial-1-congruent-26", "trial_type": "html-keyboard-response", "trial_index": 194, "time_elapsed": 290860, "internal_node_id": "0.0-8.0-8.0"}}, {"uniqueid": "w40713034:a77086853", "current_trial": 195, "dateTime": 1664873681778, "trialdata": {"rt": 678, "stimulus": "<p id='stroop-text' class='stroop-red'>BLUE</p>", "response": "r", "stimulus-type": "incongruent", "word": "blue", "color": "red", "correct_response": "r", "trial_id": "stroop-trial-1-incongruent-5", "trial_type": "html-keyboard-response", "trial_index": 195, "time_elapsed": 292043, "internal_node_id": "0.0-8.0-9.0"}}, {"uniqueid": "w40713034:a77086853", "current_trial": 196, "dateTime": 1664873682921, "trialdata": {"rt": 638, "stimulus": "<p id='stroop-text' class='stroop-blue'>BLUE</p>", "response": "b", "stimulus-type": "congruent", "word": "blue", "color": "blue", "correct_response": "b", "trial_id": "stroop-trial-1-congruent-6", "trial_type": "html-keyboard-response", "trial_index": 196, "time_elapsed": 293187, "internal_node_id": "0.0-8.0-10.0"}}, {"uniqueid": "w40713034:a77086853", "current_trial": 197, "dateTime": 1664873684193, "trialdata": {"rt": 765, "stimulus": "<p id='stroop-text' class='stroop-red'>FORK</p>", "response": "r", "stimulus-type": "unrelated", "word": "FORK", "color": "red", "correct_response": "r", "trial_id": "stroop-trial-1-unrelated-17", "trial_type": "html-keyboard-response", "trial_index": 197, "time_elapsed": 294459, "internal_node_id": "0.0-8.0-11.0"}}, {"uniqueid": "w40713034:a77086853", "current_trial": 198, "dateTime": 1664873685241, "trialdata": {"rt": 540, "stimulus": "<p id='stroop-text' class='stroop-green'>GREEN</p>", "response": "g", "stimulus-type": "congruent", "word": "green", "color": "green", "correct_response": "g", "trial_id": "stroop-trial-1-congruent-19", "trial_type": "html-keyboard-response", "trial_index": 198, "time_elapsed": 295507, "internal_node_id": "0.0-8.0-12.0"}}, {"uniqueid": "w40713034:a77086853", "current_trial": 199, "dateTime": 1664873686562, "trialdata": {"rt": 815, "stimulus": "<p id='stroop-text' class='stroop-red'>DOG</p>", "response": "r", "stimulus-type": "unrelated", "word": "DOG", "color": "red", "correct_response": "r", "trial_id": "stroop-trial-1-unrelated-25", "trial_type": "html-keyboard-response", "trial_index": 199, "time_elapsed": 296827, "internal_node_id": "0.0-8.0-13.0"}}, {"uniqueid": "w40713034:a77086853", "current_trial": 200, "dateTime": 1664873687617, "trialdata": {"rt": 550, "stimulus": "<p id='stroop-text' class='stroop-blue'>BLUE</p>", "response": "b", "stimulus-type": "congruent", "word": "blue", "color": "blue", "correct_response": "b", "trial_id": "stroop-trial-1-congruent-29", "trial_type": "html-keyboard-response", "trial_index": 200, "time_elapsed": 297883, "internal_node_id": "0.0-8.0-14.0"}}, {"uniqueid": "w40713034:a77086853", "current_trial": 201, "dateTime": 1664873688753, "trialdata": {"rt": 631, "stimulus": "<p id='stroop-text' class='stroop-red'>YELLOW</p>", "response": "r", "stimulus-type": "incongruent", "word": "yellow", "color": "red", "correct_response": "r", "trial_id": "stroop-trial-1-incongruent-25", "trial_type": "html-keyboard-response", "trial_index": 201, "time_elapsed": 299018, "internal_node_id": "0.0-8.0-15.0"}}, {"uniqueid": "w40713034:a77086853", "current_trial": 202, "dateTime": 1664873689697, "trialdata": {"rt": 440, "stimulus": "<p id='stroop-text' class='stroop-green'>GREEN</p>", "response": "g", "stimulus-type": "congruent", "word": "green", "color": "green", "correct_response": "g", "trial_id": "stroop-trial-1-congruent-25", "trial_type": "html-keyboard-response", "trial_index": 202, "time_elapsed": 299963, "internal_node_id": "0.0-8.0-16.0"}}, {"uniqueid": "w40713034:a77086853", "current_trial": 203, "dateTime": 1664873690761, "trialdata": {"rt": 559, "stimulus": "<p id='stroop-text' class='stroop-red'>RED</p>", "response": "r", "stimulus-type": "congruent", "word": "red", "color": "red", "correct_response": "r", "trial_id": "stroop-trial-1-congruent-4", "trial_type": "html-keyboard-response", "trial_index": 203, "time_elapsed": 301027, "internal_node_id": "0.0-8.0-17.0"}}, {"uniqueid": "w40713034:a77086853", "current_trial": 204, "dateTime": 1664873692018, "trialdata": {"rt": 751, "stimulus": "<p id='stroop-text' class='stroop-red'>BLUE</p>", "response": "r", "stimulus-type": "incongruent", "word": "blue", "color": "red", "correct_response": "r", "trial_id": "stroop-trial-1-incongruent-19", "trial_type": "html-keyboard-response", "trial_index": 204, "time_elapsed": 302283, "internal_node_id": "0.0-8.0-18.0"}}, {"uniqueid": "w40713034:a77086853", "current_trial": 205, "dateTime": 1664873692841, "trialdata": {"rt": 317, "stimulus": "<p id='stroop-text' class='stroop-red'>RED</p>", "response": "r", "stimulus-type": "congruent", "word": "red", "color": "red", "correct_response": "r", "trial_id": "stroop-trial-1-congruent-14", "trial_type": "html-keyboard-response", "trial_index": 205, "time_elapsed": 303107, "internal_node_id": "0.0-8.0-19.0"}}, {"uniqueid": "w40713034:a77086853", "current_trial": 206, "dateTime": 1664873693753, "trialdata": {"rt": 405, "stimulus": "<p id='stroop-text' class='stroop-yellow'>YELLOW</p>", "response": "y", "stimulus-type": "congruent", "word": "yellow", "color": "yellow", "correct_response": "y", "trial_id": "stroop-trial-1-congruent-10", "trial_type": "html-keyboard-response", "trial_index": 206, "time_elapsed": 304019, "internal_node_id": "0.0-8.0-20.0"}}, {"uniqueid": "w40713034:a77086853", "current_trial": 207, "dateTime": 1664873694905, "trialdata": {"rt": 646, "stimulus": "<p id='stroop-text' class='stroop-blue'>GREEN</p>", "response": "b", "stimulus-type": "incongruent", "word": "green", "color": "blue", "correct_response": "b", "trial_id": "stroop-trial-1-incongruent-14", "trial_type": "html-keyboard-response", "trial_index": 207, "time_elapsed": 305171, "internal_node_id": "0.0-8.0-21.0"}}, {"uniqueid": "w40713034:a77086853", "current_trial": 208, "dateTime": 1664873695986, "trialdata": {"rt": 567, "stimulus": "<p id='stroop-text' class='stroop-red'>SHIP</p>", "response": "y", "stimulus-type": "unrelated", "word": "SHIP", "color": "red", "correct_response": "r", "trial_id": "stroop-trial-1-unrelated-28", "trial_type": "html-keyboard-response", "trial_index": 208, "time_elapsed": 306251, "internal_node_id": "0.0-8.0-22.0"}}, {"uniqueid": "w40713034:a77086853", "current_trial": 209, "dateTime": 1664873697449, "trialdata": {"rt": 955, "stimulus": "<p id='stroop-text' class='stroop-blue'>BLUE</p>", "response": "b", "stimulus-type": "congruent", "word": "blue", "color": "blue", "correct_response": "b", "trial_id": "stroop-trial-1-congruent-18", "trial_type": "html-keyboard-response", "trial_index": 209, "time_elapsed": 307715, "internal_node_id": "0.0-8.0-23.0"}}, {"uniqueid": "w40713034:a77086853", "current_trial": 210, "dateTime": 1664873698729, "trialdata": {"rt": 774, "stimulus": "<p id='stroop-text' class='stroop-yellow'>RED</p>", "response": "g", "stimulus-type": "incongruent", "word": "red", "color": "yellow", "correct_response": "y", "trial_id": "stroop-trial-1-incongruent-26", "trial_type": "html-keyboard-response", "trial_index": 210, "time_elapsed": 308995, "internal_node_id": "0.0-8.0-24.0"}}, {"uniqueid": "w40713034:a77086853", "current_trial": 211, "dateTime": 1664873699669, "trialdata": {"rt": 433, "stimulus": "<p id='stroop-text' class='stroop-yellow'>YELLOW</p>", "response": "y", "stimulus-type": "congruent", "word": "yellow", "color": "yellow", "correct_response": "y", "trial_id": "stroop-trial-1-congruent-5", "trial_type": "html-keyboard-response", "trial_index": 211, "time_elapsed": 309935, "internal_node_id": "0.0-8.0-25.0"}}, {"uniqueid": "w40713034:a77086853", "current_trial": 212, "dateTime": 1664873701485, "trialdata": {"rt": 1310, "stimulus": "<p id='stroop-text' class='stroop-green'>MONKEY</p>", "response": "g", "stimulus-type": "unrelated", "word": "MONKEY", "color": "green", "correct_response": "g", "trial_id": "stroop-trial-1-unrelated-16", "trial_type": "html-keyboard-response", "trial_index": 212, "time_elapsed": 311751, "internal_node_id": "0.0-8.0-26.0"}}, {"uniqueid": "w40713034:a77086853", "current_trial": 213, "dateTime": 1664873703838, "trialdata": {"rt": 1846, "stimulus": "<p id='stroop-text' class='stroop-blue'>BLUE</p>", "response": "b", "stimulus-type": "congruent", "word": "blue", "color": "blue", "correct_response": "b", "trial_id": "stroop-trial-1-congruent-17", "trial_type": "html-keyboard-response", "trial_index": 213, "time_elapsed": 314103, "internal_node_id": "0.0-8.0-27.0"}}, {"uniqueid": "w40713034:a77086853", "current_trial": 214, "dateTime": 1664873704893, "trialdata": {"rt": 550, "stimulus": "<p id='stroop-text' class='stroop-yellow'>FORK</p>", "response": "y", "stimulus-type": "unrelated", "word": "FORK", "color": "yellow", "correct_response": "y", "trial_id": "stroop-trial-1-unrelated-12", "trial_type": "html-keyboard-response", "trial_index": 214, "time_elapsed": 315159, "internal_node_id": "0.0-8.0-28.0"}}, {"uniqueid": "w40713034:a77086853", "current_trial": 215, "dateTime": 1664873705797, "trialdata": {"rt": 398, "stimulus": "<p id='stroop-text' class='stroop-yellow'>BLUE</p>", "response": "y", "stimulus-type": "incongruent", "word": "blue", "color": "yellow", "correct_response": "y", "trial_id": "stroop-trial-1-incongruent-9", "trial_type": "html-keyboard-response", "trial_index": 215, "time_elapsed": 316063, "internal_node_id": "0.0-8.0-29.0"}}, {"uniqueid": "w40713034:a77086853", "current_trial": 216, "dateTime": 1664873707149, "trialdata": {"rt": 846, "stimulus": "<p id='stroop-text' class='stroop-blue'>BLUE</p>", "response": "b", "stimulus-type": "congruent", "word": "blue", "color": "blue", "correct_response": "b", "trial_id": "stroop-trial-1-congruent-22", "trial_type": "html-keyboard-response", "trial_index": 216, "time_elapsed": 317414, "internal_node_id": "0.0-8.0-30.0"}}, {"uniqueid": "w40713034:a77086853", "current_trial": 217, "dateTime": 1664873708077, "trialdata": {"rt": 424, "stimulus": "<p id='stroop-text' class='stroop-yellow'>GREEN</p>", "response": "g", "stimulus-type": "incongruent", "word": "green", "color": "yellow", "correct_response": "y", "trial_id": "stroop-trial-1-incongruent-7", "trial_type": "html-keyboard-response", "trial_index": 217, "time_elapsed": 318343, "internal_node_id": "0.0-8.0-31.0"}}, {"uniqueid": "w40713034:a77086853", "current_trial": 218, "dateTime": 1664873710181, "trialdata": {"rt": 1598, "stimulus": "<p id='stroop-text' class='stroop-blue'>BLUE</p>", "response": "b", "stimulus-type": "congruent", "word": "blue", "color": "blue", "correct_response": "b", "trial_id": "stroop-trial-1-congruent-11", "trial_type": "html-keyboard-response", "trial_index": 218, "time_elapsed": 320447, "internal_node_id": "0.0-8.0-32.0"}}, {"uniqueid": "w40713034:a77086853", "current_trial": 219, "dateTime": 1664873711165, "trialdata": {"rt": 478, "stimulus": "<p id='stroop-text' class='stroop-yellow'>YELLOW</p>", "response": "y", "stimulus-type": "congruent", "word": "yellow", "color": "yellow", "correct_response": "y", "trial_id": "stroop-trial-1-congruent-23", "trial_type": "html-keyboard-response", "trial_index": 219, "time_elapsed": 321431, "internal_node_id": "0.0-8.0-33.0"}}, {"uniqueid": "w40713034:a77086853", "current_trial": 220, "dateTime": 1664873712237, "trialdata": {"rt": 566, "stimulus": "<p id='stroop-text' class='stroop-red'>RED</p>", "response": "r", "stimulus-type": "congruent", "word": "red", "color": "red", "correct_response": "r", "trial_id": "stroop-trial-1-congruent-8", "trial_type": "html-keyboard-response", "trial_index": 220, "time_elapsed": 322503, "internal_node_id": "0.0-8.0-34.0"}}, {"uniqueid": "w40713034:a77086853", "current_trial": 221, "dateTime": 1664873713598, "trialdata": {"rt": 854, "stimulus": "<p id='stroop-text' class='stroop-green'>FORK</p>", "response": "g", "stimulus-type": "unrelated", "word": "FORK", "color": "green", "correct_response": "g", "trial_id": "stroop-trial-1-unrelated-2", "trial_type": "html-keyboard-response", "trial_index": 221, "time_elapsed": 323863, "internal_node_id": "0.0-8.0-35.0"}}, {"uniqueid": "w40713034:a77086853", "current_trial": 222, "dateTime": 1664873715014, "trialdata": {"rt": 908, "stimulus": "<p id='stroop-text' class='stroop-yellow'>GREEN</p>", "response": "y", "stimulus-type": "incongruent", "word": "green", "color": "yellow", "correct_response": "y", "trial_id": "stroop-trial-1-incongruent-27", "trial_type": "html-keyboard-response", "trial_index": 222, "time_elap