{"condition": 0, "counterbalance": 0, "assignmentId": "a99785726", "workerId": "w46279930", "hitId": "h18799491", "currenttrial": 959, "bonus": 0, "data": [{"uniqueid": "w46279930:a99785726", "current_trial": 0, "dateTime": 1664554946766, "trialdata": {"success": true, "trial_type": "fullscreen", "trial_index": 0, "time_elapsed": 4179, "internal_node_id": "0.0-0.0"}}, {"uniqueid": "w46279930:a99785726", "current_trial": 1, "dateTime": 1664554961682, "trialdata": {"view_history": [{"page_index": 0, "viewing_time": 14905}], "rt": 14906, "trial_id": "exp_instructions_distractor", "trial_type": "instructions", "trial_index": 1, "time_elapsed": 19095, "internal_node_id": "0.0-1.0"}}, {"uniqueid": "w46279930:a99785726", "current_trial": 2, "dateTime": 1664554978062, "trialdata": {"view_history": [{"page_index": 0, "viewing_time": 16371}], "rt": 16371, "trial_id": "color_game_instructions", "trial_type": "instructions", "trial_index": 2, "time_elapsed": 35475, "internal_node_id": "0.0-2.0"}}, {"uniqueid": "w46279930:a99785726", "current_trial": 3, "dateTime": 1664554982377, "trialdata": {"rt": 4310, "stimulus": "<h1> Get ready to start the game! </h1>\n\nThank you for reading the instructions. Get ready start with the first of 5 block(s) of this game.\n<br><br>\nIn this first block, you will complete 90 rounds of this game before moving on.\n<br><br>\nRemember, the better you perform, the bigger your bonus will be!\n<br><br>\n<div style='text-align: center;'>Press <code>space</code> to begin.</div>", "response": " ", "trial_id": "stroop_1_ready_1", "trial_type": "html-keyboard-response", "trial_index": 3, "time_elapsed": 39790, "internal_node_id": "0.0-3.0"}}, {"uniqueid": "w46279930:a99785726", "current_trial": 4, "dateTime": 1664554983498, "trialdata": {"rt": 1114, "stimulus": "<p id='stroop-text' class='stroop-green'>GREEN</p>", "response": "g", "stimulus-type": "congruent", "word": "green", "color": "green", "correct_response": "g", "trial_id": "stroop-trial-1-congruent-21", "trial_type": "html-keyboard-response", "trial_index": 4, "time_elapsed": 40911, "internal_node_id": "0.0-4.0-0.0"}}, {"uniqueid": "w46279930:a99785726", "current_trial": 5, "dateTime": 1664554984995, "trialdata": {"rt": 992, "stimulus": "<p id='stroop-text' class='stroop-red'>MONKEY</p>", "response": "r", "stimulus-type": "unrelated", "word": "MONKEY", "color": "red", "correct_response": "r", "trial_id": "stroop-trial-1-unrelated-2", "trial_type": "html-keyboard-response", "trial_index": 5, "time_elapsed": 42407, "internal_node_id": "0.0-4.0-1.0"}}, {"uniqueid": "w46279930:a99785726", "current_trial": 6, "dateTime": 1664554986112, "trialdata": {"rt": 614, "stimulus": "<p id='stroop-text' class='stroop-yellow'>YELLOW</p>", "response": "y", "stimulus-type": "congruent", "word": "yellow", "color": "yellow", "correct_response": "y", "trial_id": "stroop-trial-1-congruent-2", "trial_type": "html-keyboard-response", "trial_index": 6, "time_elapsed": 43525, "internal_node_id": "0.0-4.0-2.0"}}, {"uniqueid": "w46279930:a99785726", "current_trial": 7, "dateTime": 1664554987193, "trialdata": {"rt": 577, "stimulus": "<p id='stroop-text' class='stroop-yellow'>YELLOW</p>", "response": "y", "stimulus-type": "congruent", "word": "yellow", "color": "yellow", "correct_response": "y", "trial_id": "stroop-trial-1-congruent-1", "trial_type": "html-keyboard-response", "trial_index": 7, "time_elapsed": 44606, "internal_node_id": "0.0-4.0-3.0"}}, {"uniqueid": "w46279930:a99785726", "current_trial": 8, "dateTime": 1664554988141, "trialdata": {"rt": 444, "stimulus": "<p id='stroop-text' class='stroop-yellow'>YELLOW</p>", "response": "y", "stimulus-type": "congruent", "word": "yellow", "color": "yellow", "correct_response": "y", "trial_id": "stroop-trial-1-congruent-16", "trial_type": "html-keyboard-response", "trial_index": 8, "time_elapsed": 45553, "internal_node_id": "0.0-4.0-4.0"}}, {"uniqueid": "w46279930:a99785726", "current_trial": 9, "dateTime": 1664554989827, "trialdata": {"rt": 1182, "stimulus": "<p id='stroop-text' class='stroop-green'>WINDOW</p>", "response": "g", "stimulus-type": "unrelated", "word": "WINDOW", "color": "green", "correct_response": "g", "trial_id": "stroop-trial-1-unrelated-13", "trial_type": "html-keyboard-response", "trial_index": 9, "time_elapsed": 47239, "internal_node_id": "0.0-4.0-5.0"}}, {"uniqueid": "w46279930:a99785726", "current_trial": 10, "dateTime": 1664554990984, "trialdata": {"rt": 653, "stimulus": "<p id='stroop-text' class='stroop-green'>GREEN</p>", "response": "g", "stimulus-type": "congruent", "word": "green", "color": "green", "correct_response": "g", "trial_id": "stroop-trial-1-congruent-12", "trial_type": "html-keyboard-response", "trial_index": 10, "time_elapsed": 48396, "internal_node_id": "0.0-4.0-6.0"}}, {"uniqueid": "w46279930:a99785726", "current_trial": 11, "dateTime": 1664554992100, "trialdata": {"rt": 614, "stimulus": "<p id='stroop-text' class='stroop-blue'>BLUE</p>", "response": "b", "stimulus-type": "congruent", "word": "blue", "color": "blue", "correct_response": "b", "trial_id": "stroop-trial-1-congruent-22", "trial_type": "html-keyboard-response", "trial_index": 11, "time_elapsed": 49513, "internal_node_id": "0.0-4.0-7.0"}}, {"uniqueid": "w46279930:a99785726", "current_trial": 12, "dateTime": 1664554993541, "trialdata": {"rt": 937, "stimulus": "<p id='stroop-text' class='stroop-blue'>YELLOW</p>", "response": "b", "stimulus-type": "incongruent", "word": "yellow", "color": "blue", "correct_response": "b", "trial_id": "stroop-trial-1-incongruent-28", "trial_type": "html-keyboard-response", "trial_index": 12, "time_elapsed": 50953, "internal_node_id": "0.0-4.0-8.0"}}, {"uniqueid": "w46279930:a99785726", "current_trial": 13, "dateTime": 1664554994719, "trialdata": {"rt": 674, "stimulus": "<p id='stroop-text' class='stroop-blue'>GREEN</p>", "response": "g", "stimulus-type": "incongruent", "word": "green", "color": "blue", "correct_response": "b", "trial_id": "stroop-trial-1-incongruent-1", "trial_type": "html-keyboard-response", "trial_index": 13, "time_elapsed": 52132, "internal_node_id": "0.0-4.0-9.0"}}, {"uniqueid": "w46279930:a99785726", "current_trial": 14, "dateTime": 1664554997051, "trialdata": {"rt": 1829, "stimulus": "<p id='stroop-text' class='stroop-red'>WINDOW</p>", "response": "r", "stimulus-type": "unrelated", "word": "WINDOW", "color": "red", "correct_response": "r", "trial_id": "stroop-trial-1-unrelated-15", "trial_type": "html-keyboard-response", "trial_index": 14, "time_elapsed": 54464, "internal_node_id": "0.0-4.0-10.0"}}, {"uniqueid": "w46279930:a99785726", "current_trial": 15, "dateTime": 1664554998318, "trialdata": {"rt": 763, "stimulus": "<p id='stroop-text' class='stroop-red'>MONKEY</p>", "response": "r", "stimulus-type": "unrelated", "word": "MONKEY", "color": "red", "correct_response": "r", "trial_id": "stroop-trial-1-unrelated-5", "trial_type": "html-keyboard-response", "trial_index": 15, "time_elapsed": 55730, "internal_node_id": "0.0-4.0-11.0"}}, {"uniqueid": "w46279930:a99785726", "current_trial": 16, "dateTime": 1664554999414, "trialdata": {"rt": 596, "stimulus": "<p id='stroop-text' class='stroop-red'>MONKEY</p>", "response": "r", "stimulus-type": "unrelated", "word": "MONKEY", "color": "red", "correct_response": "r", "trial_id": "stroop-trial-1-unrelated-22", "trial_type": "html-keyboard-response", "trial_index": 16, "time_elapsed": 56827, "internal_node_id": "0.0-4.0-12.0"}}, {"uniqueid": "w46279930:a99785726", "current_trial": 17, "dateTime": 1664555000557, "trialdata": {"rt": 640, "stimulus": "<p id='stroop-text' class='stroop-green'>GREEN</p>", "response": "g", "stimulus-type": "congruent", "word": "green", "color": "green", "correct_response": "g", "trial_id": "stroop-trial-1-congruent-7", "trial_type": "html-keyboard-response", "trial_index": 17, "time_elapsed": 57970, "internal_node_id": "0.0-4.0-13.0"}}, {"uniqueid": "w46279930:a99785726", "current_trial": 18, "dateTime": 1664555001849, "trialdata": {"rt": 788, "stimulus": "<p id='stroop-text' class='stroop-red'>GREEN</p>", "response": "r", "stimulus-type": "incongruent", "word": "green", "color": "red", "correct_response": "r", "trial_id": "stroop-trial-1-incongruent-4", "trial_type": "html-keyboard-response", "trial_index": 18, "time_elapsed": 59262, "internal_node_id": "0.0-4.0-14.0"}}, {"uniqueid": "w46279930:a99785726", "current_trial": 19, "dateTime": 1664555002971, "trialdata": {"rt": 618, "stimulus": "<p id='stroop-text' class='stroop-blue'>CHAIR</p>", "response": "b", "stimulus-type": "unrelated", "word": "CHAIR", "color": "blue", "correct_response": "b", "trial_id": "stroop-trial-1-unrelated-27", "trial_type": "html-keyboard-response", "trial_index": 19, "time_elapsed": 60383, "internal_node_id": "0.0-4.0-15.0"}}, {"uniqueid": "w46279930:a99785726", "current_trial": 20, "dateTime": 1664555004137, "trialdata": {"rt": 664, "stimulus": "<p id='stroop-text' class='stroop-green'>GREEN</p>", "response": "g", "stimulus-type": "congruent", "word": "green", "color": "green", "correct_response": "g", "trial_id": "stroop-trial-1-congruent-18", "trial_type": "html-keyboard-response", "trial_index": 20, "time_elapsed": 61550, "internal_node_id": "0.0-4.0-16.0"}}, {"uniqueid": "w46279930:a99785726", "current_trial": 21, "dateTime": 1664555005289, "trialdata": {"rt": 647, "stimulus": "<p id='stroop-text' class='stroop-green'>BLUE</p>", "response": "g", "stimulus-type": "incongruent", "word": "blue", "color": "green", "correct_response": "g", "trial_id": "stroop-trial-1-incongruent-21", "trial_type": "html-keyboard-response", "trial_index": 21, "time_elapsed": 62701, "internal_node_id": "0.0-4.0-17.0"}}, {"uniqueid": "w46279930:a99785726", "current_trial": 22, "dateTime": 1664555006476, "trialdata": {"rt": 685, "stimulus": "<p id='stroop-text' class='stroop-yellow'>BLUE</p>", "response": "y", "stimulus-type": "incongruent", "word": "blue", "color": "yellow", "correct_response": "y", "trial_id": "stroop-trial-1-incongruent-24", "trial_type": "html-keyboard-response", "trial_index": 22, "time_elapsed": 63889, "internal_node_id": "0.0-4.0-18.0"}}, {"uniqueid": "w46279930:a99785726", "current_trial": 23, "dateTime": 1664555007534, "trialdata": {"rt": 553, "stimulus": "<p id='stroop-text' class='stroop-red'>GREEN</p>", "response": "r", "stimulus-type": "incongruent", "word": "green", "color": "red", "correct_response": "r", "trial_id": "stroop-trial-1-incongruent-14", "trial_type": "html-keyboard-response", "trial_index": 23, "time_elapsed": 64946, "internal_node_id": "0.0-4.0-19.0"}}, {"uniqueid": "w46279930:a99785726", "current_trial": 24, "dateTime": 1664555009274, "trialdata": {"rt": 1236, "stimulus": "<p id='stroop-text' class='stroop-green'>BLUE</p>", "response": "g", "stimulus-type": "incongruent", "word": "blue", "color": "green", "correct_response": "g", "trial_id": "stroop-trial-1-incongruent-30", "trial_type": "html-keyboard-response", "trial_index": 24, "time_elapsed": 66686, "internal_node_id": "0.0-4.0-20.0"}}, {"uniqueid": "w46279930:a99785726", "current_trial": 25, "dateTime": 1664555010572, "trialdata": {"rt": 792, "stimulus": "<p id='stroop-text' class='stroop-yellow'>BLUE</p>", "response": "y", "stimulus-type": "incongruent", "word": "blue", "color": "yellow", "correct_response": "y", "trial_id": "stroop-trial-1-incongruent-2", "trial_type": "html-keyboard-response", "trial_index": 25, "time_elapsed": 67982, "internal_node_id": "0.0-4.0-21.0"}}, {"uniqueid": "w46279930:a99785726", "current_trial": 26, "dateTime": 1664555012056, "trialdata": {"rt": 980, "stimulus": "<p id='stroop-text' class='stroop-yellow'>YELLOW</p>", "response": "y", "stimulus-type": "congruent", "word": "yellow", "color": "yellow", "correct_response": "y", "trial_id": "stroop-trial-1-congruent-15", "trial_type": "html-keyboard-response", "trial_index": 26, "time_elapsed": 69469, "internal_node_id": "0.0-4.0-22.0"}}, {"uniqueid": "w46279930:a99785726", "current_trial": 27, "dateTime": 1664555013298, "trialdata": {"rt": 739, "stimulus": "<p id='stroop-text' class='stroop-green'>YELLOW</p>", "response": "g", "stimulus-type": "incongruent", "word": "yellow", "color": "green", "correct_response": "g", "trial_id": "stroop-trial-1-incongruent-29", "trial_type": "html-keyboard-response", "trial_index": 27, "time_elapsed": 70710, "internal_node_id": "0.0-4.0-23.0"}}, {"uniqueid": "w46279930:a99785726", "current_trial": 28, "dateTime": 1664555014788, "trialdata": {"rt": 988, "stimulus": "<p id='stroop-text' class='stroop-green'>BOTTLE</p>", "response": "g", "stimulus-type": "unrelated", "word": "BOTTLE", "color": "green", "correct_response": "g", "trial_id": "stroop-trial-1-unrelated-11", "trial_type": "html-keyboard-response", "trial_index": 28, "time_elapsed": 72201, "internal_node_id": "0.0-4.0-24.0"}}, {"uniqueid": "w46279930:a99785726", "current_trial": 29, "dateTime": 1664555016260, "trialdata": {"rt": 969, "stimulus": "<p id='stroop-text' class='stroop-yellow'>YELLOW</p>", "response": "y", "stimulus-type": "congruent", "word": "yellow", "color": "yellow", "correct_response": "y", "trial_id": "stroop-trial-1-congruent-30", "trial_type": "html-keyboard-response", "trial_index": 29, "time_elapsed": 73672, "internal_node_id": "0.0-4.0-25.0"}}, {"uniqueid": "w46279930:a99785726", "current_trial": 30, "dateTime": 1664555017527, "trialdata": {"rt": 764, "stimulus": "<p id='stroop-text' class='stroop-blue'>STONE</p>", "response": "b", "stimulus-type": "unrelated", "word": "STONE", "color": "blue", "correct_response": "b", "trial_id": "stroop-trial-1-unrelated-9", "trial_type": "html-keyboard-response", "trial_index": 30, "time_elapsed": 74940, "internal_node_id": "0.0-4.0-26.0"}}, {"uniqueid": "w46279930:a99785726", "current_trial": 31, "dateTime": 1664555018742, "trialdata": {"rt": 713, "stimulus": "<p id='stroop-text' class='stroop-blue'>MONKEY</p>", "response": "b", "stimulus-type": "unrelated", "word": "MONKEY", "color": "blue", "correct_response": "b", "trial_id": "stroop-trial-1-unrelated-8", "trial_type": "html-keyboard-response", "trial_index": 31, "time_elapsed": 76154, "internal_node_id": "0.0-4.0-27.0"}}, {"uniqueid": "w46279930:a99785726", "current_trial": 32, "dateTime": 1664555020319, "trialdata": {"rt": 1074, "stimulus": "<p id='stroop-text' class='stroop-green'>WINDOW</p>", "response": "g", "stimulus-type": "unrelated", "word": "WINDOW", "color": "green", "correct_response": "g", "trial_id": "stroop-trial-1-unrelated-10", "trial_type": "html-keyboard-response", "trial_index": 32, "time_elapsed": 77731, "internal_node_id": "0.0-4.0-28.0"}}, {"uniqueid": "w46279930:a99785726", "current_trial": 33, "dateTime": 1664555021492, "trialdata": {"rt": 671, "stimulus": "<p id='stroop-text' class='stroop-green'>YELLOW</p>", "response": "y", "stimulus-type": "incongruent", "word": "yellow", "color": "green", "correct_response": "g", "trial_id": "stroop-trial-1-incongruent-7", "trial_type": "html-keyboard-response", "trial_index": 33, "time_elapsed": 78905, "internal_node_id": "0.0-4.0-29.0"}}, {"uniqueid": "w46279930:a99785726", "current_trial": 34, "dateTime": 1664555023476, "trialdata": {"rt": 1479, "stimulus": "<p id='stroop-text' class='stroop-green'>BLUE</p>", "response": "b", "stimulus-type": "incongruent", "word": "blue", "color": "green", "correct_response": "g", "trial_id": "stroop-trial-1-incongruent-9", "trial_type": "html-keyboard-response", "trial_index": 34, "time_elapsed": 80888, "internal_node_id": "0.0-4.0-30.0"}}, {"uniqueid": "w46279930:a99785726", "current_trial": 35, "dateTime": 1664555025066, "trialdata": {"rt": 1087, "stimulus": "<p id='stroop-text' class='stroop-green'>GREEN</p>", "response": "g", "stimulus-type": "congruent", "word": "green", "color": "green", "correct_response": "g", "trial_id": "stroop-trial-1-congruent-5", "trial_type": "html-keyboard-response", "trial_index": 35, "time_elapsed": 82478, "internal_node_id": "0.0-4.0-31.0"}}, {"uniqueid": "w46279930:a99785726", "current_trial": 36, "dateTime": 1664555026388, "trialdata": {"rt": 819, "stimulus": "<p id='stroop-text' class='stroop-yellow'>BLUE</p>", "response": "y", "stimulus-type": "incongruent", "word": "blue", "color": "yellow", "correct_response": "y", "trial_id": "stroop-trial-1-incongruent-27", "trial_type": "html-keyboard-response", "trial_index": 36, "time_elapsed": 83800, "internal_node_id": "0.0-4.0-32.0"}}, {"uniqueid": "w46279930:a99785726", "current_trial": 37, "dateTime": 1664555028157, "trialdata": {"rt": 1266, "stimulus": "<p id='stroop-text' class='stroop-blue'>YELLOW</p>", "response": "b", "stimulus-type": "incongruent", "word": "yellow", "color": "blue", "correct_response": "b", "trial_id": "stroop-trial-1-incongruent-15", "trial_type": "html-keyboard-response", "trial_index": 37, "time_elapsed": 85569, "internal_node_id": "0.0-4.0-33.0"}}, {"uniqueid": "w46279930:a99785726", "current_trial": 38, "dateTime": 1664555029433, "trialdata": {"rt": 773, "stimulus": "<p id='stroop-text' class='stroop-red'>RED</p>", "response": "r", "stimulus-type": "congruent", "word": "red", "color": "red", "correct_response": "r", "trial_id": "stroop-trial-1-congruent-27", "trial_type": "html-keyboard-response", "trial_index": 38, "time_elapsed": 86846, "internal_node_id": "0.0-4.0-34.0"}}, {"uniqueid": "w46279930:a99785726", "current_trial": 39, "dateTime": 1664555030796, "trialdata": {"rt": 859, "stimulus": "<p id='stroop-text' class='stroop-green'>MONKEY</p>", "response": "g", "stimulus-type": "unrelated", "word": "MONKEY", "color": "green", "correct_response": "g", "trial_id": "stroop-trial-1-unrelated-18", "trial_type": "html-keyboard-response", "trial_index": 39, "time_elapsed": 88207, "internal_node_id": "0.0-4.0-35.0"}}, {"uniqueid": "w46279930:a99785726", "current_trial": 40, "dateTime": 1664555032385, "trialdata": {"rt": 1087, "stimulus": "<p id='stroop-text' class='stroop-green'>YELLOW</p>", "response": "g", "stimulus-type": "incongruent", "word": "yellow", "color": "green", "correct_response": "g", "trial_id": "stroop-trial-1-incongruent-18", "trial_type": "html-keyboard-response", "trial_index": 40, "time_elapsed": 89798, "internal_node_id": "0.0-4.0-36.0"}}, {"uniqueid": "w46279930:a99785726", "current_trial": 41, "dateTime": 1664555033578, "trialdata": {"rt": 690, "stimulus": "<p id='stroop-text' class='stroop-green'>BOTTLE</p>", "response": "g", "stimulus-type": "unrelated", "word": "BOTTLE", "color": "green", "correct_response": "g", "trial_id": "stroop-trial-1-unrelated-14", "trial_type": "html-keyboard-response", "trial_index": 41, "time_elapsed": 90991, "internal_node_id": "0.0-4.0-37.0"}}, {"uniqueid": "w46279930:a99785726", "current_trial": 42, "dateTime": 1664555034725, "trialdata": {"rt": 644, "stimulus": "<p id='stroop-text' class='stroop-red'>CHAIR</p>", "response": "r", "stimulus-type": "unrelated", "word": "CHAIR", "color": "red", "correct_response": "r", "trial_id": "stroop-trial-1-unrelated-20", "trial_type": "html-keyboard-response", "trial_index": 42, "time_elapsed": 92137, "internal_node_id": "0.0-4.0-38.0"}}, {"uniqueid": "w46279930:a99785726", "current_trial": 43, "dateTime": 1664555035900, "trialdata": {"rt": 674, "stimulus": "<p id='stroop-text' class='stroop-red'>RED</p>", "response": "r", "stimulus-type": "congruent", "word": "red", "color": "red", "correct_response": "r", "trial_id": "stroop-trial-1-congruent-26", "trial_type": "html-keyboard-response", "trial_index": 43, "time_elapsed": 93313, "internal_node_id": "0.0-4.0-39.0"}}, {"uniqueid": "w46279930:a99785726", "current_trial": 44, "dateTime": 1664555037216, "trialdata": {"rt": 809, "stimulus": "<p id='stroop-text' class='stroop-blue'>YELLOW</p>", "response": "y", "stimulus-type": "incongruent", "word": "yellow", "color": "blue", "correct_response": "b", "trial_id": "stroop-trial-1-incongruent-13", "trial_type": "html-keyboard-response", "trial_index": 44, "time_elapsed": 94627, "internal_node_id": "0.0-4.0-40.0"}}, {"uniqueid": "w46279930:a99785726", "current_trial": 45, "dateTime": 1664555041169, "trialdata": {"rt": 3446, "stimulus": "<p id='stroop-text' class='stroop-blue'>BOAT</p>", "response": "y", "stimulus-type": "unrelated", "word": "BOAT", "color": "blue", "correct_response": "b", "trial_id": "stroop-trial-1-unrelated-4", "trial_type": "html-keyboard-response", "trial_index": 45, "time_elapsed": 98581, "internal_node_id": "0.0-4.0-41.0"}}, {"uniqueid": "w46279930:a99785726", "current_trial": 46, "dateTime": 1664555046489, "trialdata": {"rt": 4816, "stimulus": "<p id='stroop-text' class='stroop-red'>SHIP</p>", "response": "r", "stimulus-type": "unrelated", "word": "SHIP", "color": "red", "correct_response": "r", "trial_id": "stroop-trial-1-unrelated-25", "trial_type": "html-keyboard-response", "trial_index": 46, "time_elapsed": 103901, "internal_node_id": "0.0-4.0-42.0"}}, {"uniqueid": "w46279930:a99785726", "current_trial": 47, "dateTime": 1664555047730, "trialdata": {"rt": 736, "stimulus": "<p id='stroop-text' class='stroop-red'>RED</p>", "response": "r", "stimulus-type": "congruent", "word": "red", "color": "red", "correct_response": "r", "trial_id": "stroop-trial-1-congruent-6", "trial_type": "html-keyboard-response", "trial_index": 47, "time_elapsed": 105142, "internal_node_id": "0.0-4.0-43.0"}}, {"uniqueid": "w46279930:a99785726", "current_trial": 48, "dateTime": 1664555048907, "trialdata": {"rt": 672, "stimulus": "<p id='stroop-text' class='stroop-green'>GREEN</p>", "response": "g", "stimulus-type": "congruent", "word": "green", "color": "green", "correct_response": "g", "trial_id": "stroop-trial-1-congruent-20", "trial_type": "html-keyboard-response", "trial_index": 48, "time_elapsed": 106320, "internal_node_id": "0.0-4.0-44.0"}}, {"uniqueid": "w46279930:a99785726", "current_trial": 49, "dateTime": 1664555050134, "trialdata": {"rt": 721, "stimulus": "<p id='stroop-text' class='stroop-green'>GREEN</p>", "response": "g", "stimulus-type": "congruent", "word": "green", "color": "green", "correct_response": "g", "trial_id": "stroop-trial-1-congruent-28", "trial_type": "html-keyboard-response", "trial_index": 49, "time_elapsed": 107546, "internal_node_id": "0.0-4.0-45.0"}}, {"uniqueid": "w46279930:a99785726", "current_trial": 50, "dateTime": 1664555051231, "trialdata": {"rt": 592, "stimulus": "<p id='stroop-text' class='stroop-red'>BOTTLE</p>", "response": "r", "stimulus-type": "unrelated", "word": "BOTTLE", "color": "red", "correct_response": "r", "trial_id": "stroop-trial-1-unrelated-17", "trial_type": "html-keyboard-response", "trial_index": 50, "time_elapsed": 108643, "internal_node_id": "0.0-4.0-46.0"}}, {"uniqueid": "w46279930:a99785726", "current_trial": 51, "dateTime": 1664555052478, "trialdata": {"rt": 742, "stimulus": "<p id='stroop-text' class='stroop-green'>MONKEY</p>", "response": "g", "stimulus-type": "unrelated", "word": "MONKEY", "color": "green", "correct_response": "g", "trial_id": "stroop-trial-1-unrelated-12", "trial_type": "html-keyboard-response", "trial_index": 51, "time_elapsed": 109889, "internal_node_id": "0.0-4.0-47.0"}}, {"uniqueid": "w46279930:a99785726", "current_trial": 52, "dateTime": 1664555053884, "trialdata": {"rt": 902, "stimulus": "<p id='stroop-text' class='stroop-green'>GREEN</p>", "response": "g", "stimulus-type": "congruent", "word": "green", "color": "green", "correct_response": "g", "trial_id": "stroop-trial-1-congruent-24", "trial_type": "html-keyboard-response", "trial_index": 52, "time_elapsed": 111296, "internal_node_id": "0.0-4.0-48.0"}}, {"uniqueid": "w46279930:a99785726", "current_trial": 53, "dateTime": 1664555055335, "trialdata": {"rt": 946, "stimulus": "<p id='stroop-text' class='stroop-green'>DOG</p>", "response": "g", "stimulus-type": "unrelated", "word": "DOG", "color": "green", "correct_response": "g", "trial_id": "stroop-trial-1-unrelated-1", "trial_type": "html-keyboard-response", "trial_index": 53, "time_elapsed": 112747, "internal_node_id": "0.0-4.0-49.0"}}, {"uniqueid": "w46279930:a99785726", "current_trial": 54, "dateTime": 1664555056737, "trialdata": {"rt": 897, "stimulus": "<p id='stroop-text' class='stroop-blue'>RED</p>", "response": "g", "stimulus-type": "incongruent", "word": "red", "color": "blue", "correct_response": "b", "trial_id": "stroop-trial-1-incongruent-20", "trial_type": "html-keyboard-response", "trial_index": 54, "time_elapsed": 114149, "internal_node_id": "0.0-4.0-50.0"}}, {"uniqueid": "w46279930:a99785726", "current_trial": 55, "dateTime": 1664555058800, "trialdata": {"rt": 1559, "stimulus": "<p id='stroop-text' class='stroop-green'>BLUE</p>", "response": "g", "stimulus-type": "incongruent", "word": "blue", "color": "green", "correct_response": "g", "trial_id": "stroop-trial-1-incongruent-6", "trial_type": "html-keyboard-response", "trial_index": 55, "time_elapsed": 116213, "internal_node_id": "0.0-4.0-51.0"}}, {"uniqueid": "w46279930:a99785726", "current_trial": 56, "dateTime": 1664555060581, "trialdata": {"rt": 1277, "stimulus": "<p id='stroop-text' class='stroop-yellow'>YELLOW</p>", "response": "y", "stimulus-type": "congruent", "word": "yellow", "color": "yellow", "correct_response": "y", "trial_id": "stroop-trial-1-congruent-19", "trial_type": "html-keyboard-response", "trial_index": 56, "time_elapsed": 117994, "internal_node_id": "0.0-4.0-52.0"}}, {"uniqueid": "w46279930:a99785726", "current_trial": 57, "dateTime": 1664555061667, "trialdata": {"rt": 583, "stimulus": "<p id='stroop-text' class='stroop-blue'>BLUE</p>", "response": "b", "stimulus-type": "congruent", "word": "blue", "color": "blue", "correct_response": "b", "trial_id": "stroop-trial-1-congruent-4", "trial_type": "html-keyboard-response", "trial_index": 57, "time_elapsed": 119080, "internal_node_id": "0.0-4.0-53.0"}}, {"uniqueid": "w46279930:a99785726", "current_trial": 58, "dateTime": 1664555062805, "trialdata": {"rt": 634, "stimulus": "<p id='stroop-text' class='stroop-yellow'>YELLOW</p>", "response": "y", "stimulus-type": "congruent", "word": "yellow", "color": "yellow", "correct_response": "y", "trial_id": "stroop-trial-1-congruent-8", "trial_type": "html-keyboard-response", "trial_index": 58, "time_elapsed": 120217, "internal_node_id": "0.0-4.0-54.0"}}, {"uniqueid": "w46279930:a99785726", "current_trial": 59, "dateTime": 1664555063982, "trialdata": {"rt": 673, "stimulus": "<p id='stroop-text' class='stroop-yellow'>RED</p>", "response": "r", "stimulus-type": "incongruent", "word": "red", "color": "yellow", "correct_response": "y", "trial_id": "stroop-trial-1-incongruent-16", "trial_type": "html-keyboard-response", "trial_index": 59, "time_elapsed": 121393, "internal_node_id": "0.0-4.0-55.0"}}, {"uniqueid": "w46279930:a99785726", "current_trial": 60, "dateTime": 1664555065682, "trialdata": {"rt": 1197, "stimulus": "<p id='stroop-text' class='stroop-green'>BRIDGE</p>", "response": "g", "stimulus-type": "unrelated", "word": "BRIDGE", "color": "green", "correct_response": "g", "trial_id": "stroop-trial-1-unrelated-16", "trial_type": "html-keyboard-response", "trial_index": 60, "time_elapsed": 123094, "internal_node_id": "0.0-4.0-56.0"}}, {"uniqueid": "w46279930:a99785726", "current_trial": 61, "dateTime": 1664555067227, "trialdata": {"rt": 1043, "stimulus": "<p id='stroop-text' class='stroop-red'>BLUE</p>", "response": "r", "stimulus-type": "incongruent", "word": "blue", "color": "red", "correct_response": "r", "trial_id": "stroop-trial-1-incongruent-8", "trial_type": "html-keyboard-response", "trial_index": 61, "time_elapsed": 124640, "internal_node_id": "0.0-4.0-57.0"}}, {"uniqueid": "w46279930:a99785726", "current_trial": 62, "dateTime": 1664555068474, "trialdata": {"rt": 743, "stimulus": "<p id='stroop-text' class='stroop-red'>STONE</p>", "response": "r", "stimulus-type": "unrelated", "word": "STONE", "color": "red", "correct_response": "r", "trial_id": "stroop-trial-1-unrelated-30", "trial_type": "html-keyboard-response", "trial_index": 62, "time_elapsed": 125887, "internal_node_id": "0.0-4.0-58.0"}}, {"uniqueid": "w46279930:a99785726", "current_trial": 63, "dateTime": 1664555069512, "trialdata": {"rt": 533, "stimulus": "<p id='stroop-text' class='stroop-red'>FORK</p>", "response": "r", "stimulus-type": "unrelated", "word": "FORK", "color": "red", "correct_response": "r", "trial_id": "stroop-trial-1-unrelated-24", "trial_type": "html-keyboard-response", "trial_index": 63, "time_elapsed": 126924, "internal_node_id": "0.0-4.0-59.0"}}, {"uniqueid": "w46279930:a99785726", "current_trial": 64, "dateTime": 1664555070653, "trialdata": {"rt": 638, "stimulus": "<p id='stroop-text' class='stroop-red'>DOG</p>", "response": "r", "stimulus-type": "unrelated", "word": "DOG", "color": "red", "correct_response": "r", "trial_id": "stroop-trial-1-unrelated-23", "trial_type": "html-keyboard-response", "trial_index": 64, "time_elapsed": 128066, "internal_node_id": "0.0-4.0-60.0"}}, {"uniqueid": "w46279930:a99785726", "current_trial": 65, "dateTime": 1664555072189, "trialdata": {"rt": 1031, "stimulus": "<p id='stroop-text' class='stroop-green'>YELLOW</p>", "response": "g", "stimulus-type": "incongruent", "word": "yellow", "color": "green", "correct_response": "g", "trial_id": "stroop-trial-1-incongruent-23", "trial_type": "html-keyboard-response", "trial_index": 65, "time_elapsed": 129601, "internal_node_id": "0.0-4.0-61.0"}}, {"uniqueid": "w46279930:a99785726", "current_trial": 66, "dateTime": 1664555073496, "trialdata": {"rt": 805, "stimulus": "<p id='stroop-text' class='stroop-green'>GREEN</p>", "response": "g", "stimulus-type": "congruent", "word": "green", "color": "green", "correct_response": "g", "trial_id": "stroop-trial-1-congruent-11", "trial_type": "html-keyboard-response", "trial_index": 66, "time_elapsed": 130908, "internal_node_id": "0.0-4.0-62.0"}}, {"uniqueid": "w46279930:a99785726", "current_trial": 67, "dateTime": 1664555074427, "trialdata": {"rt": 428, "stimulus": "<p id='stroop-text' class='stroop-blue'>GREEN</p>", "response": "b", "stimulus-type": "incongruent", "word": "green", "color": "blue", "correct_response": "b", "trial_id": "stroop-trial-1-incongruent-3", "trial_type": "html-keyboard-response", "trial_index": 67, "time_elapsed": 131840, "internal_node_id": "0.0-4.0-63.0"}}, {"uniqueid": "w46279930:a99785726", "current_trial": 68, "dateTime": 1664555075410, "trialdata": {"rt": 479, "stimulus": "<p id='stroop-text' class='stroop-yellow'>BRAIN</p>", "response": "y", "stimulus-type": "unrelated", "word": "BRAIN", "color": "yellow", "correct_response": "y", "trial_id": "stroop-trial-1-unrelated-6", "trial_type": "html-keyboard-response", "trial_index": 68, "time_elapsed": 132822, "internal_node_id": "0.0-4.0-64.0"}}, {"uniqueid": "w46279930:a99785726", "current_trial": 69, "dateTime": 1664555076513, "trialdata": {"rt": 599, "stimulus": "<p id='stroop-text' class='stroop-blue'>MONKEY</p>", "response": "b", "stimulus-type": "unrelated", "word": "MONKEY", "color": "blue", "correct_response": "b", "trial_id": "stroop-trial-1-unrelated-29", "trial_type": "html-keyboard-response", "trial_index": 69, "time_elapsed": 133924, "internal_node_id": "0.0-4.0-65.0"}}, {"uniqueid": "w46279930:a99785726", "current_trial": 70, "dateTime": 1664555077445, "trialdata": {"rt": 430, "stimulus": "<p id='stroop-text' class='stroop-blue'>BOAT</p>", "response": "b", "stimulus-type": "unrelated", "word": "BOAT", "color": "blue", "correct_response": "b", "trial_id": "stroop-trial-1-unrelated-19", "trial_type": "html-keyboard-response", "trial_index": 70, "time_elapsed": 134858, "internal_node_id": "0.0-4.0-66.0"}}, {"uniqueid": "w46279930:a99785726", "current_trial": 71, "dateTime": 1664555078546, "trialdata": {"rt": 597, "stimulus": "<p id='stroop-text' class='stroop-green'>BRAIN</p>", "response": "g", "stimulus-type": "unrelated", "word": "BRAIN", "color": "green", "correct_response": "g", "trial_id": "stroop-trial-1-unrelated-26", "trial_type": "html-keyboard-response", "trial_index": 71, "time_elapsed": 135959, "internal_node_id": "0.0-4.0-67.0"}}, {"uniqueid": "w46279930:a99785726", "current_trial": 72, "dateTime": 1664555079489, "trialdata": {"rt": 441, "stimulus": "<p id='stroop-text' class='stroop-green'>GREEN</p>", "response": "g", "stimulus-type": "congruent", "word": "green", "color": "green", "correct_response": "g", "trial_id": "stroop-trial-1-congruent-23", "trial_type": "html-keyboard-response", "trial_index": 72, "time_elapsed": 136902, "internal_node_id": "0.0-4.0-68.0"}}, {"uniqueid": "w46279930:a99785726", "current_trial": 73, "dateTime": 1664555080491, "trialdata": {"rt": 498, "stimulus": "<p id='stroop-text' class='stroop-yellow'>YELLOW</p>", "response": "y", "stimulus-type": "congruent", "word": "yellow", "color": "yellow", "correct_response": "y", "trial_id": "stroop-trial-1-congruent-13", "trial_type": "html-keyboard-response", "trial_index": 73, "time_elapsed": 137904, "internal_node_id": "0.0-4.0-69.0"}}, {"uniqueid": "w46279930:a99785726", "current_trial": 74, "dateTime": 1664555081474, "trialdata": {"rt": 478, "stimulus": "<p id='stroop-text' class='stroop-yellow'>YELLOW</p>", "response": "y", "stimulus-type": "congruent", "word": "yellow", "color": "yellow", "correct_response": "y", "trial_id": "stroop-trial-1-congruent-17", "trial_type": "html-keyboard-response", "trial_index": 74, "time_elapsed": 138887, "internal_node_id": "0.0-4.0-70.0"}}, {"uniqueid": "w46279930:a99785726", "current_trial": 75, "dateTime": 1664555082565, "trialdata": {"rt": 586, "stimulus": "<p id='stroop-text' class='stroop-red'>YELLOW</p>", "response": "r", "stimulus-type": "incongruent", "word": "yellow", "color": "red", "correct_response": "r", "trial_id": "stroop-trial-1-incongruent-11", "trial_type": "html-keyboard-response", "trial_index": 75, "time_elapsed": 139978, "internal_node_id": "0.0-4.0-71.0"}}, {"uniqueid": "w46279930:a99785726", "current_trial": 76, "dateTime": 1664555083922, "trialdata": {"rt": 853, "stimulus": "<p id='stroop-text' class='stroop-green'>RED</p>", "response": "g", "stimulus-type": "incongruent", "word": "red", "color": "green", "correct_response": "g", "trial_id": "stroop-trial-1-incongruent-12", "trial_type": "html-keyboard-response", "trial_index": 76, "time_elapsed": 141334, "internal_node_id": "0.0-4.0-72.0"}}, {"uniqueid": "w46279930:a99785726", "current_trial": 77, "dateTime": 1664555085103, "trialdata": {"rt": 677, "stimulus": "<p id='stroop-text' class='stroop-yellow'>GREEN</p>", "response": "y", "stimulus-type": "incongruent", "word": "green", "color": "yellow", "correct_response": "y", "trial_id": "stroop-trial-1-incongruent-19", "trial_type": "html-keyboard-response", "trial_index": 77, "time_elapsed": 142516, "internal_node_id": "0.0-4.0-73.0"}}, {"uniqueid": "w46279930:a99785726", "current_trial": 78, "dateTime": 1664555086131, "trialdata": {"rt": 523, "stimulus": "<p id='stroop-text' class='stroop-yellow'>FORK</p>", "response": "y", "stimulus-type": "unrelated", "word": "FORK", "color": "yellow", "correct_response": "y", "trial_id": "stroop-trial-1-unrelated-28", "trial_type": "html-keyboard-response", "trial_index": 78, "time_elapsed": 143543, "internal_node_id": "0.0-4.0-74.0"}}, {"uniqueid": "w46279930:a99785726", "current_trial": 79, "dateTime": 1664555087138, "trialdata": {"rt": 504, "stimulus": "<p id='stroop-text' class='stroop-blue'>GREEN</p>", "response": "b", "stimulus-type": "incongruent", "word": "green", "color": "blue", "correct_response": "b", "trial_id": "stroop-trial-1-incongruent-5", "trial_type": "html-keyboard-response", "trial_index": 79, "time_elapsed": 144551, "internal_node_id": "0.0-4.0-75.0"}}, {"uniqueid": "w46279930:a99785726", "current_trial": 80, "dateTime": 1664555088055, "trialdata": {"rt": 413, "stimulus": "<p id='stroop-text' class='stroop-red'>RED</p>", "response": "r", "stimulus-type": "congruent", "word": "red", "color": "red", "correct_response": "r", "trial_id": "stroop-trial-1-congruent-10", "trial_type": "html-keyboard-response", "trial_index": 80, "time_elapsed": 145467, "internal_node_id": "0.0-4.0-76.0"}}, {"uniqueid": "w46279930:a99785726", "current_trial": 81, "dateTime": 1664555089198, "trialdata": {"rt": 639, "stimulus": "<p id='stroop-text' class='stroop-yellow'>CHAIR</p>", "response": "y", "stimulus-type": "unrelated", "word": "CHAIR", "color": "yellow", "correct_response": "y", "trial_id": "stroop-trial-1-unrelated-21", "trial_type": "html-keyboard-response", "trial_index": 81, "time_elapsed": 146610, "internal_node_id": "0.0-4.0-77.0"}}, {"uniqueid": "w46279930:a99785726", "current_trial": 82, "dateTime": 1664555090339, "trialdata": {"rt": 638, "stimulus": "<p id='stroop-text' class='stroop-red'>CHAIR</p>", "response": "r", "stimulus-type": "unrelated", "word": "CHAIR", "color": "red", "correct_response": "r", "trial_id": "stroop-trial-1-unrelated-7", "trial_type": "html-keyboard-response", "trial_index": 82, "time_elapsed": 147751, "internal_node_id": "0.0-4.0-78.0"}}, {"uniqueid": "w46279930:a99785726", "current_trial": 83, "dateTime": 1664555091576, "trialdata": {"rt": 731, "stimulus": "<p id='stroop-text' class='stroop-green'>GREEN</p>", "response": "g", "stimulus-type": "congruent", "word": "green", "color": "green", "correct_response": "g", "trial_id": "stroop-trial-1-congruent-9", "trial_type": "html-keyboard-response", "trial_index": 83, "time_elapsed": 148988, "internal_node_id": "0.0-4.0-79.0"}}, {"uniqueid": "w46279930:a99785726", "current_trial": 84, "dateTime": 1664555092629, "trialdata": {"rt": 549, "stimulus": "<p id='stroop-text' class='stroop-yellow'>DOG</p>", "response": "y", "stimulus-type": "unrelated", "word": "DOG", "color": "yellow", "correct_response": "y", "trial_id": "stroop-trial-1-unrelated-3", "trial_type": "html-keyboard-response", "trial_index": 84, "time_elapsed": 150041, "internal_node_id": "0.0-4.0-80.0"}}, {"uniqueid": "w46279930:a99785726", "current_trial": 85, "dateTime": 1664555093750, "trialdata": {"rt": 618, "stimulus": "<p id='stroop-text' class='stroop-green'>BLUE</p>", "response": "g", "stimulus-type": "incongruent", "word": "blue", "color": "green", "correct_response": "g", "trial_id": "stroop-trial-1-incongruent-10", "trial_type": "html-keyboard-response", "trial_index": 85, "time_elapsed": 151162, "internal_node_id": "0.0-4.0-81.0"}}, {"uniqueid": "w46279930:a99785726", "current_trial": 86, "dateTime": 1664555094852, "trialdata": {"rt": 598, "stimulus": "<p id='stroop-text' class='stroop-blue'>BLUE</p>", "response": "b", "stimulus-type": "congruent", "word": "blue", "color": "blue", "correct_response": "b", "trial_id": "stroop-trial-1-congruent-29", "trial_type": "html-keyboard-response", "trial_index": 86, "time_elapsed": 152264, "internal_node_id": "0.0-4.0-82.0"}}, {"uniqueid": "w46279930:a99785726", "current_trial": 87, "dateTime": 1664555095759, "trialdata": {"rt": 404, "stimulus": "<p id='stroop-text' class='stroop-red'>RED</p>", "response": "r", "stimulus-type": "congruent", "word": "red", "color": "red", "correct_response": "r", "trial_id": "stroop-trial-1-congruent-14", "trial_type": "html-keyboard-response", "trial_index": 87, "time_elapsed": 153172, "internal_node_id": "0.0-4.0-83.0"}}, {"uniqueid": "w46279930:a99785726", "current_trial": 88, "dateTime": 1664555096926, "trialdata": {"rt": 663, "stimulus": "<p id='stroop-text' class='stroop-red'>GREEN</p>", "response": "r", "stimulus-type": "incongruent", "word": "green", "color": "red", "correct_response": "r", "trial_id": "stroop-trial-1-incongruent-22", "trial_type": "html-keyboard-response", "trial_index": 88, "time_elapsed": 154339, "internal_node_id": "0.0-4.0-84.0"}}, {"uniqueid": "w46279930:a99785726", "current_trial": 89, "dateTime": 1664555098127, "trialdata": {"rt": 698, "stimulus": "<p id='stroop-text' class='stroop-yellow'>BLUE</p>", "response": "y", "stimulus-type": "incongruent", "word": "blue", "color": "yellow", "correct_response": "y", "trial_id": "stroop-trial-1-incongruent-17", "trial_type": "html-keyboard-response", "trial_index": 89, "time_elapsed": 155540, "internal_node_id": "0.0-4.0-85.0"}}, {"uniqueid": "w46279930:a99785726", "current_trial": 90, "dateTime": 1664555099783, "trialdata": {"rt": 1153, "stimulus": "<p id='stroop-text' class='stroop-red'>BLUE</p>", "response": "g", "stimulus-type": "incongruent", "word": "blue", "color": "red", "correct_response": "r", "trial_id": "stroop-trial-1-incongruent-26", "trial_type": "html-keyboard-response", "trial_index": 90, "time_elapsed": 157196, "internal_node_id": "0.0-4.0-86.0"}}, {"uniqueid": "w46279930:a99785726", "current_trial": 91, "dateTime": 1664555101499, "trialdata": {"rt": 1213, "stimulus": "<p id='stroop-text' class='stroop-green'>GREEN</p>", "response": "g", "stimulus-type": "congruent", "word": "green", "color": "green", "correct_response": "g", "trial_id": "stroop-trial-1-congruent-25", "trial_type": "html-keyboard-response", "trial_index": 91, "time_elapsed": 158912, "internal_node_id": "0.0-4.0-87.0"}}, {"uniqueid": "w46279930:a99785726", "current_trial": 92, "dateTime": 1664555102850, "trialdata": {"rt": 847, "stimulus": "<p id='stroop-text' class='stroop-red'>YELLOW</p>", "response": "r", "stimulus-type": "incongruent", "word": "yellow", "color": "red", "correct_response": "r", "trial_id": "stroop-trial-1-incongruent-25", "trial_type": "html-keyboard-response", "trial_index": 92, "time_elapsed": 160263, "internal_node_id": "0.0-4.0-88.0"}}, {"uniqueid": "w46279930:a99785726", "current_trial": 93, "dateTime": 1664555104191, "trialdata": {"rt": 837, "stimulus": "<p id='stroop-text' class='stroop-yellow'>YELLOW</p>", "response": "y", "stimulus-type": "congruent", "word": "yellow", "color": "yellow", "correct_response": "y", "trial_id": "stroop-trial-1-congruent-3", "trial_type": "html-keyboard-response", "trial_index": 93, "time_elapsed": 161604, "internal_node_id": "0.0-4.0-89.0"}}, {"uniqueid": "w46279930:a99785726", "current_trial": 94, "dateTime": 1664555107846, "trialdata": {"rt": 3151, "stimulus": "  <h1> End of block! </h1>\n\n  You have reached the end of the block 1/5. If you need a short break, feel free to take one now before moving on.\n\n  <br><br>\n  In the next block, you will complete another 90 rounds of this game.\n\n  <br><br>\n  <div style='text-align: center;'>Press <code>space</code> to begin.</div>\n  <br><br>\n<div style='text-align: center;'>(If the experiment doesn't continue, try clicking on the text and then pressing <code>space</code>.)</div>", "response": " ", "trial_id": "stroop_1_ready_2", "trial_type": "html-keyboard-response", "trial_index": 94, "time_elapsed": 165259, "internal_node_id": "0.0-5.0"}}, {"uniqueid": "w46279930:a99785726", "current_trial": 95, "dateTime": 1664555109208, "trialdata": {"rt": 1357, "stimulus": "<p id='stroop-text' class='stroop-red'>BLUE</p>", "response": "r", "stimulus-type": "incongruent", "word": "blue", "color": "red", "correct_response": "r", "trial_id": "stroop-trial-1-incongruent-29", "trial_type": "html-keyboard-response", "trial_index": 95, "time_elapsed": 166621, "internal_node_id": "0.0-6.0-0.0"}}, {"uniqueid": "w46279930:a99785726", "current_trial": 96, "dateTime": 1664555110210, "trialdata": {"rt": 498, "stimulus": "<p id='stroop-text' class='stroop-blue'>STONE</p>", "response": "b", "stimulus-type": "unrelated", "word": "STONE", "color": "blue", "correct_response": "b", "trial_id": "stroop-trial-1-unrelated-23", "trial_type": "html-keyboard-response", "trial_index": 96, "time_elapsed": 167622, "internal_node_id": "0.0-6.0-1.0"}}, {"uniqueid": "w46279930:a99785726", "current_trial": 97, "dateTime": 1664555111412, "trialdata": {"rt": 699, "stimulus": "<p id='stroop-text' class='stroop-red'>RED</p>", "response": "r", "stimulus-type": "congruent", "word": "red", "color": "red", "correct_response": "r", "trial_id": "stroop-trial-1-congruent-12", "trial_type": "html-keyboard-response", "trial_index": 97, "time_elapsed": 168824, "internal_node_id": "0.0-6.0-2.0"}}, {"uniqueid": "w46279930:a99785726", "current_trial": 98, "dateTime": 1664555112937, "trialdata": {"rt": 1020, "stimulus": "<p id='stroop-text' class='stroop-red'>BLUE</p>", "response": "r", "stimulus-type": "incongruent", "word": "blue", "color": "red", "correct_response": "r", "trial_id": "stroop-trial-1-incongruent-18", "trial_type": "html-keyboard-response", "trial_index": 98, "time_elapsed": 170350, "internal_node_id": "0.0-6.0-3.0"}}, {"uniqueid": "w46279930:a99785726", "current_trial": 99, "dateTime": 1664555114124, "trialdata": {"rt": 683, "stimulus": "<p id='stroop-text' class='stroop-yellow'>GREEN</p>", "response": "y", "stimulus-type": "incongruent", "word": "green", "color": "yellow", "correct_response": "y", "trial_id": "stroop-trial-1-incongruent-6", "trial_type": "html-keyboard-response", "trial_index": 99, "time_elapsed": 171537, "internal_node_id": "0.0-6.0-4.0"}}, {"uniqueid": "w46279930:a99785726", "current_trial": 100, "dateTime": 1664555115739, "trialdata": {"rt": 1110, "stimulus": "<p id='stroop-text' class='stroop-blue'>RED</p>", "response": "b", "stimulus-type": "incongruent", "word": "red", "color": "blue", "correct_response": "b", "trial_id": "stroop-trial-1-incongruent-17", "trial_type": "html-keyboard-response", "trial_index": 100, "time_elapsed": 173152, "internal_node_id": "0.0-6.0-5.0"}}, {"uniqueid": "w46279930:a99785726", "current_trial": 101, "dateTime": 1664555116793, "trialdata": {"rt": 548, "stimulus": "<p id='stroop-text' class='stroop-blue'>BLUE</p>", "response": "b", "stimulus-type": "congruent", "word": "blue", "color": "blue", "correct_response": "b", "trial_id": "stroop-trial-1-congruent-2", "trial_type": "html-keyboard-response", "trial_index": 101, "time_elapsed": 174204, "internal_node_id": "0.0-6.0-6.0"}}, {"uniqueid": "w46279930:a99785726", "current_trial": 102, "dateTime": 1664555117894, "trialdata": {"rt": 598, "stimulus": "<p id='stroop-text' class='stroop-green'>MONKEY</p>", "response": "g", "stimulus-type": "unrelated", "word": "MONKEY", "color": "green", "correct_response": "g", "trial_id": "stroop-trial-1-unrelated-19", "trial_type": "html-keyboard-response", "trial_index": 102, "time_elapsed": 175306, "internal_node_id": "0.0-6.0-7.0"}}, {"uniqueid": "w46279930:a99785726", "current_trial": 103, "dateTime": 1664555118996, "trialdata": {"rt": 598, "stimulus": "<p id='stroop-text' class='stroop-red'>GREEN</p>", "response": "r", "stimulus-type": "incongruent", "word": "green", "color": "red", "correct_response": "r", "trial_id": "stroop-trial-1-incongruent-4", "trial_type": "html-keyboard-response", "trial_index": 103, "time_elapsed": 176409, "internal_node_id": "0.0-6.0-8.0"}}, {"uniqueid": "w46279930:a99785726", "current_trial": 104, "dateTime": 1664555119975, "trialdata": {"rt": 474, "stimulus": "<p id='stroop-text' class='stroop-yellow'>YELLOW</p>", "response": "y", "stimulus-type": "congruent", "word": "yellow", "color": "yellow", "correct_response": "y", "trial_id": "stroop-trial-1-congruent-17", "trial_type": "html-keyboard-response", "trial_index": 104, "time_elapsed": 177388, "internal_node_id": "0.0-6.0-9.0"}}, {"uniqueid": "w46279930:a99785726", "current_trial": 105, "dateTime": 1664555121300, "trialdata": {"rt": 821, "stimulus": "<p id='stroop-text' class='stroop-blue'>GREEN</p>", "response": "b", "stimulus-type": "incongruent", "word": "green", "color": "blue", "correct_response": "b", "trial_id": "stroop-trial-1-incongruent-5", "trial_type": "html-keyboard-response", "trial_index": 105, "time_elapsed": 178712, "internal_node_id": "0.0-6.0-10.0"}}, {"uniqueid": "w46279930:a99785726", "current_trial": 106, "dateTime": 1664555122646, "trialdata": {"rt": 843, "stimulus": "<p id='stroop-text' class='stroop-yellow'>STONE</p>", "response": "y", "stimulus-type": "unrelated", "word": "STONE", "color": "yellow", "correct_response": "y", "trial_id": "stroop-trial-1-unrelated-21", "trial_type": "html-keyboard-response", "trial_index": 106, "time_elapsed": 180059, "internal_node_id": "0.0-6.0-11.0"}}, {"uniqueid": "w46279930:a99785726", "current_trial": 107, "dateTime": 1664555123993, "trialdata": {"rt": 842, "stimulus": "<p id='stroop-text' class='stroop-red'>YELLOW</p>", "response": "r", "stimulus-type": "incongruent", "word": "yellow", "color": "red", "correct_response": "r", "trial_id": "stroop-trial-1-incongruent-15", "trial_type": "html-keyboard-response", "trial_index": 107, "time_elapsed": 181405, "internal_node_id": "0.0-6.0-12.0"}}, {"uniqueid": "w46279930:a99785726", "current_trial": 108, "dateTime": 1664555125149, "trialdata": {"rt": 652, "stimulus": "<p id='stroop-text' class='stroop-red'>BOAT</p>", "response": "r", "stimulus-type": "unrelated", "word": "BOAT", "color": "red", "correct_response": "r", "trial_id": "stroop-trial-1-unrelated-2", "trial_type": "html-keyboard-response", "trial_index": 108, "time_elapsed": 182561, "internal_node_id": "0.0-6.0-13.0"}}, {"uniqueid": "w46279930:a99785726", "current_trial": 109, "dateTime": 1664555126072, "trialdata": {"rt": 419, "stimulus": "<p id='stroop-text' class='stroop-red'>RED</p>", "response": "r", "stimulus-type": "congruent", "word": "red", "color": "red", "correct_response": "r", "trial_id": "stroop-trial-1-congruent-26", "trial_type": "html-keyboard-response", "trial_index": 109, "time_elapsed": 183485, "internal_node_id": "0.0-6.0-14.0"}}, {"uniqueid": "w46279930:a99785726", "current_trial": 110, "dateTime": 1664555127208, "trialdata": {"rt": 632, "stimulus": "<p id='stroop-text' class='stroop-yellow'>BRIDGE</p>", "response": "y", "stimulus-type": "unrelated", "word": "BRIDGE", "color": "yellow", "correct_response": "y", "trial_id": "stroop-trial-1-unrelated-20", "trial_type": "html-keyboard-response", "trial_index": 110, "time_elapsed": 184621, "internal_node_id": "0.0-6.0-15.0"}}, {"uniqueid": "w46279930:a99785726", "current_trial": 111, "dateTime": 1664555128275, "trialdata": {"rt": 561, "stimulus": "<p id='stroop-text' class='stroop-blue'>CHAIR</p>", "response": "b", "stimulus-type": "unrelated", "word": "CHAIR", "color": "blue", "correct_response": "b", "trial_id": "stroop-trial-1-unrelated-16", "trial_type": "html-keyboard-response", "trial_index": 111, "time_elapsed": 185687, "internal_node_id": "0.0-6.0-16.0"}}, {"uniqueid": "w46279930:a99785726", "current_trial": 112, "dateTime": 1664555129368, "trialdata": {"rt": 590, "stimulus": "<p id='stroop-text' class='stroop-blue'>BLUE</p>", "response": "b", "stimulus-type": "congruent", "word": "blue", "color": "blue", "correct_response": "b", "trial_id": "stroop-trial-1-congruent-20", "trial_type": "html-keyboard-response", "trial_index": 112, "time_elapsed": 186781, "internal_node_id": "0.0-6.0-17.0"}}, {"uniqueid": "w46279930:a99785726", "current_trial": 113, "dateTime": 1664555130524, "trialdata": {"rt": 653, "stimulus": "<p id='stroop-text' class='stroop-yellow'>YELLOW</p>", "response": "y", "stimulus-type": "congruent", "word": "yellow", "color": "yellow", "correct_response": "y", "trial_id": "stroop-trial-1-congruent-29", "trial_type": "html-keyboard-response", "trial_index": 113, "time_elapsed": 187937, "internal_node_id": "0.0-6.0-18.0"}}, {"uniqueid": "w46279930:a99785726", "current_trial": 114, "dateTime": 1664555131567, "trialdata": {"rt": 538, "stimulus": "<p id='stroop-text' class='stroop-blue'>BLUE</p>", "response": "b", "stimulus-type": "congruent", "word": "blue", "color": "blue", "correct_response": "b", "trial_id": "stroop-trial-1-congruent-9", "trial_type": "html-keyboard-response", "trial_index": 114, "time_elapsed": 188979, "internal_node_id": "0.0-6.0-19.0"}}, {"uniqueid": "w46279930:a99785726", "current_trial": 115, "dateTime": 1664555132550, "trialdata": {"rt": 479, "stimulus": "<p id='stroop-text' class='stroop-blue'>BLUE</p>", "response": "b", "stimulus-type": "congruent", "word": "blue", "color": "blue", "correct_response": "b", "trial_id": "stroop-trial-1-congruent-7", "trial_type": "html-keyboard-response", "trial_index": 115, "time_elapsed": 189962, "internal_node_id": "0.0-6.0-20.0"}}, {"uniqueid": "w46279930:a99785726", "current_trial": 116, "dateTime": 1664555133771, "trialdata": {"rt": 718, "stimulus": "<p id='stroop-text' class='stroop-yellow'>RED</p>", "response": "y", "stimulus-type": "incongruent", "word": "red", "color": "yellow", "correct_response": "y", "trial_id": "stroop-trial-1-incongruent-11", "trial_type": "html-keyboard-response", "trial_index": 116, "time_elapsed": 191183, "internal_node_id": "0.0-6.0-21.0"}}, {"uniqueid": "w46279930:a99785726", "current_trial": 117, "dateTime": 1664555134878, "trialdata": {"rt": 602, "stimulus": "<p id='stroop-text' class='stroop-blue'>BLUE</p>", "response": "b", "stimulus-type": "congruent", "word": "blue", "color": "blue", "correct_response": "b", "trial_id": "stroop-trial-1-congruent-11", "trial_type": "html-keyboard-response", "trial_index": 117, "time_elapsed": 192290, "internal_node_id": "0.0-6.0-22.0"}}, {"uniqueid": "w46279930:a99785726", "current_trial": 118, "dateTime": 1664555135920, "trialdata": {"rt": 538, "stimulus": "<p id='stroop-text' class='stroop-yellow'>FORK</p>", "response": "y", "stimulus-type": "unrelated", "word": "FORK", "color": "yellow", "correct_response": "y", "trial_id": "stroop-trial-1-unrelated-6", "trial_type": "html-keyboard-response", "trial_index": 118, "time_elapsed": 193332, "internal_node_id": "0.0-6.0-23.0"}}, {"uniqueid": "w46279930:a99785726", "current_trial": 119, "dateTime": 1664555137077, "trialdata": {"rt": 652, "stimulus": "<p id='stroop-text' class='stroop-yellow'>RED</p>", "response": "y", "stimulus-type": "incongruent", "word": "red", "color": "yellow", "correct_response": "y", "trial_id": "stroop-trial-1-incongruent-21", "trial_type": "html-keyboard-response", "trial_index": 119, "time_elapsed": 194489, "internal_node_id": "0.0-6.0-24.0"}}, {"uniqueid": "w46279930:a99785726", "current_trial": 120, "dateTime": 1664555138418, "trialdata": {"rt": 838, "stimulus": "<p id='stroop-text' class='stroop-green'>RED</p>", "response": "g", "stimulus-type": "incongruent", "word": "red", "color": "green", "correct_response": "g", "trial_id": "stroop-trial-1-incongruent-7", "trial_type": "html-keyboard-response", "trial_index": 120, "time_elapsed": 195831, "internal_node_id": "0.0-6.0-25.0"}}, {"uniqueid": "w46279930:a99785726", "current_trial": 121, "dateTime": 1664555139606, "trialdata": {"rt": 683, "stimulus": "<p id='stroop-text' class='stroop-yellow'>BOTTLE</p>", "response": "y", "stimulus-type": "unrelated", "word": "BOTTLE", "color": "yellow", "correct_response": "y", "trial_id": "stroop-trial-1-unrelated-9", "trial_type": "html-keyboard-response", "trial_index": 121, "time_elapsed": 197017, "internal_node_id": "0.0-6.0-26.0"}}, {"uniqueid": "w46279930:a99785726", "current_trial": 122, "dateTime": 1664555141336, "trialdata": {"rt": 1226, "stimulus": "<p id='stroop-text' class='stroop-blue'>GREEN</p>", "response": "b", "stimulus-type": "incongruent", "word": "green", "color": "blue", "correct_response": "b", "trial_id": "stroop-trial-1-incongruent-25", "trial_type": "html-keyboard-response", "trial_index": 122, "time_elapsed": 198749, "internal_node_id": "0.0-6.0-27.0"}}, {"uniqueid": "w46279930:a99785726", "current_trial": 123, "dateTime": 1664555142343, "trialdata": {"rt": 504, "stimulus": "<p id='stroop-text' class='stroop-yellow'>YELLOW</p>", "response": "y", "stimulus-type": "congruent", "word": "yellow", "color": "yellow", "correct_response": "y", "trial_id": "stroop-trial-1-congruent-13", "trial_type": "html-keyboard-response", "trial_index": 123, "time_elapsed": 199756, "internal_node_id": "0.0-6.0-28.0"}}, {"uniqueid": "w46279930:a99785726", "current_trial": 124, "dateTime": 1664555143654, "trialdata": {"rt": 807, "stimulus": "<p id='stroop-text' class='stroop-green'>BOAT</p>", "response": "g", "stimulus-type": "unrelated", "word": "BOAT", "color": "green", "correct_response": "g", "trial_id": "stroop-trial-1-unrelated-29", "trial_type": "html-keyboard-response", "trial_index": 124, "time_elapsed": 201067, "internal_node_id": "0.0-6.0-29.0"}}, {"uniqueid": "w46279930:a99785726", "current_trial": 125, "dateTime": 1664555144701, "trialdata": {"rt": 543, "stimulus": "<p id='stroop-text' class='stroop-blue'>BLUE</p>", "response": "b", "stimulus-type": "congruent", "word": "blue", "color": "blue", "correct_response": "b", "trial_id": "stroop-trial-1-congruent-15", "trial_type": "html-keyboard-response", "trial_index": 125, "time_elapsed": 202113, "internal_node_id": "0.0-6.0-30.0"}}, {"uniqueid": "w46279930:a99785726", "current_trial": 126, "dateTime": 1664555145648, "trialdata": {"rt": 442, "stimulus": "<p id='stroop-text' class='stroop-blue'>WINDOW</p>", "response": "b", "stimulus-type": "unrelated", "word": "WINDOW", "color": "blue", "correct_response": "b", "trial_id": "stroop-trial-1-unrelated-22", "trial_type": "html-keyboard-response", "trial_index": 126, "time_elapsed": 203060, "internal_node_id": "0.0-6.0-31.0"}}, {"uniqueid": "w46279930:a99785726", "current_trial": 127, "dateTime": 1664555146780, "trialdata": {"rt": 629, "stimulus": "<p id='stroop-text' class='stroop-green'>GREEN</p>", "response": "g", "stimulus-type": "congruent", "word": "green", "color": "green", "correct_response": "g", "trial_id": "stroop-trial-1-congruent-3", "trial_type": "html-keyboard-response", "trial_index": 127, "time_elapsed": 204193, "internal_node_id": "0.0-6.0-32.0"}}, {"uniqueid": "w46279930:a99785726", "current_trial": 128, "dateTime": 1664555148601, "trialdata": {"rt": 1316, "stimulus": "<p id='stroop-text' class='stroop-yellow'>BRAIN</p>", "response": "y", "stimulus-type": "unrelated", "word": "BRAIN", "color": "yellow", "correct_response": "y", "trial_id": "stroop-trial-1-unrelated-24", "trial_type": "html-keyboard-response", "trial_index": 128, "time_elapsed": 206012, "internal_node_id": "0.0-6.0-33.0"}}, {"uniqueid": "w46279930:a99785726", "current_trial": 129, "dateTime": 1664555149986, "trialdata": {"rt": 881, "stimulus": "<p id='stroop-text' class='stroop-yellow'>BLUE</p>", "response": "b", "stimulus-type": "incongruent", "word": "blue", "color": "yellow", "correct_response": "y", "trial_id": "stroop-trial-1-incongruent-30", "trial_type": "html-keyboard-response", "trial_index": 129, "time_elapsed": 207399, "internal_node_id": "0.0-6.0-34.0"}}, {"uniqueid": "w46279930:a99785726", "current_trial": 130, "dateTime": 1664555152361, "trialdata": {"rt": 1871, "stimulus": "<p id='stroop-text' class='stroop-green'>RED</p>", "response": "g", "stimulus-type": "incongruent", "word": "red", "color": "green", "correct_response": "g", "trial_id": "stroop-trial-1-incongruent-23", "trial_type": "html-keyboard-response", "trial_index": 130, "time_elapsed": 209773, "internal_node_id": "0.0-6.0-35.0"}}, {"uniqueid": "w46279930:a99785726", "current_trial": 131, "dateTime": 1664555153582, "trialdata": {"rt": 718, "stimulus": "<p id='stroop-text' class='stroop-red'>RED</p>", "response": "r", "stimulus-type": "congruent", "word": "red", "color": "red", "correct_response": "r", "trial_id": "stroop-trial-1-congruent-8", "trial_type": "html-keyboard-response", "trial_index": 131, "time_elapsed": 210995, "internal_node_id": "0.0-6.0-36.0"}}, {"uniqueid": "w46279930:a99785726", "current_trial": 132, "dateTime": 1664555155148, "trialdata": {"rt": 1063, "stimulus": "<p id='stroop-text' class='stroop-red'>YELLOW</p>", "response": "r", "stimulus-type": "incongruent", "word": "yellow", "color": "red", "correct_response": "r", "trial_id": "stroop-trial-1-incongruent-27", "trial_type": "html-keyboard-response", "trial_index": 132, "time_elapsed": 212561, "internal_node_id": "0.0-6.0-37.0"}}, {"uniqueid": "w46279930:a99785726", "current_trial": 133, "dateTime": 1664555156385, "trialdata": {"rt": 732, "stimulus": "<p id='stroop-text' class='stroop-yellow'>GREEN</p>", "response": "y", "stimulus-type": "incongruent", "word": "green", "color": "yellow", "correct_response": "y", "trial_id": "stroop-trial-1-incongruent-9", "trial_type": "html-keyboard-response", "trial_index": 133, "time_elapsed": 213797, "internal_node_id": "0.0-6.0-38.0"}}, {"uniqueid": "w46279930:a99785726", "current_trial": 134, "dateTime": 1664555157934, "trialdata": {"rt": 1047, "stimulus": "<p id='stroop-text' class='stroop-green'>YELLOW</p>", "response": "g", "stimulus-type": "incongruent", "word": "yellow", "color": "green", "correct_response": "g", "trial_id": "stroop-trial-1-incongruent-12", "trial_type": "html-keyboard-response", "trial_index": 134, "time_elapsed": 215347, "internal_node_id": "0.0-6.0-39.0"}}, {"uniqueid": "w46279930:a99785726", "current_trial": 135, "dateTime": 1664555158912, "trialdata": {"rt": 473, "stimulus": "<p id='stroop-text' class='stroop-blue'>BOAT</p>", "response": "b", "stimulus-type": "unrelated", "word": "BOAT", "color": "blue", "correct_response": "b", "trial_id": "stroop-trial-1-unrelated-5", "trial_type": "html-keyboard-response", "trial_index": 135, "time_elapsed": 216324, "internal_node_id": "0.0-6.0-40.0"}}, {"uniqueid": "w46279930:a99785726", "current_trial": 136, "dateTime": 1664555160064, "trialdata": {"rt": 648, "stimulus": "<p id='stroop-text' class='stroop-red'>RED</p>", "response": "r", "stimulus-type": "congruent", "word": "red", "color": "red", "correct_response": "r", "trial_id": "stroop-trial-1-congruent-18", "trial_type": "html-keyboard-response", "trial_index": 136, "time_elapsed": 217476, "internal_node_id": "0.0-6.0-41.0"}}, {"uniqueid": "w46279930:a99785726", "current_trial": 137, "dateTime": 1664555161340, "trialdata": {"rt": 772, "stimulus": "<p id='stroop-text' class='stroop-green'>GREEN</p>", "response": "g", "stimulus-type": "congruent", "word": "green", "color": "green", "correct_response": "g", "trial_id": "stroop-trial-1-congruent-4", "trial_type": "html-keyboard-response", "trial_index": 137, "time_elapsed": 218753, "internal_node_id": "0.0-6.0-42.0"}}, {"uniqueid": "w46279930:a99785726", "current_trial": 138, "dateTime": 1664555162300, "trialdata": {"rt": 456, "stimulus": "<p id='stroop-text' class='stroop-blue'>BLUE</p>", "response": "b", "stimulus-type": "congruent", "word": "blue", "color": "blue", "correct_response": "b", "trial_id": "stroop-trial-1-congruent-19", "trial_type": "html-keyboard-response", "trial_index": 138, "time_elapsed": 219711, "internal_node_id": "0.0-6.0-43.0"}}, {"uniqueid": "w46279930:a99785726", "current_trial": 139, "dateTime": 1664555163359, "trialdata": {"rt": 556, "stimulus": "<p id='stroop-text' class='stroop-blue'>BLUE</p>", "response": "b", "stimulus-type": "congruent", "word": "blue", "color": "blue", "correct_response": "b", "trial_id": "stroop-trial-1-congruent-16", "trial_type": "html-keyboard-response", "trial_index": 139, "time_elapsed": 220772, "internal_node_id": "0.0-6.0-44.0"}}, {"uniqueid": "w46279930:a99785726", "current_trial": 140, "dateTime": 1664555164915, "trialdata": {"rt": 1052, "stimulus": "<p id='stroop-text' class='stroop-yellow'>GREEN</p>", "response": "y", "stimulus-type": "incongruent", "word": "green", "color": "yellow", "correct_response": "y", "trial_id": "stroop-trial-1-incongruent-28", "trial_type": "html-keyboard-response", "trial_index": 140, "time_elapsed": 222327, "internal_node_id": "0.0-6.0-45.0"}}, {"uniqueid": "w46279930:a99785726", "current_trial": 141, "dateTime": 1664555166053, "trialdata": {"rt": 634, "stimulus": "<p id='stroop-text' class='stroop-yellow'>RED</p>", "response": "y", "stimulus-type": "incongruent", "word": "red", "color": "yellow", "correct_response": "y", "trial_id": "stroop-trial-1-incongruent-2", "trial_type": "html-keyboard-response", "trial_index": 141, "time_elapsed": 223465, "internal_node_id": "0.0-6.0-46.0"}}, {"uniqueid": "w46279930:a99785726", "current_trial": 142, "dateTime": 1664555167197, "trialdata": {"rt": 640, "stimulus": "<p id='stroop-text' class='stroop-green'>BLUE</p>", "response": "g", "stimulus-type": "incongruent", "word": "blue", "color": "green", "correct_response": "g", "trial_id": "stroop-trial-1-incongruent-3", "trial_type": "html-keyboard-response", "trial_index": 142, "time_elapsed": 224609, "internal_node_id": "0.0-6.0-47.0"}}, {"uniqueid": "w46279930:a99785726", "current_trial": 143, "dateTime": 1664555168273, "trialdata": {"rt": 572, "stimulus": "<p id='stroop-text' class='stroop-yellow'>YELLOW</p>", "response": "y", "stimulus-type": "congruent", "word": "yellow", "color": "yellow", "correct_response": "y", "trial_id": "stroop-trial-1-congruent-27", "trial_type": "html-keyboard-response", "trial_index": 143, "time_elapsed": 225685, "internal_node_id": "0.0-6.0-48.0"}}, {"uniqueid": "w46279930:a99785726", "current_trial": 144, "dateTime": 1664555169408, "trialdata": {"rt": 630, "stimulus": "<p id='stroop-text' class='stroop-red'>YELLOW</p>", "response": "r", "stimulus-type": "incongruent", "word": "yellow", "color": "red", "correct_response": "r", "trial_id": "stroop-trial-1-incongruent-13", "trial_type": "html-keyboard-response", "trial_index": 144, "time_elapsed": 226820, "internal_node_id": "0.0-6.0-49.0"}}, {"uniqueid": "w46279930:a99785726", "current_trial": 145, "dateTime": 1664555170834, "trialdata": {"rt": 923, "stimulus": "<p id='stroop-text' class='stroop-green'>GREEN</p>", "response": "g", "stimulus-type": "congruent", "word": "green", "color": "green", "correct_response": "g", "trial_id": "stroop-trial-1-congruent-23", "trial_type": "html-keyboard-response", "trial_index": 145, "time_elapsed": 228246, "internal_node_id": "0.0-6.0-50.0"}}, {"uniqueid": "w46279930:a99785726", "current_trial": 146, "dateTime": 1664555171947, "trialdata": {"rt": 611, "stimulus": "<p id='stroop-text' class='stroop-green'>GREEN</p>", "response": "g", "stimulus-type": "congruent", "word": "green", "color": "green", "correct_response": "g", "trial_id": "stroop-trial-1-congruent-5", "trial_type": "html-keyboard-response", "trial_index": 146, "time_elapsed": 229359, "internal_node_id": "0.0-6.0-51.0"}}, {"uniqueid": "w46279930:a99785726", "current_trial": 147, "dateTime": 1664555172969, "trialdata": {"rt": 518, "stimulus": "<p id='stroop-text' class='stroop-green'>GREEN</p>", "response": "g", "stimulus-type": "congruent", "word": "green", "color": "green", "correct_response": "g", "trial_id": "stroop-trial-1-congruent-22", "trial_type": "html-keyboard-response", "trial_index": 147, "time_elapsed": 230381, "internal_node_id": "0.0-6.0-52.0"}}, {"uniqueid": "w46279930:a99785726", "current_trial": 148, "dateTime": 1664555174278, "trialdata": {"rt": 806, "stimulus": "<p id='stroop-text' class='stroop-red'>WINDOW</p>", "response": "r", "stimulus-type": "unrelated", "word": "WINDOW", "color": "red", "correct_response": "r", "trial_id": "stroop-trial-1-unrelated-14", "trial_type": "html-keyboard-response", "trial_index": 148, "time_elapsed": 231690, "internal_node_id": "0.0-6.0-53.0"}}, {"uniqueid": "w46279930:a99785726", "current_trial": 149, "dateTime": 1664555175468, "trialdata": {"rt": 684, "stimulus": "<p id='stroop-text' class='stroop-blue'>WINDOW</p>", "response": "b", "stimulus-type": "unrelated", "word": "WINDOW", "color": "blue", "correct_response": "b", "trial_id": "stroop-trial-1-unrelated-10", "trial_type": "html-keyboard-response", "trial_index": 149, "time_elapsed": 232879, "internal_node_id": "0.0-6.0-54.0"}}, {"uniqueid": "w46279930:a99785726", "current_trial": 150, "dateTime": 1664555176908, "trialdata": {"rt": 936, "stimulus": "<p id='stroop-text' class='stroop-yellow'>GREEN</p>", "response": "g", "stimulus-type": "incongruent", "word": "green", "color": "yellow", "correct_response": "y", "trial_id": "stroop-trial-1-incongruent-14", "trial_type": "html-keyboard-response", "trial_index": 150, "time_elapsed": 234320, "internal_node_id": "0.0-6.0-55.0"}}, {"uniqueid": "w46279930:a99785726", "current_trial": 151, "dateTime": 1664555178504, "trialdata": {"rt": 1092, "stimulus": "<p id='stroop-text' class='stroop-yellow'>MONKEY</p>", "response": "y", "stimulus-type": "unrelated", "word": "MONKEY", "color": "yellow", "correct_response": "y", "trial_id": "stroop-trial-1-unrelated-27", "trial_type": "html-keyboard-response", "trial_index": 151, "time_elapsed": 235917, "internal_node_id": "0.0-6.0-56.0"}}, {"uniqueid": "w46279930:a99785726", "current_trial": 152, "dateTime": 1664555179581, "trialdata": {"rt": 572, "stimulus": "<p id='stroop-text' class='stroop-yellow'>DOG</p>", "response": "y", "stimulus-type": "unrelated", "word": "DOG", "color": "yellow", "correct_response": "y", "trial_id": "stroop-trial-1-unrelated-28", "trial_type": "html-keyboard-response", "trial_index": 152, "time_elapsed": 236993, "internal_node_id": "0.0-6.0-57.0"}}, {"uniqueid": "w46279930:a99785726", "current_trial": 153, "dateTime": 1664555182647, "trialdata": {"rt": 2562, "stimulus": "<p id='stroop-text' class='stroop-green'>FORK</p>", "response": "g", "stimulus-type": "unrelated", "word": "FORK", "color": "green", "correct_response": "g", "trial_id": "stroop-trial-1-unrelated-8", "trial_type": "html-keyboard-response", "trial_index": 153, "time_elapsed": 240059, "internal_node_id": "0.0-6.0-58.0"}}, {"uniqueid": "w46279930:a99785726", "current_trial": 154, "dateTime": 1664555184303, "trialdata": {"rt": 1151, "stimulus": "<p id='stroop-text' class='stroop-blue'>WINDOW</p>", "response": "b", "stimulus-type": "unrelated", "word": "WINDOW", "color": "blue", "correct_response": "b", "trial_id": "stroop-trial-1-unrelated-30", "trial_type": "html-keyboard-response", "trial_index": 154, "time_elapsed": 241715, "internal_node_id": "0.0-6.0-59.0"}}, {"uniqueid": "w46279930:a99785726", "current_trial": 155, "dateTime": 1664555185929, "trialdata": {"rt": 1123, "stimulus": "<p id='stroop-text' class='stroop-red'>GREEN</p>", "response": "r", "stimulus-type": "incongruent", "word": "green", "color": "red", "correct_response": "r", "trial_id": "stroop-trial-1-incongruent-24", "trial_type": "html-keyboard-response", "trial_index": 155, "time_elapsed": 243341, "internal_node_id": "0.0-6.0-60.0"}}, {"uniqueid": "w46279930:a99785726", "current_trial": 156, "dateTime": 1664555187464, "trialdata": {"rt": 1031, "stimulus": "<p id='stroop-text' class='stroop-red'>BLUE</p>", "response": "r", "stimulus-type": "incongruent", "word": "blue", "color": "red", "correct_response": "r", "trial_id": "stroop-trial-1-incongruent-19", "trial_type": "html-keyboard-response", "trial_index": 156, "time_elapsed": 244876, "internal_node_id": "0.0-6.0-61.0"}}, {"uniqueid": "w46279930:a99785726", "current_trial": 157, "dateTime": 1664555188935, "trialdata": {"rt": 967, "stimulus": "<p id='stroop-text' class='stroop-green'>GREEN</p>", "response": "g", "stimulus-type": "congruent", "word": "green", "color": "green", "correct_response": "g", "trial_id": "stroop-trial-1-congruent-25", "trial_type": "html-keyboard-response", "trial_index": 157, "time_elapsed": 246347, "internal_node_id": "0.0-6.0-62.0"}}, {"uniqueid": "w46279930:a99785726", "current_trial": 158, "dateTime": 1664555190107, "trialdata": {"rt": 667, "stimulus": "<p id='stroop-text' class='stroop-red'>RED</p>", "response": "r", "stimulus-type": "congruent", "word": "red", "color": "red", "correct_response": "r", "trial_id": "stroop-trial-1-congruent-30", "trial_type": "html-keyboard-response", "trial_index": 158, "time_elapsed": 247519, "internal_node_id": "0.0-6.0-63.0"}}, {"uniqueid": "w46279930:a99785726", "current_trial": 159, "dateTime": 1664555191369, "trialdata": {"rt": 757, "stimulus": "<p id='stroop-text' class='stroop-yellow'>FORK</p>", "response": "y", "stimulus-type": "unrelated", "word": "FORK", "color": "yellow", "correct_response": "y", "trial_id": "stroop-trial-1-unrelated-15", "trial_type": "html-keyboard-response", "trial_index": 159, "time_elapsed": 248781, "internal_node_id": "0.0-6.0-64.0"}}, {"uniqueid": "w46279930:a99785726", "current_trial": 160, "dateTime": 1664555192853, "trialdata": {"rt": 981, "stimulus": "<p id='stroop-text' class='stroop-blue'>RED</p>", "response": "b", "stimulus-type": "incongruent", "word": "red", "color": "blue", "correct_response": "b", "trial_id": "stroop-trial-1-incongruent-8", "trial_type": "html-keyboard-response", "trial_index": 160, "time_elapsed": 250266, "internal_node_id": "0.0-6.0-65.0"}}, {"uniqueid": "w46279930:a99785726", "current_trial": 161, "dateTime": 1664555194380, "trialdata": {"rt": 1024, "stimulus": "<p id='stroop-text' class='stroop-blue'>YELLOW</p>", "response": "b", "stimulus-type": "incongruent", "word": "yellow", "color": "blue", "correct_response": "b", "trial_id": "stroop-trial-1-incongruent-1", "trial_type": "html-keyboard-response", "trial_index": 161, "time_elapsed": 251793, "internal_node_id": "0.0-6.0-66.0"}}, {"uniqueid": "w46279930:a99785726", "current_trial": 162, "dateTime": 1664555195517, "trialdata": {"rt": 632, "stimulus": "<p id='stroop-text' class='stroop-green'>GREEN</p>", "response": "g", "stimulus-type": "congruent", "word": "green", "color": "green", "correct_response": "g", "trial_id": "stroop-trial-1-congruent-21", "trial_type": "html-keyboard-response", "trial_index": 162, "time_elapsed": 252929, "internal_node_id": "0.0-6.0-67.0"}}, {"uniqueid": "w46279930:a99785726", "current_trial": 163, "dateTime": 1664555196679, "trialdata": {"rt": 657, "stimulus": "<p id='stroop-text' class='stroop-green'>BOTTLE</p>", "response": "g", "stimulus-type": "unrelated", "word": "BOTTLE", "color": "green", "correct_response": "g", "trial_id": "stroop-trial-1-unrelated-12", "trial_type": "html-keyboard-response", "trial_index": 163, "time_elapsed": 254091, "internal_node_id": "0.0-6.0-68.0"}}, {"uniqueid": "w46279930:a99785726", "current_trial": 164, "dateTime": 1664555197860, "trialdata": {"rt": 677, "stimulus": "<p id='stroop-text' class='stroop-blue'>FORK</p>", "response": "b", "stimulus-type": "unrelated", "word": "FORK", "color": "blue", "correct_response": "b", "trial_id": "stroop-trial-1-unrelated-11", "trial_type": "html-keyboard-response", "trial_index": 164, "time_elapsed": 255272, "internal_node_id": "0.0-6.0-69.0"}}, {"uniqueid": "w46279930:a99785726", "current_trial": 165, "dateTime": 1664555199507, "trialdata": {"rt": 1143, "stimulus": "<p id='stroop-text' class='stroop-yellow'>GREEN</p>", "response": "y", "stimulus-type": "incongruent", "word": "green", "color": "yellow", "correct_response": "y", "trial_id": "stroop-trial-1-incongruent-22", "trial_type": "html-keyboard-response", "trial_index": 165, "time_elapsed": 256919, "internal_node_id": "0.0-6.0-70.0"}}, {"uniqueid": "w46279930:a99785726", "current_trial": 166, "dateTime": 1664555200659, "trialdata": {"rt": 649, "stimulus": "<p id='stroop-text' class='stroop-blue'>BRIDGE</p>", "response": "b", "stimulus-type": "unrelated", "word": "BRIDGE", "color": "blue", "correct_response": "b", "trial_id": "stroop-trial-1-unrelated-1", "trial_type": "html-keyboard-response", "trial_index": 166, "time_elapsed": 258071, "internal_node_id": "0.0-6.0-71.0"}}, {"uniqueid": "w46279930:a99785726", "current_trial": 167, "dateTime": 1664555201671, "trialdata": {"rt": 507, "stimulus": "<p id='stroop-text' class='stroop-yellow'>YELLOW</p>", "response": "y", "stimulus-type": "congruent", "word": "yellow", "color": "yellow", "correct_response": "y", "trial_id": "stroop-trial-1-congruent-1", "trial_type": "html-keyboard-response", "trial_index": 167, "time_elapsed": 259082, "internal_node_id": "0.0-6.0-72.0"}}, {"uniqueid": "w46279930:a99785726", "current_trial": 168, "dateTime": 1664555202822, "trialdata": {"rt": 648, "stimulus": "<p id='stroop-text' class='stroop-yellow'>BLUE</p>", "response": "y", "stimulus-type": "incongruent", "word": "blue", "color": "yellow", "correct_response": "y", "trial_id": "stroop-trial-1-incongruent-16", "trial_type": "html-keyboard-response", "trial_index": 168, "time_elapsed": 260235, "internal_node_id": "0.0-6.0-73.0"}}, {"uniqueid": "w46279930:a99785726", "current_trial": 169, "dateTime": 1664555203725, "trialdata": {"rt": 398, "stimulus": "<p id='stroop-text' class='stroop-yellow'>YELLOW</p>", "response": "y", "stimulus-type": "congruent", "word": "yellow", "color": "yellow", "correct_response": "y", "trial_id": "stroop-trial-1-congruent-6", "trial_type": "html-keyboard-response", "trial_index": 169, "time_elapsed": 261138, "internal_node_id": "0.0-6.0-74.0"}}, {"uniqueid": "w46279930:a99785726", "current_trial": 170, "dateTime": 1664555204826, "trialdata": {"rt": 598, "stimulus": "<p id='stroop-text' class='stroop-blue'>BLUE</p>", "response": "b", "stimulus-type": "congruent", "word": "blue", "color": "blue", "correct_response": "b", "trial_id": "stroop-trial-1-congruent-28", "trial_type": "html-keyboard-response", "trial_index": 170, "time_elapsed": 262238, "internal_node_id": "0.0-6.0-75.0"}}, {"uniqueid": "w46279930:a99785726", "current_trial": 171, "dateTime": 1664555206392, "trialdata": {"rt": 1062, "stimulus": "<p id='stroop-text' class='stroop-yellow'>BLUE</p>", "response": "y", "stimulus-type": "incongruent", "word": "blue", "color": "yellow", "correct_response": "y", "trial_id": "stroop-trial-1-incongruent-26", "trial_type": "html-keyboard-response", "trial_index": 171, "time_elapsed": 263805, "internal_node_id": "0.0-6.0-76.0"}}, {"uniqueid": "w46279930:a99785726", "current_trial": 172, "dateTime": 1664555207350, "trialdata": {"rt": 454, "stimulus": "<p id='stroop-text' class='stroop-yellow'>BOAT</p>", "response": "y", "stimulus-type": "unrelated", "word": "BOAT", "color": "yellow", "correct_response": "y", "trial_id": "stroop-trial-1-unrelated-13", "trial_type": "html-keyboard-response", "trial_index": 172, "time_elapsed": 264763, "internal_node_id": "0.0-6.0-77.0"}}, {"uniqueid": "w46279930:a99785726", "current_trial": 173, "dateTime": 1664555208382, "trialdata": {"rt": 528, "stimulus": "<p id='stroop-text' class='stroop-yellow'>WINDOW</p>", "response": "y", "stimulus-type": "unrelated", "word": "WINDOW", "color": "yellow", "correct_response": "y", "trial_id": "stroop-trial-1-unrelated-18", "trial_type": "html-keyboard-response", "trial_index": 173, "time_elapsed": 265794, "internal_node_id": "0.0-6.0-78.0"}}, {"uniqueid": "w46279930:a99785726", "current_trial": 174, "dateTime": 1664555209648, "trialdata": {"rt": 763, "stimulus": "<p id='stroop-text' class='stroop-green'>STONE</p>", "response": "g", "stimulus-type": "unrelated", "word": "STONE", "color": "green", "correct_response": "g", "trial_id": "stroop-trial-1-unrelated-25", "trial_type": "html-keyboard-response", "trial_index": 174, "time_elapsed": 267061, "internal_node_id": "0.0-6.0-79.0"}}, {"uniqueid": "w46279930:a99785726", "current_trial": 175, "dateTime": 1664555212253, "trialdata": {"rt": 2098, "stimulus": "<p id='stroop-text' class='stroop-red'>RED</p>", "response": "r", "stimulus-type": "congruent", "word": "red", "color": "red", "correct_response": "r", "trial_id": "stroop-trial-1-congruent-14", "trial_type": "html-keyboard-response", "trial_index": 175, "time_elapsed": 269664, "internal_node_id": "0.0-6.0-80.0"}}, {"uniqueid": "w46279930:a99785726", "current_trial": 176, "dateTime": 1664555215175, "trialdata": {"rt": 2417, "stimulus": "<p id='stroop-text' class='stroop-blue'>GREEN</p>", "response": "y", "stimulus-type": "incongruent", "word": "green", "color": "blue", "correct_response": "b", "trial_id": "stroop-trial-1-incongruent-10", "trial_type": "html-keyboard-response", "trial_index": 176, "time_elapsed": 272586, "internal_node_id": "0.0-6.0-81.0"}}, {"uniqueid": "w46279930:a99785726", "current_trial": 177, "dateTime": 1664555217567, "trialdata": {"rt": 1888, "stimulus": "<p id='stroop-text' class='stroop-yellow'>BRIDGE</p>", "response": "y", "stimulus-type": "unrelated", "word": "BRIDGE", "color": "yellow", "correct_response": "y", "trial_id": "stroop-trial-1-unrelated-7", "trial_type": "html-keyboard-response", "trial_index": 177, "time_elapsed": 274980, "internal_node_id": "0.0-6.0-82.0"}}, {"uniqueid": "w46279930:a99785726", "current_trial": 178, "dateTime": 1664555219477, "trialdata": {"rt": 1406, "stimulus": "<p id='stroop-text' class='stroop-blue'>WINDOW</p>", "response": "b", "stimulus-type": "unrelated", "word": "WINDOW", "color": "blue", "correct_response": "b", "trial_id": "stroop-trial-1-unrelated-3", "trial_type": "html-keyboard-response", "trial_index": 178, "time_elapsed": 276889, "internal_node_id": "0.0-6.0-83.0"}}, {"uniqueid": "w46279930:a99785726", "current_trial": 179, "dateTime": 1664555220574, "trialdata": {"rt": 593, "stimulus": "<p id='stroop-text' class='stroop-blue'>YELLOW</p>", "response": "b", "stimulus-type": "incongruent", "word": "yellow", "color": "blue", "correct_response": "b", "trial_id": "stroop-trial-1-incongruent-20", "trial_type": "html-keyboard-response", "trial_index": 179, "time_elapsed": 277986, "internal_node_id": "0.0-6.0-84.0"}}, {"uniqueid": "w46279930:a99785726", "current_trial": 180, "dateTime": 1664555221691, "trialdata": {"rt": 613, "stimulus": "<p id='stroop-text' class='stroop-yellow'>FORK</p>", "response": "y", "stimulus-type": "unrelated", "word": "FORK", "color": "yellow", "correct_response": "y", "trial_id": "stroop-trial-1-unrelated-26", "trial_type": "html-keyboard-response", "trial_index": 180, "time_elapsed": 279103, "internal_node_id": "0.0-6.0-85.0"}}, {"uniqueid": "w46279930:a99785726", "current_trial": 181, "dateTime": 1664555222708, "trialdata": {"rt": 512, "stimulus": "<p id='stroop-text' class='stroop-blue'>BLUE</p>", "response": "b", "stimulus-type": "congruent", "word": "blue", "color": "blue", "correct_response": "b", "trial_id": "stroop-trial-1-congruent-10", "trial_type": "html-keyboard-response", "trial_index": 181, "time_elapsed": 280121, "internal_node_id": "0.0-6.0-86.0"}}, {"uniqueid": "w46279930:a99785726", "current_trial": 182, "dateTime": 1664555223811, "trialdata": {"rt": 597, "stimulus": "<p id='stroop-text' class='stroop-green'>BRIDGE</p>", "response": "g", "stimulus-type": "unrelated", "word": "BRIDGE", "color": "green", "correct_response": "g", "trial_id": "stroop-trial-1-unrelated-4", "trial_type": "html-keyboard-response", "trial_index": 182, "time_elapsed": 281223, "internal_node_id": "0.0-6.0-87.0"}}, {"uniqueid": "w46279930:a99785726", "current_trial": 183, "dateTime": 1664555224857, "trialdata": {"rt": 542, "stimulus": "<p id='stroop-text' class='stroop-yellow'>YELLOW</p>", "response": "y", "stimulus-type": "congruent", "word": "yellow", "color": "yellow", "correct_response": "y", "trial_id": "stroop-trial-1-congruent-24", "trial_type": "html-keyboard-response", "trial_index": 183, "time_elapsed": 282270, "internal_node_id": "0.0-6.0-88.0"}}, {"uniqueid": "w46279930:a99785726", "current_trial": 184, "dateTime": 1664555225954, "trialdata": {"rt": 592, "stimulus": "<p id='stroop-text' class='stroop-blue'>MONKEY</p>", "response": "b", "stimulus-type": "unrelated", "word": "MONKEY", "color": "blue", "correct_response": "b", "trial_id": "stroop-trial-1-unrelated-17", "trial_type": "html-keyboard-response", "trial_index": 184, "time_elapsed": 283367, "internal_node_id": "0.0-6.0-89.0"}}, {"uniqueid": "w46279930:a99785726", "current_trial": 185, "dateTime": 1664555227605, "trialdata": {"rt": 1145, "stimulus": "  <h1> End of block! </h1>\n\n  You have reached the end of the block 2/5. If you need a short break, feel free to take one now before moving on.\n\n  <br><br>\n  In the next block, you will complete another 90 rounds of this game.\n\n  <br><br>\n  <div style='text-align: center;'>Press <code>space</code> to begin.</div>\n  <br><br>\n<div style='text-align: center;'>(If the experiment doesn't continue, try clicking on the text and then pressing <code>space</code>.)</div>", "response": " ", "trial_id": "stroop_1_ready_3", "trial_type": "html-keyboard-response", "trial_index": 185, "time_elapsed": 285018, "internal_node_id": "0.0-7.0"}}, {"uniqueid": "w46279930:a99785726", "current_trial": 186, "dateTime": 1664555228477, "trialdata": {"rt": 867, "stimulus": "<p id='stroop-text' class='stroop-yellow'>YELLOW</p>", "response": "y", "stimulus-type": "congruent", "word": "yellow", "color": "yellow", "correct_response": "y", "trial_id": "stroop-trial-1-congruent-21", "trial_type": "html-keyboard-response", "trial_index": 186, "time_elapsed": 285890, "internal_node_id": "0.0-8.0-0.0"}}, {"uniqueid": "w46279930:a99785726", "current_trial": 187, "dateTime": 1664555229450, "trialdata": {"rt": 468, "stimulus": "<p id='stroop-text' class='stroop-yellow'>YELLOW</p>", "response": "y", "stimulus-type": "congruent", "word": "yellow", "color": "yellow", "correct_response": "y", "trial_id": "stroop-trial-1-congruent-23", "trial_type": "html-keyboard-response", "trial_index": 187, "time_elapsed": 286862, "internal_node_id": "0.0-8.0-1.0"}}, {"uniqueid": "w46279930:a99785726", "current_trial": 188, "dateTime": 1664555230860, "trialdata": {"rt": 906, "stimulus": "<p id='stroop-text' class='stroop-green'>FORK</p>", "response": "g", "stimulus-type": "unrelated", "word": "FORK", "color": "green", "correct_response": "g", "trial_id": "stroop-trial-1-unrelated-3", "trial_type": "html-keyboard-response", "trial_index": 188, "time_elapsed": 288273, "internal_node_id": "0.0-8.0-2.0"}}, {"uniqueid": "w46279930:a99785726", "current_trial": 189, "dateTime": 1664555231963, "trialdata": {"rt": 599, "stimulus": "<p id='stroop-text' class='stroop-yellow'>BRAIN</p>", "response": "y", "stimulus-type": "unrelated", "word": "BRAIN", "color": "yellow", "correct_response": "y", "trial_id": "stroop-trial-1-unrelated-2", "trial_type": "html-keyboard-response", "trial_index": 189, "time_elapsed": 289376, "internal_node_id": "0.0-8.0-3.0"}}, {"uniqueid": "w46279930:a99785726", "current_trial": 190, "dateTime": 1664555233299, "trialdata": {"rt": 831, "stimulus": "<p id='stroop-text' class='stroop-blue'>GREEN</p>", "response": "b", "stimulus-type": "incongruent", "word": "green", "color": "blue", "correct_response": "b", "trial_id": "stroop-trial-1-incongruent-8", "trial_type": "html-keyboard-response", "trial_index": 190, "time_elapsed": 290712, "internal_node_id": "0.0-8.0-4.0"}}, {"uniqueid": "w46279930:a99785726", "current_trial": 191, "dateTime": 1664555234297, "trialdata": {"rt": 494, "stimulus": "<p id='stroop-text' class='stroop-yellow'>YELLOW</p>", "response": "y", "stimulus-type": "congruent", "word": "yellow", "color": "yellow", "correct_response": "y", "trial_id": "stroop-trial-1-congruent-27", "trial_type": "html-keyboard-response", "trial_index": 191, "time_elapsed": 291709, "internal_node_id": "0.0-8.0-5.0"}}, {"uniqueid": "w46279930:a99785726", "current_trial": 192, "dateTime": 1664555235254, "trialdata": {"rt": 453, "stimulus": "<p id='stroop-text' class='stroop-yellow'>YELLOW</p>", "response": "y", "stimulus-type": "congruent", "word": "yellow", "color": "yellow", "correct_response": "y", "trial_id": "stroop-trial-1-congruent-26", "trial_type": "html-keyboard-response", "trial_index": 192, "time_elapsed": 292667, "internal_node_id": "0.0-8.0-6.0"}}, {"uniqueid": "w46279930:a99785726", "current_trial": 193, "dateTime": 1664555236191, "trialdata": {"rt": 434, "stimulus": "<p id='stroop-text' class='stroop-red'>RED</p>", "response": "r", "stimulus-type": "congruent", "word": "red", "color": "red", "correct_response": "r", "trial_id": "stroop-trial-1-congruent-14", "trial_type": "html-keyboard-response", "trial_index": 193, "time_elapsed": 293604, "internal_node_id": "0.0-8.0-7.0"}}, {"uniqueid": "w46279930:a99785726", "current_trial": 194, "dateTime": 1664555237159, "trialdata": {"rt": 463, "stimulus": "<p id='stroop-text' class='stroop-red'>YELLOW</p>", "response": "r", "stimulus-type": "incongruent", "word": "yellow", "color": "red", "correct_response": "r", "trial_id": "stroop-trial-1-incongruent-29", "trial_type": "html-keyboard-response", "trial_index": 194, "time_elapsed": 294571, "internal_node_id": "0.0-8.0-8.0"}}, {"uniqueid": "w46279930:a99785726", "current_trial": 195, "dateTime": 1664555238277, "trialdata": {"rt": 615, "stimulus": "<p id='stroop-text' class='stroop-blue'>WINDOW</p>", "response": "b", "stimulus-type": "unrelated", "word": "WINDOW", "color": "blue", "correct_response": "b", "trial_id": "stroop-trial-1-unrelated-7", "trial_type": "html-keyboard-response", "trial_index": 195, "time_elapsed": 295689, "internal_node_id": "0.0-8.0-9.0"}}, {"uniqueid": "w46279930:a99785726", "current_trial": 196, "dateTime": 1664555239229, "trialdata": {"rt": 447, "stimulus": "<p id='stroop-text' class='stroop-yellow'>YELLOW</p>", "response": "y", "stimulus-type": "congruent", "word": "yellow", "color": "yellow", "correct_response": "y", "trial_id": "stroop-trial-1-congruent-15", "trial_type": "html-keyboard-response", "trial_index": 196, "time_elapsed": 296642, "internal_node_id": "0.0-8.0-10.0"}}, {"uniqueid": "w46279930:a99785726", "current_trial": 197, "dateTime": 1664555240520, "trialdata": {"rt": 786, "stimulus": "<p id='stroop-text' class='stroop-green'>YELLOW</p>", "response": "g", "stimulus-type": "incongruent", "word": "yellow", "color": "green", "correct_response": "g", "trial_id": "stroop-trial-1-incongruent-25", "trial_type": "html-keyboard-response", "trial_index": 197, "time_elapsed": 297932, "internal_node_id": "0.0-8.0-11.0"}}, {"uniqueid": "w46279930:a99785726", "current_trial": 198, "dateTime": 1664555241881, "trialdata": {"rt": 857, "stimulus": "<p id='stroop-text' class='stroop-blue'>YELLOW</p>", "response": "b", "stimulus-type": "incongruent", "word": "yellow", "color": "blue", "correct_response": "b", "trial_id": "stroop-trial-1-incongruent-12", "trial_type": "html-keyboard-response", "trial_index": 198, "time_elapsed": 299294, "internal_node_id": "0.0-8.0-12.0"}}, {"uniqueid": "w46279930:a99785726", "current_trial": 199, "dateTime": 1664555242933, "trialdata": {"rt": 547, "stimulus": "<p id='stroop-text' class='stroop-blue'>RED</p>", "response": "r", "stimulus-type": "incongruent", "word": "red", "color": "blue", "correct_response": "b", "trial_id": "stroop-trial-1-incongruent-3", "trial_type": "html-keyboard-response", "trial_index": 199, "time_elapsed": 300346, "internal_node_id": "0.0-8.0-13.0"}}, {"uniqueid": "w46279930:a99785726", "current_trial": 200, "dateTime": 1664555244111, "trialdata": {"rt": 672, "stimulus": "<p id='stroop-text' class='stroop-yellow'>YELLOW</p>", "response": "y", "stimulus-type": "congruent", "word": "yellow", "color": "yellow", "correct_response": "y", "trial_id": "stroop-trial-1-congruent-8", "trial_type": "html-keyboard-response", "trial_index": 200, "time_elapsed": 301523, "internal_node_id": "0.0-8.0-14.0"}}, {"uniqueid": "w46279930:a99785726", "current_trial": 201, "dateTime": 1664555245262, "trialdata": {"rt": 647, "stimulus": "<p id='stroop-text' class='stroop-yellow'>YELLOW</p>", "response": "y", "stimulus-type": "congruent", "word": "yellow", "color": "yellow", "correct_response": "y", "trial_id": "stroop-trial-1-congruent-3", "trial_type": "html-keyboard-response", "trial_index": 201, "time_elapsed": 302674, "internal_node_id": "0.0-8.0-15.0"}}, {"uniqueid": "w46279930:a99785726", "current_trial": 202, "dateTime": 1664555246519, "trialdata": {"rt": 752, "stimulus": "<p id='stroop-text' class='stroop-green'>BLUE</p>", "response": "g", "stimulus-type": "incongruent", "word": "blue", "color": "green", "correct_response": "g", "trial_id": "stroop-trial-1-incongruent-1", "trial_type": "html-keyboard-response", "trial_index": 202, "time_elapsed": 303932, "internal_node_id": "0.0-8.0-16.0"}}, {"uniqueid": "w46279930:a99785726", "current_trial": 203, "dateTime": 1664555247660, "trialdata": {"rt": 636, "stimulus": "<p id='stroop-text' class='stroop-red'>BOTTLE</p>", "response": "r", "stimulus-type": "unrelated", "word": "BOTTLE", "color": "red", "correct_response": "r", "trial_id": "stroop-trial-1-unrelated-12", "trial_type": "html-keyboard-response", "trial_index": 203, "time_elapsed": 305073, "internal_node_id": "0.0-8.0-17.0"}}, {"uniqueid": "w46279930:a99785726", "current_trial": 204, "dateTime": 1664555248922, "trialdata": {"rt": 758, "stimulus": "<p id='stroop-text' class='stroop-green'>BLUE</p>", "response": "g", "stimulus-type": "incongruent", "word": "blue", "color": "green", "correct_response": "g", "trial_id": "stroop-trial-1-incongruent-16", "trial_type": "html-keyboard-response", "trial_index": 204, "time_elapsed": 306335, "internal_node_id": "0.0-8.0-18.0"}}, {"uniqueid": "w46279930:a99785726", "current_trial": 205, "dateTime": 1664555250223, "trialdata": {"rt": 797, "stimulus": "<p id='stroop-text' class='stroop-yellow'>GREEN</p>", "response": "y", "stimulus-type": "incongruent", "word": "green", "color": "yellow", "correct_response": "y", "trial_id": "stroop-trial-1-incongruent-15", "trial_type": "html-keyboard-response", "trial_index": 205, "time_elapsed": 307636, "internal_node_id": "0.0-8.0-19.0"}}, {"uniqueid": "w46279930:a99785726", "current_trial": 206, "dateTime": 1664555251415, "trialdata": {"rt": 689, "stimulus": "<p id='stroop-text' class='stroop-blue'>DOG</p>", "response": "b", "stimulus-type": "unrelated", "word": "DOG", "color": "blue", "correct_response": "b", "trial_id": "stroop-trial-1-unrelated-11", "trial_type": "html-keyboard-response", "trial_index": 206, "time_elapsed": 308828, "internal_node_id": "0.0-8.0-20.0"}}, {"uniqueid": "w46279930:a99785726", "current_trial": 207, "dateTime": 1664555252468, "trialdata": {"rt": 548, "stimulus": "<p id='stroop-text' class='stroop-red'>RED</p>", "response": "r", "stimulus-type": "congruent", "word": "red", "color": "red", "correct_response": "r", "trial_id": "stroop-trial-1-congruent-17", "trial_type": "html-keyboard-response", "trial_index": 207, "time_elapsed": 309880, "internal_node_id": "0.0-8.0-21.0"}}, {"uniqueid": "w46279930:a99785726", "current_trial": 208, "dateTime": 1664555253735, "trialdata": {"rt": 764, "stimulus": "<p id='stroop-text' class='stroop-blue'>SHIP</p>", "response": "b", "stimulus-type": "unrelated", "word": "SHIP", "color": "blue", "correct_response": "b", "trial_id": "stroop-trial-1-unrelated-27", "trial_type": "html-keyboard-response", "trial_index": 208, "time_elapsed": 311147, "internal_node_id": "0.0-8.0-22.0"}}, {"uniqueid": "w46279930:a99785726", "current_trial": 209, "dateTime": 1664555255956, "trialdata": {"rt": 1718, "stimulus": "<p id='stroop-text' class='stroop-yellow'>GREEN</p>", "response": "y", "stimulus-type": "incongruent", "word": "green", "color": "yellow", "correct_response": "y", "trial_id": "stroop-trial-1-incongruent-7", "trial_type": "html-keyboard-response", "trial_index": 209, "time_elapsed": 313369, "internal_node_id": "0.0-8.0-23.0"}}, {"uniqueid": "w46279930:a99785726", "current_trial": 210, "dateTime": 1664555257544, "trialdata": {"rt": 1086, "stimulus": "<p id='stroop-text' class='stroop-blue'>BOAT</p>", "response": "b", "stimulus-type": "unrelated", "word": "BOAT", "color": "blue", "correct_response": "b", "trial_id": "stroop-trial-1-unrelated-22", "trial_type": "html-keyboard-response", "trial_index": 210, "time_elapsed": 314956, "internal_node_id": "0.0-8.0-24.0"}}, {"uniqueid": "w46279930:a99785726", "current_trial": 211, "dateTime": 1664555258517, "trialdata": {"rt": 469, "stimulus": "<p id='stroop-text' class='stroop-blue'>STONE</p>", "response": "b", "stimulus-type": "unrelated", "word": "STONE", "color": "blue", "correct_response": "b", "trial_id": "stroop-trial-1-unrelated-30", "trial_type": "html-keyboard-response", "trial_index": 211, "time_elapsed": 315930, "internal_node_id": "0.0-8.0-25.0"}}, {"uniqueid": "w46279930:a99785726", "current_trial": 212, "dateTime": 1664555259553, "trialdata": {"rt": 531, "stimulus": "<p id='stroop-text' class='stroop-red'>BLUE</p>", "response": "r", "stimulus-type": "incongruent", "word": "blue", "color": "red", "correct_response": "r", "trial_id": "stroop-trial-1-incongruent-23", "trial_type": "html-keyboard-response", "trial_index": 212, "time_elapsed": 316966, "internal_node_id": "0.0-8.0-26.0"}}, {"uniqueid": "w46279930:a99785726", "current_trial": 213, "dateTime": 1664555260915, "trialdata": {"rt": 859, "stimulus": "<p id='stroop-text' class='stroop-green'>FORK</p>", "response": "g", "stimulus-type": "unrelated", "word": "FORK", "color": "green", "correct_response": "g", "trial_id": "stroop-trial-1-unrelated-28", "trial_type": "html-keyboard-response", "trial_index": 213, "time_elapsed": 318328, "internal_node_id": "0.0-8.0-27.0"}}, {"uniqueid": "w46279930:a99785726", "current_trial": 214, "dateTime": 1664555262277, "trialdata": {"rt": 858, "stimulus": "<p id='stroop-text' class='stroop-red'>RED</p>", "response": "r", "stimulus-type": "congruent", "word": "red", "color": "red", "correct_response": "r", "trial_id": "stroop-trial-1-congruent-18", "trial_type": "html-keyboard-response", "trial_index": 214, "time_elapsed": 319689, "internal_node_id": "0.0-8.0-28.0"}}, {"uniqueid": "w46279930:a99785726", "current_trial": 215, "dateTime": 1664555264061, "trialdata": {"rt": 1283, "stimulus": "<p id='stroop-text' class='stroop-blue'>BOTTLE</p>", "response": "b", "stimulus-type": "unrelated", "word": "BOTTLE", "color": "blue", "correct_response": "b", "trial_id": "stroop-trial-1-unrelated-17", "trial_type": "html-keyboard-response", "trial_index": 215, "time_elapsed": 321474, "internal_node_id": "0.0-8.0-29.0"}}, {"uniqueid": "w46279930:a99785726", "current_trial": 216, "dateTime": 1664555266336, "trialdata": {"rt": 1770, "stimulus": "<p id='stroop-text' class='stroop-green'>SHIP</p>", "response": "g", "stimulus-type": "unrelated", "word": "SHIP", "color": "green", "correct_response": "g", "trial_id": "stroop-trial-1-unrelated-1", "trial_type": "html-keyboard-response", "trial_index": 216, "time_elapsed": 323748, "internal_node_id": "0.0-8.0-30.0"}}, {"uniqueid": "w46279930:a99785726", "current_trial": 217, "dateTime": 1664555267607, "trialdata": {"rt": 768, "stimulus": "<p id='stroop-text' class='stroop-yellow'>YELLOW</p>", "response": "y", "stimulus-type": "congruent", "word": "yellow", "color": "yellow", "correct_response": "y", "trial_id": "stroop-trial-1-congruent-11", "trial_type": "html-keyboard-response", "trial_index": 217, "time_elapsed": 325020, "internal_node_id": "0.0-8.0-31.0"}}, {"uniqueid": "w46279930:a99785726", "current_trial": 218, "dateTime": 1664555269203, "trialdata": {"rt": 1092, "stimulus": "<p id='stroop-text' class='stroop-green'>BLUE</p>", "response": "g", "stimulus-type": "incongruent", "word": "blue", "color": "green", "correct_response": "g", "trial_id": "stroop-trial-1-incongruent-17", "trial_type": "html-keyboard-response", "trial_index": 218, "time_elapsed": 326616, "internal_node_id": "0.0-8.0-32.0"}}, {"uniqueid": "w46279930:a99785726", "current_trial": 219, "dateTime": 1664555270374, "trialdata": {"rt": 667, "stimulus": "<p id='stroop-text' class='stroop-yellow'>RED</p>", "response": "r", "stimulus-type": "incongruent", "word": "red", "color": "yellow", "correct_response": "y", "trial_id": "stroop-trial-1-incongruent-24", "trial_type": "html-keyboard-response", "trial_index": 219, "time_elapsed": 327787, "internal_node_id": "0.0-8.0-33.0"}}, {"uniqueid": "w46279930:a99785726", "current_trial": 220, "dateTime": 1664555273074, "trialdata": {"rt": 2194, "stimulus": "<p id='stroop-text' class='stroop-red'>BLUE</p>", "response": "r", "stimulus-type": "incongruent", "word": "blue", "color": "red", "correct_response": "r", "trial_id": "stroop-trial-1-incongruent-11", "trial_type": "html-keyboard-response", "trial_index": 220, "time_elapsed": 330486, "internal_node_id": "0.0-8.0-34.0"}}, {"uniqueid": "w46279930:a99785726", "current_trial": 221, "dateTime": 1664555274134, "trialdata": {"rt": 558, "stimulus": "<p id='stroop-text' class='stroop-red'>RED</p>", "response": "r", "stimulus-type": "congruent", "word": "red", "color": "red", "correct_response": "r", "trial_id": "stroop-trial-1-congruent-1", "trial_type": "html-keyboard-response", "trial_index": 221, "time_elapsed": 331547, "internal_node_id": "0.0-8.0-35.0"}}, {"uniqueid": "w46279930:a99785726", "current_trial": 222, "dateTime": 1664555275487, "trialdata": {"rt": 850, "stimulus": "<p id='stroop-text' class='stroop-yellow'>YELLOW</p>", "response": "y", "stimulus-type": "congruent", "word": "yellow", "color": "yellow", "correct_res