{"condition": 1, "counterbalance": 0, "assignmentId": "a53572764", "workerId": "w95566467", "hitId": "h24329613", "currenttrial": 137, "bonus": 0, "data": [{"uniqueid": "w95566467:a53572764", "current_trial": 0, "dateTime": 1664463929092, "trialdata": {"success": true, "trial_type": "fullscreen", "trial_index": 0, "time_elapsed": 3580, "internal_node_id": "0.0-0.0"}}, {"uniqueid": "w95566467:a53572764", "current_trial": 1, "dateTime": 1664463942258, "trialdata": {"view_history": [{"page_index": 0, "viewing_time": 13161}], "rt": 13161, "trial_id": "exp_instructions_no_distractor", "trial_type": "instructions", "trial_index": 1, "time_elapsed": 16746, "internal_node_id": "0.0-1.0"}}, {"uniqueid": "w95566467:a53572764", "current_trial": 2, "dateTime": 1664463944707, "trialdata": {"success": true, "trial_type": "fullscreen", "trial_index": 2, "time_elapsed": 19194, "internal_node_id": "0.0-2.0-0.0"}}, {"uniqueid": "w95566467:a53572764", "current_trial": 3, "dateTime": 1664464043958, "trialdata": {"view_history": [{"page_index": 0, "viewing_time": 50277}, {"page_index": 1, "viewing_time": 23774}, {"page_index": 2, "viewing_time": 6378}, {"page_index": 3, "viewing_time": 6614}, {"page_index": 4, "viewing_time": 12205}], "rt": 99248, "trial_id": "mouselab_instructions_1", "trial_type": "instructions", "trial_index": 3, "time_elapsed": 118446, "internal_node_id": "0.0-2.0-1.0"}}, {"uniqueid": "w95566467:a53572764", "current_trial": 4, "dateTime": 1664464063377, "trialdata": {"revealed_states": [], "num_clicks_accrued": [0, 0, 0, 0, 0, 0, 0, 0, 0, 0, 0, 0, 0], "stateRewards": ["", 10, -10, -10, 10, 10, 10, 10, 10, 10, 10, -10, -10], "withholdReward": false, "trial_id": "practice_1", "block": "test", "trialIndex": 0, "score": 31.75, "costs": -0.25, "simulationMode": [null, null, null], "rewards": [10, 10, 10], "path": ["0", "0", "5", "6", "7"], "rt": [8153, 678, 233], "actions": ["right", "right", "up"], "actionTimes": [9812, 11009, 11759], "queries": {"click": {"state": {"target": ["5"], "time": [6993]}, "edge": {"target": [], "time": []}}, "mouseover": {"state": {"target": ["5", "6", "6"], "time": [6141, 7727, 8560]}, "edge": {"target": [], "time": []}}, "mouseout": {"state": {"target": ["0", "5", "6", "6", "8"], "time": [6082, 7394, 8128, 8775, 15240]}, "edge": {"target": [], "time": []}}}, "displayed_time": "12.28", "trialTime": 19096, "trial_type": "mouselab-mdp", "trial_index": 4, "time_elapsed": 137864, "internal_node_id": "0.0-2.0-2.0-0.0"}}, {"uniqueid": "w95566467:a53572764", "current_trial": 5, "dateTime": 1664464071140, "trialdata": {"revealed_states": [], "num_clicks_accrued": [0, 0, 0, 0, 0, 0, 0, 0, 0, 0, 0, 0, 0], "stateRewards": ["", -10, -10, -10, -10, 10, -10, 10, 10, -10, 10, 10, -10], "withholdReward": false, "trial_id": "practice_2", "block": "test", "trialIndex": 1, "score": 11.75, "costs": -0.25, "simulationMode": [null, null, null], "rewards": [10, -10, 10], "path": ["0", "0", "5", "6", "7"], "rt": [2922, 184, 209], "actions": ["right", "right", "up"], "actionTimes": [4256, 4932, 5657], "queries": {"click": {"state": {"target": ["9"], "time": [3021]}, "edge": {"target": [], "time": []}}, "mouseover": {"state": {"target": ["0", "0", "9", "0"], "time": [1552, 2610, 2743, 3225]}, "edge": {"target": [], "time": []}}, "mouseout": {"state": {"target": ["0", "0", "0", "9", "0"], "time": [1127, 1978, 2643, 3176, 3242]}, "edge": {"target": [], "time": []}}}, "displayed_time": "6.16", "trialTime": 7683, "trial_type": "mouselab-mdp", "trial_index": 5, "time_elapsed": 145628, "internal_node_id": "0.0-2.0-2.0-1.0"}}, {"uniqueid": "w95566467:a53572764", "current_trial": 6, "dateTime": 1664464110422, "trialdata": {"view_history": [{"page_index": 0, "viewing_time": 24246}, {"page_index": 1, "viewing_time": 9345}, {"page_index": 2, "viewing_time": 5684}], "rt": 39275, "trial_id": "mouselab_instructions_2_scarce", "trial_type": "instructions", "trial_index": 6, "time_elapsed": 184910, "internal_node_id": "0.0-2.0-3.0"}}, {"uniqueid": "w95566467:a53572764", "current_trial": 7, "dateTime": 1664464135541, "trialdata": {"rt": 25115, "response": {"Q0": "$-48 to $48", "Q1": "The cost is always $0.25.", "Q2": "The better I perform the higher my bonus will be.", "Q3": "No, the amount of cash at each node of the web may be different each time.", "Q4": "The values of the nodes walked through from start to finish.", "Q5": "No, the spider might forget to count the money on some rounds."}, "question_order": [0, 1, 2, 3, 4, 5], "correct": {"Q0": "$-48 to $48", "Q1": "The cost is always $0.25.", "Q2": "The better I perform the higher my bonus will be.", "Q3": "No, the amount of cash at each node of the web may be different each time.", "Q4": "The values of the nodes walked through from start to finish.", "Q5": "No, the spider might forget to count the money on some rounds."}, "trial_id": "mouselab_quiz_scarce", "trial_type": "survey-multi-choice", "trial_index": 7, "time_elapsed": 210029, "internal_node_id": "0.0-2.0-4.0"}}, {"uniqueid": "w95566467:a53572764", "current_trial": 8, "dateTime": 1664464143817, "trialdata": {"rt": 8264, "stimulus": "\n<h1> Get ready to start the game! </h1>\n\nThank you for reading the instructions. Get ready start with the first of 4 block(s) of this game.\n<br><br>\nIn this first block, you will complete 30 rounds of this game before moving on.\n<br><br>\nRemember, the more money the spider gets, the bigger your bonus will be!\n<br><br>\n<div style='text-align: center;'>Press <code>space</code> to begin.</div>\n\n<br><br>\n(If, at any point, the <code>space</code> key does not take you to the next page, click once on the text and try again.)", "response": " ", "trial_id": "mdp_ready_1", "trial_type": "html-keyboard-response", "trial_index": 8, "time_elapsed": 218304, "internal_node_id": "0.0-4.0-0.0"}}, {"uniqueid": "w95566467:a53572764", "current_trial": 9, "dateTime": 1664464156315, "trialdata": {"revealed_states": [], "num_clicks_accrued": [0, 0, 0, 0, 0, 0, 0, 0, 0, 0, 0, 0, 0], "stateRewards": ["", -4, 8, -24, -48, 2, 8, -48, -24, -2, -4, 48, -48], "withholdReward": true, "trial_id": "mdp_599927291428", "block": "test1", "trialIndex": 2, "score": -9.25, "costs": -0.25, "simulationMode": [null, null, null], "rewards": [2, 8, -24], "path": ["0", "0", "5", "6", "8"], "rt": [2463, 163, 134], "actions": ["right", "right", "down"], "actionTimes": [4317, 4980, 5617], "queries": {"click": {"state": {"target": ["5"], "time": [2939]}, "edge": {"target": [], "time": []}}, "mouseover": {"state": {"target": ["5"], "time": [2597]}, "edge": {"target": [], "time": []}}, "mouseout": {"state": {"target": ["5", "0", "5"], "time": [1282, 2483, 3182]}, "edge": {"target": [], "time": []}}}, "displayed_time": "9.86", "trialTime": 12405, "trial_type": "mouselab-mdp", "trial_index": 9, "time_elapsed": 230802, "internal_node_id": "0.0-4.0-1.0-0.0"}}, {"uniqueid": "w95566467:a53572764", "current_trial": 10, "dateTime": 1664464167813, "trialdata": {"revealed_states": [], "num_clicks_accrued": [0, 0, 0, 0, 0, 0, 0, 0, 0, 0, 0, 0, 0], "stateRewards": ["", 2, -8, 24, -48, 2, 4, 48, -48, -2, -8, -48, 48], "withholdReward": true, "trial_id": "mdp_629420544881", "block": "test1", "trialIndex": 3, "score": -49.25, "costs": -0.25, "simulationMode": [null, null, null], "rewards": [2, -8, -48], "path": ["0", "0", "1", "2", "4"], "rt": [2444, 150, 112], "actions": ["up", "up", "left"], "actionTimes": [3791, 4443, 5055], "queries": {"click": {"state": {"target": ["1"], "time": [2436]}, "edge": {"target": [], "time": []}}, "mouseover": {"state": {"target": ["1", "5"], "time": [2075, 2912]}, "edge": {"target": [], "time": []}}, "mouseout": {"state": {"target": ["0", "1"], "time": [989, 2639]}, "edge": {"target": [], "time": []}}}, "displayed_time": "9.35", "trialTime": 11417, "trial_type": "mouselab-mdp", "trial_index": 10, "time_elapsed": 242301, "internal_node_id": "0.0-4.0-1.0-1.0"}}, {"uniqueid": "w95566467:a53572764", "current_trial": 11, "dateTime": 1664464179564, "trialdata": {"revealed_states": [], "num_clicks_accrued": [0, 0, 0, 0, 0, 0, 0, 0, 0, 0, 0, 0, 0], "stateRewards": ["", 4, 4, 24, -48, 2, -8, -24, -48, 4, 8, 48, 48], "withholdReward": true, "trial_id": "mdp_592471239511", "block": "test1", "trialIndex": 4, "score": 64.75, "costs": -0.25, "simulationMode": [null, null, null], "rewards": [4, 8, 48], "path": ["0", "0", "9", "10", "11"], "rt": [1921, 83, 157], "actions": ["left", "left", "up"], "actionTimes": [3045, 3647, 4321], "queries": {"click": {"state": {"target": ["9"], "time": [1954]}, "edge": {"target": [], "time": []}}, "mouseover": {"state": {"target": ["9", "0"], "time": [1694, 2159]}, "edge": {"target": [], "time": []}}, "mouseout": {"state": {"target": ["5", "9", "0"], "time": [458, 2127, 2176]}, "edge": {"target": [], "time": []}}}, "displayed_time": "10.13", "trialTime": 11659, "trial_type": "mouselab-mdp", "trial_index": 11, "time_elapsed": 254051, "internal_node_id": "0.0-4.0-1.0-2.0"}}, {"uniqueid": "w95566467:a53572764", "current_trial": 12, "dateTime": 1664464190940, "trialdata": {"revealed_states": [], "num_clicks_accrued": [0, 0, 0, 0, 0, 0, 0, 0, 0, 0, 0, 0, 0], "stateRewards": ["", 2, 8, 24, -48, 4, 8, 24, 24, 4, -8, 48, 48], "withholdReward": true, "trial_id": "mdp_646103824875", "block": "test1", "trialIndex": 5, "score": 48, "costs": -1, "simulationMode": [null, null, null], "rewards": [4, -8, 48], "path": ["0", "0", "9", "10", "11"], "rt": [5751, 25, 113], "actions": ["left", "left", "up"], "actionTimes": [6889, 7427, 8064], "queries": {"click": {"state": {"target": ["9", "5", "11", "7"], "time": [1983, 2525, 5500, 6061]}, "edge": {"target": [], "time": []}}, "mouseover": {"state": {"target": ["0", "5", "0", "9", "0", "5", "5", "11", "1", "7"], "time": [1402, 1498, 1649, 1849, 2131, 2181, 2435, 5364, 5698, 5931]}, "edge": {"target": [], "time": []}}, "mouseout": {"state": {"target": ["0", "0", "5", "0", "9", "0", "5", "5", "11", "1", "7"], "time": [967, 1433, 1598, 1765, 2099, 2165, 2248, 4933, 5631, 5715, 6181]}, "edge": {"target": [], "time": []}}}, "displayed_time": "10.14", "trialTime": 11279, "trial_type": "mouselab-mdp", "trial_index": 12, "time_elapsed": 265428, "internal_node_id": "0.0-4.0-1.0-3.0"}}, {"uniqueid": "w95566467:a53572764", "current_trial": 13, "dateTime": 1664464203476, "trialdata": {"revealed_states": [], "num_clicks_accrued": [0, 0, 0, 0, 0, 0, 0, 0, 0, 0, 0, 0, 0], "stateRewards": ["", 4, -8, 24, 48, 2, -4, 48, 48, 4, -8, 48, 48], "withholdReward": true, "trial_id": "mdp_962498334245", "block": "test1", "trialIndex": 6, "score": 48, "costs": -1, "simulationMode": [null, null, null], "rewards": [4, -8, 48], "path": ["0", "0", "9", "10", "11"], "rt": [3791, 672, 192], "actions": ["left", "left", "up"], "actionTimes": [4792, 5981, 6668], "queries": {"click": {"state": {"target": ["11", "7", "5", "9"], "time": [1899, 2515, 3482, 3946]}, "edge": {"target": [], "time": []}}, "mouseover": {"state": {"target": ["11", "1", "7", "6", "5", "0", "9", "8"], "time": [1457, 2140, 2376, 2723, 3257, 3639, 3774, 4106]}, "edge": {"target": [], "time": []}}, "mouseout": {"state": {"target": ["6", "5", "0", "11", "1", "7", "6", "5", "0", "9", "8"], "time": [641, 724, 1326, 2077, 2157, 2673, 2790, 3606, 3706, 4056, 4122]}, "edge": {"target": [], "time": []}}}, "displayed_time": "11.00", "trialTime": 12443, "trial_type": "mouselab-mdp", "trial_index": 13, "time_elapsed": 277963, "internal_node_id": "0.0-4.0-1.0-4.0"}}, {"uniqueid": "w95566467:a53572764", "current_trial": 14, "dateTime": 1664464216651, "trialdata": {"revealed_states": [], "num_clicks_accrued": [0, 0, 0, 0, 0, 0, 0, 0, 0, 0, 0, 0, 0], "stateRewards": ["", 2, -8, 48, -24, 2, 8, 24, -24, 4, -4, -48, -48], "withholdReward": true, "trial_id": "mdp_130946197263", "block": "test1", "trialIndex": 7, "score": 45.5, "costs": -1.5, "simulationMode": [null, null, null], "rewards": [2, -8, 48], "path": ["0", "0", "1", "2", "3"], "rt": [9058, 46, 166], "actions": ["up", "up", "right"], "actionTimes": [10138, 10688, 11388], "queries": {"click": {"state": {"target": ["11", "7", "4", "3", "2", "1"], "time": [1965, 3030, 5728, 6344, 8345, 8600]}, "edge": {"target": [], "time": []}}, "mouseover": {"state": {"target": ["9", "11", "1", "7", "7", "6", "5", "2", "4", "2", "3", "6", "8", "6", "1", "1", "2", "1"], "time": [1590, 1908, 2589, 2640, 2873, 3322, 3758, 3989, 4256, 6022, 6122, 6605, 6872, 7192, 7255, 7540, 8206, 8521]}, "edge": {"target": [], "time": []}}, "mouseout": {"state": {"target": ["8", "0", "9", "11", "1", "7", "7", "6", "5", "2", "4", "2", "3", "6", "8", "6", "1", "1", "2", "1"], "time": [707, 1543, 1623, 2543, 2606, 2673, 3274, 3456, 3873, 4123, 5974, 6072, 6505, 6638, 6889, 7205, 7421, 8140, 8487, 8703]}, "edge": {"target": [], "time": []}}}, "displayed_time": "11.90", "trialTime": 13088, "trial_type": "mouselab-mdp", "trial_index": 14, "time_elapsed": 291139, "internal_node_id": "0.0-4.0-1.0-5.0"}}, {"uniqueid": "w95566467:a53572764", "current_trial": 15, "dateTime": 1664464229013, "trialdata": {"revealed_states": [], "num_clicks_accrued": [0, 0, 0, 0, 0, 0, 0, 0, 0, 0, 0, 0, 0], "stateRewards": ["", -4, 8, 48, -48, 2, -4, 24, -24, -2, 4, -24, -24], "withholdReward": false, "trial_id": "mdp_804988042722", "block": "test1", "trialIndex": 8, "score": 56.25, "costs": -0.75, "simulationMode": [null, null, null], "rewards": [-4, 8, 48], "path": ["0", "0", "1", "2", "3"], "rt": [4594, 10, 105], "actions": ["up", "up", "right"], "actionTimes": [5757, 6281, 6894], "queries": {"click": {"state": {"target": ["11", "7", "3"], "time": [2294, 2953, 4233]}, "edge": {"target": [], "time": []}}, "mouseover": {"state": {"target": ["10", "11", "7", "6", "3", "1", "2"], "time": [1971, 2187, 2820, 3170, 4070, 4987, 5070]}, "edge": {"target": [], "time": []}}, "mouseout": {"state": {"target": ["7", "10", "11", "7", "6", "3", "1", "2"], "time": [688, 2124, 2523, 3120, 3721, 4352, 5004, 5137]}, "edge": {"target": [], "time": []}}}, "displayed_time": "10.16", "trialTime": 12270, "trial_type": "mouselab-mdp", "trial_index": 15, "time_elapsed": 303501, "internal_node_id": "0.0-4.0-1.0-6.0"}}, {"uniqueid": "w95566467:a53572764", "current_trial": 16, "dateTime": 1664464242425, "trialdata": {"revealed_states": [], "num_clicks_accrued": [0, 0, 0, 0, 0, 0, 0, 0, 0, 0, 0, 0, 0], "stateRewards": ["", -4, 8, -48, -48, -2, -8, -24, -48, 2, -4, -48, 24], "withholdReward": false, "trial_id": "mdp_743906784415", "block": "test1", "trialIndex": 9, "score": 25, "costs": -2, "simulationMode": [null, null, null], "rewards": [2, -4, 24], "path": ["0", "0", "9", "10", "12"], "rt": [8444, 660, 180], "actions": ["left", "left", "down"], "actionTimes": [9469, 10644, 11318], "queries": {"click": {"state": {"target": ["3", "11", "7", "4", "8", "12", "9", "10"], "time": [1913, 2649, 3204, 3880, 4786, 5292, 8033, 8405]}, "edge": {"target": [], "time": []}}, "mouseover": {"state": {"target": ["3", "1", "11", "1", "7", "1", "4", "1", "5", "8", "12", "9", "10", "9", "0", "9", "1", "9", "10", "0"], "time": [1754, 2220, 2520, 2903, 2953, 3569, 3685, 4035, 4221, 4703, 5052, 6002, 6422, 6602, 6652, 7301, 7601, 7851, 8334, 8583]}, "edge": {"target": [], "time": []}}, "mouseout": {"state": {"target": ["0", "3", "1", "11", "1", "7", "1", "4", "1", "5", "8", "12", "9", "10", "9", "0", "9", "1", "9", "10", "9", "0"], "time": [1406, 2138, 2287, 2855, 2919, 3369, 3618, 4018, 4052, 4303, 4904, 5401, 6287, 6585, 6635, 6685, 7552, 7751, 8234, 8517, 8567, 8600]}, "edge": {"target": [], "time": []}}}, "displayed_time": "11.82", "trialTime": 13318, "trial_type": "mouselab-mdp", "trial_index": 16, "time_elapsed": 316913, "internal_node_id": "0.0-4.0-1.0-7.0"}}, {"uniqueid": "w95566467:a53572764", "current_trial": 17, "dateTime": 1664464255563, "trialdata": {"revealed_states": [], "num_clicks_accrued": [0, 0, 0, 0, 0, 0, 0, 0, 0, 0, 0, 0, 0], "stateRewards": ["", -2, 4, 24, 48, 2, 4, -48, -48, 2, 8, 48, -48], "withholdReward": false, "trial_id": "mdp_409609775558", "block": "test1", "trialIndex": 10, "score": 54.25, "costs": -0.75, "simulationMode": [null, null, null], "rewards": [-2, 4, 48], "path": ["0", "0", "1", "2", "4"], "rt": [3856, 493, 160], "actions": ["up", "up", "left"], "actionTimes": [5165, 6178, 6829], "queries": {"click": {"state": {"target": ["4", "2", "1"], "time": [2455, 4131, 4421]}, "edge": {"target": [], "time": []}}, "mouseover": {"state": {"target": ["1", "2", "4", "2", "3", "2", "1", "2", "1", "7"], "time": [2003, 2150, 2350, 2649, 2715, 3368, 3585, 3933, 4332, 4582]}, "edge": {"target": [], "time": []}}, "mouseout": {"state": {"target": ["1", "2", "4", "2", "3", "2", "1", "2", "1", "7"], "time": [2084, 2217, 2616, 2699, 3252, 3434, 3901, 4282, 4532, 4598]}, "edge": {"target": [], "time": []}}}, "displayed_time": "11.31", "trialTime": 13041, "trial_type": "mouselab-mdp", "trial_index": 17, "time_elapsed": 330050, "internal_node_id": "0.0-4.0-1.0-8.0"}}, {"uniqueid": "w95566467:a53572764", "current_trial": 18, "dateTime": 1664464266875, "trialdata": {"revealed_states": [], "num_clicks_accrued": [0, 0, 0, 0, 0, 0, 0, 0, 0, 0, 0, 0, 0], "stateRewards": ["", 4, 4, 24, -24, -4, -8, 48, -24, 4, 4, 48, 24], "withholdReward": true, "trial_id": "mdp_822446942217", "block": "test1", "trialIndex": 11, "score": 60.25, "costs": -0.75, "simulationMode": [null, null, null], "rewards": [4, 4, 48], "path": ["0", "0", "9", "10", "11"], "rt": [2595, 2, 109], "actions": ["left", "left", "up"], "actionTimes": [3603, 4108, 4728], "queries": {"click": {"state": {"target": ["11", "9", "10"], "time": [1600, 2532, 2813]}, "edge": {"target": [], "time": []}}, "mouseover": {"state": {"target": ["11", "1", "10", "9", "10", "0", "5"], "time": [1536, 1836, 2371, 2469, 2736, 2985, 3019]}, "edge": {"target": [], "time": []}}, "mouseout": {"state": {"target": ["7", "0", "11", "1", "10", "9", "10", "9", "0", "5", "6", "6", "6"], "time": [636, 1273, 1753, 1869, 2421, 2669, 2935, 2968, 3002, 7853, 8797, 9619, 10400]}, "edge": {"target": [], "time": []}}}, "displayed_time": "10.01", "trialTime": 11227, "trial_type": "mouselab-mdp", "trial_index": 18, "time_elapsed": 341363, "internal_node_id": "0.0-4.0-1.0-9.0"}}, {"uniqueid": "w95566467:a53572764", "current_trial": 19, "dateTime": 1664464279012, "trialdata": {"revealed_states": [], "num_clicks_accrued": [0, 0, 0, 0, 0, 0, 0, 0, 0, 0, 0, 0, 0], "stateRewards": ["", -4, -8, -48, 48, -2, 8, 48, 48, -2, -4, -48, -48], "withholdReward": true, "trial_id": "mdp_752833580638", "block": "test1", "trialIndex": 12, "score": 58, "costs": -1, "simulationMode": [null, null, null], "rewards": [-2, 8, 48], "path": ["0", "0", "5", "6", "7"], "rt": [2749, 726, 159], "actions": ["right", "right", "up"], "actionTimes": [3656, 4895, 5557], "queries": {"click": {"state": {"target": ["11", "7", "6", "5"], "time": [1395, 1972, 2689, 2936]}, "edge": {"target": [], "time": []}}, "mouseover": {"state": {"target": ["9", "11", "7", "6", "5", "8"], "time": [1163, 1244, 1812, 2530, 2827, 3110]}, "edge": {"target": [], "time": []}}, "mouseout": {"state": {"target": ["0", "9", "11", "7", "6", "5", "8"], "time": [828, 1179, 1596, 2160, 2777, 3060, 7046]}, "edge": {"target": [], "time": []}}}, "displayed_time": "10.91", "trialTime": 12043, "trial_type": "mouselab-mdp", "trial_index": 19, "time_elapsed": 353500, "internal_node_id": "0.0-4.0-1.0-10.0"}}, {"uniqueid": "w95566467:a53572764", "current_trial": 20, "dateTime": 1664464289863, "trialdata": {"revealed_states": [], "num_clicks_accrued": [0, 0, 0, 0, 0, 0, 0, 0, 0, 0, 0, 0, 0], "stateRewards": ["", 2, -8, 24, -24, -2, 8, -48, -48, 2, -8, -24, -48], "withholdReward": true, "trial_id": "mdp_744278669205", "block": "test1", "trialIndex": 13, "score": 21, "costs": -2, "simulationMode": [null, null, null], "rewards": [2, -8, 24], "path": ["0", "0", "1", "2", "3"], "rt": [6793, 2, 106], "actions": ["up", "up", "right"], "actionTimes": [7611, 8128, 8749], "queries": {"click": {"state": {"target": ["7", "11", "4", "3", "12", "8", "2", "1"], "time": [1620, 2192, 2686, 3371, 4074, 4517, 5418, 5603]}, "edge": {"target": [], "time": []}}, "mouseover": {"state": {"target": ["5", "7", "1", "11", "4", "2", "3", "5", "12", "8", "5", "1", "2", "1"], "time": [1275, 1508, 1858, 2141, 2508, 2823, 3208, 3623, 3940, 4306, 4909, 5040, 5240, 5572]}, "edge": {"target": [], "time": []}}, "mouseout": {"state": {"target": ["5", "0", "5", "7", "1", "11", "4", "2", "3", "5", "12", "8", "5", "1", "2", "1", "7"], "time": [624, 1229, 1425, 1774, 1875, 2343, 2790, 2874, 3490, 3656, 4173, 4891, 4956, 5073, 5522, 5706, 5772]}, "edge": {"target": [], "time": []}}}, "displayed_time": "9.82", "trialTime": 10761, "trial_type": "mouselab-mdp", "trial_index": 20, "time_elapsed": 364351, "internal_node_id": "0.0-4.0-1.0-11.0"}}, {"uniqueid": "w95566467:a53572764", "current_trial": 21, "dateTime": 1664464301913, "trialdata": {"revealed_states": [], "num_clicks_accrued": [0, 0, 0, 0, 0, 0, 0, 0, 0, 0, 0, 0, 0], "stateRewards": ["", -2, -4, -24, 24, -2, 4, -24, -24, -4, 4, 24, -24], "withholdReward": false, "trial_id": "mdp_999419261719", "block": "test1", "trialIndex": 14, "score": 27, "costs": -2, "simulationMode": [null, null, null], "rewards": [-4, 4, 24], "path": ["0", "0", "9", "10", "11"], "rt": [5851, 434, 301], "actions": ["left", "left", "up"], "actionTimes": [6622, 7572, 8373], "queries": {"click": {"state": {"target": ["11", "7", "4", "3", "12", "8", "10", "9"], "time": [1321, 1902, 2574, 2958, 4148, 4682, 5755, 5937]}, "edge": {"target": [], "time": []}}, "mouseover": {"state": {"target": ["9", "11", "1", "7", "6", "5", "1", "4", "2", "3", "6", "8", "12", "12", "8", "9", "10", "9"], "time": [1070, 1154, 1503, 1839, 2087, 2252, 2302, 2470, 2702, 2769, 3170, 3253, 3636, 4087, 4569, 5535, 5585, 5918]}, "edge": {"target": [], "time": []}}, "mouseout": {"state": {"target": ["6", "9", "11", "1", "7", "6", "5", "1", "4", "2", "3", "6", "8", "12", "12", "8", "9", "10", "9"], "time": [456, 1087, 1469, 1519, 2036, 2170, 2286, 2369, 2686, 2752, 3087, 3219, 3303, 3836, 4318, 4835, 5552, 5885, 6068]}, "edge": {"target": [], "time": []}}}, "displayed_time": "10.77", "trialTime": 11960, "trial_type": "mouselab-mdp", "trial_index": 21, "time_elapsed": 376401, "internal_node_id": "0.0-4.0-1.0-12.0"}}, {"uniqueid": "w95566467:a53572764", "current_trial": 22, "dateTime": 1664464311651, "trialdata": {"revealed_states": [], "num_clicks_accrued": [0, 0, 0, 0, 0, 0, 0, 0, 0, 0, 0, 0, 0], "stateRewards": ["", -4, 8, -48, -48, -4, 4, -24, -48, 2, -4, -24, 24], "withholdReward": true, "trial_id": "mdp_183773275291", "block": "test1", "trialIndex": 15, "score": 25.5, "costs": -1.5, "simulationMode": [null, null, null], "rewards": [2, -4, 24], "path": ["0", "0", "9", "10", "12"], "rt": [5344, 407, 187], "actions": ["left", "left", "down"], "actionTimes": [6090, 7017, 7716], "queries": {"click": {"state": {"target": ["11", "7", "4", "3", "8", "12"], "time": [1736, 2380, 3207, 3649, 4192, 4659]}, "edge": {"target": [], "time": []}}, "mouseover": {"state": {"target": ["1", "4", "11", "1", "7", "7", "6", "5", "1", "2", "4", "2", "3", "6", "8", "12"], "time": [1093, 1393, 1692, 1925, 1991, 2277, 2541, 2724, 2791, 2841, 2958, 3374, 3441, 3858, 3941, 4407]}, "edge": {"target": [], "time": []}}, "mouseout": {"state": {"target": ["1", "4", "11", "1", "7", "7", "6", "5", "1", "2", "4", "2", "3", "6", "8", "12", "12"], "time": [1126, 1576, 1875, 1941, 2008, 2508, 2591, 2758, 2808, 2858, 3341, 3408, 3776, 3891, 4291, 4790, 8696]}, "edge": {"target": [], "time": []}}}, "displayed_time": "8.75", "trialTime": 9641, "trial_type": "mouselab-mdp", "trial_index": 22, "time_elapsed": 386138, "internal_node_id": "0.0-4.0-1.0-13.0"}}, {"uniqueid": "w95566467:a53572764", "current_trial": 23, "dateTime": 1664464321838, "trialdata": {"revealed_states": [], "num_clicks_accrued": [0, 0, 0, 0, 0, 0, 0, 0, 0, 0, 0, 0, 0], "stateRewards": ["", 4, 4, 48, -48, -2, -8, -48, -24, 2, 4, -24, -48], "withholdReward": false, "trial_id": "mdp_239929662917", "block": "test1", "trialIndex": 16, "score": 59.5, "costs": -1.5, "simulationMode": [null, null, null], "rewards": [4, 4, 48], "path": ["0", "0", "1", "2", "3"], "rt": [4822, 89, 133], "actions": ["up", "up", "right"], "actionTimes": [5646, 6245, 6871], "queries": {"click": {"state": {"target": ["11", "7", "4", "3", "2", "1"], "time": [1812, 2313, 3103, 3519, 4798, 5030]}, "edge": {"target": [], "time": []}}, "mouseover": {"state": {"target": ["11", "1", "7", "6", "0", "4", "2", "3", "0", "9", "1", "2", "1"], "time": [1736, 2003, 2069, 2484, 2651, 2918, 3234, 3301, 3701, 4069, 4118, 4285, 4968]}, "edge": {"target": [], "time": []}}, "mouseout": {"state": {"target": ["0", "11", "1", "7", "6", "0", "4", "2", "3", "0", "9", "1", "2", "1", "7", "7", "6", "8"], "time": [755, 1936, 2020, 2435, 2551, 2668, 3218, 3268, 3634, 3717, 4085, 4135, 4917, 5119, 8020, 8717, 8734, 8749]}, "edge": {"target": [], "time": []}}}, "displayed_time": "8.82", "trialTime": 10108, "trial_type": "mouselab-mdp", "trial_index": 23, "time_elapsed": 396326, "internal_node_id": "0.0-4.0-1.0-14.0"}}, {"uniqueid": "w95566467:a53572764", "current_trial": 24, "dateTime": 1664464331813, "trialdata": {"revealed_states": [], "num_clicks_accrued": [0, 0, 0, 0, 0, 0, 0, 0, 0, 0, 0, 0, 0], "stateRewards": ["", 2, 4, 24, 48, -2, 8, 24, -24, -4, -4, 48, 48], "withholdReward": true, "trial_id": "mdp_753439303214", "block": "test1", "trialIndex": 17, "score": 44, "costs": -1, "simulationMode": [null, null, null], "rewards": [-4, -4, 48], "path": ["0", "0", "9", "10", "11"], "rt": [2848, 75, 180], "actions": ["left", "left", "up"], "actionTimes": [3668, 4257, 4943], "queries": {"click": {"state": {"target": ["11", "7", "10", "9"], "time": [1701, 2232, 2809, 2999]}, "edge": {"target": [], "time": []}}, "mouseover": {"state": {"target": ["11", "1", "7", "7", "1", "10", "9"], "time": [1630, 1878, 1945, 2097, 2495, 2695, 2945]}, "edge": {"target": [], "time": []}}, "mouseout": {"state": {"target": ["0", "11", "1", "7", "7", "1", "10", "9"], "time": [1213, 1845, 1895, 1978, 2428, 2528, 2912, 3128]}, "edge": {"target": [], "time": []}}}, "displayed_time": "8.82", "trialTime": 9880, "trial_type": "mouselab-mdp", "trial_index": 24, "time_elapsed": 406301, "internal_node_id": "0.0-4.0-1.0-15.0"}}, {"uniqueid": "w95566467:a53572764", "current_trial": 25, "dateTime": 1664464342438, "trialdata": {"revealed_states": [], "num_clicks_accrued": [0, 0, 0, 0, 0, 0, 0, 0, 0, 0, 0, 0, 0], "stateRewards": ["", 4, 8, 48, -48, -4, 8, -24, -24, -4, 8, 48, 48], "withholdReward": true, "trial_id": "mdp_377640328420", "block": "test1", "trialIndex": 18, "score": 56, "costs": -1, "simulationMode": [null, null, null], "rewards": [-4, 8, 48], "path": ["0", "0", "9", "10", "11"], "rt": [2831, 2, 46], "actions": ["left", "left", "up"], "actionTimes": [3404, 3918, 4492], "queries": {"click": {"state": {"target": ["11", "7", "10", "9"], "time": [1343, 1860, 2488, 2670]}, "edge": {"target": [], "time": []}}, "mouseover": {"state": {"target": ["11", "1", "7", "7", "5", "9", "10", "9"], "time": [1180, 1512, 1562, 1814, 2046, 2096, 2146, 2662]}, "edge": {"target": [], "time": []}}, "mouseout": {"state": {"target": ["0", "11", "1", "7", "7", "5", "9", "10", "9"], "time": [949, 1462, 1529, 1579, 2013, 2063, 2113, 2562, 2812]}, "edge": {"target": [], "time": []}}}, "displayed_time": "9.58", "trialTime": 10542, "trial_type": "mouselab-mdp", "trial_index": 25, "time_elapsed": 416925, "internal_node_id": "0.0-4.0-1.0-16.0"}}, {"uniqueid": "w95566467:a53572764", "current_trial": 26, "dateTime": 1664464352112, "trialdata": {"revealed_states": [], "num_clicks_accrued": [0, 0, 0, 0, 0, 0, 0, 0, 0, 0, 0, 0, 0], "stateRewards": ["", 4, -4, 48, -48, -4, -4, 48, -48, 4, 4, -48, -24], "withholdReward": true, "trial_id": "mdp_490058671112", "block": "test1", "trialIndex": 19, "score": 44, "costs": -1, "simulationMode": [null, null, null], "rewards": [-4, -4, 48], "path": ["0", "0", "5", "6", "7"], "rt": [3084, 79, 84], "actions": ["right", "right", "up"], "actionTimes": [3729, 4317, 4917], "queries": {"click": {"state": {"target": ["11", "7", "5", "6"], "time": [1151, 1666, 2535, 2902]}, "edge": {"target": [], "time": []}}, "mouseover": {"state": {"target": ["11", "1", "7", "2", "5", "5", "6"], "time": [968, 1367, 1467, 2117, 2300, 2486, 2683]}, "edge": {"target": [], "time": []}}, "mouseout": {"state": {"target": ["0", "11", "1", "7", "2", "5", "5", "6"], "time": [585, 1300, 1384, 1886, 2186, 2317, 2650, 3066]}, "edge": {"target": [], "time": []}}}, "displayed_time": "8.64", "trialTime": 9591, "trial_type": "mouselab-mdp", "trial_index": 26, "time_elapsed": 426600, "internal_node_id": "0.0-4.0-1.0-17.0"}}, {"uniqueid": "w95566467:a53572764", "current_trial": 27, "dateTime": 1664464362525, "trialdata": {"revealed_states": [], "num_clicks_accrued": [0, 0, 0, 0, 0, 0, 0, 0, 0, 0, 0, 0, 0], "stateRewards": ["", -4, -8, -48, 48, -2, -8, -48, -24, 4, 8, 24, -48], "withholdReward": true, "trial_id": "mdp_509977295685", "block": "test1", "trialIndex": 20, "score": 39.25, "costs": -1.75, "simulationMode": [null, null, null], "rewards": [4, 8, 24], "path": ["0", "0", "9", "10", "11"], "rt": [6408, 79, 149], "actions": ["left", "left", "up"], "actionTimes": [7207, 7795, 8445], "queries": {"click": {"state": {"target": ["11", "7", "4", "2", "1", "9", "10"], "time": [1384, 1966, 2575, 3768, 4022, 5899, 6093]}, "edge": {"target": [], "time": []}}, "mouseover": {"state": {"target": ["11", "1", "7", "1", "4", "2", "3", "2", "2", "1", "9", "9", "10", "0"], "time": [1246, 1679, 1779, 2331, 2428, 2711, 3013, 3213, 3556, 3962, 5295, 5748, 6060, 6362]}, "edge": {"target": [], "time": []}}, "mouseout": {"state": {"target": ["11", "1", "7", "1", "4", "2", "3", "2", "2", "1", "7", "9", "9", "10", "9", "0"], "time": [1615, 1696, 2131, 2346, 2678, 2828, 3130, 3497, 3896, 4128, 5212, 5595, 6010, 6297, 6345, 6377]}, "edge": {"target": [], "time": []}}}, "displayed_time": "9.80", "trialTime": 10319, "trial_type": "mouselab-mdp", "trial_index": 27, "time_elapsed": 437013, "internal_node_id": "0.0-4.0-1.0-18.0"}}, {"uniqueid": "w95566467:a53572764", "current_trial": 28, "dateTime": 1664464373575, "trialdata": {"revealed_states": [], "num_clicks_accrued": [0, 0, 0, 0, 0, 0, 0, 0, 0, 0, 0, 0, 0], "stateRewards": ["", -2, 4, -24, -48, -4, 8, -24, 48, 4, 4, -48, 24], "withholdReward": true, "trial_id": "mdp_341117665701", "block": "test1", "trialIndex": 21, "score": 55.25, "costs": -1.75, "simulationMode": [null, null, null], "rewards": [-4, 8, 48], "path": ["0", "0", "5", "6", "8"], "rt": [4671, 520, 225], "actions": ["right", "right", "down"], "actionTimes": [5685, 6722, 7460], "queries": {"click": {"state": {"target": ["11", "7", "4", "3", "8", "6", "5"], "time": [1744, 2271, 2790, 3140, 3875, 4757, 4943]}, "edge": {"target": [], "time": []}}, "mouseover": {"state": {"target": ["1", "11", "1", "7", "7", "1", "4", "2", "3", "8", "12", "6", "5"], "time": [1399, 1699, 1931, 1982, 2266, 2582, 2649, 2898, 2948, 3498, 4148, 4600, 4897]}, "edge": {"target": [], "time": []}}, "mouseout": {"state": {"target": ["3", "1", "1", "11", "1", "7", "7", "1", "4", "2", "3", "7", "8", "12", "6", "5", "8"], "time": [699, 882, 1416, 1881, 1948, 2049, 2532, 2599, 2881, 2932, 3248, 3298, 3981, 4401, 4864, 5048, 9782]}, "edge": {"target": [], "time": []}}}, "displayed_time": "10.01", "trialTime": 10960, "trial_type": "mouselab-mdp", "trial_index": 28, "time_elapsed": 448063, "internal_node_id": "0.0-4.0-1.0-19.0"}}, {"uniqueid": "w95566467:a53572764", "current_trial": 29, "dateTime": 1664464385325, "trialdata": {"revealed_states": [], "num_clicks_accrued": [0, 0, 0, 0, 0, 0, 0, 0, 0, 0, 0, 0, 0], "stateRewards": ["", -2, -4, -24, -48, -4, -8, -48, 24, -4, -8, -24, -48], "withholdReward": true, "trial_id": "mdp_475782454549", "block": "test1", "trialIndex": 22, "score": 15, "costs": -2, "simulationMode": [null, null, null], "rewards": [-4, -8, 24], "path": ["0", "0", "5", "6", "8"], "rt": [6498, 19, 23], "actions": ["right", "right", "down"], "actionTimes": [7116, 7654, 8191], "queries": {"click": {"state": {"target": ["11", "7", "8", "12", "4", "3", "5", "6"], "time": [1241, 1787, 2396, 2885, 3442, 3848, 4810, 4980]}, "edge": {"target": [], "time": []}}, "mouseover": {"state": {"target": ["11", "1", "7", "8", "12", "9", "4", "2", "3", "5", "0", "6", "5", "6"], "time": [1103, 1468, 1736, 2135, 2735, 3085, 3318, 3634, 3801, 4184, 4234, 4668, 4750, 4934]}, "edge": {"target": [], "time": []}}, "mouseout": {"state": {"target": ["0", "11", "1", "7", "8", "12", "9", "4", "2", "3", "5", "0", "6", "5", "6", "8"], "time": [922, 1385, 1501, 2002, 2534, 3051, 3134, 3601, 3719, 4068, 4201, 4251, 4701, 4918, 5067, 6251]}, "edge": {"target": [], "time": []}}}, "displayed_time": "9.62", "trialTime": 11666, "trial_type": "mouselab-mdp", "trial_index": 29, "time_elapsed": 459813, "internal_node_id": "0.0-4.0-1.0-20.0"}}, {"uniqueid": "w95566467:a53572764", "current_trial": 30, "dateTime": 1664464395138, "trialdata": {"revealed_states": [], "num_clicks_accrued": [0, 0, 0, 0, 0, 0, 0, 0, 0, 0, 0, 0, 0], "stateRewards": ["", 2, -8, 24, 24, 2, 4, -48, -48, 4, 4, -24, 48], "withholdReward": true, "trial_id": "mdp_985707010949", "block": "test1", "trialIndex": 23, "score": 59.5, "costs": -1.5, "simulationMode": [null, null, null], "rewards": [4, 4, 48], "path": ["0", "0", "9", "10", "12"], "rt": [5192, 68, 96], "actions": ["left", "left", "down"], "actionTimes": [5989, 6563, 7175], "queries": {"click": {"state": {"target": ["11", "7", "8", "12", "10", "9"], "time": [2484, 3077, 3727, 4254, 5071, 5248]}, "edge": {"target": [], "time": []}}, "mouseover": {"state": {"target": ["11", "1", "7", "1", "11", "11", "7", "6", "8", "12", "9", "4", "10", "9"], "time": [1415, 1594, 1677, 1895, 1977, 2331, 2977, 3259, 3327, 4211, 4443, 4644, 4944, 5209]}, "edge": {"target": [], "time": []}}, "mouseout": {"state": {"target": ["0", "11", "1", "7", "1", "11", "11", "7", "6", "8", "12", "9", "4", "10", "9"], "time": [1082, 1527, 1610, 1812, 1910, 2027, 2714, 3226, 3293, 3826, 4394, 4459, 4764, 5177, 5376]}, "edge": {"target": [], "time": []}}}, "displayed_time": "8.80", "trialTime": 9725, "trial_type": "mouselab-mdp", "trial_index": 30, "time_elapsed": 469626, "internal_node_id": "0.0-4.0-1.0-21.0"}}, {"uniqueid": "w95566467:a53572764", "current_trial": 31, "dateTime": 1664464404888, "trialdata": {"revealed_states": [], "num_clicks_accrued": [0, 0, 0, 0, 0, 0, 0, 0, 0, 0, 0, 0, 0], "stateRewards": ["", 4, 4, 48, -48, -2, 4, 48, -48, -4, 4, -24, -24], "withholdReward": true, "trial_id": "mdp_753324812898", "block": "test1", "trialIndex": 24, "score": 54, "costs": -1, "simulationMode": [null, null, null], "rewards": [-2, 4, 48], "path": ["0", "0", "5", "6", "7"], "rt": [3015, 40, 102], "actions": ["right", "right", "up"], "actionTimes": [3837, 4388, 4998], "queries": {"click": {"state": {"target": ["11", "7", "6", "5"], "time": [1435, 1990, 2821, 3046]}, "edge": {"target": [], "time": []}}, "mouseover": {"state": {"target": ["11", "1", "7", "2", "6", "5"], "time": [1377, 1710, 1945, 2409, 2659, 2959]}, "edge": {"target": [], "time": []}}, "mouseout": {"state": {"target": ["0", "11", "1", "7", "2", "6", "5", "6"], "time": [1095, 1626, 1726, 2159, 2460, 2927, 3159, 3209]}, "edge": {"target": [], "time": []}}}, "displayed_time": "8.82", "trialTime": 9661, "trial_type": "mouselab-mdp", "trial_index": 31, "time_elapsed": 479375, "internal_node_id": "0.0-4.0-1.0-22.0"}}, {"uniqueid": "w95566467:a53572764", "current_trial": 32, "dateTime": 1664464415176, "trialdata": {"revealed_states": [], "num_clicks_accrued": [0, 0, 0, 0, 0, 0, 0, 0, 0, 0, 0, 0, 0], "stateRewards": ["", 4, -8, -24, 48, -4, 8, -24, -48, -4, -4, 24, 48], "withholdReward": false, "trial_id": "mdp_282352776624", "block": "test1", "trialIndex": 25, "score": 43.5, "costs": -1.5, "simulationMode": [null, null, null], "rewards": [-4, -4, 48], "path": ["0", "0", "9", "10", "12"], "rt": [6113, 380, 193], "actions": ["left", "left", "down"], "actionTimes": [6886, 7786, 8498], "queries": {"click": {"state": {"target": ["11", "7", "12", "10", "9", "8"], "time": [1482, 2064, 2850, 3605, 3861, 4745]}, "edge": {"target": [], "time": []}}, "mouseover": {"state": {"target": ["11", "1", "7", "1", "12", "10", "10", "9", "8", "5", "1", "2", "3", "2", "4"], "time": [1339, 1722, 1805, 2388, 2706, 3422, 3541, 3822, 4639, 5055, 5238, 5587, 5687, 5804, 5904]}, "edge": {"target": [], "time": []}}, "mouseout": {"state": {"target": ["5", "0", "11", "1", "7", "1", "12", "10", "10", "9", "8", "5", "1", "2", "3", "2", "4"], "time": [573, 1226, 1673, 1739, 2255, 2422, 2972, 3489, 3771, 4021, 4888, 5189, 5321, 5637, 5738, 5854, 5954]}, "edge": {"target": [], "time": []}}}, "displayed_time": "9.01", "trialTime": 10199, "trial_type": "mouselab-mdp", "trial_index": 32, "time_elapsed": 489664, "internal_node_id": "0.0-4.0-1.0-23.0"}}, {"uniqueid": "w95566467:a53572764", "current_trial": 33, "dateTime": 1664464426013, "trialdata": {"revealed_states": [], "num_clicks_accrued": [0, 0, 0, 0, 0, 0, 0, 0, 0, 0, 0, 0, 0], "stateRewards": ["", -2, -8, 48, 24, -2, 8, -48, -24, -2, 4, -48, 48], "withholdReward": true, "trial_id": "mdp_295220852217", "block": "test1", "trialIndex": 26, "score": 53.5, "costs": -1.5, "simulationMode": [null, null, null], "rewards": [-2, 4, 48], "path": ["0", "0", "9", "10", "12"], "rt": [4585, 28, 33], "actions": ["left", "left", "down"], "actionTimes": [5464, 6000, 6538], "queries": {"click": {"state": {"target": ["11", "7", "8", "12", "10", "9"], "time": [1971, 2834, 3395, 3860, 4579, 4778]}, "edge": {"target": [], "time": []}}, "mouseover": {"state": {"target": ["11", "1", "7", "8", "12", "9", "10", "9"], "time": [1689, 2222, 2772, 3188, 3805, 4021, 4454, 4721]}, "edge": {"target": [], "time": []}}, "mouseout": {"state": {"target": ["9", "11", "1", "7", "8", "12", "9", "10", "9", "12", "11"], "time": [639, 2190, 2239, 3055, 3488, 4004, 4054, 4687, 4904, 9320, 9420]}, "edge": {"target": [], "time": []}}}, "displayed_time": "9.88", "trialTime": 10739, "trial_type": "mouselab-mdp", "trial_index": 33, "time_elapsed": 500501, "internal_node_id": "0.0-4.0-1.0-24.0"}}, {"uniqueid": "w95566467:a53572764", "current_trial": 34, "dateTime": 1664464437326, "trialdata": {"revealed_states": [], "num_clicks_accrued": [0, 0, 0, 0, 0, 0, 0, 0, 0, 0, 0, 0, 0], "stateRewards": ["", -4, 4, 24, 24, 4, -8, 48, -48, -2, -8, 24, 24], "withholdReward": true, "trial_id": "mdp_395264223239", "block": "test1", "trialIndex": 27, "score": 48, "costs": -1, "simulationMode": [null, null, null], "rewards": [4, -8, 48], "path": ["0", "0", "5", "6", "7"], "rt": [3943, 307, 127], "actions": ["right", "right", "up"], "actionTimes": [5301, 6102, 6741], "queries": {"click": {"state": {"target": ["11", "7", "6", "5"], "time": [2012, 3046, 3598, 3830]}, "edge": {"target": [], "time": []}}, "mouseover": {"state": {"target": ["9", "10", "11", "12", "5", "6", "7", "6", "8", "6", "5", "8"], "time": [1679, 1779, 1927, 2379, 2711, 2744, 2944, 3177, 3277, 3513, 3727, 4329]}, "edge": {"target": [], "time": []}}, "mouseout": {"state": {"target": ["9", "9", "10", "11", "12", "5", "6", "7", "6", "8", "6", "5", "8"], "time": [528, 1745, 1896, 2179, 2646, 2728, 2761, 3143, 3227, 3446, 3693, 3943, 7961]}, "edge": {"target": [], "time": []}}}, "displayed_time": "10.36", "trialTime": 11227, "trial_type": "mouselab-mdp", "trial_index": 34, "time_elapsed": 511814, "internal_node_id": "0.0-4.0-1.0-25.0"}}, {"uniqueid": "w95566467:a53572764", "current_trial": 35, "dateTime": 1664464448239, "trialdata": {"revealed_states": [], "num_clicks_accrued": [0, 0, 0, 0, 0, 0, 0, 0, 0, 0, 0, 0, 0], "stateRewards": ["", -2, -8, -24, 48, -2, -8, -48, -48, 2, -8, -48, 24], "withholdReward": false, "trial_id": "mdp_288324580942", "block": "test1", "trialIndex": 28, "score": 40.5, "costs": -2.5, "simulationMode": [null, null, null], "rewards": [-2, -8, 48], "path": ["0", "0", "1", "2", "4"], "rt": [6716, 80, 231], "actions": ["up", "up", "left"], "actionTimes": [7952, 8528, 9278], "queries": {"click": {"state": {"target": ["11", "7", "8", "12", "4", "3", "2", "1", "9", "10"], "time": [1667, 2123, 2936, 3450, 4007, 4412, 4728, 4997, 6190, 6562]}, "edge": {"target": [], "time": []}}, "mouseover": {"state": {"target": ["9", "11", "1", "7", "6", "8", "12", "9", "4", "2", "3", "2", "1", "9", "10"], "time": [1414, 1512, 1845, 2028, 2294, 2896, 3328, 3627, 3961, 4177, 4328, 4594, 4927, 6061, 6493]}, "edge": {"target": [], "time": []}}, "mouseout": {"state": {"target": ["0", "9", "11", "1", "7", "6", "8", "12", "9", "4", "2", "3", "2", "1", "9", "10"], "time": [645, 1429, 1778, 1861, 2261, 2311, 3044, 3611, 3661, 4144, 4227, 4544, 4860, 5160, 6343, 6677]}, "edge": {"target": [], "time": []}}}, "displayed_time": "9.80", "trialTime": 10828, "trial_type": "mouselab-mdp", "trial_index": 35, "time_elapsed": 522727, "internal_node_id": "0.0-4.0-1.0-26.0"}}, {"uniqueid": "w95566467:a53572764", "current_trial": 36, "dateTime": 1664464459799, "trialdata": {"revealed_states": [], "num_clicks_accrued": [0, 0, 0, 0, 0, 0, 0, 0, 0, 0, 0, 0, 0], "stateRewards": ["", 4, 4, 48, -24, -4, -8, 24, -24, 2, -8, -24, 24], "withholdReward": false, "trial_id": "mdp_933201675789", "block": "test1", "trialIndex": 29, "score": 59, "costs": -2, "simulationMode": [null, null, null], "rewards": [4, 4, 48], "path": ["0", "0", "1", "2", "3"], "rt": [4644, 91, 95], "actions": ["up", "up", "right"], "actionTimes": [6331, 6932, 7531], "queries": {"click": {"state": {"target": ["11", "7", "8", "12", "4", "3", "2", "1"], "time": [2327, 2787, 3300, 3764, 4309, 4605, 5297, 5499]}, "edge": {"target": [], "time": []}}, "mouseover": {"state": {"target": ["11", "1", "7", "6", "8", "12", "9", "4", "2", "3", "1", "2", "1", "6"], "time": [2104, 2486, 2586, 2937, 3003, 3602, 3936, 4120, 4435, 4536, 5135, 5236, 5469, 5769]}, "edge": {"target": [], "time": []}}, "mouseout": {"state": {"target": ["6", "5", "0", "11", "1", "7", "6", "8", "12", "9", "4", "2", "3", "1", "2", "1", "7", "6", "6"], "time": [1455, 1537, 2024, 2453, 2503, 2903, 2970, 3420, 3903, 3970, 4402, 4486, 4769, 5185, 5435, 5652, 5752, 5785, 10251]}, "edge": {"target": [], "time": []}}}, "displayed_time": "10.69", "trialTime": 11467, "trial_type": "mouselab-mdp", "trial_index": 36, "time_elapsed": 534287, "internal_node_id": "0.0-4.0-1.0-27.0"}}, {"uniqueid": "w95566467:a53572764", "current_trial": 37, "dateTime": 1664464469253, "trialdata": {"revealed_states": [], "num_clicks_accrued": [0, 0, 0, 0, 0, 0, 0, 0, 0, 0, 0, 0, 0], "stateRewards": ["", 2, -8, 24, 24, 4, -4, -24, -48, 4, 8, 24, 24], "withholdReward": true, "trial_id": "mdp_249803813713", "block": "test1", "trialIndex": 30, "score": 39, "costs": -2, "simulationMode": [null, null, null], "rewards": [4, 8, 24], "path": ["0", "0", "9", "10", "12"], "rt": [5247, 29, 77], "actions": ["left", "left", "down"], "actionTimes": [6162, 6713, 7325], "queries": {"click": {"state": {"target": ["11", "7", "8", "12", "4", "3", "10", "9"], "time": [1484, 1902, 2378, 2793, 3429, 3743, 5143, 5337]}, "edge": {"target": [], "time": []}}, "mouseover": {"state": {"target": ["11", "1", "7", "6", "8", "12", "9", "4", "2", "3", "1", "9", "10", "9"], "time": [1365, 1664, 1747, 2148, 2215, 2614, 2997, 3363, 3563, 3646, 4165, 4464, 4731, 5263]}, "edge": {"target": [], "time": []}}, "mouseout": {"state": {"target": ["6", "5", "11", "1", "7", "6", "8", "12", "9", "4", "2", "3", "1", "9", "10", "9"], "time": [582, 715, 1614, 1680, 2116, 2198, 2481, 2947, 3114, 3547, 3596, 3914, 4333, 4631, 5229, 5462]}, "edge": {"target": [], "time": []}}}, "displayed_time": "8.92", "trialTime": 9402, "trial_type": "mouselab-mdp", "trial_index": 37, "time_elapsed": 543740, "internal_node_id": "0.0-4.0-1.0-28.0"}}, {"uniqueid": "w95566467:a53572764", "current_trial": 38, "dateTime": 1664464480178, "trialdata": {"revealed_states": [], "num_clicks_accrued": [0, 0, 0, 0, 0, 0, 0, 0, 0, 0, 0, 0, 0], "stateRewards": ["", -4, 4, -24, 48, 2, 4, -48, 24, 4, -8, -24, 24], "withholdReward": true, "trial_id": "mdp_740130150937", "block": "test1", "trialIndex": 31, "score": 51.25, "costs": -1.75, "simulationMode": [null, null, null], "rewards": [-4, 4, 48], "path": ["0", "0", "1", "2", "4"], "rt": [4882, 264, 104], "actions": ["up", "up", "left"], "actionTimes": [5793, 6593, 7218], "queries": {"click": {"state": {"target": ["11", "7", "12", "3", "4", "2", "1"], "time": [1478, 1944, 2525, 3535, 4012, 4817, 5124]}, "edge": {"target": [], "time": []}}, "mouseover": {"state": {"target": ["9", "11", "1", "7", "5", "12", "9", "2", "3", "3", "4", "1", "5", "8", "5", "2", "1"], "time": [1212, 1378, 1678, 1847, 2211, 2515, 2762, 3111, 3311, 3411, 3977, 4144, 4177, 4244, 4562, 4777, 4978]}, "edge": {"target": [], "time": []}}, "mouseout": {"state": {"target": ["0", "9", "11", "1", "7", "5", "12", "9", "2", "3", "3", "4", "1", "5", "8", "5", "2", "1", "6"], "time": [1179, 1245, 1628, 1694, 2128, 2262, 2628, 2846, 3161, 3361, 3677, 4111, 4160, 4194, 4463, 4579, 4910, 5227, 9277]}, "edge": {"target": [], "time": []}}}, "displayed_time": "9.91", "trialTime": 10844, "trial_type": "mouselab-mdp", "trial_index": 38, "time_elapsed": 554666, "internal_node_id": "0.0-4.0-1.0-29.0"}}, {"uniqueid": "w95566467:a53572764", "current_trial": 39, "dateTime": 1664464505116, "trialdata": {"rt": 24929, "stimulus": "<h1> End of block! </h1>\n\nYou have reached the end of the block 1/4. If you need a short break, feel free to take one now before moving on.\n\n<br><br>\nIn the next block, you will complete another 30 rounds of this game.\n\n<br><br>\n<div style='text-align: center;'>Press <code>space</code> to begin.</div>\n<br><br>\n<div style='text-align: center;'>(If the experiment doesn't continue, try clicking on the text and then pressing <code>space</code>.)</div>", "response": " ", "trial_id": "mdp_ready_2", "trial_type": "html-keyboard-response", "trial_index": 39, "time_elapsed": 579604, "internal_node_id": "0.0-4.0-2.0"}}, {"uniqueid": "w95566467:a53572764", "current_trial": 40, "dateTime": 1664464517901, "trialdata": {"revealed_states": [], "num_clicks_accrued": [0, 0, 0, 0, 0, 0, 0, 0, 0, 0, 0, 0, 0], "stateRewards": ["", -2, -4, -24, -48, -4, -8, -48, 24, -4, -8, -24, -48], "withholdReward": true, "trial_id": "mdp_475782454549", "block": "test2", "trialIndex": 32, "score": 15, "costs": -2, "simulationMode": [null, null, null], "rewards": [-4, -8, 24], "path": ["0", "0", "5", "6", "8"], "rt": [7617, 62, 146], "actions": ["right", "right", "down"], "actionTimes": [9937, 10510, 11172], "queries": {"click": {"state": {"target": ["11", "7", "3", "4", "8", "12", "5", "6"], "time": [3176, 3704, 4313, 4776, 5236, 5725, 6703, 7210]}, "edge": {"target": [], "time": []}}, "mouseover": {"state": {"target": ["11", "1", "7", "3", "4", "1", "5", "8", "12", "5", "6", "5", "6", "9", "0"], "time": [2929, 3396, 3681, 4195, 4646, 4912, 4945, 4995, 5698, 6278, 6528, 6646, 6844, 7877, 8195]}, "edge": {"target": [], "time": []}}, "mouseout": {"state": {"target": ["5", "11", "1", "7", "3", "4", "1", "5", "8", "12", "5", "6", "5", "6", "9", "0"], "time": [1946, 3330, 3429, 3931, 4428, 4861, 4928, 4961, 5328, 5894, 6428, 6590, 6811, 7361, 8163, 8245]}, "edge": {"target": [], "time": []}}}, "displayed_time": "11.66", "trialTime": 12697, "trial_type": "mouselab-mdp", "trial_index": 40, "time_elapsed": 592388, "internal_node_id": "0.0-4.0-3.0-0.0"}}, {"uniqueid": "w95566467:a53572764", "current_trial": 41, "dateTime": 1664464526702, "trialdata": {"revealed_states": [], "num_clicks_accrued": [0, 0, 0, 0, 0, 0, 0, 0, 0, 0, 0, 0, 0], "stateRewards": ["", -4, -4, -24, 24, -4, 4, -24, 48, -2, 4, 48, -48], "withholdReward": true, "trial_id": "mdp_774757609669", "block": "test2", "trialIndex": 33, "score": 54.25, "costs": -0.75, "simulationMode": [null, null, null], "rewards": [-2, 4, 48], "path": ["0", "0", "9", "10", "11"], "rt": [2403, 430, 161], "actions": ["left", "left", "up"], "actionTimes": [3282, 4220, 4895], "queries": {"click": {"state": {"target": ["11", "10", "9"], "time": [1650, 2333, 2532]}, "edge": {"target": [], "time": []}}, "mouseover": {"state": {"target": ["11", "10", "9"], "time": [1553, 2169, 2468]}, "edge": {"target": [], "time": []}}, "mouseout": {"state": {"target": ["5", "1", "11", "10", "9"], "time": [402, 619, 1854, 2434, 2801]}, "edge": {"target": [], "time": []}}}, "displayed_time": "7.88", "trialTime": 8708, "trial_type": "mouselab-mdp", "trial_index": 41, "time_elapsed": 601190, "internal_node_id": "0.0-4.0-3.0-1.0"}}, {"uniqueid": "w95566467:a53572764", "current_trial": 42, "dateTime": 1664464537325, "trialdata": {"revealed_states": [], "num_clicks_accrued": [0, 0, 0, 0, 0, 0, 0, 0, 0, 0, 0, 0, 0], "stateRewards": ["", -2, 4, -48, 24, -4, 8, 48, 24, -2, 4, -48, -24], "withholdReward": true, "trial_id": "mdp_740882974347", "block": "test2", "trialIndex": 34, "score": 56, "costs": -1, "simulationMode": [null, null, null], "rewards": [-4, 8, 48], "path": ["0", "0", "5", "6", "7"], "rt": [2802, 70, 79], "actions": ["right", "right", "up"], "actionTimes": [3433, 4009, 4621], "queries": {"click": {"state": {"target": ["11", "7", "6", "5"], "time": [1190, 1854, 2466, 2752]}, "edge": {"target": [], "time": []}}, "mouseover": {"state": {"target": ["11", "1", "7", "6", "8", "6", "5"], "time": [1006, 1404, 1621, 2004, 2088, 2388, 2637]}, "edge": {"target": [], "time": []}}, "mouseout": {"state": {"target": ["11", "1", "7", "6", "8", "6", "5"], "time": [1337, 1437, 1987, 2037, 2357, 2620, 2870]}, "edge": {"target": [], "time": []}}}, "displayed_time": "9.63", "trialTime": 10520, "trial_type": "mouselab-mdp", "trial_index": 42, "time_elapsed": 611813, "internal_node_id": "0.0-4.0-3.0-2.0"}}, {"uniqueid": "w95566467:a53572764", "current_trial": 43, "dateTime": 1664464548612, "trialdata": {"revealed_states": [], "num_clicks_accrued": [0, 0, 0, 0, 0, 0, 0, 0, 0, 0, 0, 0, 0], "stateRewards": ["", -4, 4, -48, -48, -4, 8, -24, 24, 2, -4, 48, 48], "withholdReward": false, "trial_id": "mdp_821566905048", "block": "test2", "trialIndex": 35, "score": 50.25, "costs": -0.75, "simulationMode": [null, null, null], "rewards": [2, -4, 48], "path": ["0", "0", "9", "10", "11"], "rt": [2402, 35, 134], "actions": ["left", "left", "up"], "actionTimes": [3507, 4044, 4709], "queries": {"click": {"state": {"target": ["11", "10", "9"], "time": [1566, 2224, 2434]}, "edge": {"target": [], "time": []}}, "mouseover": {"state": {"target": ["11", "9", "10", "9"], "time": [1525, 2025, 2075, 2374]}, "edge": {"target": [], "time": []}}, "mouseout": {"state": {"target": ["0", "11", "9", "10", "9"], "time": [1191, 1726, 2041, 2324, 2590]}, "edge": {"target": [], "time": []}}}, "displayed_time": "10.11", "trialTime": 11182, "trial_type": "mouselab-mdp", "trial_index": 43, "time_elapsed": 623100, "internal_node_id": "0.0-4.0-3.0-3.0"}}, {"uniqueid": "w95566467:a53572764", "current_trial": 44, "dateTime": 1664464560900, "trialdata": {"revealed_states": [], "num_clicks_accrued": [0, 0, 0, 0, 0, 0, 0, 0, 0, 0, 0, 0, 0], "stateRewards": ["", -4, 8, 24, 24, 2, 4, -48, 24, -2, -4, -24, -24], "withholdReward": true, "trial_id": "mdp_752328329546", "block": "test2", "trialIndex": 36, "score": 33, "costs": -2, "simulationMode": [null, null, null], "rewards": [2, 4, 24], "path": ["0", "0", "5", "6", "8"], "rt": [7053, 173, 1280], "actions": ["right", "right", "down"], "actionTimes": [8308, 8971, 10758], "queries": {"click": {"state": {"target": ["11", "7", "4", "3", "8", "12", "5", "6"], "time": [1928, 2770, 3581, 4041, 4616, 5131, 7351, 7704]}, "edge": {"target": [], "time": []}}, "mouseover": {"state": {"target": ["11", "1", "7", "7", "1", "4", "2", "3", "6", "8", "12", "0", "1", "5", "5", "6"], "time": [1879, 2330, 2396, 2599, 3312, 3529, 3761, 3944, 4428, 4561, 4945, 5611, 6028, 6428, 6778, 7476]}, "edge": {"target": [], "time": []}}, "mouseout": {"state": {"target": ["0", "11", "1", "7", "7", "1", "4", "2", "3", "6", "8", "12", "0", "1", "5", "5", "6", "5", "6"], "time": [1330, 2266, 2346, 2412, 3198, 3362, 3711, 3828, 4227, 4444, 4761, 5311, 5695, 6280, 6478, 7443, 7810, 10229, 10277]}, "edge": {"target": [], "time": []}}}, "displayed_time": "11.28", "trialTime": 12194, "trial_type": "mouselab-mdp", "trial_index": 44, "time_elapsed": 635388, "internal_node_id": "0.0-4.0-3.0-4.0"}}, {"uniqueid": "w95566467:a53572764", "current_trial": 45, "dateTime": 1664464570550, "trialdata": {"revealed_states": [], "num_clicks_accrued": [0, 0, 0, 0, 0, 0, 0, 0, 0, 0, 0, 0, 0], "stateRewards": ["", 4, 4, 48, -24, -4, -8, 24, -24, 2, -8, -24, 24], "withholdReward": true, "trial_id": "mdp_933201675789", "block": "test2", "trialIndex": 37, "score": 59, "costs": -2, "simulationMode": [null, null, null], "rewards": [4, 4, 48], "path": ["0", "0", "1", "2", "3"], "rt": [5117, 92, 95], "actions": ["up", "up", "right"], "actionTimes": [5836, 6437, 7037], "queries": {"click": {"state": {"target": ["11", "8", "12", "7", "4", "3", "2", "1"], "time": [1545, 2129, 2665, 3163, 3881, 4211, 4861, 5060]}, "edge": {"target": [], "time": []}}, "mouseover": {"state": {"target": ["11", "9", "8", "12", "0", "5", "7", "1", "4", "2", "3", "2", "1"], "time": [1476, 1774, 1975, 2597, 2824, 2841, 3058, 3559, 3825, 4057, 4140, 4808, 5024]}, "edge": {"target": [], "time": []}}, "mouseout": {"state": {"target": ["0", "11", "9", "8", "12", "0", "5", "7", "1", "4", "2", "3", "2", "1", "7", "6", "8"], "time": [1095, 1710, 1808, 2275, 2774, 2841, 2858, 3324, 3625, 4041, 4107, 4357, 4973, 5190, 5273, 8624, 8842]}, "edge": {"target": [], "time": []}}}, "displayed_time": "8.72", "trialTime": 9561, "trial_type": "mouselab-mdp", "trial_index": 45, "time_elapsed": 645038, "internal_node_id": "0.0-4.0-3.0-5.0"}}, {"uniqueid": "w95566467:a53572764", "current_trial": 46, "dateTime": 1664464581163, "trialdata": {"revealed_states": [], "num_clicks_accrued": [0, 0, 0, 0, 0, 0, 0, 0, 0, 0, 0, 0, 0], "stateRewards": ["", -4, 8, 24, -24, 4, -8, -24, -24, -2, 8, -48, 24], "withholdReward": true, "trial_id": "mdp_240302100183", "block": "test2", "trialIndex": 38, "score": 32.5, "costs": -2.5, "simulationMode": [null, null, null], "rewards": [-2, 8, 24], "path": ["0", "0", "9", "10", "12"], "rt": [7352, 109, 113], "actions": ["left", "left", "down"], "actionTimes": [8047, 8661, 9285], "queries": {"click": {"state": {"target": ["11", "8", "12", "7", "4", "3", "2", "10", "1", "9"], "time": [1327, 1837, 2352, 2840, 3305, 3572, 5262, 5789, 6982, 7205]}, "edge": {"target": [], "time": []}}, "mouseover": {"state": {"target": ["9", "11", "5", "8", "12", "0", "5", "7", "1", "4", "2", "3", "5", "0", "10", "9", "1", "2", "1", "10", "9", "1", "9", "5"], "time": [1021, 1237, 1586, 1803, 2136, 2469, 2502, 2620, 3036, 3169, 3435, 3519, 3936, 4035, 4252, 4703, 4753, 4904, 5502, 5635, 5968, 6785, 7151, 7434]}, "edge": {"target": [], "time": []}}, "mouseout": {"state": {"target": ["0", "9", "11", "5", "8", "12", "0", "5", "7", "1", "4", "2", "3", "5", "0", "10", "9", "1", "2", "1", "10", "9", "1", "9", "5"], "time": [990, 1071, 1486, 1653, 1999, 2436, 2486, 2519, 2968, 3052, 3402, 3485, 3718, 3987, 4052, 4672, 4719, 4819, 5470, 5519, 5918, 6720, 7100, 7351, 7467]}, "edge": {"target": [], "time": []}}}, "displayed_time": "9.80", "trialTime": 10523, "trial_type": "mouselab-mdp", "trial_index": 46, "time_elapsed": 655651, "internal_node_id": "0.0-4.0-3.0-6.0"}}, {"uniqueid": "w95566467:a53572764", "current_trial": 47, "dateTime": 1664464590388, "trialdata": {"revealed_states": [], "num_clicks_accrued": [0, 0, 0, 0, 0, 0, 0, 0, 0, 0, 0, 0, 0], "stateRewards": ["", 2, -4, 24, 24, 4, -4, -24, 24, -4, -4, 48, 48], "withholdReward": true, "trial_id": "mdp_566306223773", "block": "test2", "trialIndex": 39, "score": 44.25, "costs": -0.75, "simulationMode": [null, null, null], "rewards": [-4, -4, 48], "path": ["0", "0", "9", "10", "11"], "rt": [3239, 2, 133], "actions": ["left", "left", "up"], "actionTimes": [3978, 4518, 5179], "queries": {"click": {"state": {"target": ["11", "10", "9"], "time": [1303, 2042, 2234]}, "edge": {"target": [], "time": []}}, "mouseover": {"state": {"target": ["11", "0", "9", "10", "9", "5", "6", "7", "5"], "time": [1281, 1747, 1797, 1965, 2197, 2997, 3047, 3230, 3397]}, "edge": {"target": [], "time": []}}, "mouseout": {"state": {"target": ["8", "5", "11", "0", "9", "10", "9", "5", "6", "7", "5"], "time": [482, 631, 1481, 1780, 1898, 2147, 2363, 3030, 3064, 3314, 3464]}, "edge": {"target": [], "time": []}}}, "displayed_time": "8.74", "trialTime": 9128, "trial_type": "mouselab-mdp", "trial_index": 47, "time_elapsed": 664875, "internal_node_id": "0.0-4.0-3.0-7.0"}}, {"uniqueid": "w95566467:a53572764", "current_trial": 48, "dateTime": 1664464600949, "trialdata": {"revealed_states": [], "num_clicks_accrued": [0, 0, 0, 0, 0, 0, 0, 0, 0, 0, 0, 0, 0], "stateRewards": ["", 2, -4, 48, -48, -4, -8, -48, 24, -4, 4, 48, 48], "withholdReward": false, "trial_id": "mdp_544803968425", "block": "test2", "trialIndex": 40, "score": 52.25, "costs": -0.75, "simulationMode": [null, null, null], "rewards": [-4, 4, 48], "path": ["0", "0", "9", "10", "11"], "rt": [2193, 85, 127], "actions": ["left", "left", "up"], "actionTimes": [2850, 3438, 4063], "queries": {"click": {"state": {"target": ["11", "10", "9"], "time": [1087, 1852, 2129]}, "edge": {"target": [], "time": []}}, "mouseover": {"state": {"target": ["9", "11", "5", "0", "9", "10", "9"], "time": [817, 933, 1332, 1584, 1616, 1733, 2016]}, "edge": {"target": [], "time": []}}, "mouseout": {"state": {"target": ["9", "11", "5", "0", "9", "10", "9"], "time": [867, 1249, 1366, 1601, 1683, 1983, 2299]}, "edge": {"target": [], "time": []}}}, "displayed_time": "8.66", "trialTime": 10461, "trial_type": "mouselab-mdp", "trial_index": 48, "time_elapsed": 675437, "internal_node_id": "0.0-4.0-3.0-8.0"}}, {"uniqueid": "w95566467:a53572764", "current_trial": 49, "dateTime": 1664464611902, "trialdata": {"revealed_states": [], "num_clicks_accrued": [0, 0, 0, 0, 0, 0, 0, 0, 0, 0, 0, 0, 0], "stateRewards": ["", -4, -4, -24, 48, 2, 4, -24, -48, -2, 4, 24, 24], "withholdReward": true, "trial_id": "mdp_360934723192", "block": "test2", "trialIndex": 41, "score": 42.5, "costs": -2.5, "simulationMode": [null, null, null], "rewards": [-4, -4, 48], "path": ["0", "0", "1", "2", "4"], "rt": [7462, 92, 129], "actions": ["up", "up", "left"], "actionTimes": [8201, 8792, 9428], "queries": {"click": {"state": {"target": ["11", "7", "8", "12", "4", "3", "2", "1", "9", "10"], "time": [1360, 2084, 2591, 3496, 4189, 4669, 4961, 5207, 6001, 6182]}, "edge": {"target": [], "time": []}}, "mouseover": {"state": {"target": ["9", "11", "9", "8", "6", "7", "6", "8", "12", "12", "9", "4", "2", "3", "2", "1", "9", "10"], "time": [1082, 1232, 1581, 1764, 1897, 2014, 2366, 2448, 2881, 3449, 3881, 4131, 4331, 4429, 4863, 5180, 5914, 6146]}, "edge": {"target": [], "time": []}}, "mouseout": {"state": {"target": ["0", "9", "11", "9", "8", "6", "7", "6", "8", "12", "12", "9", "4", "2", "3", "2", "1", "9", "10", "9"], "time": [1049, 1132, 1531, 1631, 1781, 1964, 2299, 2398, 2764, 2914, 3850, 3914, 4296, 4380, 4797, 5113, 5580, 6113, 6296, 6329]}, "edge": {"target": [], "time": []}}}, "displayed_time": "9.95", "trialTime": 10866, "trial_type": "mouselab-mdp", "trial_index": 49, "time_elapsed": 686389, "internal_node_id": "0.0-4.0-3.0-9.0"}}, {"uniqueid": "w95566467:a53572764", "current_trial": 50, "dateTime": 1664464621675, "trialdata": {"revealed_states": [], "num_clicks_accrued": [0, 0, 0, 0, 0, 0, 0, 0, 0, 0, 0, 0, 0], "stateRewards": ["", 2, 4, -24, -48, 4, -4, 24, 48, -4, -4, -24, 48], "withholdReward": true, "trial_id": "mdp_181958792175", "block": "test2", "trialIndex": 42, "score": 52, "costs": -1, "simulationMode": [null, null, null], "rewards": [4, -4, 48], "path": ["0", "0", "5", "6", "8"], "rt": [3138, 45, 136], "actions": ["right", "right", "down"], "actionTimes": [3787, 4335, 4962], "queries": {"click": {"state": {"target": ["11", "8", "6", "5"], "time": [1316, 1930, 2785, 3031]}, "edge": {"target": [], "time": []}}, "mouseover": {"state": {"target": ["11", "0", "8", "6", "6", "5"], "time": [1260, 1607, 1757, 2158, 2344, 2991]}, "edge": {"target": [], "time": []}}, "mouseout": {"state": {"target": ["0", "11", "0", "8", "6", "6", "5"], "time": [959, 1475, 1641, 2109, 2241, 2941, 3140]}, "edge": {"target": [], "time": []}}}, "displayed_time": "8.65", "trialTime": 9686, "trial_type": "mouselab-mdp", "trial_index": 50, "time_elapsed": 696163, "internal_node_id": "0.0-4.0-3.0-10.0"}}, {"uniqueid": "w95566467:a53572764", "current_trial": 51, "dateTime": 1664464632525, "trialdata": {"revealed_states": [], "num_clicks_accrued": [0, 0, 0, 0, 0, 0, 0, 0, 0, 0, 0, 0, 0], "stateRewards": ["", 2, 4, -24, -24, 4, 8, -48, 48, 2, 4, -24, -48], "withholdReward": true, "trial_id": "mdp_565165082781", "block": "test2", "trialIndex": 43, "score": 64.25, "costs": -0.75, "simulationMode": [null, null, null], "rewards": [4, 8, 48], "path": ["0", "0", "5", "6", "8"], "rt": [3771, 53, 135], "actions": ["right", "right", "down"], "actionTimes": [4636, 5187, 5850], "queries": {"click": {"state": {"target": ["11", "8", "5"], "time": [1451, 2399, 3698]}, "edge": {"target": [], "time": []}}, "mouseover": {"state": {"target": ["11", "7", "6", "8", "6", "5", "5", "6"], "time": [1330, 2079, 2179, 2262, 2696, 3029, 3315, 3912]}, "edge": {"target": [], "time": []}}, "mouseout": {"state": {"target": ["11", "7", "6", "8", "6", "5", "5", "6"], "time": [1830, 2146, 2229, 2649, 2981, 3130, 3847, 4161]}, "edge": {"target": [], "time": []}}}, "displayed_time": "9.87", "trialTime": 10761, "trial_type": "mouselab-mdp", "trial_index": 51, "time_elapsed": 707013, "internal_node_id": "0.0-4.0-3.0-11.0"}}, {"uniqueid": "w95566467:a53572764", "current_trial": 52, "dateTime": 1664464641840, "trialdata": {"revealed_states": [], "num_clicks_accrued": [0, 0, 0, 0, 0, 0, 0, 0, 0, 0, 0, 0, 0], "stateRewards": ["", -2, -4, -24, -48, 2, -8, -24, -24, 4, -8, 48, 48], "withholdReward": true, "trial_id": "mdp_950599994674", "block": "test2", "trialIndex": 44, "score": 48.25, "costs": -0.75, "simulationMode": [null, null, null], "rewards": [4, -8, 48], "path": ["0", "0", "9", "10", "11"], "rt": [2187, 86, 102], "actions": ["left", "left", "up"], "actionTimes": [2833, 3434, 4045], "queries": {"click": {"state": {"target": ["11", "10", "9"], "time": [1331, 1957, 2143]}, "edge": {"target": [], "time": []}}, "mouseover": {"state": {"target": ["9", "11", "9", "0", "9", "10", "9"], "time": [944, 1294, 1559, 1626, 1726, 1892, 2093]}, "edge": {"target": [], "time": []}}, "mouseout": {"state": {"target": ["0", "9", "11", "9", "0", "9", "10", "9"], "time": [913, 1027, 1510, 1592, 1676, 1826, 2059, 2259]}, "edge": {"target": [], "time": []}}}, "displayed_time": "8.65", "trialTime": 9210, "trial_type": "mouselab-mdp", "trial_index": 52, "time_elapsed": 716327, "internal_node_id": "0.0-4.0-3.0-12.0"}}, {"uniqueid": "w95566467:a53572764", "current_trial": 53, "dateTime": 1664464652663, "trialdata": {"revealed_states": [], "num_clicks_accrued": [0, 0, 0, 0, 0, 0, 0, 0, 0, 0, 0, 0, 0], "stateRewards": ["", 2, 8, 48, -24, -4, 4, 48, 24, -2, 8, 24, 24], "withholdReward": true, "trial_id": "mdp_123436106791", "block": "test2", "trialIndex": 45, "score": 51.75, "costs": -1.25, "simulationMode": [null, null, null], "rewards": [-4, 4, 48], "path": ["0", "0", "5", "6", "7"], "rt": [3384, 10, 129], "actions": ["right", "right", "up"], "actionTimes": [4001, 4526, 5165], "queries": {"click": {"state": {"target": ["11", "8", "7", "5", "6"], "time": [1062, 1580, 2115, 2854, 3044]}, "edge": {"target": [], "time": []}}, "mouseover": {"state": {"target": ["11", "8", "6", "7", "0", "0", "5", "5", "6"], "time": [933, 1399, 1833, 2017, 2282, 2567, 2617, 2817, 2982]}, "edge": {"target": [], "time": []}}, "mouseout": {"state": {"target": ["9", "11", "8", "6", "7", "0", "0", "5", "5", "6", "8", "5", "5", "0"], "time": [400, 1199, 1785, 1950, 2232, 2299, 2600, 2717, 2949, 3215, 3533, 9049, 9316, 10033]}, "edge": {"target": [], "time": []}}}, "displayed_time": "9.62", "trialTime": 10726, "trial_type": "mouselab-mdp", "trial_index": 53, "time_elapsed": 727151, "internal_node_id": "0.0-4.0-3.0-13.0"}}, {"uniqueid": "w95566467:a53572764", "current_trial": 54, "dateTime": 1664464664026, "trialdata": {"revealed_states": [], "num_clicks_accrued": [0, 0, 0, 0, 0, 0, 0, 0, 0, 0, 0, 0, 0], "stateRewards": ["", 4, 4, -48, -24, -2, -4, 48, 24, -4, 4, 24, -48], "withholdReward": true, "trial_id": "mdp_617383046444", "block": "test2", "trialIndex": 46, "score": 45.5, "costs": -1.5, "simulationMode": [null, null, null], "rewards": [-2, -4, 48], "path": ["0", "0", "5", "6", "7"], "rt": [4636, 114, 109], "actions": ["right", "right", "up"], "actionTimes": [5952, 6602, 7214], "queries": {"click": {"state": {"target": ["12", "8", "7", "6", "5", "11"], "time": [1802, 2418, 3043, 3895, 4105, 4926]}, "edge": {"target": [], "time": []}}, "mouseover": {"state": {"target": ["12", "0", "8", "6", "7", "1", "1", "6", "5", "11", "1"], "time": [1654, 2138, 2354, 2688, 2921, 3220, 3554, 3704, 4037, 4837, 5353]}, "edge": {"target": [], "time": []}}, "mouseout": {"state": {"target": ["6", "5", "0", "9", "9", "12", "0", "8", "6", "7", "1", "1", "6", "5", "6", "6", "5", "11", "1", "5", "5"], "time": [590, 688, 1004, 1071, 1204, 1987, 2154, 2640, 2738, 3170, 3253, 3571, 4020, 4253, 4270, 4621, 4638, 5120, 5370, 5486, 9423]}, "edge": {"target": [], "time": []}}}, "displayed_time": "10.32", "trialTime": 11264, "trial_type": "mouselab-mdp", "trial_index": 54, "time_elapsed": 738513, "internal_node_id": "0.0-4.0-3.0-14.0"}}, {"uniqueid": "w95566467:a53572764", "current_trial": 55, "dateTime": 1664464673489, "trialdata": {"revealed_states": [], "num_clicks_accrued": [0, 0, 0, 0, 0, 0, 0, 0, 0, 0, 0, 0, 0], "stateRewards": ["", -2, -8, -48, 24, 2, -4, -48, 48, 2, 4, 24, -24], "withholdReward": true, "trial_id": "mdp_849341543762", "block": "test2", "trialIndex": 47, "score": 49.75, "costs": -1.25, "simulationMode": [null, null, null], "rewards": [2, -4, 48], "path": ["0", "0", "5", "6", "8"], "rt": [6183, 9, 63], "actions": ["right", "right", "down"], "actionTimes": [6794, 7319, 7909], "queries": {"click": {"state": {"target": ["11", "7", "8", "5", "6"], "time": [2294, 3551, 4076, 5680, 6076]}, "edge": {"target": [], "time": []}}, "mouseover": {"state": {"target": ["1", "11", "1", "7", "6", "8", "12", "9", "6", "5", "6"], "time": [1413, 2197, 2877, 3444, 3844, 3960, 4326, 4796, 4943, 5643, 5792]}, "edge": {"target": [], "time": []}}, "mouseout": {"state": {"target": ["0", "1", "11", "1", "7", "6", "8", "12", "9", "6", "5", "6"], "time": [428, 1461, 2830, 2893, 3810, 3894, 4226, 4479, 4811, 5547, 5775, 6262]}, "edge": {"target": [], "time": []}}}, "displayed_time": "8.61", "trialTime": 9370, "trial_type": "mouselab-mdp", "trial_index": 55, "time_elapsed": 747977, "internal_node_id": "0.0-4.0-3.0-15.0"}}, {"uniqueid": "w95566467:a53572764", "current_trial": 56, "dateTime": 1664464683701, "trialdata": {"revealed_states": [], "num_clicks_accrued": [0, 0, 0, 0, 0, 0, 0, 0, 0, 0, 0, 0, 0], "stateRewards": ["", -4, 8, 24, -24, 4, 8, -24, -48, 2, 4, 24, -24], "withholdReward": true, "trial_id": "mdp_782187007008", "block": "test2", "trialIndex": 48, "score": 33, "costs": -2, "simulationMode": [null, null, null], "rewards": [2, 4, 24], "path": ["0", "0", "9", "10", "11"], "rt": [5714, 439, 188], "actions": ["left", "left", "up"], "actionTimes": [6462, 7414, 8113], "queries": {"click": {"state": {"target": ["12", "11", "7", "8", "3", "4", "10", "9"], "time": [1858, 2458, 2942, 3463, 4056, 4370, 5540, 5736]}, "edge": {"target": [], "time": []}}, "mouseover": {"state": {"target": ["0", "11", "10", "12", "10", "11", "1", "7", "6", "8", "5", "3", "2", "4", "9", "10", "10", "9"], "time": [842, 1189, 1572, 1738, 2255, 2322, 2637, 2905, 3104, 3439, 3754, 4052, 4237, 4304, 4820, 5103, 5404, 5670]}, "edge": {"target": [], "time": []}}, "mouseout": {"state": {"target": ["0", "0", "11", "10", "12", "10", "11", "1", "7", "6", "8", "5", "3", "2", "4", "9", "10", "10", "9"], "time": [822, 1089, 1556, 1639, 2172, 2272, 2571, 2654, 3088, 3137, 3721, 3771, 4187, 4287, 4620, 4970, 5170, 5637, 5903]}, "edge": {"target": [], "time": []}}}, "displayed_time": "9.75", "trialTime": 10113, "trial_type": "mouselab-mdp", "trial_index": 56, "time_elapsed": 758189, "internal_node_id": "0.0-4.0-3.0-16.0"}}, {"uniqueid": "w95566467:a53572764", "current_trial": 57, "dateTime": 1664464694864, "trialdata": {"revealed_states": [], "num_clicks_accrued": [0, 0, 0, 0, 0, 0, 0, 0, 0, 0, 0, 0, 0], "stateRewards": ["", 2, 4, 48, 24, -4, 8, 48, 48, 2, -4, -48, -24], "withholdReward": false, "trial_id": "mdp_822099887466", "block": "test2", "trialIndex": 49, "score": 56, "costs": -1, "simulationMode": [null, null, null], "rewards": [-4, 8, 48], "path": ["0", "0", "5", "6", "8"], "rt": [2683, 19, 50], "actions": ["right", "right", "down"], "actionTimes": [4143, 4681, 5243], "queries": {"click": {"state": {"target": ["11", "8", "5", "6"], "time": [1988, 2545, 3218, 3413]}, "edge": {"target": [], "time": []}}, "mouseover": {"state": {"target": ["9", "11", "11", "5", "8", "5", "6"], "time": [1661, 1744, 1961, 2260, 2511, 2994, 3377]}, "edge": {"target": [], "time": []}}, "mouseout": {"state": {"target": ["0", "0", "9", "11", "11", "5", "8", "5", "6", "8"], "time": [395, 1615, 1678, 1761, 2144, 2277, 2845, 3327, 3543, 3593]}, "edge": {"target": [], "time": []}}}, "displayed_time": "10.46", "trialTime": 11069, "trial_type": "mouselab-mdp", "trial_index": 57, "time_elapsed": 769352, "internal_node_id": "0.0-4.0-3.0-17.0"}}, {"uniqueid": "w95566467:a53572764", "current_trial": 58, "dateTime": 1664464704438, "trialdata": {"revealed_states": [], "num_clicks_accrued": [0, 0, 0, 0, 0, 0, 0, 0, 0, 0, 0, 0, 0], "stateRewards": ["", -4, -4, -24, -24, -2, 4, 48, -24, -2, -4, -24, 48], "withholdReward": false, "trial_id": "mdp_855903341564", "block": "test2", "trialIndex": 50, "score": 53.75, "costs": -1.25, "simulationMode": [null, null, null], "rewards": [-2, 4, 48], "path": ["0", "0", "5", "6", "7"], "rt": [3475, 364, 73], "actions": ["right", "right", "up"], "actionTimes": [4116, 4991, 5566], "queries": {"click": {"state": {"target": ["11", "8", "7", "5", "6"], "time": [1257, 1783, 2172, 3030, 3352]}, "edge": {"target": [], "time": []}}, "mouseover": {"state": {"target": ["11", "9", "8", "6", "7", "0", "12", "5", "5", "6"], "time": [1243, 1475, 1642, 2025, 2108, 2341, 2408, 2759, 2978, 3158]}, "edge": {"target": [], "time": []}}, "mouseout": {"state": {"target": ["0", "11", "9", "8", "6", "7", "0", "12", "5", "5", "6", "8"], "time": [913, 1409, 1492, 1991, 2075, 2292, 2358, 2442, 2779, 3125, 3491, 8658]}, "edge": {"target": [], "time": []}}}, "displayed_time": "8.64", "trialTime": 9478, "trial_type": "mouselab-mdp", "trial_index": 58, "time_elapsed": 778926, "internal_node_id": "0.0-4.0-3.0-18.0"}}, {"uniqueid": "w95566467:a53572764", "current_trial": 59, "dateTime": 1664464715276, "trialdata": {"revealed_states": [], "num_clicks_accrued": [0, 0, 0, 0, 0, 0, 0, 0, 0, 0, 0, 0, 0], "stateRewards": ["", 2, -8, -24, 48, 4, -8, -24, -24, 2, 8, -24, 24], "withholdReward": true, "trial_id": "mdp_480787552818", "block": "test2", "trialIndex": 51, "score": 45.5, "costs": -1.5, "simulationMode": [null, null, null], "rewards": [2, -8, 48], "path": ["0", "0", "1", "2", "4"], "rt": [4345, 4, 122], "actions": ["up", "up", "left"], "actionTimes": [5353, 5865, 6516], "queries": {"click": {"state": {"target": ["11", "8", "7", "4", "2", "1"], "time": [1359, 1957, 3040, 3539, 4236, 4466]}, "edge": {"target": [], "time": []}}, "mouseover": {"state": {"target": ["11", "9", "0", "8", "6", "7", "4", "2", "1", "2", "1"], "time": [1276, 1576, 1626, 1926, 2210, 3025, 3393, 3708, 4041, 4142, 4425]}, "edge": {"target": [], "time": []}}, "mouseout": {"state": {"target": ["11", "9", "0", "8", "6", "7", "4", "2", "1", "2", "1", "7", "1", "2", "2", "1", "0"], "time": [1544, 1609, 1642, 2177, 2277, 3261, 3675, 3758, 4093, 4375, 4591, 4741, 8224, 8257, 8641, 8807, 9907]}, "edge": {"target": [], "time": []}}}, "displayed_time": "10.01", "trialTime": 10753, "trial_type": "mouselab-mdp", "trial_index": 59, "time_elapsed": 789764, "internal_node_id": "0.0-4.0-3.0-19.0"}}, {"uniqueid": "w95566467:a53572764", "current_trial": 60, "dateTime": 1664464727400, "trialdata": {"revealed_states": [], "num_clicks_accrued": [0, 0, 0, 0, 0, 0, 0, 0, 0, 0, 0, 0, 0], "stateRewards": ["", -2, -8, -24, -48, 4, -8, 48, 24, 2, 4, -48, -48], "withholdReward": true, "trial_id": "mdp_898082967464", "block": "test2", "trialIndex": 52, "score": 48, "costs": -1, "simulationMode": [null, null, null], "rewards": [4, -8, 48], "path": ["0", "0", "5", "6", "7"], "rt": [4358, 89, 61], "actions": ["right", "right", "up"], "actionTimes": [4936, 5536, 6110], "queries": {"click": {"state": {"target": ["11", "8", "7", "6"], "time": [1133, 1981, 2459, 4164]}, "edge": {"target": [], "time": []}}, "mouseover": {"state": {"target": ["9", "11", "0", "5", "6", "8", "6", "7", "6", "5", "6"], "time": [730, 847, 1581, 1715, 1764, 1947, 2247, 2415, 3198, 3413, 3846]}, "edge": {"target": [], "time": []}}, "mouseout": {"state": {"target": ["0", "9", "11", "0", "5", "6", "8", "6", "7", "6", "5", "6", "6", "7", "6", "6", "0"], "time": [697, 747, 1330, 1682, 1730, 1897, 2214, 2347, 2612, 3365, 3799, 4329, 7148, 7562, 9746, 10978, 11393]}, "edge": {"target": [], "time": []}}}, "displayed_time": "9.58", "trialTime": 12035, "trial_type": "mouselab-mdp", "trial_index": 60, "time_elapsed": 801888, "internal_node_id": "0.0-4.0-3.0-20.0"}}, {"uniqueid": "w95566467:a53572764", "current_trial": 61, "dateTime": 1664464737339, "trialdata": {"revealed_states": [], "num_clicks_accrued": [0, 0, 0, 0, 0, 0, 0, 0, 0, 0, 0, 0, 0], "stateRewards": ["", -2, -8, 48, 24, 4, -8, 24, 48, 4, -4, 24, -48], "withholdReward": false, "trial_id": "mdp_871576155740", "block": "test2", "trialIndex": 53, "score": 48.25, "costs": -0.75, "simulationMode": [null, null, null], "rewards": [4, -8, 48], "path": ["0", "0", "5", "6", "8"], "rt": [3190, 40, 41], "actions": ["right", "right", "down"], "actionTimes": [4016, 4566, 5116], "queries": {"click": {"state": {"target": ["11", "8", "6"], "time": [1412, 2017, 2641]}, "edge": {"target": [], "time": []}}, "mouseover": {"state": {"target": ["11", "9", "0", "8", "6", "7", "6", "5", "5"], "time": [1324, 1572, 1606, 1875, 2205, 2289, 2557, 2789, 3608]}, "edge": {"target": [], "time": []}}, "mouseout": {"state": {"target": ["9", "11", "9", "0", "8", "6", "7", "6", "5", "5", "5"], "time": [507, 1539, 1589, 1622, 2173, 2255, 2523, 2772, 3558, 3625, 7505]}, "edge": {"target": [], "time": []}}}, "displayed_time": "8.83", "trialTime": 9854, "trial_type": "mouselab-mdp", "trial_index": 61, "time_elapsed": 811827, "internal_node_id": "0.0-4.0-3.0-21.0"}}, {"uniqueid": "w95566467:a53572764", "current_trial": 62, "dateTime": 1664464746313, "trialdata": {"revealed_states": [], "num_clicks_accrued": [0, 0, 0, 0, 0, 0, 0, 0, 0, 0, 0, 0, 0], "stateRewards": ["", -4, 4, 24, 24, -2, 8, 24, -48, 4, -8, -24, -48], "withholdReward": true, "trial_id": "mdp_651542905861", "block": "test2", "trialIndex": 54, "score": 27, "costs": -2, "simulationMode": [null, null, null], "rewards": [-4, 4, 24], "path": ["0", "0", "1", "2", "4"], "rt": [5133, 44, 293], "actions": ["up", "up", "left"], "actionTimes": [5668, 6219, 7031], "queries": {"click": {"state": {"target": ["11", "8", "7", "4", "3", "12", "2", "1"], "time": [1107, 1596, 1988, 2746, 3301, 3800, 4692, 4891]}, "edge": {"target": [], "time": []}}, "mouseover": {"state": {"target": ["11", "9", "8", "6", "7", "5", "10", "4", "1", "3", "9", "12", "0", "1", "2", "1"], "time": [1039, 1271, 1438, 1821, 1921, 2171, 2522, 2637, 2971, 3221, 3587, 3787, 4187, 4320, 4604, 4853]}, "edge": {"target": [], "time": []}}, "mouseout": {"state": {"target": ["0", "11", "9", "8", "6", "7", "5", "10", "4", "1", "3", "9", "12", "0", "1", "2", "1"], "time": [773, 1238, 1305, 1771, 1888, 2137, 2204, 2538, 2904, 3120, 3453, 3637, 4072, 4205, 4471, 4787, 5020]}, "edge": {"target": [], "time": []}}}, "displayed_time": "8.54", "trialTime": 8881, "trial_type": "mouselab-mdp", "trial_index": 62, "time_elapsed": 820801, "internal_node_id": "0.0-4.0-3.0-22.0"}}, {"uniqueid": "w95566467:a53572764", "current_trial": 63, "dateTime": 1664464757213, "trialdata": {"revealed_states": [], "num_clicks_accrued": [0, 0, 0, 0, 0, 0, 0, 0, 0, 0, 0, 0, 0], "stateRewards": ["", 4, -8, 24, 48, 2, -4, 48, 48, 4, -8, 48, 48], "withholdReward": false, "trial_id": "mdp_962498334245", "block": "test2", "trialIndex": 55, "score": 48.5, "costs": -0.5, "simulationMode": [null, null, null], "rewards": [4, -8, 48], "path": ["0", "0", "9", "10", "11"], "rt": [2377, 3, 411], "actions": ["left", "left", "up"], "actionTimes": [3428, 3928, 4853], "queries": {"click": {"state": {"target": ["11", "10"], "time": [1571, 2460]}, "edge": {"target": [], "time": []}}, "mouseover": {"state": {"target": ["9", "11", "11", "0", "0", "9", "10", "9"], "time": [1190, 1256, 1508, 1790, 2157, 2207, 2374, 2674]}, "edge": {"target": [], "time": []}}, "mouseout": {"state": {"target": ["5", "9", "11", "11", "0", "0", "9", "10", "9"], "time": [459, 1207, 1341, 1707, 1807, 2174, 2274, 2589, 5941]}, "edge": {"target": [], "time": []}}}, "displayed_time": "10.05", "trialTime": 10802, "trial_type": "mouselab-mdp", "trial_index": 63, "time_elapsed": 831701, "internal_node_id": "0.0-4.0-3.0-23.0"}}, {"uniqueid": "w95566467:a53572764", "current_trial": 64, "dateTime": 1664464767239, "trialdata": {"revealed_states": [], "num_clicks_accrued": [0, 0, 0, 0, 0, 0, 0, 0, 0, 0, 0, 0, 0], "stateRewards": ["", 4, 8, 24, 24, 2, -4, 48, -24, -4, 8, -24, 24], "withholdReward": true, "trial_id": "mdp_932292142091", "block": "test2", "trialIndex": 56, "score": 50.25, "costs": -0.75, "simulationMode": [null, null, null], "rewards": [2, -4, 48], "path": ["0", "0", "5", "6", "7"], "rt": [3127, 36, 55], "actions": ["right", "right", "up"], "actionTimes": [4351, 4901, 5489], "queries": {"click": {"state": {"target": ["11", "8", "7"], "time": [1966, 2497, 2918]}, "edge": {"target": [], "time": []}}, "mouseover": {"state": {"target": ["11", "0", "5", "8", "6", "7", "5", "6"], "time": [1832, 2197, 2231, 2330, 2765, 2865, 3398, 3614]}, "edge": {"target": [], "time": []}}, "mouseout": {"state": {"target": ["0", "11", "0", "5", "8", "6", "7", "5"], "time": [1098, 2114, 2214, 2247, 2748, 2815, 3215, 3532]}, "edge": {"target": [], "time": []}}}, "displayed_time": "9.22", "trialTime": 9939, "trial_type": "mouselab-mdp", "trial_index": 64, "time_elapsed": 841726, "internal_node_id": "0.0-4.0-3.0-24.0"}}, {"uniqueid": "w95566467:a53572764", "current_trial": 65, "dateTime": 1664464778315, "trialdata": {"revealed_states": [], "num_clicks_accrued": [0, 0, 0, 0, 0, 0, 0, 0, 0, 0, 0, 0, 0], "stateRewards": ["", 2, -4, 24, 48, -2, 4, -48, -48, -4, 4, 24, -24], "withholdReward": false, "trial_id": "mdp_900363662757", "block": "test2", "trialIndex": 57, "score": 49.5, "costs": -1.5, "simulationMode": [null, null, null], "rewards": [2, -4, 48], "path": ["0", "0", "1", "2", "4"], "rt": [4638, 71, 58], "actions": ["up", "up", "left"], "actionTimes": [5485, 6050, 6624], "queries": {"click": {"state": {"target": ["11", "8", "7", "12", "4", "2"], "time": [1451, 2065, 2816, 3317, 3768, 4842]}, "edge": {"target": [], "time": []}}, "mouseover": {"state": {"target": ["9", "11", "9", "8", "6", "7", "5", "0", "12", "9", "4", "2", "3", "2", "1"], "time": [1213, 1347, 1612, 1880, 2347, 2782, 3045, 3079, 3162, 3462, 3746, 3912, 4062, 4296, 4995]}, "edge": {"target": [], "time": []}}, "mouseout": {"state": {"target": ["6", "5", "0", "9", "11", "9", "8", "6", "7", "5", "0", "12", "9", "4", "2", "3", "2", "1", "1", "1", "5"], "time": [480, 546, 1181, 1230, 1595, 1629, 2314, 2395, 2996, 3062, 3095, 3445, 3512, 3878, 3995, 4214, 4961, 5012, 7897, 8428, 9344]}, "edge": {"target": [], "time": []}}}, "displayed_time": "9.85", "trialTime": 11000, "trial_type": "mouselab-mdp", "trial_index": 65, "time_elapsed": 852802, "internal_node_id": "0.0-4.0-3.0-25.0"}}, {"uniqueid": "w95566467:a53572764", "current_trial": 66, "dateTime": 1664464788551, "trialdata": {"revealed_states": [], "num_clicks_accrued": [0, 0, 0, 0, 0, 0, 0, 0, 0, 0, 0, 0, 0], "stateRewards": ["", -4, 8, -24, -48, 2, 8, -48, -24, -2, -4, 48, -48], "withholdReward": true, "trial_id": "mdp_599927291428", "block": "test2", "trialIndex": 58, "score": 46.5, "costs": -0.5, "simulationMode": [null, null, null], "rewards": [-2, -4, 48], "path": ["0", "0", "9", "10", "11"], "rt": [3045, 327, 106], "actions": ["left", "left", "up"], "actionTimes": [3561, 4401, 5012], "queries": {"click": {"state": {"target": ["11", "10"], "time": [1229, 2952]}, "edge": {"target": [], "time": []}}, "mouseover": {"state": {"target": ["11", "0", "5", "8", "0", "9", "10", "10", "10", "9", "10"], "time": [1106, 1405, 1422, 1488, 1755, 1805, 1994, 2208, 2494, 2691, 2905]}, "edge": {"target": [], "time": []}}, "mouseout": {"state": {"target": ["0", "11", "0", "5", "8", "0", "9", "10", "10", "10", "9", "10"], "time": [911, 1339, 1422, 1439, 1692, 1788, 1838, 2141, 2407, 2675, 2856, 3038]}, "edge": {"target": [], "time": []}}}, "displayed_time": "9.52", "trialTime": 10149, "trial_type": "mouselab-mdp", "trial_index": 66, "time_elapsed": 863038, "internal_node_id": "0.0-4.0-3.0-26.0"}}, {"uniqueid": "w95566467:a53572764", "current_trial": 67, "dateTime": 1664464797701, "trialdata": {"revealed_states": [], "num_clicks_accrued": [0, 0, 0, 0, 0, 0, 0, 0, 0, 0, 0, 0, 0], "stateRewards": ["", 4, -8, 48, -24, 4, -4, -48, -48, 4, -4, 24, 24], "withholdReward": true, "trial_id": "mdp_221562928904", "block": "test2", "trialIndex": 59, "score": 47.25, "costs": -1.75, "simulationMode": [null, null, null], "rewards": [4, -8, 48], "path": ["0", "0", "1", "2", "3"], "rt": [4686, 260, 155], "actions": ["up", "up", "right"], "actionTimes": [5246, 6021, 6683], "queries": {"click": {"state": {"target": ["11", "8", "7", "12", "4", "3", "2"], "time": [1124, 1682, 2042, 2687, 3229, 3567, 4482]}, "edge": {"target": [], "time": []}}, "mouseover": {"state": {"target": ["11", "9", "0", "8", "6", "7", "5", "12", "12", "9", "4", "2", "3", "2"], "time": [995, 1312, 1345, 1596, 1844, 1944, 2261, 2394, 2646, 2877, 3161, 3377, 3527, 4127]}, "edge": {"target": [], "time": []}}, "mouseout": {"state": {"target": ["0", "11", "9", "0", "8", "6", "7", "5", "12", "12", "9", "4", "2", "3", "2"], "time": [849, 1279, 1328, 1361, 1794, 1894, 2212, 2295, 2427, 2844, 2945, 3345, 3443, 3744, 4610]}, "edge": {"target": [], "time": []}}}, "displayed_time": "8.56", "trialTime": 9058, "trial_type": "mouselab-mdp", "trial_index": 67, "time_elapsed": 872188, "internal_node_id": "0.0-4.0-3.0-27.0"}}, {"uniqueid": "w95566467:a53572764", "current_trial": 68, "dateTime": 1664464807376, "trialdata": {"revealed_states": [], "num_clicks_accrued": [0, 0, 0, 0, 0, 0, 0, 0, 0, 0, 0, 0, 0], "stateRewards": ["", -4, -8, -48, 48, -2, 8, 48, 48, -2, -4, -48, -48], "withholdReward": false, "trial_id": "mdp_752833580638", "block": "test2", "trialIndex": 60, "score": 58.5, "costs": -0.5, "simulationMode": [null, null, null], "rewards": [-2, 8, 48], "path": ["0", "0", "5", "6", "7"], "rt": [3115, 76, 75], "actions": ["right", "right", "up"], "actionTimes": [3797, 4374, 4936], "queries": {"click": {"state": {"target": ["11", "7"], "time": [1461, 2095]}, "edge": {"target": [], "time": []}}, "mouseover": {"state": {"target": ["11", "9", "8", "6", "7", "6", "8", "6", "5"], "time": [1243, 1643, 1860, 1993, 2077, 2293, 2409, 2677, 3060]}, "edge": {"target": [], "time": []}}, "mouseout": {"state": {"target": ["11", "9", "8", "6", "7", "6", "8", "6", "5"], "time": [1610, 1676, 1893, 2026, 2260, 2343, 2612, 2995, 3212]}, "edge": {"target": [], "time": []}}}, "displayed_time": "8.68", "trialTime": 9585, "trial_type": "mouselab-mdp", "trial_index": 68, "time_elapsed": 881864, "internal_node_id": "0.0-4.0-3.0-28.0"}}, {"uniqueid": "w95566467:a53572764", "current_trial": 69, "dateTime": 1664464818013, "trialdata": {"revealed_states": [], "num_clicks_accrued": [0, 0, 0, 0, 0, 0, 0, 0, 0, 0, 0, 0, 0], "stateRewards": ["", -2, 4, -48, -48, -4, -8, 48, -48, 2, 4, 48, -48], "withholdReward": true, "trial_id": "mdp_258647270500", "block": "test2", "trialIndex": 61, "score": 58.75, "costs": -0.25, "simulationMode": [null, null, null], "rewards": [2, 4, 48], "path": ["0", "0", "9", "10", "11"], "rt": [1966, 75, 121], "actions": ["left", "left", "up"], "actionTimes": [2649, 3238, 3850], "queries": {"click": {"state": {"target": ["11"], "time": [1453]}, "edge": {"target": [], "time": []}}, "mouseover": {"state": {"target": ["11", "5", "0", "9", "10"], "time": [1360, 1759, 1942, 1976, 2059]}, "edge": {"target": [], "time": []}}, "mouseout": {"state": {"target": ["0", "11", "5", "0", "9"], "time": [593, 1611, 1925, 1959, 2009]}, "edge": {"target": [], "time": []}}}, "displayed_time": "9.68", "trialTime": 10524, "trial_type": "mouselab-mdp", "trial_index": 69, "time_elapsed": 892500, "internal_node_id": "0.0-4.0-3.0-29.0"}}, {"uniqueid": "w95566467:a53572764", "current_trial": 70, "dateTime": 1664464821290, "trialdata": {"rt": 3266, "stimulus": "<h1> End of block! </h1>\n\nYou have reached the end of the block 2/4. If you need a short break, feel free to take one now before moving on.\n\n<br><br>\nIn the next block, you will complete another 30 rounds of this game.\n\n<br><br>\n<div style='text-align: center;'>Press <code>space</code> to begin.</div>\n<br><br>\n<div style='text-align: center;'>(If the experiment doesn't continue, try clicking on the text and then pressing <code>space</code>.)</div>", "response": " ", "trial_id": "mdp_ready_3", "trial_type": "html-keyboard-response", "trial_index": 70, "time_elapsed": 895778, "internal_node_id": "0.0-4.0-4.0"}}, {"uniqueid": "w95566467:a53572764", "current_trial": 71, "dateTime": 1664464831889, "trialdata": {"revealed_states": [], "num_clicks_accrued": [0, 0, 0, 0, 0, 0, 0, 0, 0, 0, 0, 0, 0], "stateRewards": ["", 2, -4, -24, 24, 2, 8, 48, 48, 2, -8, 48, -24], "withholdReward": true, "trial_id": "mdp_330392242530", "block": "test3", "trialIndex": 62, "score": 46.25, "costs": -0.75, "simulationMode": [null, null, null], "rewards": [2, -8, 48], "path": ["0", "0", "9", "10", "11"], "rt": [2719, 146, 119], "actions": ["left", "left", "up"], "actionTimes": [3752, 4389, 5027], "queries": {"click": {"state": {"target": ["11", "10", "9"], "time": [1722, 2801, 3039]}, "edge": {"target": [], "time": []}}, "mouseover": {"state": {"target": ["11", "5", "6", "5", "9", "10", "9"], "time": [1523, 1940, 1973, 2190, 2290, 2456, 2972]}, "edge": {"target": [], "time": []}}, "mouseout": {"state": {"target": ["10", "9", "11", "5", "6", "5", "9", "10", "9", "3", "0"], "time": [543, 724, 1856, 1956, 2173, 2223, 2357, 2888, 3172, 7091, 8439]}, "edge": {"target": [], "time": []}}}, "displayed_time": "10.03", "trialTime": 10503, "trial_type": "mouselab-mdp", "trial_index": 71, "time_elapsed": 906377, "internal_node_id": "0.0-4.0-5.0-0.0"}}, {"uniqueid": "w95566467:a53572764", "current_trial": 72, "dateTime": 1664464840950, "trialdata": {"revealed_states": [], "num_clicks_accrued": [0, 0, 0, 0, 0, 0, 0, 0, 0, 0, 0, 0, 0], "stateRewards": ["", 2, -8, 24, 24, 2, 4, -48, -48, 4, 4, -24, 48], "withholdReward": true, "trial_id": "mdp_985707010949", "block": "test3", "trialIndex": 63, "score": 59.75, "costs": -1.25, "simulationMode": [null, null, null], "rewards": [4, 4, 48], "path": ["0", "0", "9", "10", "12"], "rt": [4413, 83, 32], "actions": ["left", "left", "down"], "actionTimes": [4957, 5557, 6106], "queries": {"click": {"state": {"target": ["7", "8", "11", "12", "10"], "time": [944, 1844, 2456, 3207, 4114]}, "edge": {"target": [], "time": []}}, "mouseover": {"state": {"target": ["7", "6", "8", "8", "0", "9", "10", "11", "10", "12", "12", "9", "1", "9", "10", "9"], "time": [840, 1141, 1241, 1807, 2124, 2143, 2173, 2425, 2640, 2757, 2958, 3389, 3456, 3807, 3890, 4273]}, "edge": {"target": [], "time": []}}, "mouseout": {"state": {"target": ["0", "7", "6", "8", "8", "0", "9", "10", "11", "10", "12", "12", "9", "1", "9", "10", "9"], "time": [408, 1107, 1207, 1357, 2026, 2141, 2157, 2190, 2607, 2690, 2790, 3356, 3423, 3540, 3824, 4239, 4290]}, "edge": {"target": [], "time": []}}}, "displayed_time": "8.54", "trialTime": 8969, "trial_type": "mouselab-mdp", "trial_index": 72, "time_elapsed": 915438, "internal_node_id": "0.0-4.0-5.0-1.0"}}, {"uniqueid": "w95566467:a53572764", "current_trial": 73, "dateTime": 1664464863328, "trialdata": {"revealed_states": [], "num_clicks_accrued": [0, 0, 0, 0, 0, 0, 0, 0, 0, 0, 0, 0, 0], "stateRewards": ["", -2, 4, 24, 48, 2, 4, -48, -48, -2, 8, 48, -24], "withholdReward": true, "trial_id": "mdp_305701202606", "block": "test3", "trialIndex": 64, "score": 58.75, "costs": -0.25, "simulationMode": [null, null, null], "rewards": [-2, 8, 48], "path": ["0", "0", "9", "10", "11"], "rt": [1523, 42, 78], "actions": ["left", "left", "up"], "actionTimes": [2144, 2681, 3269], "queries": {"click": {"state": {"target": ["11"], "time": [1212]}, "edge": {"target": [], "time": []}}, "mouseover": {"state": {"target": ["11"], "time": [1020]}, "edge": {"target": [], "time": []}}, "mouseout": {"state": {"target": ["0", "11"], "time": [738, 1406]}, "edge": {"target": [], "time": []}}}, "displayed_time": "9.62", "trialTime": 22296, "trial_type": "mouselab-mdp", "trial_index": 73, "time_elapsed": 937816, "internal_node_id": "0.0-4.0-5.0-2.0"}}, {"uniqueid": "w95566467:a53572764", "current_trial": 74, "dateTime": 1664464873488, "trialdata": {"revealed_states": [], "num_clicks_accrued": [0, 0, 0, 0, 0, 0, 0, 0, 0, 0, 0, 0, 0], "stateRewards": ["", -4, 4, -48, -48, -4, 8, -24, 24, 2, -4, 48, 48], "withholdReward": true, "trial_id": "mdp_821566905048", "block": "test3", "trialIndex": 65, "score": 50.25, "costs": -0.75, "simulationMode": [null, null, null], "rewards": [2, -4, 48], "path": ["0", "0", "9", "10", "11"], "rt": [2803, 60, 54], "actions": ["left", "left", "up"], "actionTimes": [3331, 3908, 4482], "queries": {"click": {"state": {"target": ["11", "10", "9"], "time": [1198, 2211, 2538]}, "edge": {"target": [], "time": []}}, "mouseover": {"state": {"target": ["11", "9", "0", "0", "9", "10", "9"], "time": [1111, 1426, 1460, 1710, 1810, 2077, 2459]}, "edge": {"target": [], "time": []}}, "mouseout": {"state": {"target": ["0", "11", "9", "0", "0", "9", "10", "9"], "time": [444, 1362, 1443, 1510, 1760, 2012, 2359, 2659]}, "edge": {"target": [], "time": []}}}, "displayed_time": "9.53", "trialTime": 10069, "trial_type": "mouselab-mdp", "trial_index": 74, "time_elapsed": 947975, "internal_node_id": "0.0-4.0-5.0-3.0"}}, {"uniqueid": "w95566467:a53572764", "current_trial": 75, "dateTime": 1664464883588, "trialdata": {"revealed_states": [], "num_clicks_accrued": [0, 0, 0, 0, 0, 0, 0, 0, 0, 0, 0, 0, 0], "stateRewards": ["", 2, -4, 48, -24, 4, -8, -24, 48, -2, -4, 24, -48], "withholdReward": true, "trial_id": "mdp_357328205509", "block": "test3", "trialIndex": 66, "score": 48.5, "costs": -0.5, "simulationMode": [null, null, null], "rewards": [4, -8, 48], "path": ["0", "0", "5", "6", "8"], "rt": [2000, 49, 67], "actions": ["right", "right", "down"], "actionTimes": [2501, 3064, 3664], "queries": {"click": {"state": {"target": ["11", "8"], "time": [859, 1434]}, "edge": {"target": [], "time": []}}, "mouseover": {"state": {"target": ["9", "11", "5", "8", "6", "7"], "time": [630, 713, 1130, 1329, 1563, 1730]}, "edge": {"target": [], "time": []}}, "mouseout": {"state": {"target": ["9", "0", "9", "11", "5", "8", "6", "7"], "time": [46, 613, 646, 997, 1163, 1546, 1629, 1912]}, "edge": {"target": [], "time": []}}}, "displayed_time": "9.50", "trialTime": 9976, "trial_type": "mouselab-mdp", "trial_index": 75, "time_elapsed": 958076, "internal_node_id": "0.0-4.0-5.0-4.0"}}, {"uniqueid": "w95566467:a53572764", "current_trial": 76, "dateTime": 1664464893638, "trialdata": {"revealed_states": [], "num_clicks_accrued": [0, 0, 0, 0, 0, 0, 0, 0, 0, 0, 0, 0, 0], "stateRewards": ["", -2, -4, -24, -24, 4, 8, 24, 24, -2, 8, 48, 48], "withholdReward": false, "trial_id": "mdp_620787912291", "block": "test3", "trialIndex": 67, "score": 58.75, "costs": -0.25, "simulationMode": [null, null, null], "rewards": [-2, 8, 48], "path": ["0", "0", "9", "10", "12"], "rt": [1482, 30, 15], "actions": ["left", "left", "down"], "actionTimes": [2384, 2935, 3484], "queries": {"click": {"state": {"target": ["12"], "time": [1403]}, "edge": {"target": [], "time": []}}, "mouseover": {"state": {"target": ["9", "12"], "time": [1152, 1335]}, "edge": {"target": [], "time": []}}, "mouseout": {"state": {"target": ["9", "12"], "time": [1185, 1787]}, "edge": {"target": [], "time": []}}}, "displayed_time": "8.90", "trialTime": 9935, "trial_type": "mouselab-mdp", "trial_index": 76, "time_elapsed": 968126, "internal_node_id": "0.0-4.0-5.0-5.0"}}, {"uniqueid": "w95566467:a53572764", "current_trial": 77, "dateTime": 1664464903951, "trialdata": {"revealed_states": [], "num_clicks_accrued": [0, 0, 0, 0, 0, 0, 0, 0, 0, 0, 0, 0, 0], "stateRewards": ["", 4, 8, -24, 48, 4, -8, -48, 48, -4, 8, -24, -48], "withholdReward": false, "trial_id": "mdp_376126356841", "block": "test3", "trialIndex": 68, "score": 48.25, "costs": -0.75, "simulationMode": [null, null, null], "rewards": [4, -8, 48], "path": ["0", "0", "5", "6", "8"], "rt": [2736, 45, 7], "actions": ["right", "right", "down"], "actionTimes": [3243, 3807, 4318], "queries": {"click": {"state": {"target": ["11", "7", "8"], "time": [1227, 1807, 2253]}, "edge": {"target": [], "time": []}}, "mouseover": {"state": {"target": ["9", "11", "9", "7", "6", "8", "12"], "time": [813, 1144, 1528, 1761, 1993, 2060, 2610]}, "edge": {"target": [], "time": []}}, "mouseout": {"state": {"target": ["0", "9", "11", "9", "7", "6", "8", "12"], "time": [378, 911, 1446, 1561, 1960, 2026, 2427, 2679]}, "edge": {"target": [], "time": []}}}, "displayed_time": "9.51", "trialTime": 10194, "trial_type": "mouselab-mdp", "trial_index": 77, "time_elapsed": 978439, "internal_node_id": "0.0-4.0-5.0-6.0"}}, {"uniqueid": "w95566467:a53572764", "current_trial": 78, "dateTime": 1664464914829, "trialdata": {"revealed_states": [], "num_clicks_accrued": [0, 0, 0, 0, 0, 0, 0, 0, 0, 0, 0, 0, 0], "stateRewards": ["", -4, 4, -24, 48, -2, 8, -48, 24, 2, 4, 48, -48], "withholdReward": true, "trial_id": "mdp_366632183904", "block": "test3", "trialIndex": 69, "score": 58.75, "costs": -0.25, "simulationMode": [null, null, null], "rewards": [2, 4, 48], "path": ["0", "0", "9", "10", "11"], "rt": [1706, 95, 43], "actions": ["left", "left", "up"], "actionTimes": [2572, 3161, 3722], "queries": {"click": {"state": {"target": ["11"], "time": [1603]}, "edge": {"target": [], "time": []}}, "mouseover": {"state": {"target": ["9", "11", "10", "12", "12"], "time": [1062, 1428, 1828, 1927, 2077]}, "edge": {"target": [], "time": []}}, "mouseout": {"state": {"target": ["9", "9", "11", "10", "12"], "time": [161, 1145, 1797, 1878, 2027]}, "edge": {"target": [], "time": []}}}, "displayed_time": "9.87", "trialTime": 10775, "trial_type": "mouselab-mdp", "trial_index": 78, "time_elapsed": 989316, "internal_node_id": "0.0-4.0-5.0-7.0"}}, {"uniqueid": "w95566467:a53572764", "current_trial": 79, "dateTime": 1664464925478, "trialdata": {"revealed_states": [], "num_clicks_accrued": [0, 0, 0, 0, 0, 0, 0, 0, 0, 0, 0, 0, 0], "stateRewards": ["", -2, 8, 48, 48, 2, 4, -48, 24, -4, -8, 48, 24], "withholdReward": true, "trial_id": "mdp_572910394648", "block": "test3", "trialIndex": 70, "score": 40.75, "costs": -0.25, "simulationMode": [null, null, null], "rewards": [-4, -8, 48], "path": ["0", "0", "9", "10", "11"], "rt": [1710, 70, 182], "actions": ["left", "left", "up"], "actionTimes": [2571, 3149, 3847], "queries": {"click": {"state": {"target": ["11"], "time": [1542]}, "edge": {"target": [], "time": []}}, "mouseover": {"state": {"target": ["11", "10"], "time": [1394, 1861]}, "edge": {"target": [], "time": []}}, "mouseout": {"state": {"target": ["12", "0", "11", "10"], "time": [397, 1190, 1813, 1928]}, "edge": {"target": [], "time": []}}}, "displayed_time": "9.86", "trialTime": 10561, "trial_type": "mouselab-mdp", "trial_index": 79, "time_elapsed": 999965, "internal_node_id": "0.0-4.0-5.0-8.0"}}, {"uniqueid": "w95566467:a53572764", "current_trial": 80, "dateTime": 1664464935563, "trialdata": {"revealed_states": [], "num_clicks_accrued": [0, 0, 0, 0, 0, 0, 0, 0, 0, 0, 0, 0, 0], "stateRewards": ["", -4, -8, -48, 48, -2, -8, -48, -24, 4, 8, 24, -48], "withholdReward": false, "trial_id": "mdp_509977295685", "block": "test3", "trialIndex": 71, "score": 39.25, "costs": -1.75, "simulationMode": [null, null, null], "rewards": [-4, -8, 48], "path": ["0", "0", "1", "2", "4"], "rt": [5400, 56, 110], "actions": ["up", "up", "left"], "actionTimes": [5740, 6315, 6952], "queries": {"click": {"state": {"target": ["11", "7", "8", "12", "4", "2", "1"], "time": [893, 1470, 1862, 2371, 2878, 4470, 5133]}, "edge": {"target": [], "time": []}}, "mouseover": {"state": {"target": ["11", "0", "5", "8", "6", "7", "6", "8", "12", "9", "4", "2", "2", "1", "1"], "time": [793, 1126, 1144, 1242, 1359, 1442, 1641, 1826, 2291, 2575, 2758, 3024, 4376, 4657, 4866]}, "edge": {"target": [], "time": []}}, "mouseout": {"state": {"target": ["9", "11", "0", "5", "8", "6", "7", "6", "8", "12", "9", "4", "2", "2", "1", "1"], "time": [92, 1044, 1142, 1176, 1328, 1408, 1608, 1675, 2091, 2541, 2608, 2975, 3074, 4624, 4692, 5224]}, "edge": {"target": [], "time": []}}}, "displayed_time": "9.34", "trialTime": 9964, "trial_type": "mouselab-mdp", "trial_index": 80, "time_elapsed": 1010051, "internal_node_id": "0.0-4.0-5.0-9.0"}}, {"uniqueid": "w95566467:a53572764", "current_trial": 81, "dateTime": 1664464945013, "trialdata": {"revealed_states": [], "num_clicks_accrued": [0, 0, 0, 0, 0, 0, 0, 0, 0, 0, 0, 0, 0], "stateRewards": ["", 2, 8, 24, -48, 4, 8, 24, 24, 4, -8, 48, 48], "withholdReward": true, "trial_id": "mdp_646103824875", "block": "test3", "trialIndex": 72, "score": 48.75, "costs": -0.25, "simulationMode": [null, null, null], "rewards": [4, -8, 48], "path": ["0", "0", "9", "10", "11"], "rt": [1831, 66, 126], "actions": ["left", "left", "up"], "actionTimes": [2609, 3173, 3799], "queries": {"click": {"state": {"target": ["11"], "time": [1366]}, "edge": {"target": [], "time": []}}, "mouseover": {"state": {"target": ["11", "9", "0", "9"], "time": [1323, 1571, 1604, 1871]}, "edge": {"target": [], "time": []}}, "mouseout": {"state": {"target": ["6", "5", "11", "9", "0", "9"], "time": [455, 555, 1521, 1588, 1638, 8970]}, "edge": {"target": [], "time": []}}}, "displayed_time": "8.78", "trialTime": 9347, "trial_type": "mouselab-mdp", "trial_index": 81, "time_elapsed": 1019501, "internal_node_id": "0.0-4.0-5.0-10.0"}}, {"uniqueid": "w95566467:a53572764", "current_trial": 82, "dateTime": 1664464956589, "trialdata": {"revealed_states": [], "num_clicks_accrued": [0, 0, 0, 0, 0, 0, 0, 0, 0, 0, 0, 0, 0], "stateRewards": ["", 2, -4, -48, 24, -4, 4, 24, 24, 2, -8, -24, -48], "withholdReward": true, "trial_id": "mdp_807654778305", "block": "test3", "trialIndex": 73, "score": 26.5, "costs": -2.5, "simulationMode": [null, null, null], "rewards": [-4, 4, 24], "path": ["0", "0", "5", "6", "7"], "rt": [7913, 618, 214], "actions": ["right", "right", "up"], "actionTimes": [8318, 9444, 10156], "queries": {"click": {"state": {"target": ["11", "8", "7", "12", "4", "3", "5", "6", "2", "1"], "time": [1148, 1743, 2204, 2848, 3435, 3926, 5295, 5510, 6993, 7202]}, "edge": {"target": [], "time": []}}, "mouseover": {"state": {"target": ["1", "11", "5", "8", "6", "7", "9", "12", "9", "4", "2", "3", "6", "5", "6", "10", "9", "1", "2", "1"], "time": [795, 1061, 1494, 1627, 1909, 1992, 2409, 2842, 3144, 3376, 3575, 3829, 4793, 5009, 5441, 5941, 6174, 6691, 6875, 7158]}, "edge": {"target": [], "time": []}}, "mouseout": {"state": 