{"condition": 1, "counterbalance": 0, "assignmentId": "a73708157", "workerId": "w16293194", "hitId": "h63750846", "currenttrial": 137, "bonus": 0, "data": [{"uniqueid": "w16293194:a73708157", "current_trial": 0, "dateTime": 1664554864798, "trialdata": {"success": true, "trial_type": "fullscreen", "trial_index": 0, "time_elapsed": 6889, "internal_node_id": "0.0-0.0"}}, {"uniqueid": "w16293194:a73708157", "current_trial": 1, "dateTime": 1664554879865, "trialdata": {"view_history": [{"page_index": 0, "viewing_time": 15040}], "rt": 15041, "trial_id": "exp_instructions_no_distractor", "trial_type": "instructions", "trial_index": 1, "time_elapsed": 21957, "internal_node_id": "0.0-1.0"}}, {"uniqueid": "w16293194:a73708157", "current_trial": 2, "dateTime": 1664554883261, "trialdata": {"success": true, "trial_type": "fullscreen", "trial_index": 2, "time_elapsed": 25353, "internal_node_id": "0.0-2.0-0.0"}}, {"uniqueid": "w16293194:a73708157", "current_trial": 3, "dateTime": 1664555010348, "trialdata": {"view_history": [{"page_index": 0, "viewing_time": 48268}, {"page_index": 1, "viewing_time": 31095}, {"page_index": 2, "viewing_time": 11708}, {"page_index": 3, "viewing_time": 17338}, {"page_index": 4, "viewing_time": 18668}], "rt": 127078, "trial_id": "mouselab_instructions_1", "trial_type": "instructions", "trial_index": 3, "time_elapsed": 152438, "internal_node_id": "0.0-2.0-1.0"}}, {"uniqueid": "w16293194:a73708157", "current_trial": 4, "dateTime": 1664555028663, "trialdata": {"revealed_states": [], "num_clicks_accrued": [0, 0, 0, 0, 0, 0, 0, 0, 0, 0, 0, 0, 0], "stateRewards": ["", 10, 10, -10, 10, -10, 10, 10, -10, -10, 10, 10, 10], "withholdReward": false, "trial_id": "practice_1", "block": "test", "trialIndex": 0, "score": 11.25, "costs": -0.75, "simulationMode": [null, null, null], "rewards": [10, 10, -10], "path": ["0", "0", "1", "2", "3"], "rt": [6938, 3265, 2186], "actions": ["up", "up", "right"], "actionTimes": [8186, 11977, 14691], "queries": {"click": {"state": {"target": ["5", "9", "1"], "time": [3734, 5346, 7067]}, "edge": {"target": [], "time": []}}, "mouseover": {"state": {"target": ["5", "9", "1"], "time": [2979, 4809, 6592]}, "edge": {"target": [], "time": []}}, "mouseout": {"state": {"target": ["0", "5", "9", "1", "2"], "time": [2794, 4456, 6294, 9508, 16684]}, "edge": {"target": [], "time": []}}}, "displayed_time": "15.21", "trialTime": 17123, "trial_type": "mouselab-mdp", "trial_index": 4, "time_elapsed": 170755, "internal_node_id": "0.0-2.0-2.0-0.0"}}, {"uniqueid": "w16293194:a73708157", "current_trial": 5, "dateTime": 1664555052027, "trialdata": {"revealed_states": [], "num_clicks_accrued": [0, 0, 0, 0, 0, 0, 0, 0, 0, 0, 0, 0, 0], "stateRewards": ["", 10, -10, 10, 10, 10, -10, 10, 10, 10, 10, -10, 10], "withholdReward": false, "trial_id": "practice_2", "block": "test", "trialIndex": 1, "score": 29, "costs": -3, "simulationMode": [null, null, null], "rewards": [10, 10, 10], "path": ["0", "0", "9", "10", "12"], "rt": [15908, 302, 572], "actions": ["left", "left", "down"], "actionTimes": [18320, 19164, 20248], "queries": {"click": {"state": {"target": ["1", "2", "3", "4", "9", "5", "6", "7", "8", "10", "11", "12"], "time": [4585, 5393, 6213, 7093, 7924, 8982, 9943, 10863, 11819, 13142, 14524, 16264]}, "edge": {"target": [], "time": []}}, "mouseover": {"state": {"target": ["1", "2", "3", "4", "9", "0", "5", "6", "7", "8", "10", "11", "12"], "time": [3431, 4936, 5818, 6614, 7674, 8317, 8412, 9268, 10397, 11235, 12529, 13476, 15248]}, "edge": {"target": [], "time": []}}, "mouseout": {"state": {"target": ["1", "1", "2", "3", "2", "4", "9", "0", "5", "6", "7", "6", "8", "10", "11", "10", "12"], "time": [1598, 4915, 5697, 6531, 6579, 7380, 8295, 8352, 9230, 10329, 11135, 11195, 12176, 13395, 14794, 14900, 17429]}, "edge": {"target": [], "time": []}}}, "displayed_time": "20.77", "trialTime": 23233, "trial_type": "mouselab-mdp", "trial_index": 5, "time_elapsed": 194119, "internal_node_id": "0.0-2.0-2.0-1.0"}}, {"uniqueid": "w16293194:a73708157", "current_trial": 6, "dateTime": 1664555114338, "trialdata": {"view_history": [{"page_index": 0, "viewing_time": 36742}, {"page_index": 1, "viewing_time": 16413}, {"page_index": 2, "viewing_time": 9150}], "rt": 62305, "trial_id": "mouselab_instructions_2_scarce", "trial_type": "instructions", "trial_index": 6, "time_elapsed": 256429, "internal_node_id": "0.0-2.0-3.0"}}, {"uniqueid": "w16293194:a73708157", "current_trial": 7, "dateTime": 1664555156918, "trialdata": {"rt": 42560, "response": {"Q0": "$-48 to $48", "Q1": "The cost is always $0.25.", "Q2": "The better I perform the higher my bonus will be.", "Q3": "No, the amount of cash at each node of the web may be different each time.", "Q4": "The values of the nodes walked through from start to finish.", "Q5": "No, the spider might forget to count the money on some rounds."}, "question_order": [0, 1, 2, 3, 4, 5], "correct": {"Q0": "$-48 to $48", "Q1": "The cost is always $0.25.", "Q2": "The better I perform the higher my bonus will be.", "Q3": "No, the amount of cash at each node of the web may be different each time.", "Q4": "The values of the nodes walked through from start to finish.", "Q5": "No, the spider might forget to count the money on some rounds."}, "trial_id": "mouselab_quiz_scarce", "trial_type": "survey-multi-choice", "trial_index": 7, "time_elapsed": 299010, "internal_node_id": "0.0-2.0-4.0"}}, {"uniqueid": "w16293194:a73708157", "current_trial": 8, "dateTime": 1664555171484, "trialdata": {"rt": 14556, "stimulus": "\n<h1> Get ready to start the game! </h1>\n\nThank you for reading the instructions. Get ready start with the first of 4 block(s) of this game.\n<br><br>\nIn this first block, you will complete 30 rounds of this game before moving on.\n<br><br>\nRemember, the more money the spider gets, the bigger your bonus will be!\n<br><br>\n<div style='text-align: center;'>Press <code>space</code> to begin.</div>\n\n<br><br>\n(If, at any point, the <code>space</code> key does not take you to the next page, click once on the text and try again.)", "response": " ", "trial_id": "mdp_ready_1", "trial_type": "html-keyboard-response", "trial_index": 8, "time_elapsed": 313576, "internal_node_id": "0.0-4.0-0.0"}}, {"uniqueid": "w16293194:a73708157", "current_trial": 9, "dateTime": 1664555187575, "trialdata": {"revealed_states": [], "num_clicks_accrued": [0, 0, 0, 0, 0, 0, 0, 0, 0, 0, 0, 0, 0], "stateRewards": ["", -4, 8, 24, 24, 2, 4, -48, 24, -2, -4, -24, -24], "withholdReward": true, "trial_id": "mdp_752328329546", "block": "test1", "trialIndex": 2, "score": 33.75, "costs": -1.25, "simulationMode": [null, null, null], "rewards": [2, 4, 24], "path": ["0", "0", "5", "6", "8"], "rt": [9479, 163, 676], "actions": ["right", "right", "down"], "actionTimes": [10898, 11587, 12784], "queries": {"click": {"state": {"target": ["5", "1", "9", "6", "8"], "time": [2460, 4569, 6104, 7444, 8453]}, "edge": {"target": [], "time": []}}, "mouseover": {"state": {"target": ["5", "1", "9", "6", "8"], "time": [1987, 3934, 5584, 6883, 8000]}, "edge": {"target": [], "time": []}}, "mouseout": {"state": {"target": ["0", "5", "1", "9", "5", "6", "8", "6", "5"], "time": [1855, 3052, 5206, 6648, 6852, 7852, 8924, 9116, 9235]}, "edge": {"target": [], "time": []}}}, "displayed_time": "13.30", "trialTime": 15915, "trial_type": "mouselab-mdp", "trial_index": 9, "time_elapsed": 329666, "internal_node_id": "0.0-4.0-1.0-0.0"}}, {"uniqueid": "w16293194:a73708157", "current_trial": 10, "dateTime": 1664555200437, "trialdata": {"revealed_states": [], "num_clicks_accrued": [0, 0, 0, 0, 0, 0, 0, 0, 0, 0, 0, 0, 0], "stateRewards": ["", 2, 4, -48, 48, -4, 8, -48, -24, -4, -4, 48, 48], "withholdReward": true, "trial_id": "mdp_613582696541", "block": "test1", "trialIndex": 3, "score": 58, "costs": -1, "simulationMode": [null, null, null], "rewards": [2, 4, 48], "path": ["0", "0", "1", "2", "4"], "rt": [6346, 555, 323], "actions": ["up", "up", "left"], "actionTimes": [8306, 9384, 10230], "queries": {"click": {"state": {"target": ["1", "2", "3", "4"], "time": [3628, 4580, 5563, 6729]}, "edge": {"target": [], "time": []}}, "mouseover": {"state": {"target": ["1", "2", "3", "4"], "time": [2600, 4029, 5149, 6279]}, "edge": {"target": [], "time": []}}, "mouseout": {"state": {"target": ["0", "1", "2", "3", "2", "4"], "time": [1030, 3978, 5012, 5895, 5997, 7130]}, "edge": {"target": [], "time": []}}}, "displayed_time": "10.76", "trialTime": 12712, "trial_type": "mouselab-mdp", "trial_index": 10, "time_elapsed": 342529, "internal_node_id": "0.0-4.0-1.0-1.0"}}, {"uniqueid": "w16293194:a73708157", "current_trial": 11, "dateTime": 1664555217328, "trialdata": {"revealed_states": [], "num_clicks_accrued": [0, 0, 0, 0, 0, 0, 0, 0, 0, 0, 0, 0, 0], "stateRewards": ["", -4, 8, -24, 48, 2, -8, 24, 48, 2, -8, -24, -48], "withholdReward": true, "trial_id": "mdp_493778446445", "block": "test1", "trialIndex": 4, "score": 44.75, "costs": -2.25, "simulationMode": [null, null, null], "rewards": [2, -8, 48], "path": ["0", "0", "5", "6", "8"], "rt": [11164, 1253, 456], "actions": ["right", "right", "down"], "actionTimes": [12707, 14467, 15437], "queries": {"click": {"state": {"target": ["5", "1", "9", "10", "11", "12", "6", "7", "8"], "time": [2563, 3384, 4383, 5614, 6668, 7719, 8817, 9879, 11479]}, "edge": {"target": [], "time": []}}, "mouseover": {"state": {"target": ["5", "1", "9", "0", "10", "11", "12", "0", "6", "7", "7", "8", "8"], "time": [2056, 2939, 3756, 5004, 5137, 6203, 7390, 8070, 8353, 9140, 9453, 10438, 10872]}, "edge": {"target": [], "time": []}}, "mouseout": {"state": {"target": ["0", "5", "1", "9", "0", "9", "10", "11", "10", "12", "0", "6", "7", "7", "6", "8", "8"], "time": [986, 2870, 3670, 4860, 5026, 5088, 6087, 7089, 7201, 8000, 8090, 9105, 9208, 10170, 10301, 10599, 11984]}, "edge": {"target": [], "time": []}}}, "displayed_time": "15.95", "trialTime": 16699, "trial_type": "mouselab-mdp", "trial_index": 11, "time_elapsed": 359420, "internal_node_id": "0.0-4.0-1.0-2.0"}}, {"uniqueid": "w16293194:a73708157", "current_trial": 12, "dateTime": 1664555233343, "trialdata": {"revealed_states": [], "num_clicks_accrued": [0, 0, 0, 0, 0, 0, 0, 0, 0, 0, 0, 0, 0], "stateRewards": ["", -2, -8, -24, -24, 4, -4, -48, 48, 2, 8, 48, -48], "withholdReward": true, "trial_id": "mdp_498095124548", "block": "test1", "trialIndex": 5, "score": 61.25, "costs": -1.75, "simulationMode": [null, null, null], "rewards": [2, 8, 48], "path": ["0", "0", "9", "10", "11"], "rt": [9262, 182, 1530], "actions": ["left", "left", "up"], "actionTimes": [11348, 12051, 14120], "queries": {"click": {"state": {"target": ["1", "2", "3", "4", "9", "10", "11"], "time": [3246, 4092, 5379, 6545, 7744, 8850, 9888]}, "edge": {"target": [], "time": []}}, "mouseover": {"state": {"target": ["1", "2", "3", "3", "4", "9", "10", "11", "12"], "time": [2694, 3644, 4559, 4957, 6107, 7010, 8338, 9320, 10400]}, "edge": {"target": [], "time": []}}, "mouseout": {"state": {"target": ["0", "1", "2", "3", "3", "2", "4", "9", "10", "11", "10", "12"], "time": [1457, 3559, 4471, 4756, 5908, 5992, 6840, 8123, 9207, 10253, 10385, 10502]}, "edge": {"target": [], "time": []}}}, "displayed_time": "14.64", "trialTime": 15809, "trial_type": "mouselab-mdp", "trial_index": 12, "time_elapsed": 375435, "internal_node_id": "0.0-4.0-1.0-3.0"}}, {"uniqueid": "w16293194:a73708157", "current_trial": 13, "dateTime": 1664555246543, "trialdata": {"revealed_states": [], "num_clicks_accrued": [0, 0, 0, 0, 0, 0, 0, 0, 0, 0, 0, 0, 0], "stateRewards": ["", -4, 4, 48, 24, -4, 4, -24, 48, -2, -8, 24, -48], "withholdReward": false, "trial_id": "mdp_261501605436", "block": "test1", "trialIndex": 6, "score": 51.75, "costs": -1.25, "simulationMode": [null, null, null], "rewards": [-4, 4, 48], "path": ["0", "0", "1", "2", "3"], "rt": [7426, 90, 156], "actions": ["up", "up", "right"], "actionTimes": [9323, 9955, 10643], "queries": {"click": {"state": {"target": ["5", "9", "1", "2", "3"], "time": [3181, 4608, 5589, 6489, 7439]}, "edge": {"target": [], "time": []}}, "mouseover": {"state": {"target": ["5", "9", "1", "2", "3"], "time": [2738, 4139, 5125, 6040, 6937]}, "edge": {"target": [], "time": []}}, "mouseout": {"state": {"target": ["0", "5", "5", "9", "1", "2", "3", "2"], "time": [2489, 3538, 3757, 5088, 5923, 6821, 7789, 7954]}, "edge": {"target": [], "time": []}}}, "displayed_time": "11.15", "trialTime": 12996, "trial_type": "mouselab-mdp", "trial_index": 13, "time_elapsed": 388635, "internal_node_id": "0.0-4.0-1.0-4.0"}}, {"uniqueid": "w16293194:a73708157", "current_trial": 14, "dateTime": 1664555257308, "trialdata": {"revealed_states": [], "num_clicks_accrued": [0, 0, 0, 0, 0, 0, 0, 0, 0, 0, 0, 0, 0], "stateRewards": ["", 2, -8, 48, -24, 2, -4, 24, 48, 4, -4, 48, -24], "withholdReward": true, "trial_id": "mdp_656500928756", "block": "test1", "trialIndex": 7, "score": 50, "costs": -1, "simulationMode": [null, null, null], "rewards": [2, -4, 48], "path": ["0", "0", "5", "6", "8"], "rt": [6065, 144, 224], "actions": ["right", "right", "down"], "actionTimes": [7533, 8191, 8944], "queries": {"click": {"state": {"target": ["5", "6", "8", "7"], "time": [2999, 4015, 5068, 6272]}, "edge": {"target": [], "time": []}}, "mouseover": {"state": {"target": ["5", "6", "8", "7"], "time": [2433, 3427, 4615, 5795]}, "edge": {"target": [], "time": []}}, "mouseout": {"state": {"target": ["0", "5", "6", "8", "6", "7", "6"], "time": [977, 3327, 4494, 5563, 5710, 6545, 6644]}, "edge": {"target": [], "time": []}}}, "displayed_time": "9.62", "trialTime": 10540, "trial_type": "mouselab-mdp", "trial_index": 14, "time_elapsed": 399399, "internal_node_id": "0.0-4.0-1.0-5.0"}}, {"uniqueid": "w16293194:a73708157", "current_trial": 15, "dateTime": 1664555269813, "trialdata": {"revealed_states": [], "num_clicks_accrued": [0, 0, 0, 0, 0, 0, 0, 0, 0, 0, 0, 0, 0], "stateRewards": ["", 2, 8, -24, -48, 2, 4, -24, 48, 2, -8, 48, -24], "withholdReward": true, "trial_id": "mdp_791659307216", "block": "test1", "trialIndex": 8, "score": 46.25, "costs": -0.75, "simulationMode": [null, null, null], "rewards": [2, -8, 48], "path": ["0", "0", "9", "10", "11"], "rt": [4551, 105, 1298], "actions": ["left", "left", "up"], "actionTimes": [6179, 6836, 8666], "queries": {"click": {"state": {"target": ["9", "10", "11"], "time": [2674, 3648, 4736]}, "edge": {"target": [], "time": []}}, "mouseover": {"state": {"target": ["9", "10", "11", "12"], "time": [2270, 3184, 4287, 5268]}, "edge": {"target": [], "time": []}}, "mouseout": {"state": {"target": ["0", "9", "10", "11", "10"], "time": [2119, 3105, 4188, 5155, 5219]}, "edge": {"target": [], "time": []}}}, "displayed_time": "9.80", "trialTime": 12274, "trial_type": "mouselab-mdp", "trial_index": 15, "time_elapsed": 411904, "internal_node_id": "0.0-4.0-1.0-6.0"}}, {"uniqueid": "w16293194:a73708157", "current_trial": 16, "dateTime": 1664555282612, "trialdata": {"revealed_states": [], "num_clicks_accrued": [0, 0, 0, 0, 0, 0, 0, 0, 0, 0, 0, 0, 0], "stateRewards": ["", 2, 8, 24, 24, 2, -8, -24, -48, 2, 8, -48, 48], "withholdReward": false, "trial_id": "mdp_745175888812", "block": "test1", "trialIndex": 9, "score": 62.25, "costs": -0.75, "simulationMode": [null, null, null], "rewards": [2, 8, 48], "path": ["0", "0", "9", "10", "12"], "rt": [4808, 262, 250], "actions": ["left", "left", "down"], "actionTimes": [6969, 7751, 8550], "queries": {"click": {"state": {"target": ["9", "10", "12"], "time": [3648, 4501, 5640]}, "edge": {"target": [], "time": []}}, "mouseover": {"state": {"target": ["9", "10", "12"], "time": [3115, 4048, 5131]}, "edge": {"target": [], "time": []}}, "mouseout": {"state": {"target": ["12", "0", "9", "10", "12", "10", "10", "12"], "time": [1203, 3032, 3999, 4982, 6000, 6100, 6317, 6349]}, "edge": {"target": [], "time": []}}}, "displayed_time": "11.30", "trialTime": 12592, "trial_type": "mouselab-mdp", "trial_index": 16, "time_elapsed": 424704, "internal_node_id": "0.0-4.0-1.0-7.0"}}, {"uniqueid": "w16293194:a73708157", "current_trial": 17, "dateTime": 1664555301803, "trialdata": {"revealed_states": [], "num_clicks_accrued": [0, 0, 0, 0, 0, 0, 0, 0, 0, 0, 0, 0, 0], "stateRewards": ["", 2, -8, -24, 48, 4, -8, -24, -24, 2, 8, -24, 24], "withholdReward": true, "trial_id": "mdp_480787552818", "block": "test1", "trialIndex": 10, "score": 44.75, "costs": -2.25, "simulationMode": [null, null, null], "rewards": [2, -8, 48], "path": ["0", "0", "1", "2", "4"], "rt": [14213, 217, 174], "actions": ["up", "up", "left"], "actionTimes": [15664, 16417, 17117], "queries": {"click": {"state": {"target": ["5", "6", "7", "8", "9", "10", "12", "11", "4"], "time": [2410, 3551, 4618, 5601, 7085, 7965, 8897, 10443, 13379]}, "edge": {"target": [], "time": []}}, "mouseover": {"state": {"target": ["5", "6", "7", "8", "0", "9", "10", "12", "11", "1", "1", "4", "1", "0"], "time": [2033, 3083, 4104, 5135, 6181, 6517, 7537, 8498, 9812, 11046, 12360, 12865, 13847, 13911]}, "edge": {"target": [], "time": []}}, "mouseout": {"state": {"target": ["0", "5", "6", "7", "6", "8", "0", "9", "10", "12", "10", "11", "1", "1", "4", "1", "0"], "time": [1834, 2919, 4081, 4982, 5046, 6067, 6366, 7464, 8331, 9302, 9365, 10879, 11497, 12705, 13778, 13880, 13932]}, "edge": {"target": [], "time": []}}}, "displayed_time": "17.65", "trialTime": 18987, "trial_type": "mouselab-mdp", "trial_index": 17, "time_elapsed": 443893, "internal_node_id": "0.0-4.0-1.0-8.0"}}, {"uniqueid": "w16293194:a73708157", "current_trial": 18, "dateTime": 1664555314720, "trialdata": {"revealed_states": [], "num_clicks_accrued": [0, 0, 0, 0, 0, 0, 0, 0, 0, 0, 0, 0, 0], "stateRewards": ["", -2, -8, 48, 24, 4, -8, 24, 48, 4, -4, 24, -48], "withholdReward": true, "trial_id": "mdp_871576155740", "block": "test1", "trialIndex": 11, "score": 47.25, "costs": -1.75, "simulationMode": [null, null, null], "rewards": [4, -8, 48], "path": ["0", "0", "5", "6", "8"], "rt": [7577, 180, 623], "actions": ["right", "right", "down"], "actionTimes": [9265, 9973, 11136], "queries": {"click": {"state": {"target": ["1", "2", "3", "5", "6", "7", "8"], "time": [2498, 3375, 4092, 5184, 5951, 6947, 8123]}, "edge": {"target": [], "time": []}}, "mouseover": {"state": {"target": ["1", "2", "3", "5", "6", "7", "8"], "time": [2017, 2819, 3753, 4710, 5622, 6424, 7371]}, "edge": {"target": [], "time": []}}, "mouseout": {"state": {"target": ["0", "1", "2", "3", "5", "6", "7", "6", "8"], "time": [1851, 2780, 3635, 4477, 5483, 6393, 7283, 7355, 8520]}, "edge": {"target": [], "time": []}}}, "displayed_time": "11.68", "trialTime": 12731, "trial_type": "mouselab-mdp", "trial_index": 18, "time_elapsed": 456811, "internal_node_id": "0.0-4.0-1.0-9.0"}}, {"uniqueid": "w16293194:a73708157", "current_trial": 19, "dateTime": 1664555329660, "trialdata": {"revealed_states": [], "num_clicks_accrued": [0, 0, 0, 0, 0, 0, 0, 0, 0, 0, 0, 0, 0], "stateRewards": ["", 2, 4, 48, 48, -2, 4, 48, -24, -4, 8, -48, 48], "withholdReward": true, "trial_id": "mdp_407586865939", "block": "test1", "trialIndex": 12, "score": 55, "costs": -2, "simulationMode": [null, null, null], "rewards": [-4, 8, 48], "path": ["0", "0", "9", "10", "12"], "rt": [10368, 33, 124], "actions": ["left", "left", "down"], "actionTimes": [12012, 12572, 13213], "queries": {"click": {"state": {"target": ["9", "10", "11", "12", "5", "6", "8", "7"], "time": [2433, 3183, 4042, 4962, 6483, 7277, 8118, 9281]}, "edge": {"target": [], "time": []}}, "mouseover": {"state": {"target": ["9", "10", "11", "12", "5", "5", "6", "8", "7"], "time": [2012, 2790, 3558, 4586, 5541, 6038, 6869, 7671, 8734]}, "edge": {"target": [], "time": []}}, "mouseout": {"state": {"target": ["0", "9", "10", "11", "10", "12", "5", "5", "6", "8", "6", "7", "6"], "time": [1921, 2740, 3472, 4404, 4472, 5292, 5689, 6806, 7571, 8419, 8486, 9718, 9800]}, "edge": {"target": [], "time": []}}}, "displayed_time": "13.74", "trialTime": 14748, "trial_type": "mouselab-mdp", "trial_index": 19, "time_elapsed": 471751, "internal_node_id": "0.0-4.0-1.0-10.0"}}, {"uniqueid": "w16293194:a73708157", "current_trial": 20, "dateTime": 1664555348337, "trialdata": {"revealed_states": [], "num_clicks_accrued": [0, 0, 0, 0, 0, 0, 0, 0, 0, 0, 0, 0, 0], "stateRewards": ["", 2, -4, 48, -48, -4, -8, -48, 24, -4, 4, 48, 48], "withholdReward": true, "trial_id": "mdp_544803968425", "block": "test1", "trialIndex": 13, "score": 50.5, "costs": -2.5, "simulationMode": [null, null, null], "rewards": [-4, 4, 48], "path": ["0", "0", "9", "10", "11"], "rt": [12965, 102, 680], "actions": ["left", "left", "up"], "actionTimes": [15022, 15648, 16842], "queries": {"click": {"state": {"target": ["1", "2", "4", "3", "5", "6", "7", "9", "10", "11"], "time": [3161, 4159, 5210, 6180, 7391, 8212, 8993, 10208, 11304, 12732]}, "edge": {"target": [], "time": []}}, "mouseover": {"state": {"target": ["1", "2", "4", "3", "5", "6", "7", "9", "10", "11", "12"], "time": [2481, 3498, 4551, 5646, 7015, 7862, 8594, 9794, 10812, 12177, 13553]}, "edge": {"target": [], "time": []}}, "mouseout": {"state": {"target": ["0", "0", "1", "2", "4", "2", "3", "5", "6", "7", "6", "9", "10", "11", "10"], "time": [1213, 2248, 3431, 4514, 5486, 5597, 6515, 7764, 8512, 9265, 9330, 10644, 12143, 13004, 13235]}, "edge": {"target": [], "time": []}}}, "displayed_time": "17.37", "trialTime": 18440, "trial_type": "mouselab-mdp", "trial_index": 20, "time_elapsed": 490428, "internal_node_id": "0.0-4.0-1.0-11.0"}}, {"uniqueid": "w16293194:a73708157", "current_trial": 21, "dateTime": 1664555370688, "trialdata": {"revealed_states": [], "num_clicks_accrued": [0, 0, 0, 0, 0, 0, 0, 0, 0, 0, 0, 0, 0], "stateRewards": ["", -2, 8, 48, 48, 2, 4, -48, 24, -4, -8, 48, 24], "withholdReward": true, "trial_id": "mdp_572910394648", "block": "test1", "trialIndex": 14, "score": 56.75, "costs": -2.25, "simulationMode": [null, null, null], "rewards": [-2, 8, 48], "path": ["0", "0", "1", "2", "3"], "rt": [16663, 594, 620], "actions": ["up", "up", "right"], "actionTimes": [18289, 19427, 20577], "queries": {"click": {"state": {"target": ["9", "10", "5", "6", "7", "8", "1", "2", "3"], "time": [2888, 3983, 5189, 6044, 7509, 8490, 10357, 11182, 12056]}, "edge": {"target": [], "time": []}}, "mouseover": {"state": {"target": ["9", "10", "5", "6", "8", "7", "8", "1", "2", "3"], "time": [2508, 3357, 4390, 5637, 6805, 7039, 8055, 9887, 10651, 11657]}, "edge": {"target": [], "time": []}}, "mouseout": {"state": {"target": ["12", "0", "9", "10", "9", "5", "6", "8", "6", "7", "6", "8", "1", "2", "3", "1"], "time": [616, 1161, 3289, 4264, 4306, 5609, 6690, 6887, 6972, 7791, 7939, 8788, 10619, 11588, 12469, 12651]}, "edge": {"target": [], "time": []}}}, "displayed_time": "21.12", "trialTime": 22125, "trial_type": "mouselab-mdp", "trial_index": 21, "time_elapsed": 512779, "internal_node_id": "0.0-4.0-1.0-12.0"}}, {"uniqueid": "w16293194:a73708157", "current_trial": 22, "dateTime": 1664555382569, "trialdata": {"revealed_states": [], "num_clicks_accrued": [0, 0, 0, 0, 0, 0, 0, 0, 0, 0, 0, 0, 0], "stateRewards": ["", -4, 8, -24, -24, 2, 4, 48, 48, -2, 4, 24, -48], "withholdReward": true, "trial_id": "mdp_397308196941", "block": "test1", "trialIndex": 15, "score": 58, "costs": -1, "simulationMode": [null, null, null], "rewards": [2, 4, 48], "path": ["0", "0", "5", "6", "7"], "rt": [6983, 160, 354], "actions": ["right", "right", "up"], "actionTimes": [8547, 9228, 10122], "queries": {"click": {"state": {"target": ["9", "5", "6", "7"], "time": [2706, 4134, 5172, 6180]}, "edge": {"target": [], "time": []}}, "mouseover": {"state": {"target": ["9", "0", "5", "5", "6", "7", "8"], "time": [2259, 3192, 3275, 3554, 4608, 5639, 6854]}, "edge": {"target": [], "time": []}}, "mouseout": {"state": {"target": ["0", "9", "0", "5", "5", "6", "7", "6", "8"], "time": [2092, 3157, 3224, 3403, 4589, 5539, 6472, 6674, 6905]}, "edge": {"target": [], "time": []}}}, "displayed_time": "10.77", "trialTime": 11649, "trial_type": "mouselab-mdp", "trial_index": 22, "time_elapsed": 524661, "internal_node_id": "0.0-4.0-1.0-13.0"}}, {"uniqueid": "w16293194:a73708157", "current_trial": 23, "dateTime": 1664555398117, "trialdata": {"revealed_states": [], "num_clicks_accrued": [0, 0, 0, 0, 0, 0, 0, 0, 0, 0, 0, 0, 0], "stateRewards": ["", -4, -8, 48, 48, -4, 4, 48, -24, 4, 8, -24, -48], "withholdReward": true, "trial_id": "mdp_142906093415", "block": "test1", "trialIndex": 16, "score": 50.5, "costs": -2.5, "simulationMode": [null, null, null], "rewards": [-4, 4, 48], "path": ["0", "0", "5", "6", "7"], "rt": [11286, 47, 313], "actions": ["right", "right", "up"], "actionTimes": [12613, 13193, 14014], "queries": {"click": {"state": {"target": ["1", "2", "5", "9", "10", "12", "11", "8", "7", "6"], "time": [2172, 3008, 4010, 5266, 6079, 7015, 8045, 9697, 10693, 11531]}, "edge": {"target": [], "time": []}}, "mouseover": {"state": {"target": ["1", "2", "3", "5", "9", "10", "12", "11", "6", "8", "6", "7", "7", "6"], "time": [1691, 2575, 3408, 3559, 4875, 5608, 6656, 7471, 8788, 9256, 10023, 10155, 10291, 11073]}, "edge": {"target": [], "time": []}}, "mouseout": {"state": {"target": ["0", "1", "2", "3", "5", "9", "10", "12", "10", "11", "9", "5", "6", "8", "6", "7", "7", "6"], "time": [1558, 2491, 3374, 3429, 4522, 5574, 6505, 7301, 7371, 8458, 8605, 8740, 9138, 9993, 10122, 10205, 10992, 11886]}, "edge": {"target": [], "time": []}}}, "displayed_time": "14.55", "trialTime": 15354, "trial_type": "mouselab-mdp", "trial_index": 23, "time_elapsed": 540209, "internal_node_id": "0.0-4.0-1.0-14.0"}}, {"uniqueid": "w16293194:a73708157", "current_trial": 24, "dateTime": 1664555417933, "trialdata": {"revealed_states": [], "num_clicks_accrued": [0, 0, 0, 0, 0, 0, 0, 0, 0, 0, 0, 0, 0], "stateRewards": ["", 2, 8, -48, 24, -2, 4, 48, 48, -2, -8, 48, 24], "withholdReward": false, "trial_id": "mdp_157355418411", "block": "test1", "trialIndex": 17, "score": 37, "costs": -2, "simulationMode": [null, null, null], "rewards": [2, 8, 24], "path": ["0", "0", "1", "2", "4"], "rt": [12473, 77, 173], "actions": ["up", "up", "left"], "actionTimes": [16505, 17101, 17812], "queries": {"click": {"state": {"target": ["1", "2", "4", "3", "5", "9", "10", "11"], "time": [5106, 6282, 7211, 8460, 9690, 10899, 11695, 12907]}, "edge": {"target": [], "time": []}}, "mouseover": {"state": {"target": ["1", "2", "4", "3", "5", "9", "10", "12", "11", "6"], "time": [4612, 5812, 6747, 7794, 9128, 10260, 11331, 12031, 12410, 14309]}, "edge": {"target": [], "time": []}}, "mouseout": {"state": {"target": ["0", "1", "2", "4", "2", "3", "5", "5", "9", "10", "12", "10", "11", "5"], "time": [3560, 5546, 6661, 7609, 7759, 8809, 10044, 10195, 11264, 11986, 12279, 12314, 13158, 13762]}, "edge": {"target": [], "time": []}}}, "displayed_time": "18.36", "trialTime": 19616, "trial_type": "mouselab-mdp", "trial_index": 24, "time_elapsed": 560024, "internal_node_id": "0.0-4.0-1.0-15.0"}}, {"uniqueid": "w16293194:a73708157", "current_trial": 25, "dateTime": 1664555435591, "trialdata": {"revealed_states": [], "num_clicks_accrued": [0, 0, 0, 0, 0, 0, 0, 0, 0, 0, 0, 0, 0], "stateRewards": ["", -4, 8, 24, -24, 4, 8, -24, -48, 2, 4, 24, -24], "withholdReward": true, "trial_id": "mdp_782187007008", "block": "test1", "trialIndex": 18, "score": 32.5, "costs": -2.5, "simulationMode": [null, null, null], "rewards": [2, 4, 24], "path": ["0", "0", "9", "10", "11"], "rt": [12890, 75, 415], "actions": ["left", "left", "up"], "actionTimes": [14248, 14845, 15769], "queries": {"click": {"state": {"target": ["5", "6", "8", "7", "9", "10", "11", "12", "4", "3"], "time": [2132, 2966, 4166, 5217, 6284, 7120, 8118, 9100, 10326, 11377]}, "edge": {"target": [], "time": []}}, "mouseover": {"state": {"target": ["5", "6", "8", "7", "9", "10", "11", "12", "2", "4", "2", "3", "2", "1"], "time": [1694, 2527, 3513, 4542, 5874, 6689, 7480, 8606, 9807, 9959, 10576, 10941, 12106, 12458]}, "edge": {"target": [], "time": []}}, "mouseout": {"state": {"target": ["6", "5", "0", "5", "6", "8", "7", "9", "10", "11", "10", "12", "2", "4", "2", "3", "2", "1"], "time": [509, 675, 1513, 2445, 3463, 4427, 5675, 6623, 7458, 8425, 8576, 9406, 9908, 10557, 10689, 11708, 12423, 12509]}, "edge": {"target": [], "time": []}}}, "displayed_time": "16.30", "trialTime": 17496, "trial_type": "mouselab-mdp", "trial_index": 25, "time_elapsed": 577682, "internal_node_id": "0.0-4.0-1.0-16.0"}}, {"uniqueid": "w16293194:a73708157", "current_trial": 26, "dateTime": 1664555454697, "trialdata": {"revealed_states": [], "num_clicks_accrued": [0, 0, 0, 0, 0, 0, 0, 0, 0, 0, 0, 0, 0], "stateRewards": ["", 4, -8, 24, 48, 2, -4, 48, 48, 4, -8, 48, 48], "withholdReward": false, "trial_id": "mdp_962498334245", "block": "test1", "trialIndex": 19, "score": 47.25, "costs": -1.75, "simulationMode": [null, null, null], "rewards": [4, -8, 48], "path": ["0", "0", "1", "2", "4"], "rt": [12264, 155, 94], "actions": ["up", "up", "left"], "actionTimes": [15961, 16635, 17251], "queries": {"click": {"state": {"target": ["9", "10", "11", "5", "1", "2", "4"], "time": [4612, 5778, 7025, 10185, 11108, 12289, 13361]}, "edge": {"target": [], "time": []}}, "mouseover": {"state": {"target": ["9", "10", "11", "12", "8", "5", "1", "2", "4"], "time": [4245, 5311, 6491, 7908, 9574, 9793, 10758, 11874, 12958]}, "edge": {"target": [], "time": []}}, "mouseout": {"state": {"target": ["0", "9", "10", "11", "10", "12", "8", "5", "1", "2", "4", "2"], "time": [4060, 5210, 6328, 7278, 7446, 7977, 9596, 10494, 11826, 12908, 13592, 14075]}, "edge": {"target": [], "time": []}}}, "displayed_time": "17.79", "trialTime": 18994, "trial_type": "mouselab-mdp", "trial_index": 26, "time_elapsed": 596788, "internal_node_id": "0.0-4.0-1.0-17.0"}}, {"uniqueid": "w16293194:a73708157", "current_trial": 27, "dateTime": 1664555468125, "trialdata": {"revealed_states": [], "num_clicks_accrued": [0, 0, 0, 0, 0, 0, 0, 0, 0, 0, 0, 0, 0], "stateRewards": ["", -2, -4, -24, -48, 2, -8, -24, -24, 4, -8, 48, 48], "withholdReward": true, "trial_id": "mdp_950599994674", "block": "test1", "trialIndex": 20, "score": 47.25, "costs": -1.75, "simulationMode": [null, null, null], "rewards": [4, -8, 48], "path": ["0", "0", "9", "10", "11"], "rt": [9462, 14, 99], "actions": ["left", "left", "up"], "actionTimes": [10702, 11237, 11872], "queries": {"click": {"state": {"target": ["5", "6", "8", "7", "11", "9", "10"], "time": [2743, 3821, 4713, 5604, 6929, 8232, 9118]}, "edge": {"target": [], "time": []}}, "mouseover": {"state": {"target": ["5", "5", "6", "8", "7", "9", "11", "10", "12", "9", "10"], "time": [1549, 2443, 3364, 4327, 5202, 6248, 6528, 7250, 7392, 7794, 8594]}, "edge": {"target": [], "time": []}}, "mouseout": {"state": {"target": ["5", "5", "6", "8", "6", "7", "9", "11", "10", "12", "9", "10"], "time": [1627, 3344, 4263, 5009, 5129, 5843, 6379, 7211, 7328, 7562, 8509, 9441]}, "edge": {"target": [], "time": []}}}, "displayed_time": "12.39", "trialTime": 13264, "trial_type": "mouselab-mdp", "trial_index": 27, "time_elapsed": 610216, "internal_node_id": "0.0-4.0-1.0-18.0"}}, {"uniqueid": "w16293194:a73708157", "current_trial": 28, "dateTime": 1664555482403, "trialdata": {"revealed_states": [], "num_clicks_accrued": [0, 0, 0, 0, 0, 0, 0, 0, 0, 0, 0, 0, 0], "stateRewards": ["", 2, -4, -48, 24, 4, 4, 48, -48, -2, -4, -24, -48], "withholdReward": true, "trial_id": "mdp_858916930936", "block": "test1", "trialIndex": 21, "score": 59.5, "costs": -1.5, "simulationMode": [null, null, null], "rewards": [4, 4, 48], "path": ["0", "0", "5", "6", "7"], "rt": [8490, 113, 441], "actions": ["right", "right", "up"], "actionTimes": [10586, 11220, 12186], "queries": {"click": {"state": {"target": ["9", "10", "12", "7", "5", "6"], "time": [3584, 4509, 5484, 7091, 8788, 9567]}, "edge": {"target": [], "time": []}}, "mouseover": {"state": {"target": ["9", "9", "10", "12", "11", "7", "7", "6", "8", "6", "5", "6"], "time": [2686, 3087, 4089, 5004, 6006, 6510, 6696, 7438, 7788, 8055, 8392, 9074]}, "edge": {"target": [], "time": []}}, "mouseout": {"state": {"target": ["0", "9", "9", "10", "12", "10", "11", "9", "7", "7", "6", "8", "6", "5", "6"], "time": [949, 2735, 3967, 4968, 5798, 5911, 6205, 6268, 6555, 7388, 7637, 8006, 8255, 9050, 9868]}, "edge": {"target": [], "time": []}}}, "displayed_time": "12.70", "trialTime": 14089, "trial_type": "mouselab-mdp", "trial_index": 28, "time_elapsed": 624494, "internal_node_id": "0.0-4.0-1.0-19.0"}}, {"uniqueid": "w16293194:a73708157", "current_trial": 29, "dateTime": 1664555493783, "trialdata": {"revealed_states": [], "num_clicks_accrued": [0, 0, 0, 0, 0, 0, 0, 0, 0, 0, 0, 0, 0], "stateRewards": ["", 4, 4, -24, -48, -4, 4, -48, 24, 4, -8, -48, 48], "withholdReward": false, "trial_id": "mdp_566768794366", "block": "test1", "trialIndex": 22, "score": 48, "costs": -1, "simulationMode": [null, null, null], "rewards": [4, -8, 48], "path": ["0", "0", "9", "10", "12"], "rt": [5304, 115, 93], "actions": ["left", "left", "down"], "actionTimes": [6566, 7198, 7809], "queries": {"click": {"state": {"target": ["9", "10", "11", "12"], "time": [2078, 2989, 4069, 4988]}, "edge": {"target": [], "time": []}}, "mouseover": {"state": {"target": ["9", "10", "11", "12"], "time": [1514, 2625, 3364, 4644]}, "edge": {"target": [], "time": []}}, "mouseout": {"state": {"target": ["0", "9", "10", "11", "10", "12"], "time": [1480, 2527, 3312, 4316, 4411, 5297]}, "edge": {"target": [], "time": []}}}, "displayed_time": "9.36", "trialTime": 11217, "trial_type": "mouselab-mdp", "trial_index": 29, "time_elapsed": 635875, "internal_node_id": "0.0-4.0-1.0-20.0"}}, {"uniqueid": "w16293194:a73708157", "current_trial": 30, "dateTime": 1664555505392, "trialdata": {"revealed_states": [], "num_clicks_accrued": [0, 0, 0, 0, 0, 0, 0, 0, 0, 0, 0, 0, 0], "stateRewards": ["", -4, -8, -48, 48, -2, 8, 48, 48, -2, -4, -48, -48], "withholdReward": false, "trial_id": "mdp_752833580638", "block": "test1", "trialIndex": 23, "score": 58.25, "costs": -0.75, "simulationMode": [null, null, null], "rewards": [-2, 8, 48], "path": ["0", "0", "5", "6", "8"], "rt": [4254, 226, 195], "actions": ["right", "right", "down"], "actionTimes": [5524, 6274, 6985], "queries": {"click": {"state": {"target": ["8", "6", "5"], "time": [2703, 3825, 4596]}, "edge": {"target": [], "time": []}}, "mouseover": {"state": {"target": ["5", "6", "8", "6", "5"], "time": [1471, 1594, 2294, 3375, 4148]}, "edge": {"target": [], "time": []}}, "mouseout": {"state": {"target": ["0", "5", "6", "8", "6", "5"], "time": [1432, 1496, 2095, 3045, 4127, 4845]}, "edge": {"target": [], "time": []}}}, "displayed_time": "10.44", "trialTime": 11447, "trial_type": "mouselab-mdp", "trial_index": 30, "time_elapsed": 647484, "internal_node_id": "0.0-4.0-1.0-21.0"}}, {"uniqueid": "w16293194:a73708157", "current_trial": 31, "dateTime": 1664555518279, "trialdata": {"revealed_states": [], "num_clicks_accrued": [0, 0, 0, 0, 0, 0, 0, 0, 0, 0, 0, 0, 0], "stateRewards": ["", -4, -8, -24, 24, 2, 8, 24, 48, 2, 4, 24, -48], "withholdReward": false, "trial_id": "mdp_122352383932", "block": "test1", "trialIndex": 24, "score": 61.25, "costs": -1.75, "simulationMode": [null, null, null], "rewards": [2, 8, 48], "path": ["0", "0", "5", "6", "8"], "rt": [8453, 62, 41], "actions": ["right", "right", "down"], "actionTimes": [9703, 10299, 10852], "queries": {"click": {"state": {"target": ["4", "3", "11", "12", "7", "8", "5"], "time": [2225, 3451, 4483, 5544, 6659, 7527, 8706]}, "edge": {"target": [], "time": []}}, "mouseover": {"state": {"target": ["1", "2", "4", "3", "1", "11", "10", "12", "0", "5", "7", "6", "8", "6", "5"], "time": [1545, 1628, 1813, 2998, 3894, 4076, 4868, 5062, 5948, 6017, 6195, 6997, 7080, 8205, 8323]}, "edge": {"target": [], "time": []}}, "mouseout": {"state": {"target": ["0", "1", "2", "4", "3", "1", "11", "10", "12", "0", "5", "7", "6", "8", "6", "5"], "time": [793, 1581, 1697, 2528, 3830, 3927, 4846, 4960, 5880, 5965, 6046, 6932, 7043, 8075, 8224, 9045]}, "edge": {"target": [], "time": []}}}, "displayed_time": "11.40", "trialTime": 12692, "trial_type": "mouselab-mdp", "trial_index": 31, "time_elapsed": 660371, "internal_node_id": "0.0-4.0-1.0-22.0"}}, {"uniqueid": "w16293194:a73708157", "current_trial": 32, "dateTime": 1664555530366, "trialdata": {"revealed_states": [], "num_clicks_accrued": [0, 0, 0, 0, 0, 0, 0, 0, 0, 0, 0, 0, 0], "stateRewards": ["", -2, 8, 48, 48, 4, -8, -48, 48, 2, -4, -48, 48], "withholdReward": true, "trial_id": "mdp_132958048709", "block": "test1", "trialIndex": 25, "score": 58.5, "costs": -0.5, "simulationMode": [null, null, null], "rewards": [-2, 8, 48], "path": ["0", "0", "1", "2", "3"], "rt": [4976, 124, 24], "actions": ["up", "up", "right"], "actionTimes": [6326, 6969, 7527], "queries": {"click": {"state": {"target": ["3", "1"], "time": [2257, 5003]}, "edge": {"target": [], "time": []}}, "mouseover": {"state": {"target": ["3", "2", "1", "2", "1", "0"], "time": [1843, 2627, 3060, 3645, 4478, 5426]}, "edge": {"target": [], "time": []}}, "mouseout": {"state": {"target": ["0", "3", "2", "1", "2", "1", "0"], "time": [1528, 2577, 2693, 3261, 4242, 5377, 5462]}, "edge": {"target": [], "time": []}}}, "displayed_time": "10.59", "trialTime": 11899, "trial_type": "mouselab-mdp", "trial_index": 32, "time_elapsed": 672458, "internal_node_id": "0.0-4.0-1.0-23.0"}}, {"uniqueid": "w16293194:a73708157", "current_trial": 33, "dateTime": 1664555541582, "trialdata": {"revealed_states": [], "num_clicks_accrued": [0, 0, 0, 0, 0, 0, 0, 0, 0, 0, 0, 0, 0], "stateRewards": ["", -2, 8, 48, -24, 2, 4, -48, -24, -4, 8, -48, -48], "withholdReward": true, "trial_id": "mdp_539167561933", "block": "test1", "trialIndex": 26, "score": 57.75, "costs": -1.25, "simulationMode": [null, null, null], "rewards": [-2, 8, 48], "path": ["0", "0", "1", "2", "3"], "rt": [6305, 197, 84], "actions": ["up", "up", "right"], "actionTimes": [7383, 8099, 8713], "queries": {"click": {"state": {"target": ["8", "7", "3", "2", "1"], "time": [1989, 2977, 3945, 5112, 6212]}, "edge": {"target": [], "time": []}}, "mouseover": {"state": {"target": ["0", "8", "6", "7", "3", "2", "1"], "time": [1185, 1284, 2403, 2599, 3584, 4352, 5931]}, "edge": {"target": [], "time": []}}, "mouseout": {"state": {"target": ["0", "0", "8", "6", "7", "3", "2", "1"], "time": [714, 1202, 2367, 2502, 3332, 4285, 5415, 6466]}, "edge": {"target": [], "time": []}}}, "displayed_time": "10.24", "trialTime": 11025, "trial_type": "mouselab-mdp", "trial_index": 33, "time_elapsed": 683673, "internal_node_id": "0.0-4.0-1.0-24.0"}}, {"uniqueid": "w16293194:a73708157", "current_trial": 34, "dateTime": 1664555555210, "trialdata": {"revealed_states": [], "num_clicks_accrued": [0, 0, 0, 0, 0, 0, 0, 0, 0, 0, 0, 0, 0], "stateRewards": ["", 2, -4, 48, -48, 2, 4, -24, 24, -4, -8, 24, -48], "withholdReward": false, "trial_id": "mdp_238810765895", "block": "test1", "trialIndex": 27, "score": 49, "costs": -2, "simulationMode": [null, null, null], "rewards": [2, -4, 48], "path": ["0", "0", "1", "2", "3"], "rt": [9475, 66, 68], "actions": ["up", "up", "right"], "actionTimes": [10694, 11273, 11863], "queries": {"click": {"state": {"target": ["11", "12", "7", "8", "4", "3", "2", "1"], "time": [2150, 3133, 4204, 5117, 7036, 7840, 8847, 9500]}, "edge": {"target": [], "time": []}}, "mouseover": {"state": {"target": ["9", "11", "10", "12", "5", "7", "6", "8", "5", "2", "4", "2", "3", "2", "1"], "time": [1536, 1787, 2634, 2720, 3601, 3784, 4556, 4645, 5602, 5851, 6723, 7350, 7426, 8465, 9183]}, "edge": {"target": [], "time": []}}, "mouseout": {"state": {"target": ["9", "11", "10", "12", "5", "7", "6", "8", "5", "2", "4", "2", "3", "2", "1"], "time": [1586, 2520, 2670, 3435, 3652, 4518, 4626, 5500, 5666, 6050, 7329, 7400, 8266, 9115, 9799]}, "edge": {"target": [], "time": []}}}, "displayed_time": "12.38", "trialTime": 13424, "trial_type": "mouselab-mdp", "trial_index": 34, "time_elapsed": 697302, "internal_node_id": "0.0-4.0-1.0-25.0"}}, {"uniqueid": "w16293194:a73708157", "current_trial": 35, "dateTime": 1664555569765, "trialdata": {"revealed_states": [], "num_clicks_accrued": [0, 0, 0, 0, 0, 0, 0, 0, 0, 0, 0, 0, 0], "stateRewards": ["", 2, 8, 24, -48, 4, 8, 24, 48, 2, -8, -24, 24], "withholdReward": true, "trial_id": "mdp_939899431582", "block": "test1", "trialIndex": 28, "score": 63, "costs": -2, "simulationMode": [null, null, null], "rewards": [4, 8, 48], "path": ["0", "0", "5", "6", "8"], "rt": [10273, 169, 148], "actions": ["right", "right", "down"], "actionTimes": [11604, 12297, 12975], "queries": {"click": {"state": {"target": ["12", "11", "3", "7", "4", "8", "5", "6"], "time": [2516, 3411, 4657, 6242, 7304, 8241, 9210, 9882]}, "edge": {"target": [], "time": []}}, "mouseover": {"state": {"target": ["9", "10", "12", "10", "11", "4", "2", "3", "2", "7", "6", "7", "4", "1", "6", "8", "5", "6"], "time": [1749, 1863, 2064, 2870, 3034, 3749, 3878, 3947, 5086, 5384, 5550, 5818, 6846, 7575, 7651, 7900, 8802, 9615]}, "edge": {"target": [], "time": []}}, "mouseout": {"state": {"target": ["0", "9", "10", "12", "10", "11", "4", "2", "3", "2", "7", "6", "7", "4", "1", "6", "8", "5", "6"], "time": [1714, 1798, 1885, 2837, 2953, 3693, 3816, 3914, 5035, 5303, 5516, 5767, 6614, 7548, 7604, 7678, 8587, 9463, 10111]}, "edge": {"target": [], "time": []}}}, "displayed_time": "13.51", "trialTime": 14369, "trial_type": "mouselab-mdp", "trial_index": 35, "time_elapsed": 711856, "internal_node_id": "0.0-4.0-1.0-26.0"}}, {"uniqueid": "w16293194:a73708157", "current_trial": 36, "dateTime": 1664555581482, "trialdata": {"revealed_states": [], "num_clicks_accrued": [0, 0, 0, 0, 0, 0, 0, 0, 0, 0, 0, 0, 0], "stateRewards": ["", 2, -8, 24, 24, 2, 4, -48, -48, 4, 4, -24, 48], "withholdReward": true, "trial_id": "mdp_985707010949", "block": "test1", "trialIndex": 29, "score": 60.25, "costs": -0.75, "simulationMode": [null, null, null], "rewards": [4, 4, 48], "path": ["0", "0", "9", "10", "12"], "rt": [3992, 164, 73], "actions": ["left", "left", "down"], "actionTimes": [5716, 6399, 6995], "queries": {"click": {"state": {"target": ["12", "10", "9"], "time": [2749, 3872, 4588]}, "edge": {"target": [], "time": []}}, "mouseover": {"state": {"target": ["9", "12", "10", "10", "9"], "time": [2034, 2271, 3190, 3473, 4188]}, "edge": {"target": [], "time": []}}, "mouseout": {"state": {"target": ["0", "9", "12", "10", "10", "9"], "time": [832, 2152, 3126, 3322, 4140, 4818]}, "edge": {"target": [], "time": []}}}, "displayed_time": "10.89", "trialTime": 11531, "trial_type": "mouselab-mdp", "trial_index": 36, "time_elapsed": 723573, "internal_node_id": "0.0-4.0-1.0-27.0"}}, {"uniqueid": "w16293194:a73708157", "current_trial": 37, "dateTime": 1664555591360, "trialdata": {"revealed_states": [], "num_clicks_accrued": [0, 0, 0, 0, 0, 0, 0, 0, 0, 0, 0, 0, 0], "stateRewards": ["", 2, -4, 24, -24, 2, -8, 48, 48, 4, -4, 24, 48], "withholdReward": true, "trial_id": "mdp_947836623875", "block": "test1", "trialIndex": 30, "score": 52.25, "costs": -0.75, "simulationMode": [null, null, null], "rewards": [4, -4, 48], "path": ["0", "0", "9", "10", "12"], "rt": [4444, 584, 118], "actions": ["left", "left", "down"], "actionTimes": [5860, 6969, 7612], "queries": {"click": {"state": {"target": ["12", "10", "9"], "time": [2432, 3462, 4445]}, "edge": {"target": [], "time": []}}, "mouseover": {"state": {"target": ["0", "9", "12", "10", "9"], "time": [1609, 1728, 1942, 2759, 3879]}, "edge": {"target": [], "time": []}}, "mouseout": {"state": {"target": ["0", "0", "9", "12", "10", "9"], "time": [872, 1679, 1746, 2709, 3710, 4825]}, "edge": {"target": [], "time": []}}}, "displayed_time": "8.53", "trialTime": 9751, "trial_type": "mouselab-mdp", "trial_index": 37, "time_elapsed": 733452, "internal_node_id": "0.0-4.0-1.0-28.0"}}, {"uniqueid": "w16293194:a73708157", "current_trial": 38, "dateTime": 1664555608844, "trialdata": {"revealed_states": [], "num_clicks_accrued": [0, 0, 0, 0, 0, 0, 0, 0, 0, 0, 0, 0, 0], "stateRewards": ["", -2, -4, -24, 24, -2, 4, -24, -24, -4, 4, 24, -24], "withholdReward": true, "trial_id": "mdp_999419261719", "block": "test1", "trialIndex": 31, "score": 26.5, "costs": -2.5, "simulationMode": [null, null, null], "rewards": [-4, 4, 24], "path": ["0", "0", "9", "10", "11"], "rt": [12969, 140, 271], "actions": ["left", "left", "up"], "actionTimes": [14373, 15019, 15801], "queries": {"click": {"state": {"target": ["7", "8", "11", "12", "3", "4", "2", "1", "10", "9"], "time": [2377, 4286, 5875, 6781, 7771, 8900, 9647, 10532, 11688, 12713]}, "edge": {"target": [], "time": []}}, "mouseover": {"state": {"target": ["7", "6", "8", "9", "11", "10", "12", "9", "1", "3", "2", "4", "2", "1", "9", "10", "9"], "time": [1826, 2973, 3419, 4918, 5480, 6241, 6386, 7072, 7186, 7318, 8105, 8336, 9223, 10137, 10970, 11306, 12120]}, "edge": {"target": [], "time": []}}, "mouseout": {"state": {"target": ["0", "7", "6", "8", "9", "11", "10", "12", "9", "1", "3", "2", "4", "2", "1", "9", "10", "9"], "time": [1520, 2903, 3151, 4750, 4969, 6170, 6320, 7037, 7121, 7206, 8071, 8156, 9172, 9956, 10885, 11034, 12037, 13026]}, "edge": {"target": [], "time": []}}}, "displayed_time": "16.33", "trialTime": 17320, "trial_type": "mouselab-mdp", "trial_index": 38, "time_elapsed": 750936, "internal_node_id": "0.0-4.0-1.0-29.0"}}, {"uniqueid": "w16293194:a73708157", "current_trial": 39, "dateTime": 1664555625661, "trialdata": {"rt": 16810, "stimulus": "<h1> End of block! </h1>\n\nYou have reached the end of the block 1/4. If you need a short break, feel free to take one now before moving on.\n\n<br><br>\nIn the next block, you will complete another 30 rounds of this game.\n\n<br><br>\n<div style='text-align: center;'>Press <code>space</code> to begin.</div>\n<br><br>\n<div style='text-align: center;'>(If the experiment doesn't continue, try clicking on the text and then pressing <code>space</code>.)</div>", "response": " ", "trial_id": "mdp_ready_2", "trial_type": "html-keyboard-response", "trial_index": 39, "time_elapsed": 767752, "internal_node_id": "0.0-4.0-2.0"}}, {"uniqueid": "w16293194:a73708157", "current_trial": 40, "dateTime": 1664555639568, "trialdata": {"revealed_states": [], "num_clicks_accrued": [0, 0, 0, 0, 0, 0, 0, 0, 0, 0, 0, 0, 0], "stateRewards": ["", -2, 4, -24, -24, -2, 4, 48, 24, -4, -8, 24, -48], "withholdReward": false, "trial_id": "mdp_191839460481", "block": "test2", "trialIndex": 32, "score": 54.5, "costs": -0.5, "simulationMode": [null, null, null], "rewards": [-2, 4, 48], "path": ["0", "0", "5", "6", "7"], "rt": [3956, 491, 562], "actions": ["right", "right", "up"], "actionTimes": [5960, 6965, 8042], "queries": {"click": {"state": {"target": ["7", "6"], "time": [3625, 5011]}, "edge": {"target": [], "time": []}}, "mouseover": {"state": {"target": ["5", "7", "7", "6"], "time": [2314, 2780, 3175, 4491]}, "edge": {"target": [], "time": []}}, "mouseout": {"state": {"target": ["0", "5", "7", "7", "6"], "time": [2261, 2498, 2798, 4426, 5330]}, "edge": {"target": [], "time": []}}}, "displayed_time": "12.26", "trialTime": 13815, "trial_type": "mouselab-mdp", "trial_index": 40, "time_elapsed": 781659, "internal_node_id": "0.0-4.0-3.0-0.0"}}, {"uniqueid": "w16293194:a73708157", "current_trial": 41, "dateTime": 1664555651658, "trialdata": {"revealed_states": [], "num_clicks_accrued": [0, 0, 0, 0, 0, 0, 0, 0, 0, 0, 0, 0, 0], "stateRewards": ["", 2, -4, -48, 24, 4, 4, 48, -48, -2, -4, -24, -48], "withholdReward": true, "trial_id": "mdp_858916930936", "block": "test2", "trialIndex": 33, "score": 60, "costs": -1, "simulationMode": [null, null, null], "rewards": [4, 4, 48], "path": ["0", "0", "5", "6", "7"], "rt": [5739, 76, 183], "actions": ["right", "right", "up"], "actionTimes": [7445, 8056, 8756], "queries": {"click": {"state": {"target": ["11", "12", "7", "6"], "time": [2606, 3881, 5287, 6636]}, "edge": {"target": [], "time": []}}, "mouseover": {"state": {"target": ["9", "11", "10", "12", "6", "7", "6", "8", "6"], "time": [1941, 2187, 2974, 3058, 4637, 4787, 5541, 5839, 6055]}, "edge": {"target": [], "time": []}}, "mouseout": {"state": {"target": ["0", "9", "11", "10", "12", "6", "7", "6", "8", "6"], "time": [1888, 2023, 2929, 3026, 4272, 4738, 5523, 5592, 5862, 6905]}, "edge": {"target": [], "time": []}}}, "displayed_time": "10.84", "trialTime": 11903, "trial_type": "mouselab-mdp", "trial_index": 41, "time_elapsed": 793748, "internal_node_id": "0.0-4.0-3.0-1.0"}}, {"uniqueid": "w16293194:a73708157", "current_trial": 42, "dateTime": 1664555662432, "trialdata": {"revealed_states": [], "num_clicks_accrued": [0, 0, 0, 0, 0, 0, 0, 0, 0, 0, 0, 0, 0], "stateRewards": ["", 2, 8, -48, 48, -4, -8, 24, 24, -2, -8, 24, -24], "withholdReward": false, "trial_id": "mdp_910248289075", "block": "test2", "trialIndex": 34, "score": 62.5, "costs": -0.5, "simulationMode": [null, null, null], "rewards": [2, 8, 48], "path": ["0", "0", "1", "2", "4"], "rt": [3819, 206, 108], "actions": ["up", "up", "left"], "actionTimes": [5320, 6057, 6677], "queries": {"click": {"state": {"target": ["4", "2"], "time": [2479, 3697]}, "edge": {"target": [], "time": []}}, "mouseover": {"state": {"target": ["4", "2", "2", "1", "9"], "time": [2008, 2825, 3272, 4124, 4589]}, "edge": {"target": [], "time": []}}, "mouseout": {"state": {"target": ["0", "4", "2", "2", "1", "9"], "time": [1704, 2772, 2968, 4035, 4522, 4613]}, "edge": {"target": [], "time": []}}}, "displayed_time": "9.63", "trialTime": 10616, "trial_type": "mouselab-mdp", "trial_index": 42, "time_elapsed": 804524, "internal_node_id": "0.0-4.0-3.0-2.0"}}, {"uniqueid": "w16293194:a73708157", "current_trial": 43, "dateTime": 1664555679277, "trialdata": {"revealed_states": [], "num_clicks_accrued": [0, 0, 0, 0, 0, 0, 0, 0, 0, 0, 0, 0, 0], "stateRewards": ["", -2, -8, 24, -48, -4, 8, -48, -24, 4, 8, -24, 24], "withholdReward": true, "trial_id": "mdp_940444641142", "block": "test2", "trialIndex": 35, "score": 39, "costs": -2, "simulationMode": [null, null, null], "rewards": [4, 8, 24], "path": ["0", "0", "9", "10", "12"], "rt": [11915, 105, 183], "actions": ["left", "left", "down"], "actionTimes": [13190, 13806, 14510], "queries": {"click": {"state": {"target": ["12", "11", "7", "3", "4", "8", "2", "10"], "time": [2654, 3705, 4785, 5629, 6606, 7593, 10369, 11871]}, "edge": {"target": [], "time": []}}, "mouseover": {"state": {"target": ["9", "10", "12", "12", "9", "11", "1", "7", "3", "2", "4", "1", "5", "8", "5", "2", "2", "1", "9", "10"], "time": [1443, 1875, 1963, 2214, 3148, 3217, 4129, 4360, 5226, 5965, 6160, 6949, 7024, 7155, 8558, 9173, 9810, 10841, 10920, 11186]}, "edge": {"target": [], "time": []}}, "mouseout": {"state": {"target": ["0", "9", "10", "12", "12", "9", "11", "1", "7", "3", "2", "4", "1", "5", "8", "5", "2", "2", "1", "9", "10"], "time": [757, 1525, 1926, 2012, 2991, 3172, 3995, 4164, 5158, 5945, 6028, 6926, 6998, 7064, 7972, 8608, 9324, 10825, 10873, 10985, 12190]}, "edge": {"target": [], "time": []}}}, "displayed_time": "15.04", "trialTime": 16688, "trial_type": "mouselab-mdp", "trial_index": 43, "time_elapsed": 821368, "internal_node_id": "0.0-4.0-3.0-3.0"}}, {"uniqueid": "w16293194:a73708157", "current_trial": 44, "dateTime": 1664555697037, "trialdata": {"revealed_states": [], "num_clicks_accrued": [0, 0, 0, 0, 0, 0, 0, 0, 0, 0, 0, 0, 0], "stateRewards": ["", 2, -8, 48, -24, 2, 8, 24, -24, 4, -4, -48, -48], "withholdReward": true, "trial_id": "mdp_130946197263", "block": "test2", "trialIndex": 36, "score": 45, "costs": -2, "simulationMode": [null, null, null], "rewards": [2, -8, 48], "path": ["0", "0", "1", "2", "3"], "rt": [11999, 418, 581], "actions": ["up", "up", "right"], "actionTimes": [13756, 14715, 15810], "queries": {"click": {"state": {"target": ["4", "3", "2", "1", "8", "7", "12", "11"], "time": [2949, 4086, 5514, 6568, 8183, 9054, 10190, 12070]}, "edge": {"target": [], "time": []}}, "mouseover": {"state": {"target": ["4", "2", "3", "1", "2", "1", "9", "5", "8", "6", "7", "5", "0", "12", "10", "11", "10"], "time": [2351, 3336, 3732, 4853, 5077, 6167, 7421, 7520, 7738, 8463, 8555, 9485, 9563, 9820, 10465, 11440, 12583]}, "edge": {"target": [], "time": []}}, "mouseout": {"state": {"target": ["10", "9", "0", "4", "2", "3", "1", "2", "1", "9", "5", "8", "6", "7", "5", "0", "12", "10", "11", "10", "12"], "time": [768, 884, 2102, 3318, 3385, 4484, 4867, 6036, 6938, 7448, 7620, 8438, 8505, 9387, 9514, 9581, 10436, 10554, 12401, 12609, 12984]}, "edge": {"target": [], "time": []}}}, "displayed_time": "16.36", "trialTime": 17649, "trial_type": "mouselab-mdp", "trial_index": 44, "time_elapsed": 839128, "internal_node_id": "0.0-4.0-3.0-4.0"}}, {"uniqueid": "w16293194:a73708157", "current_trial": 45, "dateTime": 1664555709443, "trialdata": {"revealed_states": [], "num_clicks_accrued": [0, 0, 0, 0, 0, 0, 0, 0, 0, 0, 0, 0, 0], "stateRewards": ["", 2, -8, -24, 48, 4, -8, -24, -24, 2, 8, -24, 24], "withholdReward": false, "trial_id": "mdp_480787552818", "block": "test2", "trialIndex": 37, "score": 46.25, "costs": -0.75, "simulationMode": [null, null, null], "rewards": [2, -8, 48], "path": ["0", "0", "1", "2", "4"], "rt": [6686, 171, 104], "actions": ["up", "up", "left"], "actionTimes": [8309, 9006, 9622], "queries": {"click": {"state": {"target": ["4", "2", "1"], "time": [2579, 4406, 5623]}, "edge": {"target": [], "time": []}}, "mouseover": {"state": {"target": ["4", "2", "3", "2", "1", "9", "10", "11"], "time": [2117, 3067, 3388, 3924, 5320, 6376, 6586, 6670]}, "edge": {"target": [], "time": []}}, "mouseout": {"state": {"target": ["10", "9", "0", "4", "2", "3", "2", "1", "9", "10", "11", "12"], "time": [626, 840, 1872, 3034, 3101, 3757, 4823, 6143, 6565, 6617, 7443, 11422]}, "edge": {"target": [], "time": []}}}, "displayed_time": "10.76", "trialTime": 12185, "trial_type": "mouselab-mdp", "trial_index": 45, "time_elapsed": 851534, "internal_node_id": "0.0-4.0-3.0-5.0"}}, {"uniqueid": "w16293194:a73708157", "current_trial": 46, "dateTime": 1664555720999, "trialdata": {"revealed_states": [], "num_clicks_accrued": [0, 0, 0, 0, 0, 0, 0, 0, 0, 0, 0, 0, 0], "stateRewards": ["", 4, -4, 48, 24, 2, 4, 24, -24, 2, 4, 24, 48], "withholdReward": true, "trial_id": "mdp_736351885282", "block": "test2", "trialIndex": 38, "score": 57.5, "costs": -1.5, "simulationMode": [null, null, null], "rewards": [2, 4, 48], "path": ["0", "0", "9", "10", "12"], "rt": [7136, 30, 125], "actions": ["left", "left", "down"], "actionTimes": [8719, 9285, 9941], "queries": {"click": {"state": {"target": ["7", "8", "11", "12", "9", "10"], "time": [2450, 3313, 4520, 5720, 7007, 7830]}, "edge": {"target": [], "time": []}}, "mouseover": {"state": {"target": ["5", "7", "6", "8", "9", "11", "10", "12", "9", "0", "9", "10"], "time": [1784, 1968, 2793, 2886, 3853, 4150, 5006, 5217, 6269, 6352, 6573, 7498]}, "edge": {"target": [], "time": []}}, "mouseout": {"state": {"target": ["10", "0", "0", "5", "7", "6", "8", "9", "11", "10", "12", "9", "0", "9", "10"], "time": [536, 851, 1767, 1852, 2757, 2824, 3770, 3874, 4984, 5065, 5956, 6294, 6380, 7431, 8098]}, "edge": {"target": [], "time": []}}}, "displayed_time": "10.46", "trialTime": 11341, "trial_type": "mouselab-mdp", "trial_index": 46, "time_elapsed": 863090, "internal_node_id": "0.0-4.0-3.0-6.0"}}, {"uniqueid": "w16293194:a73708157", "current_trial": 47, "dateTime": 1664555739639, "trialdata": {"revealed_states": [], "num_clicks_accrued": [0, 0, 0, 0, 0, 0, 0, 0, 0, 0, 0, 0, 0], "stateRewards": ["", -2, -8, -24, 48, -2, -8, -48, -48, 2, -8, -48, 24], "withholdReward": true, "trial_id": "mdp_288324580942", "block": "test2", "trialIndex": 39, "score": 40.5, "costs": -2.5, "simulationMode": [null, null, null], "rewards": [-2, -8, 48], "path": ["0", "0", "1", "2", "4"], "rt": [14126, 37, 130], "actions": ["up", "up", "left"], "actionTimes": [15582, 16145, 16817], "queries": {"click": {"state": {"target": ["11", "12", "7", "8", "3", "4", "2", "1", "10", "9"], "time": [2713, 3564, 4644, 5805, 7519, 8354, 9185, 10279, 13081, 14118]}, "edge": {"target": [], "time": []}}, "mouseover": {"state": {"target": ["11", "10", "12", "5", "6", "7", "6", "8", "5", "3", "3", "2", "4", "2", "1", "10", "9"], "time": [2367, 3011, 3123, 3990, 4060, 4255, 4949, 4993, 6169, 6471, 7119, 7831, 7902, 8772, 9768, 12097, 13747]}, "edge": {"target": [], "time": []}}, "mouseout": {"state": {"target": ["11", "10", "12", "5", "6", "7", "6", "8", "5", "3", "3", "2", "4", "2", "1", "11", "10", "9"], "time": [2961, 3088, 3869, 4018, 4093, 4923, 4989, 6138, 6199, 6538, 7803, 7872, 8686, 9537, 10573, 11831, 13561, 14385]}, "edge": {"target": [], "time": []}}}, "displayed_time": "17.35", "trialTime": 18438, "trial_type": "mouselab-mdp", "trial_index": 47, "time_elapsed": 881731, "internal_node_id": "0.0-4.0-3.0-7.0"}}, {"uniqueid": "w16293194:a73708157", "current_trial": 48, "dateTime": 1664555754506, "trialdata": {"revealed_states": [], "num_clicks_accrued": [0, 0, 0, 0, 0, 0, 0, 0, 0, 0, 0, 0, 0], "stateRewards": ["", -4, -4, 48, 24, -4, -4, -24, -48, -4, 4, 48, -24], "withholdReward": true, "trial_id": "mdp_896503755738", "block": "test2", "trialIndex": 40, "score": 51, "costs": -2, "simulationMode": [null, null, null], "rewards": [-4, 4, 48], "path": ["0", "0", "9", "10", "11"], "rt": [9972, 74, 239], "actions": ["left", "left", "up"], "actionTimes": [11794, 12380, 13144], "queries": {"click": {"state": {"target": ["8", "7", "3", "2", "1", "11", "10", "9"], "time": [3047, 4004, 4958, 6006, 7022, 8276, 9910, 10909]}, "edge": {"target": [], "time": []}}, "mouseover": {"state": {"target": ["5", "8", "6", "7", "3", "2", "1", "11", "10", "10", "9"], "time": [2160, 2576, 3500, 3595, 4544, 5528, 6675, 7365, 8559, 9412, 10507]}, "edge": {"target": [], "time": []}}, "mouseout": {"state": {"target": ["0", "5", "8", "6", "7", "3", "2", "1", "11", "10", "10", "9"], "time": [2076, 2332, 3448, 3534, 4426, 5412, 6381, 7281, 8530, 8779, 10311, 11163]}, "edge": {"target": [], "time": []}}}, "displayed_time": "13.69", "trialTime": 14672, "trial_type": "mouselab-mdp", "trial_index": 48, "time_elapsed": 896597, "internal_node_id": "0.0-4.0-3.0-8.0"}}, {"uniqueid": "w16293194:a73708157", "current_trial": 49, "dateTime": 1664555768596, "trialdata": {"revealed_states": [], "num_clicks_accrued": [0, 0, 0, 0, 0, 0, 0, 0, 0, 0, 0, 0, 0], "stateRewards": ["", 4, -4, 48, 24, 2, -8, 24, -48, -2, -4, -48, -48], "withholdReward": false, "trial_id": "mdp_655302318695", "block": "test2", "trialIndex": 41, "score": 51.5, "costs": -1.5, "simulationMode": [null, null, null], "rewards": [4, -4, 48], "path": ["0", "0", "1", "2", "3"], "rt": [9014, 29, 497], "actions": ["up", "up", "right"], "actionTimes": [10472, 11024, 12057], "queries": {"click": {"state": {"target": ["11", "12", "7", "8", "3", "2"], "time": [2714, 4383, 5443, 6398, 8065, 9100]}, "edge": {"target": [], "time": []}}, "mouseover": {"state": {"target": ["9", "11", "10", "12", "12", "7", "6", "8", "3", "3", "2", "1"], "time": [1789, 2262, 3219, 3259, 3922, 5091, 5830, 5913, 6968, 7713, 8435, 9520]}, "edge": {"target": [], "time": []}}, "mouseout": {"state": {"target": ["9", "11", "10", "12", "12", "7", "6", "8", "3", "3", "2", "1", "0"], "time": [1923, 2969, 3252, 3289, 4707, 5813, 5860, 6672, 7020, 8369, 9467, 13295, 13363]}, "edge": {"target": [], "time": []}}}, "displayed_time": "12.58", "trialTime": 13891, "trial_type": "mouselab-mdp", "trial_index": 49, "time_elapsed": 910688, "internal_node_id": "0.0-4.0-3.0-9.0"}}, {"uniqueid": "w16293194:a73708157", "current_trial": 50, "dateTime": 1664555780467, "trialdata": {"revealed_states": [], "num_clicks_accrued": [0, 0, 0, 0, 0, 0, 0, 0, 0, 0, 0, 0, 0], "stateRewards": ["", -2, 8, 48, -48, 4, -8, 24, 24, 4, 4, -48, -24], "withholdReward": true, "trial_id": "mdp_746937869927", "block": "test2", "trialIndex": 42, "score": 58, "costs": -1, "simulationMode": [null, null, null], "rewards": [-2, 8, 48], "path": ["0", "0", "1", "2", "3"], "rt": [6537, 145, 377], "actions": ["up", "up", "right"], "actionTimes": [7948, 8613, 9530], "queries": {"click": {"state": {"target": ["12", "11", "3", "2"], "time": [2428, 3283, 4596, 6264]}, "edge": {"target": [], "time": []}}, "mouseover": {"state": {"target": ["9", "12", "10", "11", "1", "3", "2", "4", "2", "1"], "time": [1835, 1947, 2724, 2809, 3798, 4184, 4908, 5254, 5838, 7134]}, "edge": {"target": [], "time": []}}, "mouseout": {"state": {"target": ["0", "9", "12", "10", "11", "1", "3", "2", "4", "2"], "time": [1801, 1871, 2692, 2770, 3733, 3834, 4885, 5172, 5634, 6765]}, "edge": {"target": [], "time": []}}}, "displayed_time": "10.05", "trialTime": 11666, "trial_type": "mouselab-mdp", "trial_index": 50, "time_elapsed": 922558, "internal_node_id": "0.0-4.0-3.0-10.0"}}, {"uniqueid": "w16293194:a73708157", "current_trial": 51, "dateTime": 1664555798286, "trialdata": {"revealed_states": [], "num_clicks_accrued": [0, 0, 0, 0, 0, 0, 0, 0, 0, 0, 0, 0, 0], "stateRewards": ["", -4, 4, -24, 24, -2, -4, 48, 24, 2, 8, -48, 24], "withholdReward": false, "trial_id": "mdp_150340189492", "block": "test2", "trialIndex": 43, "score": 45.5, "costs": -1.5, "simulationMode": [null, null, null], "rewards": [-2, -4, 48], "path": ["0", "0", "5", "6", "7"], "rt": [7224, 196, 1245], "actions": ["right", "right", "up"], "actionTimes": [8886, 9601, 11367], "queries": {"click": {"state": {"target": ["11", "12", "4", "3", "7", "6"], "time": [2677, 3652, 4746, 5918, 6906, 8037]}, "edge": {"target": [], "time": []}}, "mouseover": {"state": {"target": ["11", "10", "12", "10", "4", "2", "3", "7", "6", "6", "5"], "time": [2331, 3047, 3193, 3938, 4427, 5072, 5495, 6572, 7200, 7558, 8338]}, "edge": {"target": [], "time": []}}, "mouseout": {"state": {"target": ["1", "11", "10", "12", "10", "4", "2", "3", "7", "6", "6", "5"], "time": [920, 2998, 3096, 3907, 3985, 5044, 5114, 6306, 7166, 7247, 8311, 8377]}, "edge": {"target": [], "time": []}}}, "displayed_time": "11.88", "trialTime": 17582, "trial_type": "mouselab-mdp", "trial_index": 51, "time_elapsed": 940376, "internal_node_id": "0.0-4.0-3.0-11.0"}}, {"uniqueid": "w16293194:a73708157", "current_trial": 52, "dateTime": 1664555811949, "trialdata": {"revealed_states": [], "num_clicks_accrued": [0, 0, 0, 0, 0, 0, 0, 0, 0, 0, 0, 0, 0], "stateRewards": ["", 4, 4, 48, -48, 4, 4, -48, 24, 2, 8, 24, -48], "withholdReward": true, "trial_id": "mdp_291674656283", "block": "test2", "trialIndex": 44, "score": 60, "costs": -1, "simulationMode": [null, null, null], "rewards": [4, 4, 48], "path": ["0", "0", "1", "2", "3"], "rt": [5572, 171, 311], "actions": ["up", "up", "right"], "actionTimes": [6860, 7551, 8380], "queries": {"click": {"state": {"target": ["4", "3", "2", "1"], "time": [2476, 3359, 4881, 5912]}, "edge": {"target": [], "time": []}}, "mouseover": {"state": {"target": ["1", "4", "2", "3", "1", "2", "2", "1"], "time": [1474, 1875, 2769, 2845, 3707, 4225, 4477, 5206]}, "edge": {"target": [], "time": []}}, "mouseout": {"state": {"target": ["9", "1", "4", "2", "3", "1", "2", "2", "1"], "time": [636, 1572, 2742, 2816, 3642, 4074, 4273, 5139, 6156]}, "edge": {"target": [], "time": []}}}, "displayed_time": "9.39", "trialTime": 13517, "trial_type": "mouselab-mdp", "trial_index": 52, "time_elapsed": 954041, "internal_node_id": "0.0-4.0-3.0-12.0"}}, {"uniqueid": "w16293194:a73708157", "current_trial": 53, "dateTime": 1664555835707, "trialdata": {"revealed_states": [], "num_clicks_accrued": [0, 0, 0, 0, 0, 0, 0, 0, 0, 0, 0, 0, 0], "stateRewards": ["", 4, -8, 48, 48, 2, 4, 48, -48, 4, -4, -48, 48], "withholdReward": true, "trial_id": "mdp_519605841135", "block": "test2", "trialIndex": 45, "score": 48.25, "costs": -0.75, "simulationMode": [null, null, null], "rewards": [4, -8, 48], "path": ["0", "0", "1", "2", "4"], "rt": [4030, 82, 108], "actions": ["up", "up", "left"], "actionTimes": [5388, 5990, 6621], "queries": {"click": {"state": {"target": ["4", "2", "1"], "time": [2216, 3370, 4096]}, "edge": {"target": [], "time": []}}, "mouseover": {"state": {"target": ["4", "2", "3", "2", "1", "9"], "time": [1732, 2501, 2565, 3097, 3764, 4696]}, "edge": {"target": [], "time": []}}, "mouseout": {"state": {"target": ["4", "2", "3", "2", "1", "9", "0"], "time": [2463, 2547, 2915, 3661, 4444, 22951, 23130]}, "edge": {"target": [], "time": []}}}, "displayed_time": "10.53", "trialTime": 23586, "trial_type": "mouselab-mdp", "trial_index": 53, "time_elapsed": 977799, "internal_node_id": "0.0-4.0-3.0-13.0"}}, {"uniqueid": "w16293194:a73708157", "current_trial": 54, "dateTime": 1664555845726, "trialdata": {"revealed_states": [], "num_clicks_accrued": [0, 0, 0, 0, 0, 0, 0, 0, 0, 0, 0, 0, 0], "stateRewards": ["", 2, -4, 24, -24, 2, -8, 48, 48, 4, -4, 24, 48], "withholdReward": false, "trial_id": "mdp_947836623875", "block": "test2", "trialIndex": 46, "score": 46.25, "costs": -0.75, "simulationMode": [null, null, null], "rewards": [2, -8, 48], "path": ["0", "0", "5", "6", "8"], "rt": [3462, 683, 334], "actions": ["right", "right", "down"], "actionTimes": [4698, 5901, 6766], "queries": {"click": {"state": {"target": ["8", "6", "5"], "time": [2122, 3166, 3871]}, "edge": {"target": [], "time": []}}, "mouseover": {"state": {"target": ["5", "8", "6", "6", "5"], "time": [1504, 1754, 2417, 2792, 3558]}, "edge": {"target": [], "time": []}}, "mouseout": {"state": {"target": ["0", "5", "8", "6", "6", "5"], "time": [1468, 1585, 2392, 2553, 3492, 4125]}, "edge": {"target": [], "time": []}}}, "displayed_time": "9.43", "trialTime": 9810, "trial_type": "mouselab-mdp", "trial_index": 54, "time_elapsed": 987818, "internal_node_id": "0.0-4.0-3.0-14.0"}}, {"uniqueid": "w16293194:a73708157", "current_trial": 55, "dateTime": 1664555857948, "trialdata": {"revealed_states": [], "num_clicks_accrued": [0, 0, 0, 0, 0, 0, 0, 0, 0, 0, 0, 0, 0], "stateRewards": ["", 2, 8, 48, -24, -4, 4, 48, 24, -2, 8, 24, 24], "withholdReward": true, "trial_id": "mdp_123436106791", "block": "test2", "trialIndex": 47, "score": 62, "costs": -1, "simulationMode": [null, null, null], "rewards": [2, 8, 48], "path": ["0", "0", "1", "2", "3"], "rt": [4746, 59, 83], "actions": ["up", "up", "right"], "actionTimes": [6909, 7487, 8108], "queries": {"click": {"state": {"target": ["4", "3", "2", "1"], "time": [2989, 3901, 5059, 5823]}, "edge": {"target": [], "time": []}}, "mouseover": {"state": {"target": ["4", "2", "3", "1", "2", "1", "11"], "time": [2599, 3316, 3412, 4400, 4576, 5467, 6219]}, "edge": {"target": [], "time": []}}, "mouseout": {"state": {"target": ["5", "0", "4", "2", "3", "1", "2", "1"], "time": [1594, 2379, 3264, 3366, 4236, 4549, 5367, 6134]}, "edge": {"target": [], "time": []}}}, "displayed_time": "11.36", "trialTime": 12029, "trial_type": "mouselab-mdp", "trial_index": 55, "time_elapsed": 1000040, "internal_node_id": "0.0-4.0-3.0-15.0"}}, {"uniqueid": "w16293194:a73708157", "current_trial": 56, "dateTime": 1664555874107, "trialdata": {"revealed_states": [], "num_clicks_accrued": [0, 0, 0, 0, 0, 0, 0, 0, 0, 0, 0, 0, 0], "stateRewards": ["", -2, -8, 48, 24, -2, 8, -48, -24, -2, 4, -48, 48], "withholdReward": true, "trial_id": "mdp_295220852217", "block": "test2", "trialIndex": 48, "score": 52.75, "costs": -2.25, "simulationMode": [null, null, null], "rewards": [-2, 4, 48], "path": ["0", "0", "9", "10", "12"], "rt": [11375, 18, 36], "actions": ["left", "left", "down"], "actionTimes": [12764, 13312, 13868], "queries": {"click": {"state": {"target": ["3", "2", "1", "7", "8", "11", "4", "12", "10"], "time": [2154, 3507, 4213, 5334, 6119, 7278, 8010, 9042, 10941]}, "edge": {"target": [], "time": []}}, "mouseover": {"state": {"target": ["3", "2", "2", "2", "1", "6", "7", "6", "8", "0", "11", "4", "12", "10", "9"], "time": [1721, 2495, 2777, 3104, 3891, 4819, 4898, 5603, 5723, 6525, 6833, 7591, 8672, 10481, 11398]}, "edge": {"target": [], "time": []}}, "mouseout": {"state": {"target": ["11", "3", "2", "2", "2", "1", "6", "7", "6", "8", "0", "11", "4", "12", "12", "10", "9"], "time": [450, 2453, 2685, 2825, 3821, 4716, 4867, 5583, 5642, 6435, 6547, 7518, 8238, 9797, 10429, 11301, 11620]}, "edge": {"target": [], "time": []}}}, "displayed_time": "14.40", "trialTime": 15979, "trial_type": "mouselab-mdp", "trial_index": 56, "time_elapsed": 1016198, "internal_node_id": "0.0-4.0-3.0-16.0"}}, {"uniqueid": "w16293194:a73708157", "current_trial": 57, "dateTime": 1664555891376, "trialdata": {"revealed_states": [], "num_clicks_accrued": [0, 0, 0, 0, 0, 0, 0, 0, 0, 0, 0, 0, 0], "stateRewards": ["", -4, 4, 24, 24, -2, 8, 24, -48, 4, -8, -24, -48], "withholdReward": false, "trial_id": "mdp_651542905861", "block": "test2", "trialIndex": 49, "score": 32.5, "costs": -2.5, "simulationMode": [null, null, null], "rewards": [-2, 8, 24], "path": ["0", "0", "5", "6", "7"], "rt": [11849, 25, 206], "actions": ["right", "right", "up"], "actionTimes": [14392, 14927, 15659], "queries": {"click": {"state": {"target": ["12", "11", "4", "3", "7", "8", "2", "1", "5", "6"], "time": [3617, 4548, 5386, 6522, 7406, 8361, 10092, 11121, 12116, 12864]}, "edge": {"target": [], "time": []}}, "mouseover": {"state": {"target": ["9", "12", "10", "11", "4", "2", "3", "7", "6", "8", "1", "2", "1", "5", "6"], "time": [2862, 3127, 3921, 4173, 4972, 5667, 5887, 7087, 7739, 7937, 9281, 9616, 10732, 11779, 12490]}, "edge": {"target": [], "time": []}}, "mouseout": {"state": {"target": ["9", "0", "9", "12", "10", "11", "4", "2", "3", "7", "6", "8", "1", "2", "1", "5", "6"], "time": [1078, 2677, 2962, 3898, 4007, 4893, 5646, 5813, 6841, 7689, 7790, 8856, 9316, 10654, 11471, 12441, 13108]}, "edge": {"target": [], "time": []}}}, "displayed_time": "16.18", "trialTime": 17114, "trial_type": "mouselab-mdp", "trial_index": 57, "time_elapsed": 1033468, "internal_node_id": "0.0-4.0-3.0-17.0"}}, {"uniqueid": "w16293194:a73708157", "current_trial": 58, "dateTime": 1664555904839, "trialdata": {"revealed_states": [], "num_clicks_accrued": [0, 0, 0, 0, 0, 0, 0, 0, 0, 0, 0, 0, 0], "stateRewards": ["", -2, 4, -48, -48, -4, -8, 48, -48, 2, 4, 48, -48], "withholdReward": false, "trial_id": "mdp_258647270500", "block": "test2", "trialIndex": 50, "score": 57.25, "costs": -1.75, "simulationMode": [null, null, null], "rewards": [2, 4, 48], "path": ["0", "0", "9", "10", "11"], "rt": [8906, 412, 61], "actions": ["left", "left", "up"], "actionTimes": [10237, 11177, 11761], "queries": {"click": {"state": {"target": ["7", "6", "5", "3", "4", "11", "10"], "time": [2277, 3454, 4318, 5314, 6233, 7050, 8483]}, "edge": {"target": [], "time": []}}, "mouseover": {"state": {"target": ["7", "6", "5", "3", "2", "4", "11", "10", "12", "10", "9"], "time": [1914, 3001, 3824, 4939, 5716, 5900, 6669, 7385, 7531, 7720, 9075]}, "edge": {"target": [], "time": []}}, "mouseout": {"state": {"target": ["0", "7", "6", "5", "3", "2", "4", "11", "10", "12", "10", "9"], "time": [747, 2759, 3741, 4619, 5685, 5779, 6567, 7336, 7450, 7674, 8984, 9094]}, "edge": {"target": [], "time": []}}}, "displayed_time": "12.31", "trialTime": 13259, "trial_type": "mouselab-mdp", "trial_index": 58, "time_elapsed": 1046931, "internal_node_id": "0.0-4.0-3.0-18.0"}}, {"uniqueid": "w16293194:a73708157", "current_trial": 59, "dateTime": 1664555928407, "trialdata": {"revealed_states": [], "num_clicks_accrued": [0, 0, 0, 0, 0, 0, 0, 0, 0, 0, 0, 0, 0], "stateRewards": ["", -4, -8, -48, 48, -2, -8, -48, -24, 4, 8, 24, -48], "withholdReward": true, "trial_id": "mdp_509977295685", "block": "test2", "trialIndex": 51, "score": 38.5, "costs": -2.5, "simulationMode": [null, null, null], "rewards": [4, 8, 24], "path": ["0", "0", "9", "10", "11"], "rt": [19202, 77, 242], "actions": ["left", "left", "up"], "actionTimes": [20526, 21131, 21914], "queries": {"click": {"state": {"target": ["9", "11", "12", "7", "8", "3", "4", "2", "1", "10"], "time": [2163, 3204, 4672, 6115, 7170, 8193, 9176, 10039, 11023, 12596]}, "edge": {"target": [], "time": []}}, "mouseover": {"state": {"target": ["9", "11", "10", "12", "7", "6", "8", "3", "2", "4", "2", "1", "10"], "time": [1665, 2821, 3576, 3847, 5679, 6418, 6796, 7803, 8586, 8779, 9708, 10586, 12193]}, "edge": {"target": [], "time": []}}, "mouseout": {"state": {"target": ["0", "9", "11", "10", "12", "7", "6", "8", "3", "2", "4", "2", "1", "10"], "time": [1582, 2687, 3492, 3692, 5210, 6397, 6533, 7463, 8544, 8680, 9574, 10486, 11329, 12906]}, "edge": {"target": [], "time": []}}}, "displayed_time": "22.44", "trialTime": 23363, "trial_type": "mouselab-mdp", "trial_index": 59, "time_elapsed": 1070499, "internal_node_id": "0.0-4.0-3.0-19.0"}}, {"uniqueid": "w16293194:a73708157", "current_trial": 60, "dateTime": 1664555945205, "trialdata": {"revealed_states": [], "num_clicks_accrued": [0, 0, 0, 0, 0, 0, 0, 0, 0, 0, 0, 0, 0], "stateRewards": ["", -4, 8, 24, -24, 4, -8, -24, -24, -2, 8, -48, 24], "withholdReward": true, "trial_id": "mdp_240302100183", "block": "test2", "trialIndex": 52, "score": 32.5, "costs": -2.5, "simulationMode": [null, null, null], "rewards": [-2, 8, 24], "path": ["0", "0", "9", "10", "12"], "rt": [12987, 83, 62], "actions": ["left", "left", "down"], "actionTimes": [14177, 14771, 15349], "queries": {"click": {"state": {"target": ["11", "12", "4", "3", "7", "8", "2", "1", "10", "9"], "time": [2232, 3060, 3951, 4718, 5541, 6635, 9054, 10071, 11811, 12756]}, "edge": {"target": [], "time": []}}, "mouseover": {"state": {"target": ["0", "9", "11", "10", "12", "10", "4", "2", "3", "7", "6", "8", "1", "2", "1", "10", "9"], "time": [1370, 1536, 1800, 2569, 2719, 3360, 3497, 4235, 4334, 5118, 5819, 5962, 7893, 8408, 9593, 11406, 12409]}, "edge": {"target": [], "time": []}}, "mouseout": {"state": {"target": ["1", "0", "9", "11", "10", "12", "10", "4", "2", "3", "7", "6", "8", "1", "2", "1", "11", "11", "10", "9", "10"], "time": [543, 1438, 1650, 2513, 2650, 3336, 3402, 4184, 4299, 5016, 5798, 5871, 7044, 8226, 9509, 10325, 11190, 11342, 12275, 13009, 13049]}, "edge": {"target": [], "time": []}}}, "displayed_time": "15.87", "trialTime": 16624, "trial_type": "mouselab-mdp", "trial_index": 60, "time_elapsed": 1087297, "internal_node_id": "0.0-4.0-3.0-20.0"}}, {"uniqueid": "w16293194:a73708157", "current_trial": 61, "dateTime": 1664555961978, "trialdata": {"revealed_states": [], "num_clicks_accrued": [0, 0, 0, 0, 0, 0, 0, 0, 0, 0, 0, 0, 0], "stateRewards": ["", -4, 8, -24, 48, 2, -8, 24, 48, 2, -8, -24, -48], "withholdReward": true, "trial_id": "mdp_493778446445", "block": "test2", "trialIndex": 53, "score": 44.5, "costs": -2.5, "simulationMode": [null, null, null], "rewards": [2, -8, 48], "path": ["0", "0", "5", "6", "8"], "rt": [11538, 377, 527], "actions": ["right", "right", "down"], "actionTimes": [13294, 14188, 15234], "queries": {"click": {"state": {"target": ["3", "4", "2", "1", "11", "12", "7", "8", "6", "5"], "time": [2742, 3529, 4923, 5731, 7282, 8004, 8948, 9902, 10973, 11699]}, "edge": {"target": [], "time": []}}, "mouseover": {"state": {"target": ["3", "2", "4", "11", "2", "1", "11", "10", "12", "7", "6", "8", "6", "5"], "time": [2230, 3035, 3099, 4166, 4480, 5394, 6927, 7534, 7597, 8379, 9228, 9544, 10512, 11326]}, "edge": {"target": [], "time": []}}, "mouseout": {"state": {"target": ["9", "0", "3", "2", "4", "11", "4", "2", "1", "11", "10", "12", "7", "6", "8", "6", "5"], "time": [947, 1046, 3019, 3081, 3782, 4250, 4317, 5362, 6030, 7515, 7563, 8223, 9193, 9278, 10310, 11260, 12110]}, "edge": {"target": [], "time": []}}}, "displayed_time": "15.74", "trialTime": 16659, "trial_type": "mouselab-mdp", "trial_index": 61, "time_elapsed": 1104069, "internal_node_id": "0.0-4.0-3.0-21.0"}}, {"uniqueid": "w16293194:a73708157", "current_trial": 62, "dateTime": 1664555974124, "trialdata": {"revealed_states": [], "num_clicks_accrued": [0, 0, 0, 0, 0, 0, 0, 0, 0, 0, 0, 0, 0], "stateRewards": ["", -2, -4, -24, -24, 4, 8, 24, 24, -2, 8, 48, 48], "withholdReward": true, "trial_id": "mdp_620787912291", "block": "test2", "trialIndex": 54, "score": 58.5, "costs": -0.5, "simulationMode": [null, null, null], "rewards": [-2, 8, 48], "path": ["0", "0", "9", "10", "12"], "rt": [3743, 74, 46], "actions": ["left", "left", "down"], "actionTimes": [5036, 5640, 6195], "queries": {"click": {"state": {"target": ["12", "10"], "time": [2229, 3763]}, "edge": {"target": [], "time": []}}, "mouseover": {"state": {"target": ["0", "12", "10", "10", "9"], "time": [1637, 1815, 2483, 2965, 4065]}, "edge": {"target": [], "time": []}}, "mouseout": {"state": {"target": ["0", "0", "12", "10", "10"], "time": [764, 1699, 2434, 2636, 4008]}, "edge": {"target": [], "time": []}}}, "displayed_time": "10.37", "trialTime": 11995, "trial_type": "mouselab-mdp", "trial_index": 62, "time_elapsed": 1116214, "internal_node_id": "0.0-4.0-3.0-22.0"}}, {"uniqueid": "w16293194:a73708157", "current_trial": 63, "dateTime": 1664555986907, "trialdata": {"revealed_states": [], "num_clicks_accrued": [0, 0, 0, 0, 0, 0, 0, 0, 0, 0, 0, 0, 0], "stateRewards": ["", 4, 4, 48, -48, -2, 4, 48, -48, -4, 4, -24, -24], "withholdReward": true, "trial_id": "mdp_753324812898", "block": "test2", "trialIndex": 55, "score": 59.5, "costs": -1.5, "simulationMode": [null, null, null], "rewards": [4, 4, 48], "path": ["0", "0", "1", "2", "3"], "rt": [7653, 121, 107], "actions": ["up", "up", "right"], "actionTimes": [9197, 9847, 10467], "queries": {"click": {"state": {"target": ["11", "12", "4", "3", "2", "1"], "time": [2703, 3665, 4814, 5800, 7132, 8158]}, "edge": {"target": [], "time": []}}, "mouseover": {"state": {"target": ["9", "11", "10", "12", "9", "4", "2", "3", "2", "1"], "time": [1947, 2294, 3062, 3216, 3995, 4362, 5161, 5397, 6709, 7593]}, "edge": {"target": [], "time": []}}, "mouseout": {"state": {"target": ["9", "0", "9", "11", "10", "12", "9", "4", "2", "3", "2", "1"], "time": [928, 1896, 1995, 3020, 3164, 3946, 4063, 5097, 5299, 6096, 7426, 8453]}, "edge": {"target": [], "time": []}}}, "displayed_time": "10.97", "trialTime": 12651, "trial_type": "mouselab-mdp", "trial_index": 63, "time_elapsed": 1128999, "internal_node_id": "0.0-4.0-3.0-23.0"}}, {"uniqueid": "w16293194:a73708157", "current_trial": 64, "dateTime": 1664555998309, "trialdata": {"revealed_states": [], "num_clicks_accrued": [0, 0, 0, 0, 0, 0, 0, 0, 0, 0, 0, 0, 0], "stateRewards": ["", -2, 8, 48, -24, 2, 4, -48, -24, -4, 8, -48, -48], "withholdReward": true, "trial_id": "mdp_539167561933", "block": "test2", "trialIndex": 56, "score": 58.25, "costs": -0.75, "simulationMode": [null, null, null], "rewards": [-2, 8, 48], "path": ["0", "0", "1", "2", "3"], "rt": [3709, 95, 24], "actions": ["up", "up", "right"], "actionTimes": [4984, 5613, 6192], "queries": {"click": {"state": {"target": ["3", "2", "1"], "time": [2240, 3207, 3998]}, "edge": {"target": [], "time": []}}, "mouseover": {"state": {"target": ["1", "3", "2", "1"], "time": [1667, 1821, 2561, 3596]}, "edge": {"target": [], "time": []}}, "mouseout": {"state": {"target": ["1", "3", "2", "1"], "time": [1722, 2559, 3526, 4298]}, "edge": {"target": [], "time": []}}}, "displayed_time": "10.40", "trialTime": 11312, "trial_type": "mouselab-mdp", "trial_index": 64, "time_elapsed": 1140401, "internal_node_id": "0.0-4.0-3.0-24.0"}}, {"uniqueid": "w16293194:a73708157", "current_trial": 65, "dateTime": 1664556019404, "trialdata": {"revealed_states": [], "num_clicks_accrued": [0, 0, 0, 0, 0, 0, 0, 0, 0, 0, 0, 0, 0], "stateRewards": ["", -2, 8, 24, -48, -2, -4, 24, 48, 2, 8, -48, -48], "withholdReward": true, "trial_id": "mdp_562228697607", "block": "test2", "trialIndex": 57, "score": 44.5, "costs": -2.5, "simulationMode": [null, null, null], "rewards": [-2, -4, 48], "path": ["0", "0", "5", "6", "8"], "rt": [17118, 59, 22], "actions": ["right", "right", "down"], "actionTimes": [18370, 18973, 19532], "queries": {"click": {"state": {"target": ["11", "12", "4", "3", "7", "8", "6", "5", "2", "1"], "time": [2148, 3025, 4425, 5638, 7442, 8383, 9569, 10420, 13561, 14455]}, "edge": {"target": [], "time": []}}, "mouseover": {"state": {"target": ["11", "10", "12", "4", "2", "3", "7", "6", "8", "6", "5", "1", "2", "1", "0"], "time": [1702, 2442, 2563, 3693, 4789, 5171, 6981, 7745, 7881, 8931, 10051, 12693, 13045, 13932, 14946]}, "edge": {"target": [], "time": []}}, "mouseout": {"state": {"target": ["11", "10", "12", "4", "2", "3", "7", "6", "8", "6", "5", "1", "2", "1", "0"], "time": [2414, 2487, 3306, 4746, 4813, 6725, 7719, 7789, 8797, 9983, 10736, 12727, 13875, 14861, 14968]}, "edge": {"target": [], "time": []}}}, "displayed_time": "20.06", "trialTime": 20906, "trial_type": "mouselab-mdp", "trial_index": 65, "time_elapsed": 1161496, "internal_node_id": "0.0-4.0-3.0-25.0"}}, {"uniqueid": "w16293194:a73708157", "current_trial": 66, "dateTime": 1664556031197, "trialdata": {"revealed_states": [], "num_clicks_accrued": [0, 0, 0, 0, 0, 0, 0, 0, 0, 0, 0, 0, 0], "stateRewards": ["", -4, -4, -24, -24, -2, 4, 48, -24, -2, -4, -24, 48], "withholdReward": true, "trial_id": "mdp_855903341564", "block": "test2", "trialIndex": 58, "score": 53.25, "costs": -1.75, "simulationMode": [null, null, null], "rewards": [-2, 4, 48], "path": ["0", "0", "5", "6", "7"], "rt": [7088, 63, 179], "actions": ["right", "right", "up"], "actionTimes": [8757, 9342, 10057], "queries": {"click": {"state": {"target": ["11", "4", "3", "7", "8", "6", "5"], "time": [2595, 3969, 4798, 5553, 6492, 7280, 8019]}, "edge": {"target": [], "time": []}}, "mouseover": {"state": {"target": ["11", "4", "4", "2", "3", "7", "6", "8", "6", "5"], "time": [2135, 2942, 3580, 4250, 4452, 5124, 5828, 6032, 6752, 7638]}, "edge": {"target": [], "time": []}}, "mouseout": {"state": {"target": ["0", "11", "4", "4", "2", "3", "7", "6", "8", "6", "5"], "time": [1236, 2842, 3021, 4221, 4334, 5072, 5803, 5922, 6701, 7552, 8250]}, "edge": {"target": [], "time": []}}}, "displayed_time": "10.58", "trialTime": 11607, "trial_type": "mouselab-mdp", "trial_index": 66, "time_elapsed": 1173288, "internal_node_id": "0.0-4.0-3.0-26.0"}}, {"uniqueid": "w16293194:a73708157", "current_trial": 67, "dateTime": 1664556048126, "trialdata": {"revealed_states": [], "num_clicks_accrued": [0, 0, 0, 0, 0, 0, 0, 0, 0, 0, 0, 0, 0], "stateRewards": ["", -2, -8, -48, 24, 2, -4, -48, 48, 2, 4, 24, -24], "withholdReward": true, "trial_id": "mdp_849341543762", "block": "test2", "trialIndex": 59, "score": 49, "costs": -2, "simulationMode": [null, null, null], "rewards": [2, -4, 48], "path": ["0", "0", "5", "6", "8"], "rt": [10048, 137, 72], "actions": ["right", "right", "down"], "actionTimes": [14051, 14701, 15283], "queries": {"click": {"state": {"target": ["3", "4", "11", "12", "7", "8", "6", "5"], "time": [5281, 6354, 7496, 8459, 9859, 10868, 11875, 12876]}, "edge": {"target": [], "time": []}}, "mouseover": {"state": {"target": ["3", "2", "4", "11", "10", "12", "0", "5", "7", "6", "8", "6", "5"], "time": [4835, 5651, 5949, 7033, 7835, 8055, 8789, 8920, 9170, 10134, 10455, 11363, 12445]}, "edge": {"target": [], "time": []}}, "mouseout": {"state": {"target": ["0", "3", "2", "4", "11", "10", "12", "0", "5", "7", "6", "8", "6", "5"], "time": [1348, 5583, 5848, 6767, 7806, 7890, 8704, 8838, 9123, 10093, 10218, 11221, 12332, 13139]}, "edge": {"target": [], "time": []}}}, "displayed_time": "15.80", "trialTime": 16710, "trial_type": "mouselab-mdp", "trial_index": 67, "time_elapsed": 1190216, "internal_node_id": "0.0-4.0-3.0-27.0"}}, {"uniqueid": "w16293194:a73708157", "current_trial": 68, "dateTime": 1664556058119, "trialdata": {"revealed_states": [], "num_clicks_accrued": [0, 0, 0, 0, 0, 0, 0, 0, 0, 0, 0, 0, 0], "stateRewards": ["", 4, -8, 24, 48, 2, 4, 48, 48, 2, 8, -48, -48], "withholdReward": true, "trial_id": "mdp_783704746330", "block": "test2", "trialIndex": 60, "score": 48, "costs": -1, "simulationMode": [null, null, null], "rewards": [4, -8, 48], "path": ["0", "0", "1", "2", "4"], "rt": [5200, 228, 21], "actions": ["up", "up", "left"], "actionTimes": [6480, 7226, 7785], "queries": {"click": {"state": {"target": ["3", "4", "2", "1"], "time": [2173, 3063, 4373, 5203]}, "edge": {"target": [], "time": []}}, "mouseover": {"state": {"target": ["3", "2", "4", "2", "1"], "time": [1751, 2535, 2696, 4025, 4864]}, "edge": {"target": [], "time": []}}, "mouseout": {"state": {"target": ["0", "3", "2", "4", "2", "1"], "time": [1483, 2498, 2584, 3357, 4751, 5574]}, "edge": {"target": [], "time": []}}}, "displayed_time": "9.33", "trialTime": 9794, "trial_type": "mouselab-mdp", "trial_index": 68, "time_elapsed": 1200210, "internal_node_id": "0.0-4.0-3.0-28.0"}}, {"uniqueid": "w16293194:a73708157", "current_trial": 69, "dateTime": 1664556069263, "trialdata": {"revealed_states": [], "num_clicks_accrued": [0, 0, 0, 0, 0, 0, 0, 0, 0, 0, 0, 0, 0], "stateRewards": ["", 2, 4, -48, -48, 2, 4, 48, -24, -2, 8, 48, -48], "withholdReward": true, "trial_id": "mdp_258528916140", "block": "test2", "trialIndex": 61, "score": 58.25, "costs": -0.75, "simulationMode": [null, null, null], "rewards": [2, 4, 48], "path": ["0", "0", "5", "6", "7"], "rt": [3565, 108, 35], "actions": ["right", "right", "up"], "actionTimes": [4916, 5530, 6090], "queries": {"click": {"state": {"target": ["7", "6", "5"], "time": [2120, 3421, 4151]}, "edge": {"target": [], "time": []}}, "mouseover": {"state": {"target": ["5", "7", "6", "8", "6", "5"], "time": [1542, 1759, 2415, 2485, 3000, 3765]}, "edge": {"target": [], "time": []}}, "mouseout": {"state": {"target": ["0", "5", "7", "6", "8", "6", "5"], "time": [791, 1607, 2380, 2443, 2882, 3713, 4449]}, "edge": {"target": [], "time": []}}}, "displayed_time": "10.52", "trialTime": 10950, "trial_type": "mouselab-mdp", "trial_index": 69, "time_elapsed": 1211355, "internal_node_id": "0.0-4.0-3.0-29.0"}}, {"uniqueid": "w16293194:a73708157", "current_trial": 70, "dateTime": 1664556077912, "trialdata": {"rt": 8640, "stimulus": "<h1> End of block! </h1>\n\nYou have reached the end of the block 2/4. If you need a short break, feel free to take one now before moving on.\n\n<br><br>\nIn the next block, you will complete another 30 rounds of this game.\n\n<br><br>\n<div style='text-align: center;'>Press <code>space</code> to begin.</div>\n<br><br>\n<div style='text-align: center;'>(If the experiment doesn't continue, try clicking on the text and then pressing <code>space</code>.)</div>", "response": " ", "trial_id": "mdp_ready_3", "trial_type": "html-keyboard-response", "trial_index": 70, "time_elapsed": 1220004, "internal_node_id": "0.0-4.0-4.0"}}, {"uniqueid": "w16293194:a73708157", "current_trial": 71, "dateTime": 1664556095906, "trialdata": {"revealed_states": [], "num_clicks_accrued": [0, 0, 0, 0, 0, 0, 0, 0, 0, 0, 0, 0, 0], "stateRewards": ["", -2, -8, -48, 24, 2, -4, -48, 48, 2, 4, 24, -24], "withholdReward": true, "trial_id": "mdp_849341543762", "block": "test3", "trialIndex": 62, "score": 49.5, "costs": -1.5, "simulationMode": [null, null, null], "rewards": [2, -4, 48], "path": ["0", "0", "5", "6", "8"], "rt": [7220, 512, 359], "actions": ["right", "right", "down"], "actionTimes": [14501, 15555, 16435], "queries": {"click": {"state": {"target": ["11", "12", "7", "8", "6", "5"], "time": [8556, 9700, 10808, 11661, 12765, 13558]}, "edge": {"target": [], "time": []}}, "mouseover": {"state": {"target": ["9", "11", "10", "12", "0", "7", "6", "8", "6", "5"], "time": [7743, 8108, 8881, 9297, 10088, 10511, 11063, 11106, 12224, 13229]}, "edge": {"target": [], "time": []}}, "mouseout": {"state": {"target": ["9", "11", "10", "12", "0", "7", "6", "8", "6", "5"], "time": [7825, 8840, 8962, 10025, 10109, 11034, 11103, 12161, 13192, 13939]}, "edge": {"target": [], "time": []}}}, "displayed_time": "16.95", "trialTime": 17821, "trial_type": "mouselab-mdp", "trial_index": 71, "time_elapsed": 1237997, "internal_node_id": "0.0-4.0-5.0-0.0"}}, {"uniqueid": "w16293194:a73708157", "current_trial": 72, "dateTime": 1664556108927, "trialdata": {"revealed_states": [], "num_clicks_accrued": [0, 0, 0, 0, 0, 0, 0, 0, 0, 0, 0, 0, 0], "stateRewards": ["", -2, -8, 48, -24, 2, -4, -48, -24, -2, -4, -48, 48], "withholdReward": false, "trial_id": "mdp_143798438087", "block": "test3", "trialIndex": 63, "score": 41.5, "costs": -1.5, "simulationMode": [null, null, null], "rewards": [-2, -8, 48], "path": ["0", "0", "1", "2", "3"], "rt": [8086, 98, 345], "actions": ["up", "up", "right"], "actionTimes": [9730, 10342, 11209], "queries": {"click": {"state": {"target": ["11", "12", "9", "10", "4", "3"], "time": [2592, 3449, 5161, 5949, 7508, 8438]}, "edge": {"target": [], "time": []}}, "mouseover": {"state": {"target": ["11", "10", "12", "0", "5", "0", "9", "10", "4", "2", "3"], "time": [2263, 2934, 2989, 3813, 4013, 4197, 4513, 5645, 7114, 7812, 8088]}, "edge": {"target": [], "time": []}}, "mouseout": {"state": {"target": ["0", "11", "10", "12", "0", "5", "0", "9", "10", "9", "4", "2", "3"], "time": [1945, 2908, 2981, 3764, 3963, 4031, 4260, 5595, 6312, 6582, 7774, 8064, 8929]}, "edge": {"target": [], "time": []}}}, "displayed_time": "11.72", "trialTime": 12819, "trial_type": "mouselab-mdp", "trial_index": 72, "time_elapsed": 1251018, "internal_node_id": "0.0-4.0-5.0-1.0"}}, {"uniqueid": "w16293194:a73708157", "current_trial": 73, "dateTime": 1664556122962, "trialdata": {"revealed_states": [], "num_clicks_accrued": [0, 0, 0, 0, 0, 0, 0, 0, 0, 0, 0, 0, 0], "stateRewards": ["", -2, 8, -48, 48, -4, 8, -24, 24, 4, -4, 24, -48], "withholdReward": true, "trial_id": "mdp_904238083902", "block": "test3", "trialIndex": 64, "score": 58.25, "costs": -0.75, "simulationMode": [null, null, null], "rewards": [-2, 8, 48], "path": ["0", "0", "1", "2", "4"], "rt": [9494, 135, 185], "actions": ["up", "up", "left"], "actionTimes": [10730, 11403, 12101], "queries": {"click": {"state": {"target": ["4", "1", "2"], "time": [4784, 8165, 9312]}, "edge": {"target": [], "time": []}}, "mouseover": {"state": {"target": ["11", "4", "2", "2", "1", "1", "2"], "time": [3922, 4368, 5895, 6857, 7386, 7734, 8934]}, "edge": {"target": [], "time": []}}, "mouseout": {"state": {"target": ["1", "11", "4", "2", "2", "1", "1", "2", "4"], "time": [472, 3956, 5202, 6119, 7322, 7553, 8687, 9768, 9850]}, "edge": {"target": [], "time": []}}}, "displayed_time": "12.61", "trialTime": 13835, "trial_type": "mouselab-mdp", "trial_index": 73, "time_elapsed": 1265054, "internal_node_id": "0.0-4.0-5.0-2.0"}}, {"uniqueid": "w16293194:a73708157", "current_trial": 74, "dateTime": 1664556138135, "trialdata": {"revealed_states": [], "num_clicks_accrued": [0, 0, 0, 0, 0, 0, 0, 0, 0, 0, 0, 0, 0], "stateRewards": ["", 2, -8, -24, -48, -2, -4, 48, 48, 4, 8, 48, 48], "withholdReward": true, "trial_id": "mdp_347285045422", "block": "test3", "trialIndex": 65, "score": 63.25, "costs": -1.75, "simulationMode": [null, null, null], "rewards": [4, 8, 48], "path": ["0", "0", "9", "10", "11"], "rt": [9803, 136, 458], "actions": ["left", "left", "up"], "actionTimes": [11567, 12246, 13217], "queries": {"click": {"state": {"target": ["7", "6", "5", "3", "4", "11", "10"], "time": [2726, 4010, 4875, 6435, 7890, 8908, 10136]}, "edge": {"target": [], "time": []}}, "mouseover": {"state": {"target": ["7", "6", "5", "0", "1", "2", "3", "2", "4", "4", "11", "10", "10", "9"], "time": [2355, 3620, 4513, 5387, 5466, 5666, 6068, 6774, 6992, 7505, 8539, 9173, 9672, 10574]}, "edge": {"target": [], "time": []}}, "mouseout": {"state": {"target": ["1", "0", "0", "7", "7", "6", "5", "0", "1", "2", "3", "2", "4", "4", "11", "10", "10", "9"], "time": [662, 760, 1935, 3087, 3386, 4396, 5218, 5435, 5505, 5833, 6742, 6810, 7040, 8174, 9156, 9405, 10506, 10810]}, "edge": {"target": [], "time": []}}}, "displayed_time": "13.75", "trialTime": 14972, "trial_type": "mouselab-mdp", "trial_index": 74, "time_elapsed": 1280226, "internal_node_id": "0.0-4.0-5.0-3.0"}}, {"uniqueid": "w16293194:a73708157", "current_trial": 75, "dateTime": 1664556148339, "trialdata": {"revealed_states": [], "num_clicks_accrued": [0, 0, 0, 0, 0, 0, 0, 0, 0, 0, 0, 0, 0], "stateRewards": ["", -2, -4, -24, 48, -4, 8, 48, 48, 2, 8, -48, -24], "withholdReward": true, "trial_id": "mdp_136376573354", "block": "test3", "trialIndex": 66, "score": 55.75, "costs": -1.25, "simulationMode": [null, null, null], "rewards": [-4, 8, 48], "path": ["0", "0", "5", "6", "7"], "rt": [5258, 86, 113], "actions": ["right", "right", "up"], "actionTimes": [6785, 7409, 8036], "queries": {"click": {"state": {"target": ["11", "12", "7", "6", "5"], "time": [2541, 3375, 4283, 5224, 5994]}, "edge": {"target": [], "time": []}}, "mouseover": {"state": {"target": ["11", "10", "12", "0", "7", "6", "5"], "time": [2110, 2841, 2912, 3734, 3951, 4574, 5567]}, "edge": {"target": [], "time": []}}, "mouseout": {"state": {"target": ["0", "11", "10", "12", "0", "7", "6"], "time": [1793, 2821, 2883, 3634, 3782, 4548, 5517]}, "edge": {"target": [], "time": []}}}, "displayed_time": "9.65", "trialTime": 9999, "trial_type": "mouselab-mdp", "trial_index": 75, "time_elapsed": 1290431, "internal_node_id": "0.0-4.0-5.0-4.0"}}, {"uniqueid": "w16293194:a73708157", "current_trial": 76, "dateTime": 1664556163978, "trialdata": {"revealed_states": [], "num_clicks_accrued": [0, 0, 0, 0, 0, 0, 0, 0, 0, 0, 0, 0, 0], "stateRewards": ["", 4, -8, -24, 24, 2, -4, 24, 24, 2, -4, 48, 48], "withholdReward": false, "trial_id": "mdp_457607480918", "block": "test3", "trialIndex": 67, "score": 49.25, "costs": -1.75, "simulationMode": [null, null, null], "rewards": [2, -4, 48], "path": ["0", "0", "9", "10", "12"], "rt": [10157, 336, 22], "actions": ["left", "left", "down"], "actionTimes": [12682, 13558, 14109], "queries": {"click": {"state": {"target": ["12", "10", "9", "8", "7", "3", "4"], "time": [3618, 4767, 5525, 7056, 8029, 9612, 10615]}, "edge": {"target": [], "time": []}}, "mouseover": {"state": {"target": ["9", "10", "12", "10", "9", "0", "5", "8", "6", "7", "3", "2", "4", "11"], "time": [2845, 2955, 3276, 4142, 5125, 6145, 6329, 6641, 7310, 7630, 9280, 9993, 10262, 11044]}, "edge": {"target": [], "time": []}}, "mouseout": {"state": {"target": ["5", "0", "0", "9", "10", "12", "10", "9", "0", "5", "8", "6", "7", "3", "2", "4"], "time": [873, 1156, 2742, 2908, 3037, 3960, 5086, 5993, 6293, 6402, 7281, 7383, 8407, 9950, 10058, 10930]}, "edge": {"target": [], "time": []}}}, "displayed_time": "14.64", "trialTime": 15440, "trial_type": "mouselab-mdp", "trial_index": 76, "time_elapsed": 1306070, "internal_node_id": "0.0-4.0-5.0-5.0"}}, {"uniqueid": "w16293194:a73708157", "current_trial": 77, "dateTime": 1664556174537, "trialdata": {"revealed_states": [], "num_clicks_accrued": [0, 0, 0, 0, 0, 0, 0, 0, 0, 0, 0, 0, 0], "stateRewards": ["", 4, 4, 48, -48, -2, 4, 48, -48, -4, 4, -24, -24], "withholdReward": true, "trial_id": "mdp_753324812898", "block": "test3", "trialIndex": 68, "score": 54.25, "costs": -0.75, "simulationMode": [null, null, null], "rewards": [-2, 4, 48], "path": ["0", "0", "5", "6", "7"], "rt": [3933, 118, 74], "actions": ["right", "right", "up"], "actionTimes": [5416, 6056, 6655], "queries": {"click": {"state": {"target": ["7", "6", "5"], "time": [2567, 3788, 4541]}, "edge": {"target": [], "time": []}}, "mouseover": {"state": {"target": ["7", "6", "6", "5"], "time": [2244, 2912, 3323, 4154]}, "edge": {"target": [], "time": []}}, "mouseout": {"state": {"target": ["11", "7", "6", "6", "5"], "time": [570, 2870, 3023, 4104, 4818]}, "edge": {"target": [], "time": []}}}, "displayed_time": "9.63", "trialTime": 10325, "trial_type": "mouselab-mdp", "trial_index": 77, "time_elapsed": 1316626, "internal_node_id": "0.0-4.0-5.0-6.0"}}, {"uniqueid": "w16293194:a73708157", "current_trial": 78, "dateTime": 1664556190689, "trialdata": {"revealed_states": [], "num_clicks_accrued": [0, 0, 0, 0, 0, 0, 0, 0, 0, 0, 0, 0, 0], "stateRewards": ["", -2, 8, 24, -48, -4, -8, -24, -48, -4, 8, -24, 48], "withholdReward": true, "trial_id": "mdp_464339499860", "block": "test3", "trialIndex": 69, "score": 55.25, "costs": -1.75, "simulationMode": [null, null, null], "rewards": [-4, 8, 48], "path": ["0", "0", "9", "10", "12"], "rt": [11645, 204, 149], "actions": ["left", "left", "down"], "actionTimes": [12946, 13658, 14348], "queries": {"click": {"state": {"target": ["3", "4", "11", "12", "10", "8", "7"], "time": [3084, 4283, 6232, 7230, 8526, 10707, 11727]}, "edge": {"target": [], "time": []}}, "mouseover": {"state": {"target": ["3", "2", "4", "4", "11", "11", "10", "12", "9", "10", "9", "7", "6", "8", "8", "7", "6", "5"], "time": [2676, 3437, 3502, 3834, 5028, 5826, 6612, 6734, 7892, 8132, 8887, 9243, 9492, 9708, 10297, 11341, 12049, 12182]}, "edge": {"target": [], "time": []}}, "mouseout": {"state": {"target": ["0", "0", "3", "2", "4", "4", "11", "11", "10", "12", "9", "10", "9", "7", "6", "8", "8", "7", "6", "5"], "time": [559, 826, 3400, 3489, 3543, 4729, 5351, 6578, 6681, 7528, 7920, 8860, 8915, 9445, 9655, 9826, 11010, 11994, 12092, 12210]}, "edge": {"target": [], "time": []}}}, "displayed_time": "14.87", "trialTime": 15948, "trial_type": "mouselab-mdp", "trial_index": 78, "time_elapsed": 1332780, "internal_node_id": "0.0-4.0-5.0-7.0"}}, {"uniqueid": "w16293194:a73708157", "current_trial": 79, "dateTime": 1664556201063, "trialdata": {"revealed_states": [], "num_clicks_accrued": [0, 0, 0, 0, 0, 0, 0, 0, 0, 0, 0, 0, 0], "stateRewards": ["", 2, 8, 48, -24, -4, 4, 48, 24, -2, 8, 24, 24], "withholdReward": false, "trial_id": "mdp_123436106791", "block": "test3", "trialIndex": 70, "score": 62.5, "costs": -0.5, "simulationMode": [null, null, null], "rewards": [2, 8, 48], "path": ["0", "0", "1", "2", "3"], "rt": [4188, 185, 33], "actions": ["up", "up", "right"], "actionTimes": [5469, 6179, 6734], "queries": {"click": {"state": {"target": ["3", "2"], "time": [2114, 3206]}, "edge": {"target": [], "time": []}}, "mouseover": {"state": {"target": ["1", "3", "2", "4", "2", "1", "1"], "time": [1537, 1839, 2460, 2604, 2915, 3847, 4145]}, "edge": {"target": [], "time": []}}, "mouseout": {"state": {"target": ["0", "1", "3", "2", "4", "2", "1"], "time": [784, 1559, 2410, 2563, 2865, 3749, 3865]}, "edge": {"target": [], "time": []}}}, "displayed_time": "9.38", "trialTime": 10154, "trial_type": "mouselab-mdp", "trial_index": 79, "time_elapsed": 1343155, "internal_node_id": "0.0-4.0-5.0-8.0"}}, {"uniqueid": "w16293194:a73708157", "current_trial": 80, "dateTime": 1664556213329, "trialdata": {"revealed_states": [], "num_clicks_accrued": [0, 0, 0, 0, 0, 0, 0, 0, 0, 0, 0, 0, 0], "stateRewards": ["", -4, -8, 48, 24, 4, -8, 24, -48, -2, -8, 24, -48], "withholdReward": true, "trial_id": "mdp_952038635544", "block": "test3", "trialIndex": 71, "score": 39.25, "costs": -1.75, "simulationMode": [null, null, null], "rewards": [-4, -8, 48], "path": ["0", "0", "1", "2", "3"], "rt": [8167, 253, 96], "actions": ["up", "up", "right"], "actionTimes": [9383, 10161, 10769], "queries": {"click": {"state": {"target": ["4", "11", "12", "7", "8", "3", "2"], "time": [2049, 2981, 3810, 4854, 5804, 6807, 7685]}, "edge": {"target": [], "time": []}}, "mouseover": {"state": {"target": ["4", "11", "10", "12", "5", "6", "7", "6", "8", "3", "2", "1"], "time": [1617, 2643, 3311, 3378, 4229, 4322, 4507, 5159, 5435, 6490, 7317, 8002]}, "edge": {"target": [], "time": []}}, "mouseout": {"state": {"target": ["1", "4", "11", "10", "12", "5", "6", "7", "6", "8", "3", "2"], "time": [542, 2444, 3270, 3353, 4127, 4257, 4356, 5117, 5272, 6190, 7217, 7962]}, "edge": {"target": [], "time": []}}}, "displayed_time": "11.31", "trialTime": 12066, "trial_type": "mouselab-mdp", "trial_index": 80, "time_elapsed": 1355421, "internal_node_id": "0.0-4.0-5.0-9.0"}}, {"uniqueid": "w16293194:a73708157", "current_trial": 81, "dateTime": 1664556223331, "trialdata": {"revealed_states": [], "num_clicks_accrued": [0, 0, 0, 0, 0, 0, 0, 0, 0, 0, 0, 0, 0], "stateRewards": ["", 2, 8, -48, -24, 4, 4, 24, 48, 4, -4, -48, 48], "withholdReward": true, "trial_id": "mdp_665096999232", "block": "test3", "trialIndex": 72, "score": 52.5, "costs": -0.5, "simulationMode": [null, null, null], "rewards": [4, -4, 48], "path": ["0", "0", "9", "10", "12"], "rt": [5214, 224, 122], "actions": ["left", "left", "down"], "actionTimes": [6402, 7158, 7803], "queries": {"click": {"state": {"target": ["12", "9"], "time": [2309, 5333]}, "edge": {"target": [], "time": []}}, "mouseover": {"state": {"target": ["9", "10", "12", "10", "10", "9", "5", "0", "10", "9"], "time": [1552, 1632, 1745, 2723, 3281, 3468, 4072, 4144, 4504, 4903]}, "edge": {"target": [], "time": []}}, "mouseout": {"state": {"target": ["1", "9", "10", "12", "10", "10", "9", "5", "0"