{"condition": 1, "counterbalance": 0, "assignmentId": "a52229269", "workerId": "w98791412", "hitId": "h37095599", "currenttrial": 149, "bonus": 0, "data": [{"uniqueid": "w98791412:a52229269", "current_trial": 0, "dateTime": 1664555153178, "trialdata": {"success": true, "trial_type": "fullscreen", "trial_index": 0, "time_elapsed": 3095, "internal_node_id": "0.0-0.0"}}, {"uniqueid": "w98791412:a52229269", "current_trial": 1, "dateTime": 1664555181346, "trialdata": {"view_history": [{"page_index": 0, "viewing_time": 28163}], "rt": 28164, "trial_id": "exp_instructions_no_distractor", "trial_type": "instructions", "trial_index": 1, "time_elapsed": 31263, "internal_node_id": "0.0-1.0"}}, {"uniqueid": "w98791412:a52229269", "current_trial": 2, "dateTime": 1664555185257, "trialdata": {"success": true, "trial_type": "fullscreen", "trial_index": 2, "time_elapsed": 35174, "internal_node_id": "0.0-2.0-0.0"}}, {"uniqueid": "w98791412:a52229269", "current_trial": 3, "dateTime": 1664555352753, "trialdata": {"view_history": [{"page_index": 0, "viewing_time": 41022}, {"page_index": 1, "viewing_time": 55288}, {"page_index": 2, "viewing_time": 32776}, {"page_index": 3, "viewing_time": 10936}, {"page_index": 4, "viewing_time": 27472}], "rt": 167493, "trial_id": "mouselab_instructions_1", "trial_type": "instructions", "trial_index": 3, "time_elapsed": 202670, "internal_node_id": "0.0-2.0-1.0"}}, {"uniqueid": "w98791412:a52229269", "current_trial": 4, "dateTime": 1664555370221, "trialdata": {"revealed_states": [], "num_clicks_accrued": [0, 0, 0, 0, 0, 0, 0, 0, 0, 0, 0, 0, 0], "stateRewards": ["", 10, -10, -10, 10, 10, -10, 10, 10, -10, -10, -10, 10], "withholdReward": false, "trial_id": "practice_1", "block": "test", "trialIndex": 0, "score": 11.75, "costs": -0.25, "simulationMode": [null, null, null], "rewards": [10, -10, 10], "path": ["0", "0", "5", "6", "7"], "rt": [7341, 1640, 177], "actions": ["right", "right", "up"], "actionTimes": [10494, 12627, 13299], "queries": {"click": {"state": {"target": ["5"], "time": [8204]}, "edge": {"target": [], "time": []}}, "mouseover": {"state": {"target": ["0", "8", "5"], "time": [3396, 4380, 6882]}, "edge": {"target": [], "time": []}}, "mouseout": {"state": {"target": ["7", "0", "0", "0", "8", "5"], "time": [2378, 2511, 3045, 4347, 4397, 8483]}, "edge": {"target": [], "time": []}}}, "displayed_time": "13.79", "trialTime": 17181, "trial_type": "mouselab-mdp", "trial_index": 4, "time_elapsed": 220137, "internal_node_id": "0.0-2.0-2.0-0.0"}}, {"uniqueid": "w98791412:a52229269", "current_trial": 5, "dateTime": 1664555378946, "trialdata": {"revealed_states": [], "num_clicks_accrued": [0, 0, 0, 0, 0, 0, 0, 0, 0, 0, 0, 0, 0], "stateRewards": ["", 10, 10, -10, 10, -10, 10, 10, 10, -10, -10, -10, 10], "withholdReward": false, "trial_id": "practice_2", "block": "test", "trialIndex": 1, "score": -28.25, "costs": -0.25, "simulationMode": [null, null, null], "rewards": [-10, -10, -10], "path": ["0", "0", "9", "10", "11"], "rt": [1921, 460, 220], "actions": ["left", "left", "up"], "actionTimes": [3882, 4835, 5546], "queries": {"click": {"state": {"target": ["5"], "time": [2925]}, "edge": {"target": [], "time": []}}, "mouseover": {"state": {"target": ["8", "6", "5", "5", "8"], "time": [2222, 2389, 2540, 2806, 3140]}, "edge": {"target": [], "time": []}}, "mouseout": {"state": {"target": ["0", "8", "6", "5", "5", "8"], "time": [2155, 2256, 2406, 2706, 3123, 3173]}, "edge": {"target": [], "time": []}}}, "displayed_time": "6.04", "trialTime": 8685, "trial_type": "mouselab-mdp", "trial_index": 5, "time_elapsed": 228863, "internal_node_id": "0.0-2.0-2.0-1.0"}}, {"uniqueid": "w98791412:a52229269", "current_trial": 6, "dateTime": 1664555466584, "trialdata": {"view_history": [{"page_index": 0, "viewing_time": 51028}, {"page_index": 1, "viewing_time": 25664}, {"page_index": 2, "viewing_time": 10944}], "rt": 87636, "trial_id": "mouselab_instructions_2_scarce", "trial_type": "instructions", "trial_index": 6, "time_elapsed": 316501, "internal_node_id": "0.0-2.0-3.0"}}, {"uniqueid": "w98791412:a52229269", "current_trial": 7, "dateTime": 1664555530705, "trialdata": {"rt": 64117, "response": {"Q0": "$0 to $50", "Q1": "The cost is always $0.25.", "Q2": "The better I perform the higher my bonus will be.", "Q3": "No, the amount of cash at each node of the web may be different each time.", "Q4": "The values of the nodes walked through from start to finish.", "Q5": "No, the spider might forget to count the money on some rounds."}, "question_order": [0, 1, 2, 3, 4, 5], "correct": {"Q0": "$-48 to $48", "Q1": "The cost is always $0.25.", "Q2": "The better I perform the higher my bonus will be.", "Q3": "No, the amount of cash at each node of the web may be different each time.", "Q4": "The values of the nodes walked through from start to finish.", "Q5": "No, the spider might forget to count the money on some rounds."}, "trial_id": "mouselab_quiz_scarce", "trial_type": "survey-multi-choice", "trial_index": 7, "time_elapsed": 380622, "internal_node_id": "0.0-2.0-4.0"}}, {"uniqueid": "w98791412:a52229269", "current_trial": 8, "dateTime": 1664555543113, "trialdata": {"success": true, "trial_type": "fullscreen", "trial_index": 8, "time_elapsed": 393030, "internal_node_id": "0.0-2.1-0.1"}}, {"uniqueid": "w98791412:a52229269", "current_trial": 9, "dateTime": 1664555611416, "trialdata": {"view_history": [{"page_index": 0, "viewing_time": 25085}, {"page_index": 1, "viewing_time": 14137}, {"page_index": 2, "viewing_time": 10759}, {"page_index": 3, "viewing_time": 3792}, {"page_index": 4, "viewing_time": 14528}], "rt": 68301, "trial_id": "mouselab_instructions_1", "trial_type": "instructions", "trial_index": 9, "time_elapsed": 461333, "internal_node_id": "0.0-2.1-1.1"}}, {"uniqueid": "w98791412:a52229269", "current_trial": 10, "dateTime": 1664555620437, "trialdata": {"revealed_states": [], "num_clicks_accrued": [0, 0, 0, 0, 0, 0, 0, 0, 0, 0, 0, 0, 0], "stateRewards": ["", 10, -10, -10, 10, 10, -10, 10, 10, -10, -10, -10, 10], "withholdReward": false, "trial_id": "practice_1", "block": "test", "trialIndex": 2, "score": 11.75, "costs": -0.25, "simulationMode": [null, null, null], "rewards": [10, -10, 10], "path": ["0", "0", "5", "6", "7"], "rt": [3832, 367, 97], "actions": ["right", "right", "up"], "actionTimes": [5444, 6316, 6908], "queries": {"click": {"state": {"target": ["5"], "time": [4091]}, "edge": {"target": [], "time": []}}, "mouseover": {"state": {"target": ["0", "5", "5"], "time": [2090, 2257, 3775]}, "edge": {"target": [], "time": []}}, "mouseout": {"state": {"target": ["0", "5", "5"], "time": [2157, 2507, 4309]}, "edge": {"target": [], "time": []}}}, "displayed_time": "7.40", "trialTime": 8974, "trial_type": "mouselab-mdp", "trial_index": 10, "time_elapsed": 470354, "internal_node_id": "0.0-2.1-2.1-0.1"}}, {"uniqueid": "w98791412:a52229269", "current_trial": 11, "dateTime": 1664555626990, "trialdata": {"revealed_states": [], "num_clicks_accrued": [0, 0, 0, 0, 0, 0, 0, 0, 0, 0, 0, 0, 0], "stateRewards": ["", 10, 10, -10, 10, -10, 10, 10, 10, -10, -10, -10, 10], "withholdReward": false, "trial_id": "practice_2", "block": "test", "trialIndex": 3, "score": 11.75, "costs": -0.25, "simulationMode": [null, null, null], "rewards": [10, 10, -10], "path": ["0", "0", "1", "2", "3"], "rt": [1343, 84, 83], "actions": ["up", "up", "right"], "actionTimes": [3455, 4030, 4612], "queries": {"click": {"state": {"target": ["1"], "time": [2620]}, "edge": {"target": [], "time": []}}, "mouseover": {"state": {"target": ["1"], "time": [2428]}, "edge": {"target": [], "time": []}}, "mouseout": {"state": {"target": ["1", "0"], "time": [2844, 5814]}, "edge": {"target": [], "time": []}}}, "displayed_time": "5.11", "trialTime": 6505, "trial_type": "mouselab-mdp", "trial_index": 11, "time_elapsed": 476907, "internal_node_id": "0.0-2.1-2.1-1.1"}}, {"uniqueid": "w98791412:a52229269", "current_trial": 12, "dateTime": 1664555664340, "trialdata": {"view_history": [{"page_index": 0, "viewing_time": 30039}, {"page_index": 1, "viewing_time": 6264}, {"page_index": 2, "viewing_time": 1044}], "rt": 37348, "trial_id": "mouselab_instructions_2_scarce", "trial_type": "instructions", "trial_index": 12, "time_elapsed": 514256, "internal_node_id": "0.0-2.1-3.1"}}, {"uniqueid": "w98791412:a52229269", "current_trial": 13, "dateTime": 1664555707416, "trialdata": {"rt": 43074, "response": {"Q0": "$0 to $50", "Q1": "The cost is always $0.25.", "Q2": "The better I perform the higher my bonus will be.", "Q3": "No, the amount of cash at each node of the web may be different each time.", "Q4": "The score for a round is random.", "Q5": "No, the spider might forget to count the money on some rounds."}, "question_order": [0, 1, 2, 3, 4, 5], "correct": {"Q0": "$-48 to $48", "Q1": "The cost is always $0.25.", "Q2": "The better I perform the higher my bonus will be.", "Q3": "No, the amount of cash at each node of the web may be different each time.", "Q4": "The values of the nodes walked through from start to finish.", "Q5": "No, the spider might forget to count the money on some rounds."}, "trial_id": "mouselab_quiz_scarce", "trial_type": "survey-multi-choice", "trial_index": 13, "time_elapsed": 557333, "internal_node_id": "0.0-2.1-4.1"}}, {"uniqueid": "w98791412:a52229269", "current_trial": 14, "dateTime": 1664555728392, "trialdata": {"success": true, "trial_type": "fullscreen", "trial_index": 14, "time_elapsed": 578309, "internal_node_id": "0.0-2.2-0.2"}}, {"uniqueid": "w98791412:a52229269", "current_trial": 15, "dateTime": 1664555755743, "trialdata": {"view_history": [{"page_index": 0, "viewing_time": 2990}, {"page_index": 1, "viewing_time": 2360}, {"page_index": 2, "viewing_time": 1272}, {"page_index": 3, "viewing_time": 992}, {"page_index": 4, "viewing_time": 19736}], "rt": 27350, "trial_id": "mouselab_instructions_1", "trial_type": "instructions", "trial_index": 15, "time_elapsed": 605660, "internal_node_id": "0.0-2.2-1.2"}}, {"uniqueid": "w98791412:a52229269", "current_trial": 16, "dateTime": 1664555761952, "trialdata": {"revealed_states": [], "num_clicks_accrued": [0, 0, 0, 0, 0, 0, 0, 0, 0, 0, 0, 0, 0], "stateRewards": ["", 10, -10, -10, 10, 10, -10, 10, 10, -10, -10, -10, 10], "withholdReward": false, "trial_id": "practice_1", "block": "test", "trialIndex": 4, "score": 11.75, "costs": -0.25, "simulationMode": [null, null, null], "rewards": [10, -10, 10], "path": ["0", "0", "5", "6", "7"], "rt": [1658, 429, 100], "actions": ["right", "right", "up"], "actionTimes": [3043, 3985, 4575], "queries": {"click": {"state": {"target": ["5"], "time": [2499]}, "edge": {"target": [], "time": []}}, "mouseover": {"state": {"target": ["0", "5"], "time": [1554, 1804]}, "edge": {"target": [], "time": []}}, "mouseout": {"state": {"target": ["0", "0", "5"], "time": [1303, 1738, 2838]}, "edge": {"target": [], "time": []}}}, "displayed_time": "5.07", "trialTime": 6161, "trial_type": "mouselab-mdp", "trial_index": 16, "time_elapsed": 611868, "internal_node_id": "0.0-2.2-2.2-0.2"}}, {"uniqueid": "w98791412:a52229269", "current_trial": 17, "dateTime": 1664555767025, "trialdata": {"revealed_states": [], "num_clicks_accrued": [0, 0, 0, 0, 0, 0, 0, 0, 0, 0, 0, 0, 0], "stateRewards": ["", 10, 10, -10, 10, -10, 10, 10, 10, -10, -10, -10, 10], "withholdReward": false, "trial_id": "practice_2", "block": "test", "trialIndex": 5, "score": 31.5, "costs": -0.5, "simulationMode": [null, null, null], "rewards": [10, 10, 10], "path": ["0", "0", "1", "2", "4"], "rt": [1408, 48, 553], "actions": ["up", "up", "left"], "actionTimes": [1962, 2502, 3574], "queries": {"click": {"state": {"target": ["5", "1"], "time": [1004, 1652]}, "edge": {"target": [], "time": []}}, "mouseover": {"state": {"target": ["5", "1"], "time": [936, 1453]}, "edge": {"target": [], "time": []}}, "mouseout": {"state": {"target": ["0", "5", "1", "0"], "time": [909, 1236, 1887, 4606]}, "edge": {"target": [], "time": []}}}, "displayed_time": "4.07", "trialTime": 5028, "trial_type": "mouselab-mdp", "trial_index": 17, "time_elapsed": 616942, "internal_node_id": "0.0-2.2-2.2-1.2"}}, {"uniqueid": "w98791412:a52229269", "current_trial": 18, "dateTime": 1664555800063, "trialdata": {"view_history": [{"page_index": 0, "viewing_time": 22348}, {"page_index": 1, "viewing_time": 6920}, {"page_index": 2, "viewing_time": 3768}], "rt": 33036, "trial_id": "mouselab_instructions_2_scarce", "trial_type": "instructions", "trial_index": 18, "time_elapsed": 649980, "internal_node_id": "0.0-2.2-3.2"}}, {"uniqueid": "w98791412:a52229269", "current_trial": 19, "dateTime": 1664555838711, "trialdata": {"rt": 38646, "response": {"Q0": "$-48 to $48", "Q1": "The cost is always $0.25.", "Q2": "The better I perform the higher my bonus will be.", "Q3": "No, the amount of cash at each node of the web may be different each time.", "Q4": "The values of the nodes walked through from start to finish.", "Q5": "No, the spider might forget to count the money on some rounds."}, "question_order": [0, 1, 2, 3, 4, 5], "correct": {"Q0": "$-48 to $48", "Q1": "The cost is always $0.25.", "Q2": "The better I perform the higher my bonus will be.", "Q3": "No, the amount of cash at each node of the web may be different each time.", "Q4": "The values of the nodes walked through from start to finish.", "Q5": "No, the spider might forget to count the money on some rounds."}, "trial_id": "mouselab_quiz_scarce", "trial_type": "survey-multi-choice", "trial_index": 19, "time_elapsed": 688628, "internal_node_id": "0.0-2.2-4.2"}}, {"uniqueid": "w98791412:a52229269", "current_trial": 20, "dateTime": 1664555863540, "trialdata": {"rt": 24821, "stimulus": "\n<h1> Get ready to start the game! </h1>\n\nThank you for reading the instructions. Get ready start with the first of 4 block(s) of this game.\n<br><br>\nIn this first block, you will complete 30 rounds of this game before moving on.\n<br><br>\nRemember, the more money the spider gets, the bigger your bonus will be!\n<br><br>\n<div style='text-align: center;'>Press <code>space</code> to begin.</div>\n\n<br><br>\n(If, at any point, the <code>space</code> key does not take you to the next page, click once on the text and try again.)", "response": " ", "trial_id": "mdp_ready_1", "trial_type": "html-keyboard-response", "trial_index": 20, "time_elapsed": 713457, "internal_node_id": "0.0-4.0-0.0"}}, {"uniqueid": "w98791412:a52229269", "current_trial": 21, "dateTime": 1664555874879, "trialdata": {"revealed_states": [], "num_clicks_accrued": [0, 0, 0, 0, 0, 0, 0, 0, 0, 0, 0, 0, 0], "stateRewards": ["", 2, -8, 24, -48, 2, 4, 48, -48, -2, -8, -48, 48], "withholdReward": false, "trial_id": "mdp_629420544881", "block": "test1", "trialIndex": 6, "score": 58.75, "costs": -0.25, "simulationMode": [null, null, null], "rewards": [2, 4, 48], "path": ["0", "0", "5", "6", "7"], "rt": [4462, 375, 110], "actions": ["right", "right", "up"], "actionTimes": [5764, 6637, 7239], "queries": {"click": {"state": {"target": ["5"], "time": [2456]}, "edge": {"target": [], "time": []}}, "mouseover": {"state": {"target": ["0", "5", "1"], "time": [1840, 1907, 3692]}, "edge": {"target": [], "time": []}}, "mouseout": {"state": {"target": ["0", "5", "1", "0"], "time": [1874, 3158, 4807, 10415]}, "edge": {"target": [], "time": []}}}, "displayed_time": "9.30", "trialTime": 11286, "trial_type": "mouselab-mdp", "trial_index": 21, "time_elapsed": 724796, "internal_node_id": "0.0-4.0-1.0-0.0"}}, {"uniqueid": "w98791412:a52229269", "current_trial": 22, "dateTime": 1664555886151, "trialdata": {"revealed_states": [], "num_clicks_accrued": [0, 0, 0, 0, 0, 0, 0, 0, 0, 0, 0, 0, 0], "stateRewards": ["", -4, 8, 24, -24, 4, 8, -24, -48, 2, 4, 24, -24], "withholdReward": true, "trial_id": "mdp_782187007008", "block": "test1", "trialIndex": 7, "score": -7.25, "costs": -0.25, "simulationMode": [null, null, null], "rewards": [4, 8, -24], "path": ["0", "0", "5", "6", "7"], "rt": [2302, 539, 374], "actions": ["right", "right", "up"], "actionTimes": [3965, 4991, 5860], "queries": {"click": {"state": {"target": ["5"], "time": [2680]}, "edge": {"target": [], "time": []}}, "mouseover": {"state": {"target": ["0", "5"], "time": [2199, 2266]}, "edge": {"target": [], "time": []}}, "mouseout": {"state": {"target": ["0", "0", "5", "5"], "time": [1081, 2216, 2967, 5767]}, "edge": {"target": [], "time": []}}}, "displayed_time": "8.66", "trialTime": 11222, "trial_type": "mouselab-mdp", "trial_index": 22, "time_elapsed": 736068, "internal_node_id": "0.0-4.0-1.0-1.0"}}, {"uniqueid": "w98791412:a52229269", "current_trial": 23, "dateTime": 1664555899662, "trialdata": {"revealed_states": [], "num_clicks_accrued": [0, 0, 0, 0, 0, 0, 0, 0, 0, 0, 0, 0, 0], "stateRewards": ["", 2, -4, -48, -48, -2, -4, -24, -48, -2, 8, 24, 24], "withholdReward": false, "trial_id": "mdp_656069446729", "block": "test1", "trialIndex": 8, "score": -45.5, "costs": -0.5, "simulationMode": [null, null, null], "rewards": [2, -4, -48], "path": ["0", "0", "1", "2", "3"], "rt": [4787, 411, 346], "actions": ["up", "up", "right"], "actionTimes": [6015, 6934, 7770], "queries": {"click": {"state": {"target": ["9", "5"], "time": [3373, 4556]}, "edge": {"target": [], "time": []}}, "mouseover": {"state": {"target": ["9", "0", "5"], "time": [2552, 4104, 4220]}, "edge": {"target": [], "time": []}}, "mouseout": {"state": {"target": ["0", "9", "9", "0", "5", "5"], "time": [1985, 3738, 4070, 4154, 4821, 5005]}, "edge": {"target": [], "time": []}}}, "displayed_time": "11.23", "trialTime": 13458, "trial_type": "mouselab-mdp", "trial_index": 23, "time_elapsed": 749579, "internal_node_id": "0.0-4.0-1.0-2.0"}}, {"uniqueid": "w98791412:a52229269", "current_trial": 24, "dateTime": 1664555914143, "trialdata": {"revealed_states": [], "num_clicks_accrued": [0, 0, 0, 0, 0, 0, 0, 0, 0, 0, 0, 0, 0], "stateRewards": ["", 2, -4, 48, 24, 2, 8, 24, 24, -2, 4, 24, 24], "withholdReward": true, "trial_id": "mdp_813974524300", "block": "test1", "trialIndex": 9, "score": 30.5, "costs": -0.5, "simulationMode": [null, null, null], "rewards": [-2, 4, 24], "path": ["0", "0", "9", "10", "12"], "rt": [4979, 540, 440], "actions": ["left", "left", "down"], "actionTimes": [8543, 9572, 10505], "queries": {"click": {"state": {"target": ["2", "10"], "time": [4777, 5985]}, "edge": {"target": [], "time": []}}, "mouseover": {"state": {"target": ["1", "2", "9", "10", "9", "0", "8"], "time": [3976, 4143, 5277, 5494, 6762, 6978, 7479]}, "edge": {"target": [], "time": []}}, "mouseout": {"state": {"target": ["1", "2", "9", "10", "9", "0", "8"], "time": [4052, 5127, 5327, 6712, 6828, 7179, 7579]}, "edge": {"target": [], "time": []}}}, "displayed_time": "12.56", "trialTime": 14430, "trial_type": "mouselab-mdp", "trial_index": 24, "time_elapsed": 764060, "internal_node_id": "0.0-4.0-1.0-3.0"}}, {"uniqueid": "w98791412:a52229269", "current_trial": 25, "dateTime": 1664555926945, "trialdata": {"revealed_states": [], "num_clicks_accrued": [0, 0, 0, 0, 0, 0, 0, 0, 0, 0, 0, 0, 0], "stateRewards": ["", -2, 8, 48, 24, 2, -8, -24, -48, -4, 8, -48, 24], "withholdReward": true, "trial_id": "mdp_224053025943", "block": "test1", "trialIndex": 10, "score": -39.25, "costs": -0.25, "simulationMode": [null, null, null], "rewards": [-4, 8, -48], "path": ["0", "0", "9", "10", "11"], "rt": [2085, 357, 253], "actions": ["left", "left", "up"], "actionTimes": [3308, 4161, 4908], "queries": {"click": {"state": {"target": ["10"], "time": [2266]}, "edge": {"target": [], "time": []}}, "mouseover": {"state": {"target": ["9", "10", "9"], "time": [1801, 2085, 2702]}, "edge": {"target": [], "time": []}}, "mouseout": {"state": {"target": ["0", "9", "10"], "time": [1785, 1868, 2552]}, "edge": {"target": [], "time": []}}}, "displayed_time": "10.22", "trialTime": 12730, "trial_type": "mouselab-mdp", "trial_index": 25, "time_elapsed": 776862, "internal_node_id": "0.0-4.0-1.0-4.0"}}, {"uniqueid": "w98791412:a52229269", "current_trial": 26, "dateTime": 1664555938345, "trialdata": {"revealed_states": [], "num_clicks_accrued": [0, 0, 0, 0, 0, 0, 0, 0, 0, 0, 0, 0, 0], "stateRewards": ["", -4, -4, -48, -24, 2, 8, 24, -48, 4, 4, 48, 48], "withholdReward": true, "trial_id": "mdp_693501840209", "block": "test1", "trialIndex": 11, "score": 60.5, "costs": -0.5, "simulationMode": [null, null, null], "rewards": [4, 4, 48], "path": ["0", "0", "9", "10", "12"], "rt": [4013, 712, 2295], "actions": ["left", "left", "down"], "actionTimes": [5436, 6636, 9420], "queries": {"click": {"state": {"target": ["2", "10"], "time": [3520, 4295]}, "edge": {"target": [], "time": []}}, "mouseover": {"state": {"target": ["1", "2", "10"], "time": [2854, 2937, 4138]}, "edge": {"target": [], "time": []}}, "mouseout": {"state": {"target": ["9", "0", "0", "1", "2", "10", "9", "12"], "time": [1085, 1135, 1952, 2903, 3738, 4522, 7308, 7842]}, "edge": {"target": [], "time": []}}}, "displayed_time": "9.91", "trialTime": 11352, "trial_type": "mouselab-mdp", "trial_index": 26, "time_elapsed": 788262, "internal_node_id": "0.0-4.0-1.0-5.0"}}, {"uniqueid": "w98791412:a52229269", "current_trial": 27, "dateTime": 1664555951608, "trialdata": {"revealed_states": [], "num_clicks_accrued": [0, 0, 0, 0, 0, 0, 0, 0, 0, 0, 0, 0, 0], "stateRewards": ["", -2, 8, -48, 48, -4, 8, -24, 24, 4, -4, 24, -48], "withholdReward": true, "trial_id": "mdp_904238083902", "block": "test1", "trialIndex": 12, "score": 32.25, "costs": -0.75, "simulationMode": [null, null, null], "rewards": [-4, 8, 24], "path": ["0", "0", "5", "6", "8"], "rt": [6541, 241, 163], "actions": ["right", "right", "down"], "actionTimes": [8314, 9043, 9699], "queries": {"click": {"state": {"target": ["6", "7", "8"], "time": [2996, 4796, 7308]}, "edge": {"target": [], "time": []}}, "mouseover": {"state": {"target": ["5", "6", "5", "7", "8"], "time": [2211, 2812, 4430, 4630, 6098]}, "edge": {"target": [], "time": []}}, "mouseout": {"state": {"target": ["12", "5", "0", "0", "5", "6", "5", "7", "8"], "time": [1163, 1377, 1427, 2195, 2728, 3362, 4530, 4947, 7466]}, "edge": {"target": [], "time": []}}}, "displayed_time": "10.77", "trialTime": 13212, "trial_type": "mouselab-mdp", "trial_index": 27, "time_elapsed": 801525, "internal_node_id": "0.0-4.0-1.0-6.0"}}, {"uniqueid": "w98791412:a52229269", "current_trial": 28, "dateTime": 1664555966014, "trialdata": {"revealed_states": [], "num_clicks_accrued": [0, 0, 0, 0, 0, 0, 0, 0, 0, 0, 0, 0, 0], "stateRewards": ["", -4, 8, 48, -48, 2, -4, 24, -24, -2, 4, -24, -24], "withholdReward": true, "trial_id": "mdp_804988042722", "block": "test1", "trialIndex": 13, "score": 25.5, "costs": -1.5, "simulationMode": [null, null, null], "rewards": [2, -4, 24], "path": ["0", "0", "5", "6", "7"], "rt": [9866, 141, 112], "actions": ["right", "right", "up"], "actionTimes": [11196, 11833, 12438], "queries": {"click": {"state": {"target": ["6", "10", "11", "12", "8", "7"], "time": [2066, 3529, 6300, 7401, 8889, 9624]}, "edge": {"target": [], "time": []}}, "mouseover": {"state": {"target": ["5", "6", "5", "0", "5", "9", "10", "1", "11", "12", "9", "1", "8", "7"], "time": [1698, 1832, 2515, 2549, 2916, 3199, 3366, 4067, 4484, 7216, 7837, 7904, 8538, 9457]}, "edge": {"target": [], "time": []}}, "mouseout": {"state": {"target": ["8", "0", "5", "6", "5", "0", "5", "9", "10", "1", "11", "10", "12", "9", "1", "6", "8", "8", "6", "7", "6"], "time": [847, 1631, 1798, 2482, 2532, 2599, 3116, 3299, 3867, 4084, 6586, 6720, 7704, 7854, 7921, 8488, 9105, 9255, 9322, 9839, 10360]}, "edge": {"target": [], "time": []}}}, "displayed_time": "12.93", "trialTime": 14359, "trial_type": "mouselab-mdp", "trial_index": 28, "time_elapsed": 815931, "internal_node_id": "0.0-4.0-1.0-7.0"}}, {"uniqueid": "w98791412:a52229269", "current_trial": 29, "dateTime": 1664555977764, "trialdata": {"revealed_states": [], "num_clicks_accrued": [0, 0, 0, 0, 0, 0, 0, 0, 0, 0, 0, 0, 0], "stateRewards": ["", 2, -4, -48, 24, -4, 4, 24, 24, 2, -8, -24, -48], "withholdReward": true, "trial_id": "mdp_807654778305", "block": "test1", "trialIndex": 14, "score": 28.75, "costs": -0.25, "simulationMode": [null, null, null], "rewards": [-4, 4, 24], "path": ["0", "0", "5", "6", "7"], "rt": [1865, 110, 105], "actions": ["right", "right", "up"], "actionTimes": [3332, 3934, 4529], "queries": {"click": {"state": {"target": ["7"], "time": [2075]}, "edge": {"target": [], "time": []}}, "mouseover": {"state": {"target": ["7", "6"], "time": [1837, 2588]}, "edge": {"target": [], "time": []}}, "mouseout": {"state": {"target": ["6", "5", "7", "6"], "time": [936, 986, 2538, 2622]}, "edge": {"target": [], "time": []}}}, "displayed_time": "9.47", "trialTime": 11700, "trial_type": "mouselab-mdp", "trial_index": 29, "time_elapsed": 827681, "internal_node_id": "0.0-4.0-1.0-8.0"}}, {"uniqueid": "w98791412:a52229269", "current_trial": 30, "dateTime": 1664555988325, "trialdata": {"revealed_states": [], "num_clicks_accrued": [0, 0, 0, 0, 0, 0, 0, 0, 0, 0, 0, 0, 0], "stateRewards": ["", 2, -8, 48, -24, 2, 8, 24, -24, 4, -4, -48, -48], "withholdReward": true, "trial_id": "mdp_130946197263", "block": "test1", "trialIndex": 15, "score": 46.5, "costs": -0.5, "simulationMode": [null, null, null], "rewards": [2, -8, 48], "path": ["0", "0", "1", "2", "3"], "rt": [4113, 118, 41], "actions": ["up", "up", "right"], "actionTimes": [5412, 6019, 6559], "queries": {"click": {"state": {"target": ["7", "3"], "time": [2168, 3768]}, "edge": {"target": [], "time": []}}, "mouseover": {"state": {"target": ["5", "7", "5", "3"], "time": [1896, 1996, 2783, 3631]}, "edge": {"target": [], "time": []}}, "mouseout": {"state": {"target": ["0", "5", "7", "5", "3", "7"], "time": [1863, 1913, 2563, 3297, 3931, 4015]}, "edge": {"target": [], "time": []}}}, "displayed_time": "9.30", "trialTime": 10508, "trial_type": "mouselab-mdp", "trial_index": 30, "time_elapsed": 838242, "internal_node_id": "0.0-4.0-1.0-9.0"}}, {"uniqueid": "w98791412:a52229269", "current_trial": 31, "dateTime": 1664555999911, "trialdata": {"revealed_states": [], "num_clicks_accrued": [0, 0, 0, 0, 0, 0, 0, 0, 0, 0, 0, 0, 0], "stateRewards": ["", 2, -8, -24, 48, 4, -8, -24, -24, 2, 8, -24, 24], "withholdReward": true, "trial_id": "mdp_480787552818", "block": "test1", "trialIndex": 16, "score": 46.5, "costs": -0.5, "simulationMode": [null, null, null], "rewards": [2, -8, 48], "path": ["0", "0", "1", "2", "4"], "rt": [2536, 99, 87], "actions": ["up", "up", "left"], "actionTimes": [3673, 4264, 4852], "queries": {"click": {"state": {"target": ["3", "4"], "time": [1735, 2391]}, "edge": {"target": [], "time": []}}, "mouseover": {"state": {"target": ["1", "3", "2", "4", "11"], "time": [1378, 1662, 2129, 2179, 2713]}, "edge": {"target": [], "time": []}}, "mouseout": {"state": {"target": ["1", "3", "2", "4"], "time": [1395, 2096, 2146, 2630]}, "edge": {"target": [], "time": []}}}, "displayed_time": "10.14", "trialTime": 11533, "trial_type": "mouselab-mdp", "trial_index": 31, "time_elapsed": 849828, "internal_node_id": "0.0-4.0-1.0-10.0"}}, {"uniqueid": "w98791412:a52229269", "current_trial": 32, "dateTime": 1664556012078, "trialdata": {"revealed_states": [], "num_clicks_accrued": [0, 0, 0, 0, 0, 0, 0, 0, 0, 0, 0, 0, 0], "stateRewards": ["", 2, -8, 48, -24, 2, -4, 24, 48, 4, -4, 48, -24], "withholdReward": false, "trial_id": "mdp_656500928756", "block": "test1", "trialIndex": 17, "score": 52.5, "costs": -0.5, "simulationMode": [null, null, null], "rewards": [4, -4, 48], "path": ["0", "0", "9", "10", "11"], "rt": [2190, 163, 229], "actions": ["left", "left", "up"], "actionTimes": [3318, 3971, 4689], "queries": {"click": {"state": {"target": ["4", "11"], "time": [1599, 2119]}, "edge": {"target": [], "time": []}}, "mouseover": {"state": {"target": ["1", "4", "11", "10"], "time": [1339, 1456, 1973, 2373]}, "edge": {"target": [], "time": []}}, "mouseout": {"state": {"target": ["11", "1", "4", "11", "10"], "time": [805, 1373, 1906, 2340, 2574]}, "edge": {"target": [], "time": []}}}, "displayed_time": "10.13", "trialTime": 12117, "trial_type": "mouselab-mdp", "trial_index": 32, "time_elapsed": 861995, "internal_node_id": "0.0-4.0-1.0-11.0"}}, {"uniqueid": "w98791412:a52229269", "current_trial": 33, "dateTime": 1664556025228, "trialdata": {"revealed_states": [], "num_clicks_accrued": [0, 0, 0, 0, 0, 0, 0, 0, 0, 0, 0, 0, 0], "stateRewards": ["", -4, -8, -48, 48, -2, -8, -48, -24, 4, 8, 24, -48], "withholdReward": false, "trial_id": "mdp_509977295685", "block": "test1", "trialIndex": 18, "score": 38, "costs": -3, "simulationMode": [null, null, null], "rewards": [-4, -8, 48], "path": ["0", "0", "1", "2", "4"], "rt": [8684, 17, 98], "actions": ["up", "up", "left"], "actionTimes": [10007, 10520, 11118], "queries": {"click": {"state": {"target": ["11", "12", "4", "3", "7", "8", "2", "1", "9", "10", "5", "6"], "time": [1824, 2368, 3128, 3367, 3999, 4241, 6593, 6831, 7383, 7695, 8609, 9049]}, "edge": {"target": [], "time": []}}, "mouseover": {"state": {"target": ["9", "11", "10", "12", "10", "2", "4", "2", "3", "7", "6", "8", "5", "1", "9", "2", "1", "9", "10", "0", "5", "5", "6"], "time": [1559, 1659, 2143, 2243, 2577, 2694, 2977, 3245, 3295, 3912, 4129, 4212, 5213, 5847, 6014, 6364, 6740, 7148, 7599, 8032, 8133, 8416, 8967]}, "edge": {"target": [], "time": []}}, "mouseout": {"state": {"target": ["9", "0", "9", "11", "10", "12", "10", "2", "4", "2", "3", "7", "6", "8", "5", "1", "9", "2", "1", "9", "10", "9", "0", "5", "5", "6"], "time": [909, 958, 1576, 2110, 2194, 2544, 2594, 2844, 3211, 3278, 3562, 4112, 4179, 4596, 5280, 5964, 6131, 6698, 7031, 7549, 7899, 8016, 8099, 8183, 8717, 9284]}, "edge": {"target": [], "time": []}}}, "displayed_time": "11.62", "trialTime": 13091, "trial_type": "mouselab-mdp", "trial_index": 33, "time_elapsed": 875145, "internal_node_id": "0.0-4.0-1.0-12.0"}}, {"uniqueid": "w98791412:a52229269", "current_trial": 34, "dateTime": 1664556036543, "trialdata": {"revealed_states": [], "num_clicks_accrued": [0, 0, 0, 0, 0, 0, 0, 0, 0, 0, 0, 0, 0], "stateRewards": ["", -2, -8, 48, 24, -2, 8, -48, -24, -2, 4, -48, 48], "withholdReward": true, "trial_id": "mdp_295220852217", "block": "test1", "trialIndex": 19, "score": 52.5, "costs": -2.5, "simulationMode": [null, null, null], "rewards": [-2, 4, 48], "path": ["0", "0", "9", "10", "12"], "rt": [6891, 36, 510], "actions": ["left", "left", "down"], "actionTimes": [7996, 8520, 9528], "queries": {"click": {"state": {"target": ["4", "3", "2", "1", "7", "8", "11", "12", "10", "9"], "time": [1822, 2103, 2959, 3104, 3704, 3967, 4582, 4847, 6415, 6607]}, "edge": {"target": [], "time": []}}, "mouseover": {"state": {"target": ["0", "4", "2", "3", "1", "7", "2", "1", "7", "6", "8", "9", "11", "10", "12", "9", "10", "9", "10", "9"], "time": [1414, 1744, 1961, 2028, 2378, 2628, 2845, 3095, 3596, 3863, 3966, 4347, 4480, 4697, 4781, 5631, 5732, 6048, 6315, 6549]}, "edge": {"target": [], "time": []}}, "mouseout": {"state": {"target": ["8", "5", "0", "0", "4", "2", "3", "1", "7", "2", "1", "7", "6", "8", "9", "11", "10", "12", "9", "10", "9", "10", "9"], "time": [726, 776, 1244, 1444, 1928, 2011, 2311, 2511, 2712, 3045, 3362, 3830, 3913, 4213, 4364, 4680, 4747, 5081, 5681, 6015, 6198, 6516, 6832]}, "edge": {"target": [], "time": []}}}, "displayed_time": "10.02", "trialTime": 11262, "trial_type": "mouselab-mdp", "trial_index": 34, "time_elapsed": 886460, "internal_node_id": "0.0-4.0-1.0-13.0"}}, {"uniqueid": "w98791412:a52229269", "current_trial": 35, "dateTime": 1664556047484, "trialdata": {"revealed_states": [], "num_clicks_accrued": [0, 0, 0, 0, 0, 0, 0, 0, 0, 0, 0, 0, 0], "stateRewards": ["", 2, -8, -48, 24, 4, 8, 48, -48, 2, -4, 24, 24], "withholdReward": true, "trial_id": "mdp_130475327289", "block": "test1", "trialIndex": 20, "score": 63, "costs": -2, "simulationMode": [null, null, null], "rewards": [4, 8, 48], "path": ["0", "0", "5", "6", "7"], "rt": [5275, 112, 154], "actions": ["right", "right", "up"], "actionTimes": [6375, 6975, 7618], "queries": {"click": {"state": {"target": ["4", "3", "7", "8", "11", "12", "6", "5"], "time": [1813, 2069, 2516, 3077, 3678, 4454, 5269, 5420]}, "edge": {"target": [], "time": []}}, "mouseover": {"state": {"target": ["1", "2", "4", "2", "3", "7", "6", "8", "9", "11", "10", "12", "5", "6", "5"], "time": [1491, 1591, 1724, 1941, 1975, 2442, 2659, 2892, 3259, 3593, 3793, 4377, 4978, 5011, 5378]}, "edge": {"target": [], "time": []}}, "mouseout": {"state": {"target": ["0", "1", "2", "4", "2", "3", "7", "6", "8", "9", "11", "10", "12", "5", "6", "5", "8"], "time": [1441, 1508, 1674, 1908, 1958, 2325, 2642, 2692, 3226, 3276, 3777, 3843, 4594, 4995, 5362, 5579, 5628]}, "edge": {"target": [], "time": []}}}, "displayed_time": "10.10", "trialTime": 10888, "trial_type": "mouselab-mdp", "trial_index": 35, "time_elapsed": 897400, "internal_node_id": "0.0-4.0-1.0-14.0"}}, {"uniqueid": "w98791412:a52229269", "current_trial": 36, "dateTime": 1664556058203, "trialdata": {"revealed_states": [], "num_clicks_accrued": [0, 0, 0, 0, 0, 0, 0, 0, 0, 0, 0, 0, 0], "stateRewards": ["", 2, -4, -24, -48, -2, 8, -24, 48, -2, 8, 24, -48], "withholdReward": true, "trial_id": "mdp_566582551557", "block": "test1", "trialIndex": 21, "score": 56.5, "costs": -2.5, "simulationMode": [null, null, null], "rewards": [-2, 8, 48], "path": ["0", "0", "5", "6", "8"], "rt": [6391, 94, 21], "actions": ["right", "right", "down"], "actionTimes": [7608, 8199, 8710], "queries": {"click": {"state": {"target": ["3", "4", "11", "12", "7", "8", "6", "5", "9", "10"], "time": [1891, 2371, 2836, 3292, 3819, 4004, 5140, 5332, 6317, 6580]}, "edge": {"target": [], "time": []}}, "mouseover": {"state": {"target": ["3", "2", "3", "2", "4", "11", "10", "12", "0", "5", "7", "6", "8", "5", "5", "6", "5", "0", "9", "10", "0"], "time": [1598, 1665, 1798, 2065, 2149, 2601, 3133, 3183, 3533, 3583, 3683, 3934, 3984, 4517, 4885, 4935, 5268, 5936, 6052, 6486, 6770]}, "edge": {"target": [], "time": []}}, "mouseout": {"state": {"target": ["8", "5", "3", "2", "3", "2", "4", "11", "10", "12", "0", "5", "7", "6", "8", "5", "5", "6", "5", "0", "9", "10", "9", "0", "5"], "time": [697, 964, 1631, 1765, 2032, 2099, 2566, 3099, 3166, 3467, 3567, 3617, 3900, 3967, 4434, 4534, 4918, 5235, 5668, 5969, 6453, 6703, 6753, 6787, 6853]}, "edge": {"target": [], "time": []}}}, "displayed_time": "9.22", "trialTime": 10670, "trial_type": "mouselab-mdp", "trial_index": 36, "time_elapsed": 908119, "internal_node_id": "0.0-4.0-1.0-15.0"}}, {"uniqueid": "w98791412:a52229269", "current_trial": 37, "dateTime": 1664556069285, "trialdata": {"revealed_states": [], "num_clicks_accrued": [0, 0, 0, 0, 0, 0, 0, 0, 0, 0, 0, 0, 0], "stateRewards": ["", 4, -4, 48, -48, 4, -4, 24, -24, 4, 8, -24, -48], "withholdReward": true, "trial_id": "mdp_433630527224", "block": "test1", "trialIndex": 22, "score": 51.5, "costs": -1.5, "simulationMode": [null, null, null], "rewards": [4, -4, 48], "path": ["0", "0", "1", "2", "3"], "rt": [4706, 103, 94], "actions": ["up", "up", "right"], "actionTimes": [5570, 6165, 6756], "queries": {"click": {"state": {"target": ["3", "4", "11", "12", "8", "7"], "time": [2126, 2638, 3190, 3582, 4134, 4421]}, "edge": {"target": [], "time": []}}, "mouseover": {"state": {"target": ["1", "4", "4", "2", "3", "2", "4", "11", "10", "12", "8", "6", "7", "6"], "time": [1240, 1374, 1605, 1691, 1791, 2291, 2341, 2909, 3349, 3476, 4093, 4277, 4327, 4827]}, "edge": {"target": [], "time": []}}, "mouseout": {"state": {"target": ["0", "1", "4", "4", "2", "3", "2", "4", "11", "10", "12", "8", "6", "7", "6"], "time": [1190, 1290, 1491, 1674, 1724, 2258, 2324, 2809, 3242, 3426, 3693, 4260, 4293, 4627, 4861]}, "edge": {"target": [], "time": []}}}, "displayed_time": "9.87", "trialTime": 11035, "trial_type": "mouselab-mdp", "trial_index": 37, "time_elapsed": 919202, "internal_node_id": "0.0-4.0-1.0-16.0"}}, {"uniqueid": "w98791412:a52229269", "current_trial": 38, "dateTime": 1664556081146, "trialdata": {"revealed_states": [], "num_clicks_accrued": [0, 0, 0, 0, 0, 0, 0, 0, 0, 0, 0, 0, 0], "stateRewards": ["", 4, 4, -24, -48, -4, 4, -48, 24, 4, -8, -48, 48], "withholdReward": false, "trial_id": "mdp_566768794366", "block": "test1", "trialIndex": 23, "score": 47.5, "costs": -1.5, "simulationMode": [null, null, null], "rewards": [4, -8, 48], "path": ["0", "0", "9", "10", "12"], "rt": [3432, 46, 48], "actions": ["left", "left", "down"], "actionTimes": [4490, 5035, 5588], "queries": {"click": {"state": {"target": ["4", "3", "7", "8", "11", "12"], "time": [1726, 2123, 2451, 2737, 3291, 3531]}, "edge": {"target": [], "time": []}}, "mouseover": {"state": {"target": ["4", "2", "3", "7", "6", "8", "9", "11", "10", "12"], "time": [1552, 1852, 2002, 2336, 2586, 2686, 3036, 3137, 3420, 3504]}, "edge": {"target": [], "time": []}}, "mouseout": {"state": {"target": ["4", "2", "3", "7", "6", "8", "9", "11", "10", "12"], "time": [1835, 1885, 2269, 2553, 2653, 2954, 3087, 3403, 3454, 3737]}, "edge": {"target": [], "time": []}}}, "displayed_time": "10.06", "trialTime": 11813, "trial_type": "mouselab-mdp", "trial_index": 38, "time_elapsed": 931063, "internal_node_id": "0.0-4.0-1.0-17.0"}}, {"uniqueid": "w98791412:a52229269", "current_trial": 39, "dateTime": 1664556093023, "trialdata": {"revealed_states": [], "num_clicks_accrued": [0, 0, 0, 0, 0, 0, 0, 0, 0, 0, 0, 0, 0], "stateRewards": ["", -2, -4, -24, -48, 2, -8, -24, -24, 4, -8, 48, 48], "withholdReward": true, "trial_id": "mdp_950599994674", "block": "test1", "trialIndex": 24, "score": 46.75, "costs": -2.25, "simulationMode": [null, null, null], "rewards": [4, -8, 48], "path": ["0", "0", "9", "10", "11"], "rt": [6556, 89, 106], "actions": ["left", "left", "up"], "actionTimes": [7778, 8360, 8961], "queries": {"click": {"state": {"target": ["5", "7", "8", "3", "4", "11", "12", "10", "9"], "time": [1753, 2512, 2746, 3361, 3755, 4128, 4465, 5241, 6865]}, "edge": {"target": [], "time": []}}, "mouseover": {"state": {"target": ["5", "6", "7", "6", "8", "3", "2", "4", "11", "10", "12", "10", "9"], "time": [1681, 1914, 2415, 2632, 2682, 3199, 3483, 3566, 3983, 4283, 4367, 5134, 6736]}, "edge": {"target": [], "time": []}}, "mouseout": {"state": {"target": ["0", "5", "6", "7", "6", "8", "5", "3", "2", "4", "11", "10", "12", "10", "9"], "time": [1581, 1898, 2382, 2615, 2649, 2915, 3066, 3449, 3516, 3900, 4250, 4333, 4934, 5368, 7019]}, "edge": {"target": [], "time": []}}}, "displayed_time": "10.22", "trialTime": 11823, "trial_type": "mouselab-mdp", "trial_index": 39, "time_elapsed": 942939, "internal_node_id": "0.0-4.0-1.0-18.0"}}, {"uniqueid": "w98791412:a52229269", "current_trial": 40, "dateTime": 1664556104968, "trialdata": {"revealed_states": [], "num_clicks_accrued": [0, 0, 0, 0, 0, 0, 0, 0, 0, 0, 0, 0, 0], "stateRewards": ["", -4, 4, -24, -24, -4, -8, 24, 48, 4, -4, 24, 48], "withholdReward": false, "trial_id": "mdp_175395325183", "block": "test1", "trialIndex": 25, "score": 50.5, "costs": -2.5, "simulationMode": [null, null, null], "rewards": [4, -4, 48], "path": ["0", "0", "9", "10", "12"], "rt": [7069, 40, 13], "actions": ["left", "left", "down"], "actionTimes": [8281, 8813, 9336], "queries": {"click": {"state": {"target": ["11", "12", "4", "3", "7", "8", "6", "5", "9", "10"], "time": [2094, 2355, 2828, 3099, 3419, 3685, 5875, 6363, 6779, 7044]}, "edge": {"target": [], "time": []}}, "mouseover": {"state": {"target": ["9", "11", "10", "12", "4", "2", "3", "7", "6", "8", "6", "6", "5", "0", "9", "10"], "time": [1799, 1883, 2233, 2283, 2633, 2983, 3034, 3334, 3568, 3634, 5469, 5736, 6103, 6537, 6763, 6938]}, "edge": {"target": [], "time": []}}, "mouseout": {"state": {"target": ["0", "9", "11", "10", "12", "4", "2", "3", "7", "6", "8", "8", "6", "6", "5", "0", "9", "10"], "time": [1649, 1833, 2199, 2266, 2516, 2967, 3017, 3267, 3551, 3618, 4051, 5452, 5519, 6070, 6520, 6570, 6904, 7204]}, "edge": {"target": [], "time": []}}}, "displayed_time": "9.84", "trialTime": 11892, "trial_type": "mouselab-mdp", "trial_index": 40, "time_elapsed": 954885, "internal_node_id": "0.0-4.0-1.0-19.0"}}, {"uniqueid": "w98791412:a52229269", "current_trial": 41, "dateTime": 1664556115111, "trialdata": {"revealed_states": [], "num_clicks_accrued": [0, 0, 0, 0, 0, 0, 0, 0, 0, 0, 0, 0, 0], "stateRewards": ["", -4, 8, -24, 24, -2, -8, 24, -24, 4, -4, -48, 48], "withholdReward": true, "trial_id": "mdp_297684722007", "block": "test1", "trialIndex": 26, "score": 51, "costs": -2, "simulationMode": [null, null, null], "rewards": [4, -4, 48], "path": ["0", "0", "9", "10", "12"], "rt": [5502, 22, 80], "actions": ["left", "left", "down"], "actionTimes": [6734, 7246, 7822], "queries": {"click": {"state": {"target": ["11", "12", "4", "3", "7", "8", "10", "9"], "time": [2726, 2989, 3398, 3726, 4213, 5053, 5693, 5871]}, "edge": {"target": [], "time": []}}, "mouseover": {"state": {"target": ["11", "10", "10", "11", "10", "12", "10", "4", "2", "3", "7", "6", "8", "8", "8", "9", "10", "9"], "time": [2285, 2419, 2586, 2636, 2853, 2903, 3120, 3270, 3554, 3654, 4188, 4321, 4405, 4572, 4872, 5489, 5606, 5839]}, "edge": {"target": [], "time": []}}, "mouseout": {"state": {"target": ["0", "11", "10", "10", "11", "10", "12", "10", "4", "2", "3", "7", "6", "8", "8", "8", "9", "10", "9"], "time": [1819, 2386, 2469, 2620, 2837, 2886, 3103, 3153, 3537, 3604, 3871, 4261, 4388, 4470, 4638, 5255, 5556, 5789, 6006]}, "edge": {"target": [], "time": []}}}, "displayed_time": "9.23", "trialTime": 10093, "trial_type": "mouselab-mdp", "trial_index": 41, "time_elapsed": 965028, "internal_node_id": "0.0-4.0-1.0-20.0"}}, {"uniqueid": "w98791412:a52229269", "current_trial": 42, "dateTime": 1664556126247, "trialdata": {"revealed_states": [], "num_clicks_accrued": [0, 0, 0, 0, 0, 0, 0, 0, 0, 0, 0, 0, 0], "stateRewards": ["", -2, 8, 48, -48, 4, -8, 24, 24, 4, 4, -48, -24], "withholdReward": true, "trial_id": "mdp_746937869927", "block": "test1", "trialIndex": 27, "score": 56.5, "costs": -2.5, "simulationMode": [null, null, null], "rewards": [-2, 8, 48], "path": ["0", "0", "1", "2", "3"], "rt": [7202, 32, 38], "actions": ["up", "up", "right"], "actionTimes": [8116, 8640, 9164], "queries": {"click": {"state": {"target": ["11", "12", "4", "3", "7", "8", "2", "6", "5", "1"], "time": [2548, 2861, 3341, 3630, 4062, 4525, 5670, 6485, 6757, 6991]}, "edge": {"target": [], "time": []}}, "mouseover": {"state": {"target": ["9", "11", "10", "12", "10", "11", "10", "12", "4", "2", "3", "7", "6", "8", "6", "2", "1", "6", "6", "5", "1"], "time": [1451, 2108, 2168, 2235, 2402, 2452, 2719, 2769, 3169, 3453, 3503, 3887, 4204, 4270, 4704, 5088, 5805, 6055, 6323, 6656, 6940]}, "edge": {"target": [], "time": []}}, "mouseout": {"state": {"target": ["0", "9", "11", "10", "12", "10", "11", "10", "12", "4", "2", "3", "7", "6", "8", "6", "2", "1", "6", "6", "5", "1", "5"], "time": [1401, 1835, 2152, 2202, 2385, 2435, 2702, 2752, 2986, 3420, 3486, 3804, 4187, 4220, 4687, 4738, 5772, 5878, 6122, 6589, 6873, 7157, 7340]}, "edge": {"target": [], "time": []}}}, "displayed_time": "9.66", "trialTime": 11085, "trial_type": "mouselab-mdp", "trial_index": 42, "time_elapsed": 976164, "internal_node_id": "0.0-4.0-1.0-21.0"}}, {"uniqueid": "w98791412:a52229269", "current_trial": 43, "dateTime": 1664556137586, "trialdata": {"revealed_states": [], "num_clicks_accrued": [0, 0, 0, 0, 0, 0, 0, 0, 0, 0, 0, 0, 0], "stateRewards": ["", -4, -8, 24, 48, 2, -4, -24, 24, -4, 8, 48, 48], "withholdReward": false, "trial_id": "mdp_496672670022", "block": "test1", "trialIndex": 28, "score": 55.25, "costs": -1.75, "simulationMode": [null, null, null], "rewards": [-4, 8, 48], "path": ["0", "0", "9", "10", "11"], "rt": [6542, 462, 123], "actions": ["left", "left", "up"], "actionTimes": [7677, 8645, 9257], "queries": {"click": {"state": {"target": ["3", "4", "2", "1", "11", "10", "9"], "time": [1836, 2277, 3093, 3302, 5053, 6517, 6757]}, "edge": {"target": [], "time": []}}, "mouseover": {"state": {"target": ["3", "2", "4", "11", "1", "2", "1", "11", "10", "10", "12", "10", "9"], "time": [1725, 2010, 2143, 2527, 2844, 2977, 3228, 4946, 5213, 5430, 6164, 6431, 6664]}, "edge": {"target": [], "time": []}}, "mouseout": {"state": {"target": ["6", "5", "3", "2", "4", "11", "1", "2", "1", "4", "11", "10", "10", "12", "10", "9"], "time": [642, 892, 1976, 2077, 2460, 2727, 2944, 3211, 3495, 4629, 5180, 5263, 5446, 6264, 6648, 6998]}, "edge": {"target": [], "time": []}}}, "displayed_time": "9.75", "trialTime": 11288, "trial_type": "mouselab-mdp", "trial_index": 43, "time_elapsed": 987503, "internal_node_id": "0.0-4.0-1.0-22.0"}}, {"uniqueid": "w98791412:a52229269", "current_trial": 44, "dateTime": 1664556150907, "trialdata": {"revealed_states": [], "num_clicks_accrued": [0, 0, 0, 0, 0, 0, 0, 0, 0, 0, 0, 0, 0], "stateRewards": ["", 2, -4, 48, -24, 4, -8, -24, 48, -2, -4, 24, -48], "withholdReward": true, "trial_id": "mdp_357328205509", "block": "test1", "trialIndex": 29, "score": 46.5, "costs": -2.5, "simulationMode": [null, null, null], "rewards": [4, -8, 48], "path": ["0", "0", "5", "6", "8"], "rt": [8694, 303, 55], "actions": ["right", "right", "down"], "actionTimes": [9375, 10174, 10727], "queries": {"click": {"state": {"target": ["4", "3", "7", "8", "2", "1", "6", "5", "11", "12"], "time": [1344, 1664, 1993, 2290, 4152, 4433, 4967, 5193, 7672, 7977]}, "edge": {"target": [], "time": []}}, "mouseover": {"state": {"target": ["1", "2", "4", "2", "3", "7", "6", "8", "0", "9", "11", "1", "2", "1", "5", "6", "5", "0", "0", "9", "11", "10", "12"], "time": [1012, 1079, 1246, 1463, 1579, 1863, 2163, 2247, 2681, 2714, 2831, 3381, 3765, 4332, 4682, 4849, 5116, 6685, 7068, 7318, 7619, 7785, 7919]}, "edge": {"target": [], "time": []}}, "mouseout": {"state": {"target": ["0", "1", "2", "4", "2", "3", "7", "6", "8", "0", "9", "11", "1", "7", "2", "1", "5", "6", "5", "0", "5", "0", "9", "11", "10", "12", "5"], "time": [962, 1046, 1146, 1463, 1513, 1830, 2130, 2214, 2597, 2697, 2781, 3315, 3398, 3548, 4282, 4599, 4716, 5066, 5467, 6768, 6884, 7102, 7485, 7752, 7852, 8153, 8586]}, "edge": {"target": [], "time": []}}}, "displayed_time": "11.22", "trialTime": 13268, "trial_type": "mouselab-mdp", "trial_index": 44, "time_elapsed": 1000824, "internal_node_id": "0.0-4.0-1.0-23.0"}}, {"uniqueid": "w98791412:a52229269", "current_trial": 45, "dateTime": 1664556162806, "trialdata": {"revealed_states": [], "num_clicks_accrued": [0, 0, 0, 0, 0, 0, 0, 0, 0, 0, 0, 0, 0], "stateRewards": ["", 2, 4, -48, -24, -4, 4, -24, 24, -2, -8, -24, 24], "withholdReward": true, "trial_id": "mdp_640720803523", "block": "test1", "trialIndex": 30, "score": 26.5, "costs": -2.5, "simulationMode": [null, null, null], "rewards": [-4, 4, 24], "path": ["0", "0", "5", "6", "8"], "rt": [7299, 172, 160], "actions": ["right", "right", "down"], "actionTimes": [8967, 9635, 10291], "queries": {"click": {"state": {"target": ["7", "8", "3", "4", "11", "12", "10", "9", "6", "5"], "time": [2640, 3527, 4183, 4408, 4935, 5152, 6144, 6607, 7489, 7655]}, "edge": {"target": [], "time": []}}, "mouseover": {"state": {"target": ["5", "7", "6", "6", "6", "8", "6", "3", "3", "2", "4", "11", "10", "12", "10", "9", "0", "9", "5", "6", "5"], "time": [2239, 2589, 2773, 3023, 3340, 3407, 3657, 3757, 4090, 4325, 4374, 4758, 5058, 5142, 6009, 6277, 6310, 6477, 7227, 7360, 7611]}, "edge": {"target": [], "time": []}}, "mouseout": {"state": {"target": ["5", "0", "5", "7", "6", "6", "6", "8", "6", "3", "3", "2", "4", "11", "10", "12", "10", "9", "0", "9", "5", "6", "5", "8"], "time": [1338, 2222, 2289, 2756, 2806, 3073, 3374, 3624, 3673, 3924, 4291, 4358, 4641, 5025, 5091, 5375, 6243, 6293, 6383, 6793, 7277, 7594, 7811, 7878]}, "edge": {"target": [], "time": []}}}, "displayed_time": "10.80", "trialTime": 11846, "trial_type": "mouselab-mdp", "trial_index": 45, "time_elapsed": 1012723, "internal_node_id": "0.0-4.0-1.0-24.0"}}, {"uniqueid": "w98791412:a52229269", "current_trial": 46, "dateTime": 1664556175334, "trialdata": {"revealed_states": [], "num_clicks_accrued": [0, 0, 0, 0, 0, 0, 0, 0, 0, 0, 0, 0, 0], "stateRewards": ["", 4, -8, -48, 48, -2, 8, -48, 48, -2, -4, 24, -48], "withholdReward": true, "trial_id": "mdp_400558136089", "block": "test1", "trialIndex": 31, "score": 56.5, "costs": -2.5, "simulationMode": [null, null, null], "rewards": [-2, 8, 48], "path": ["0", "0", "5", "6", "8"], "rt": [7723, 219, 108], "actions": ["right", "right", "down"], "actionTimes": [9005, 9711, 10317], "queries": {"click": {"state": {"target": ["11", "12", "7", "3", "4", "8", "6", "5", "2", "1"], "time": [2106, 2684, 3307, 4123, 4374, 5011, 6446, 6826, 7307, 7532]}, "edge": {"target": [], "time": []}}, "mouseover": {"state": {"target": ["1", "11", "10", "12", "12", "0", "5", "7", "6", "6", "3", "2", "4", "2", "1", "5", "8", "5", "6", "5", "1", "2", "1"], "time": [1767, 2000, 2250, 2300, 2618, 2901, 2918, 3018, 3435, 3668, 4019, 4269, 4370, 4569, 4619, 4686, 4903, 5354, 6004, 6738, 7072, 7139, 7489]}, "edge": {"target": [], "time": []}}, "mouseout": {"state": {"target": ["8", "1", "11", "10", "12", "12", "0", "5", "7", "6", "6", "3", "2", "4", "2", "1", "5", "8", "5", "6", "5", "1", "2", "1", "6"], "time": [999, 1783, 2234, 2284, 2317, 2868, 2918, 2934, 3418, 3485, 3702, 4236, 4302, 4498, 4586, 4636, 4719, 5303, 5454, 6689, 7005, 7105, 7455, 7706, 7806]}, "edge": {"target": [], "time": []}}}, "displayed_time": "10.81", "trialTime": 12473, "trial_type": "mouselab-mdp", "trial_index": 46, "time_elapsed": 1025250, "internal_node_id": "0.0-4.0-1.0-25.0"}}, {"uniqueid": "w98791412:a52229269", "current_trial": 47, "dateTime": 1664556186296, "trialdata": {"revealed_states": [], "num_clicks_accrued": [0, 0, 0, 0, 0, 0, 0, 0, 0, 0, 0, 0, 0], "stateRewards": ["", 4, -4, 48, 24, 2, -8, 24, -48, -2, -4, -48, -48], "withholdReward": false, "trial_id": "mdp_655302318695", "block": "test1", "trialIndex": 32, "score": 51.5, "costs": -1.5, "simulationMode": [null, null, null], "rewards": [4, -4, 48], "path": ["0", "0", "1", "2", "3"], "rt": [4702, 86, 128], "actions": ["up", "up", "right"], "actionTimes": [5361, 5946, 6572], "queries": {"click": {"state": {"target": ["4", "3", "2", "1", "7", "8"], "time": [1415, 1639, 2679, 2833, 3727, 4170]}, "edge": {"target": [], "time": []}}, "mouseover": {"state": {"target": ["1", "2", "4", "2", "3", "7", "2", "1", "7", "6", "8", "5"], "time": [1104, 1171, 1271, 1538, 1589, 2022, 2539, 2806, 3390, 3840, 4057, 4508]}, "edge": {"target": [], "time": []}}, "mouseout": {"state": {"target": ["6", "1", "2", "4", "2", "3", "7", "2", "1", "7", "6", "8", "5"], "time": [287, 1154, 1188, 1505, 1555, 1938, 2355, 2773, 3006, 3807, 3940, 4391, 4541]}, "edge": {"target": [], "time": []}}}, "displayed_time": "9.66", "trialTime": 10912, "trial_type": "mouselab-mdp", "trial_index": 47, "time_elapsed": 1036213, "internal_node_id": "0.0-4.0-1.0-26.0"}}, {"uniqueid": "w98791412:a52229269", "current_trial": 48, "dateTime": 1664556197039, "trialdata": {"revealed_states": [], "num_clicks_accrued": [0, 0, 0, 0, 0, 0, 0, 0, 0, 0, 0, 0, 0], "stateRewards": ["", -2, -4, -24, 48, -2, -8, -48, -24, 4, 8, 48, 24], "withholdReward": true, "trial_id": "mdp_625355871626", "block": "test1", "trialIndex": 33, "score": 63.25, "costs": -1.75, "simulationMode": [null, null, null], "rewards": [4, 8, 48], "path": ["0", "0", "9", "10", "11"], "rt": [5052, 90, 136], "actions": ["left", "left", "up"], "actionTimes": [6536, 7117, 7747], "queries": {"click": {"state": {"target": ["4", "3", "2", "1", "11", "10", "9"], "time": [2654, 2877, 3560, 3751, 4734, 5391, 5639]}, "edge": {"target": [], "time": []}}, "mouseover": {"state": {"target": ["0", "1", "4", "2", "4", "2", "3", "1", "2", "1", "0", "0", "9", "11", "10", "10", "9"], "time": [1738, 2038, 2172, 2422, 2589, 2789, 2839, 3173, 3456, 3707, 3973, 4441, 4474, 4657, 4891, 5325, 5559]}, "edge": {"target": [], "time": []}}, "mouseout": {"state": {"target": ["1", "0", "1", "4", "2", "4", "2", "3", "1", "2", "1", "0", "0", "9", "11", "10", "10", "9"], "time": [1221, 1988, 2088, 2389, 2539, 2772, 2806, 3139, 3206, 3673, 3924, 3994, 4457, 4507, 4858, 4941, 5509, 5842]}, "edge": {"target": [], "time": []}}}, "displayed_time": "9.48", "trialTime": 10694, "trial_type": "mouselab-mdp", "trial_index": 48, "time_elapsed": 1046956, "internal_node_id": "0.0-4.0-1.0-27.0"}}, {"uniqueid": "w98791412:a52229269", "current_trial": 49, "dateTime": 1664556206347, "trialdata": {"revealed_states": [], "num_clicks_accrued": [0, 0, 0, 0, 0, 0, 0, 0, 0, 0, 0, 0, 0], "stateRewards": ["", 2, 8, 24, -48, 4, 8, 24, 48, 2, -8, -24, 24], "withholdReward": true, "trial_id": "mdp_939899431582", "block": "test1", "trialIndex": 34, "score": 63, "costs": -2, "simulationMode": [null, null, null], "rewards": [4, 8, 48], "path": ["0", "0", "5", "6", "8"], "rt": [4905, 8, 119], "actions": ["right", "right", "down"], "actionTimes": [5688, 6191, 6819], "queries": {"click": {"state": {"target": ["4", "3", "7", "8", "12", "11", "6", "5"], "time": [1379, 1732, 2132, 2787, 3422, 4052, 4661, 4820]}, "edge": {"target": [], "time": []}}, "mouseover": {"state": {"target": ["1", "4", "2", "3", "7", "6", "8", "8", "12", "10", "11", "5", "6", "5"], "time": [1094, 1294, 1528, 1661, 2028, 2312, 2395, 2645, 3330, 3596, 3947, 4247, 4614, 4781]}, "edge": {"target": [], "time": []}}, "mouseout": {"state": {"target": ["0", "1", "4", "2", "3", "7", "6", "8", "8", "12", "10", "11", "5", "6", "5"], "time": [1044, 1144, 1511, 1562, 1961, 2295, 2379, 2412, 2963, 3580, 3663, 4180, 4280, 4747, 4931]}, "edge": {"target": [], "time": []}}}, "displayed_time": "8.78", "trialTime": 9247, "trial_type": "mouselab-mdp", "trial_index": 49, "time_elapsed": 1056264, "internal_node_id": "0.0-4.0-1.0-28.0"}}, {"uniqueid": "w98791412:a52229269", "current_trial": 50, "dateTime": 1664556217904, "trialdata": {"revealed_states": [], "num_clicks_accrued": [0, 0, 0, 0, 0, 0, 0, 0, 0, 0, 0, 0, 0], "stateRewards": ["", -4, -4, -24, -48, -4, 8, -24, -48, 4, -8, 24, -24], "withholdReward": true, "trial_id": "mdp_924927483179", "block": "test1", "trialIndex": 35, "score": 22, "costs": -3, "simulationMode": [null, null, null], "rewards": [4, -8, 24], "path": ["0", "0", "9", "10", "11"], "rt": [6822, 14, 30], "actions": ["left", "left", "up"], "actionTimes": [8188, 8711, 9244], "queries": {"click": {"state": {"target": ["7", "8", "3", "4", "11", "12", "10", "9", "1", "2", "5", "6"], "time": [2171, 2450, 2850, 3314, 3682, 4299, 4777, 4971, 6306, 6514, 7035, 7210]}, "edge": {"target": [], "time": []}}, "mouseover": {"state": {"target": ["1", "7", "6", "8", "6", "3", "2", "4", "11", "10", "12", "10", "9", "0", "1", "2", "5", "6", "0"], "time": [1873, 2040, 2290, 2356, 2607, 2707, 3024, 3074, 3608, 3841, 4258, 4642, 4925, 5226, 6026, 6444, 6877, 7161, 7412]}, "edge": {"target": [], "time": []}}, "mouseout": {"state": {"target": ["6", "5", "5", "1", "7", "6", "8", "6", "3", "2", "4", "11", "10", "12", "10", "9", "0", "1", "2", "1", "5", "6", "5", "0"], "time": [771, 838, 955, 1906, 2273, 2323, 2573, 2640, 2990, 3040, 3541, 3808, 3891, 4525, 4875, 5176, 5509, 6410, 6660, 6711, 7128, 7361, 7411, 7428]}, "edge": {"target": [], "time": []}}}, "displayed_time": "10.37", "trialTime": 11506, "trial_type": "mouselab-mdp", "trial_index": 50, "time_elapsed": 1067821, "internal_node_id": "0.0-4.0-1.0-29.0"}}, {"uniqueid": "w98791412:a52229269", "current_trial": 51, "dateTime": 1664556224005, "trialdata": {"rt": 6098, "stimulus": "<h1> End of block! </h1>\n\nYou have reached the end of the block 1/4. If you need a short break, feel free to take one now before moving on.\n\n<br><br>\nIn the next block, you will complete another 30 rounds of this game.\n\n<br><br>\n<div style='text-align: center;'>Press <code>space</code> to begin.</div>\n<br><br>\n<div style='text-align: center;'>(If the experiment doesn't continue, try clicking on the text and then pressing <code>space</code>.)</div>", "response": " ", "trial_id": "mdp_ready_2", "trial_type": "html-keyboard-response", "trial_index": 51, "time_elapsed": 1073922, "internal_node_id": "0.0-4.0-2.0"}}, {"uniqueid": "w98791412:a52229269", "current_trial": 52, "dateTime": 1664556235197, "trialdata": {"revealed_states": [], "num_clicks_accrued": [0, 0, 0, 0, 0, 0, 0, 0, 0, 0, 0, 0, 0], "stateRewards": ["", 4, -8, -24, 24, 2, -4, 24, 24, 2, -4, 48, 48], "withholdReward": false, "trial_id": "mdp_457607480918", "block": "test2", "trialIndex": 36, "score": 49, "costs": -2, "simulationMode": [null, null, null], "rewards": [2, -4, 48], "path": ["0", "0", "9", "10", "11"], "rt": [5119, 118, 121], "actions": ["left", "left", "up"], "actionTimes": [6814, 7424, 8044], "queries": {"click": {"state": {"target": ["4", "3", "7", "8", "11", "12", "10", "9"], "time": [2593, 2856, 3129, 3752, 4881, 5105, 5785, 5937]}, "edge": {"target": [], "time": []}}, "mouseover": {"state": {"target": ["1", "4", "2", "3", "7", "8", "0", "11", "10", "12", "10", "9"], "time": [2217, 2500, 2718, 2784, 3051, 3618, 4335, 4635, 5003, 5069, 5553, 5904]}, "edge": {"target": [], "time": []}}, "mouseout": {"state": {"target": ["2", "3", "1", "4", "2", "3", "7", "8", "0", "11", "10", "12", "10", "9"], "time": [968, 1032, 2317, 2701, 2751, 2984, 3267, 4235, 4385, 4969, 5036, 5370, 5870, 6104]}, "edge": {"target": [], "time": []}}}, "displayed_time": "9.70", "trialTime": 11143, "trial_type": "mouselab-mdp", "trial_index": 52, "time_elapsed": 1085114, "internal_node_id": "0.0-4.0-3.0-0.0"}}, {"uniqueid": "w98791412:a52229269", "current_trial": 53, "dateTime": 1664556244634, "trialdata": {"revealed_states": [], "num_clicks_accrued": [0, 0, 0, 0, 0, 0, 0, 0, 0, 0, 0, 0, 0], "stateRewards": ["", -2, 8, 48, 48, 4, -8, -48, 48, 2, -4, -48, 48], "withholdReward": false, "trial_id": "mdp_132958048709", "block": "test2", "trialIndex": 37, "score": 58.25, "costs": -0.75, "simulationMode": [null, null, null], "rewards": [-2, 8, 48], "path": ["0", "0", "1", "2", "4"], "rt": [2467, 80, 117], "actions": ["up", "up", "left"], "actionTimes": [3433, 4015, 4619], "queries": {"click": {"state": {"target": ["4", "2", "1"], "time": [1349, 2150, 2351]}, "edge": {"target": [], "time": []}}, "mouseover": {"state": {"target": ["1", "4", "2", "3", "2", "1"], "time": [1098, 1165, 1515, 1598, 2100, 2316]}, "edge": {"target": [], "time": []}}, "mouseout": {"state": {"target": ["0", "1", "4", "2", "3", "2", "1", "5", "5"], "time": [748, 1115, 1482, 1549, 2066, 2283, 2549, 6237, 7521]}, "edge": {"target": [], "time": []}}}, "displayed_time": "8.97", "trialTime": 9384, "trial_type": "mouselab-mdp", "trial_index": 53, "time_elapsed": 1094551, "internal_node_id": "0.0-4.0-3.0-1.0"}}, {"uniqueid": "w98791412:a52229269", "current_trial": 54, "dateTime": 1664556254412, "trialdata": {"revealed_states": [], "num_clicks_accrued": [0, 0, 0, 0, 0, 0, 0, 0, 0, 0, 0, 0, 0], "stateRewards": ["", -2, -4, -24, 24, -2, 4, -24, -24, -4, 4, 24, -24], "withholdReward": true, "trial_id": "mdp_999419261719", "block": "test2", "trialIndex": 38, "score": 26.5, "costs": -2.5, "simulationMode": [null, null, null], "rewards": [-4, 4, 24], "path": ["0", "0", "9", "10", "11"], "rt": [5009, 42, 328], "actions": ["left", "left", "up"], "actionTimes": [5684, 6214, 7033], "queries": {"click": {"state": {"target": ["4", "3", "7", "8", "11", "12", "10", "9", "1", "2"], "time": [1205, 1629, 1933, 2236, 2742, 2950, 3669, 3805, 4437, 4622]}, "edge": {"target": [], "time": []}}, "mouseover": {"state": {"target": ["1", "4", "2", "3", "3", "7", "6", "8", "9", "11", "10", "12", "10", "9", "1", "2"], "time": [966, 1083, 1316, 1350, 1583, 1800, 2134, 2201, 2518, 2618, 2851, 2918, 3502, 3752, 4286, 4570]}, "edge": {"target": [], "time": []}}, "mouseout": {"state": {"target": ["0", "1", "4", "2", "3", "3", "7", "6", "8", "9", "11", "10", "12", "10", "9", "1", "2", "1"], "time": [900, 999, 1300, 1333, 1367, 1750, 2101, 2167, 2418, 2551, 2835, 2885, 3168, 3717, 4219, 4517, 4803, 4887]}, "edge": {"target": [], "time": []}}}, "displayed_time": "8.68", "trialTime": 9722, "trial_type": "mouselab-mdp", "trial_index": 54, "time_elapsed": 1104329, "internal_node_id": "0.0-4.0-3.0-2.0"}}, {"uniqueid": "w98791412:a52229269", "current_trial": 55, "dateTime": 1664556265106, "trialdata": {"revealed_states": [], "num_clicks_accrued": [0, 0, 0, 0, 0, 0, 0, 0, 0, 0, 0, 0, 0], "stateRewards": ["", -2, 8, 48, 24, 2, -4, 48, -48, 2, 8, 24, -24], "withholdReward": true, "trial_id": "mdp_176207245985", "block": "test2", "trialIndex": 39, "score": 57.25, "costs": -1.75, "simulationMode": [null, null, null], "rewards": [-2, 8, 48], "path": ["0", "0", "1", "2", "3"], "rt": [4346, 27, 24], "actions": ["up", "up", "right"], "actionTimes": [5032, 5550, 6064], "queries": {"click": {"state": {"target": ["4", "3", "7", "8", "6", "2", "1"], "time": [1041, 1352, 1687, 2054, 3159, 3623, 4047]}, "edge": {"target": [], "time": []}}, "mouseover": {"state": {"target": ["1", "4", "2", "3", "7", "6", "8", "5", "6", "6", "2", "1", "5"], "time": [802, 868, 1169, 1219, 1569, 1870, 1953, 2370, 2787, 2971, 3487, 4005, 4272]}, "edge": {"target": [], "time": []}}, "mouseout": {"state": {"target": ["0", "1", "1", "1", "4", "2", "3", "7", "6", "8", "5", "6", "6", "2", "1", "5"], "time": [235, 384, 485, 818, 1152, 1185, 1519, 1853, 1919, 2236, 2387, 2820, 3321, 3871, 4188, 9176]}, "edge": {"target": [], "time": []}}}, "displayed_time": "8.69", "trialTime": 10641, "trial_type": "mouselab-mdp", "trial_index": 55, "time_elapsed": 1115022, "internal_node_id": "0.0-4.0-3.0-3.0"}}, {"uniqueid": "w98791412:a52229269", "current_trial": 56, "dateTime": 1664556276665, "trialdata": {"revealed_states": [], "num_clicks_accrued": [0, 0, 0, 0, 0, 0, 0, 0, 0, 0, 0, 0, 0], "stateRewards": ["", -2, -8, 48, 24, 2, 4, 24, -24, -2, -4, 48, -48], "withholdReward": false, "trial_id": "mdp_411152402386", "block": "test2", "trialIndex": 40, "score": 44.5, "costs": -2.5, "simulationMode": [null, null, null], "rewards": [-2, -4, 48], "path": ["0", "0", "9", "10", "11"], "rt": [5758, 13, 34], "actions": ["left", "left", "up"], "actionTimes": [6780, 7284, 7822], "queries": {"click": {"state": {"target": ["3", "4", "2", "1", "7", "8", "11", "12", "10", "9"], "time": [1716, 1996, 2620, 2822, 3324, 3798, 4292, 4892, 5125, 5308]}, "edge": {"target": [], "time": []}}, "mouseover": {"state": {"target": ["1", "2", "3", "2", "4", "2", "1", "7", "6", "8", "0", "9", "11", "10", "12", "10", "9"], "time": [1348, 1498, 1632, 1865, 1915, 2516, 2783, 3267, 3533, 3750, 4051, 4084, 4167, 4435, 4818, 5035, 5252]}, "edge": {"target": [], "time": []}}, "mouseout": {"state": {"target": ["0", "0", "1", "2", "3", "2", "4", "2", "1", "7", "6", "8", "0", "9", "11", "10", "12", "10", "9", "1"], "time": [380, 1298, 1415, 1548, 1832, 1899, 2165, 2733, 3016, 3500, 3617, 3951, 4067, 4134, 4418, 4451, 4985, 5235, 5686, 5769]}, "edge": {"target": [], "time": []}}}, "displayed_time": "10.02", "trialTime": 11502, "trial_type": "mouselab-mdp", "trial_index": 56, "time_elapsed": 1126581, "internal_node_id": "0.0-4.0-3.0-4.0"}}, {"uniqueid": "w98791412:a52229269", "current_trial": 57, "dateTime": 1664556290834, "trialdata": {"revealed_states": [], "num_clicks_accrued": [0, 0, 0, 0, 0, 0, 0, 0, 0, 0, 0, 0, 0], "stateRewards": ["", -2, 8, -48, 48, -4, 8, -24, 24, 4, -4, 24, -48], "withholdReward": false, "trial_id": "mdp_904238083902", "block": "test2", "trialIndex": 41, "score": 57, "costs": -2, "simulationMode": [null, null, null], "rewards": [-2, 8, 48], "path": ["0", "0", "1", "2", "4"], "rt": [5547, 55, 18], "actions": ["up", "up", "left"], "actionTimes": [7180, 7730, 8244], "queries": {"click": {"state": {"target": ["4", "3", "2", "1", "11", "12", "7", "8"], "time": [2224, 2470, 3359, 3513, 3920, 4161, 4792, 5279]}, "edge": {"target": [], "time": []}}, "mouseover": {"state": {"target": ["1", "4", "2", "3", "7", "2", "1", "11", "10", "12", "0", "5", "7", "6", "8", "5"], "time": [1919, 2103, 2353, 2403, 2920, 3271, 3471, 3771, 4038, 4155, 4455, 4522, 4655, 4922, 5206, 5506]}, "edge": {"target": [], "time": []}}, "mouseout": {"state": {"target": ["1", "4", "2", "3", "7", "2", "1", "11", "10", "12", "0", "5", "7", "6", "8", "5", "1", "7"], "time": [1969, 2337, 2387, 2637, 3087, 3455, 3655, 4005, 4088, 4339, 4489, 4589, 4906, 4956, 5473, 5557, 6090, 11829]}, "edge": {"target": [], "time": []}}}, "displayed_time": "10.63", "trialTime": 14114, "trial_type": "mouselab-mdp", "trial_index": 57, "time_elapsed": 1140751, "internal_node_id": "0.0-4.0-3.0-5.0"}}, {"uniqueid": "w98791412:a52229269", "current_trial": 58, "dateTime": 1664556308869, "trialdata": {"revealed_states": [], "num_clicks_accrued": [0, 0, 0, 0, 0, 0, 0, 0, 0, 0, 0, 0, 0], "stateRewards": ["", -2, -8, 48, 24, -2, 8, -48, -24, -2, 4, -48, 48], "withholdReward": true, "trial_id": "mdp_295220852217", "block": "test2", "trialIndex": 42, "score": 52.5, "costs": -2.5, "simulationMode": [null, null, null], "rewards": [-2, 4, 48], "path": ["0", "0", "9", "10", "12"], "rt": [8985, 49, 17], "actions": ["left", "left", "down"], "actionTimes": [9762, 10300, 10835], "queries": {"click": {"state": {"target": ["4", "3", "7", "8", "11", "12", "9", "1", "2", "10"], "time": [2032, 2993, 3273, 3673, 4368, 4555, 6090, 7153, 7601, 8081]}, "edge": {"target": [], "time": []}}, "mouseover": {"state": {"target": ["1", "4", "2", "2", "2", "4", "2", "3", "7", "3", "7", "6", "8", "5", "11", "10", "12", "1", "2", "9", "9", "1", "10", "1", "2", "10"], "time": [924, 991, 1291, 1708, 1875, 1942, 2192, 2576, 2759, 2959, 3160, 3476, 3543, 3994, 4294, 4478, 4553, 4811, 4961, 5729, 5979, 6263, 6796, 7047, 7480, 7914]}, "edge": {"target": [], "time": []}}, "mouseout": {"state": {"target": ["7", "5", "1", "4", "2", "2", "2", "4", "2", "3", "7", "3", "7", "6", "8", "5", "11", "10", "12", "1", "2", "9", "9", "1", "11", "10", "1", "2", "10"], "time": [356, 473, 941, 1258, 1441, 1758, 1925, 2159, 2259, 2642, 2893, 3110, 3426, 3510, 3927, 4027, 4461, 4511, 4562, 4828, 5579, 5762, 6196, 6429, 6529, 6963, 7364, 7731, 8504]}, "edge": {"target": [], "time": []}}}, "displayed_time": "11.33", "trialTime": 17975, "trial_type": "mouselab-mdp", "trial_index": 58, "time_elapsed": 1158786, "internal_node_id": "0.0-4.0-3.0-6.0"}}, {"uniqueid": "w98791412:a52229269", "current_trial": 59, "dateTime": 1664556319054, "trialdata": {"revealed_states": [], "num_clicks_accrued": [0, 0, 0, 0, 0, 0, 0, 0, 0, 0, 0, 0, 0], "stateRewards": ["", -4, -8, 48, 24, 4, -8, 24, -48, -2, -8, 24, -48], "withholdReward": true, "trial_id": "mdp_952038635544", "block": "test2", "trialIndex": 43, "score": 39, "costs": -2, "simulationMode": [null, null, null], "rewards": [-4, -8, 48], "path": ["0", "0", "1", "2", "3"], "rt": [5169, 108, 90], "actions": ["up", "up", "right"], "actionTimes": [6408, 7015, 7597], "queries": {"click": {"state": {"target": ["3", "4", "2", "1", "7", "8", "11", "12"], "time": [2119, 2441, 3000, 3529, 4048, 4384, 4927, 5137]}, "edge": {"target": [], "time": []}}, "mouseover": {"state": {"target": ["1", "3", "2", "4", "2", "1", "7", "6", "8", "0", "9", "11", "10", "12", "0"], "time": [1785, 2018, 2269, 2352, 2903, 3187, 3887, 4237, 4337, 4638, 4688, 4838, 5038, 5121, 5372]}, "edge": {"target": [], "time": []}}, "mouseout": {"state": {"target": ["9", "0", "1", "3", "2", "4", "2", "1", "7", "6", "8", "0", "9", "11", "10", "12", "0"], "time": [1017, 1601, 1868, 2252, 2302, 2686, 3103, 3703, 4204, 4287, 4571, 4671, 4721, 5022, 5088, 5288, 5405]}, "edge": {"target": [], "time": []}}}, "displayed_time": "9.24", "trialTime": 10119, "trial_type": "mouselab-mdp", "trial_index": 59, "time_elapsed": 1168971, "internal_node_id": "0.0-4.0-3.0-7.0"}}, {"uniqueid": "w98791412:a52229269", "current_trial": 60, "dateTime": 1664556337013, "trialdata": {"revealed_states": [], "num_clicks_accrued": [0, 0, 0, 0, 0, 0, 0, 0, 0, 0, 0, 0, 0], "stateRewards": ["", 4, 4, 48, -48, -2, -8, -48, -24, 2, 4, -24, -48], "withholdReward": true, "trial_id": "mdp_239929662917", "block": "test2", "trialIndex": 44, "score": 59, "costs": -2, "simulationMode": [null, null, null], "rewards": [4, 4, 48], "path": ["0", "0", "1", "2", "3"], "rt": [11392, 40, 41], "actions": ["up", "up", "right"], "actionTimes": [13996, 14525, 15060], "queries": {"click": {"state": {"target": ["4", "3", "7", "8", "11", "12", "2", "1"], "time": [3370, 3684, 11514, 11778, 12394, 12591, 13179, 13348]}, "edge": {"target": [], "time": []}}, "mouseover": {"state": {"target": ["1", "2", "4", "2", "3", "1", "7", "6", "8", "0", "11", "10", "12", "9", "1", "2", "1"], "time": [2973, 3073, 3290, 3523, 3591, 4775, 11381, 11665, 11748, 12065, 12349, 12516, 12589, 12800, 12916, 13083, 13316]}, "edge": {"target": [], "time": []}}, "mouseout": {"state": {"target": ["1", "0", "0", "1", "2", "4", "2", "3", "1", "7", "6", "8", "0", "11", "10", "12", "9", "1", "2"], "time": [1822, 2022, 2889, 2990, 3190, 3474, 3557, 4274, 11265, 11648, 11698, 11949, 12082, 12482, 12533, 12683, 12816, 13016, 13250]}, "edge": {"target": [], "time": []}}}, "displayed_time": "15.57", "trialTime": 17905, "trial_type": "mouselab-mdp", "trial_index": 60, "time_elapsed": 1186930, "internal_node_id": "0.0-4.0-3.0-8.0"}}, {"uniqueid": "w98791412:a52229269", "current_trial": 61, "dateTime": 1664556348002, "trialdata": {"revealed_states": [], "num_clicks_accrued": [0, 0, 0, 0, 0, 0, 0, 0, 0, 0, 0, 0, 0], "stateRewards": ["", -4, 8, -24, 24, -2, -8, 24, -24, 4, -4, -48, 48], "withholdReward": true, "trial_id": "mdp_297684722007", "block": "test2", "trialIndex": 45, "score": 51, "costs": -2, "simulationMode": [null, null, null], "rewards": [4, -4, 48], "path": ["0", "0", "9", "10", "12"], "rt": [4852, 63, 127], "actions": ["left", "left", "down"], "actionTimes": [6489, 7049, 7664], "queries": {"click": {"state": {"target": ["4", "3", "7", "8", "11", "12", "9", "10"], "time": [2316, 2603, 3036, 3317, 3891, 4130, 5102, 5644]}, "edge": {"target": [], "time": []}}, "mouseover": {"state": {"target": ["1", "2", "4", "2", "3", "7", "6", "8", "0", "9", "11", "10", "12", "0", "9", "9", "10"], "time": [1981, 2065, 2248, 2481, 2548, 2982, 3215, 3282, 3565, 3616, 3783, 4033, 4104, 4767, 4800, 5017, 5568]}, "edge": {"target": [], "time": []}}, "mouseout": {"state": {"target": ["1", "1", "2", "4", "2", "3", "7", "6", "8", "0", "9", "11", "10", "12", "0", "9", "9", "10"], "time": [1380, 2031, 2198, 2448, 2515, 2798, 3182, 3249, 3482, 3582, 3666, 3999, 4066, 4250, 4783, 4817, 5184, 5768]}, "edge": {"target": [], "time": []}}}, "displayed_time": "9.64", "trialTime": 10935, "trial_type": "mouselab-mdp", "trial_index": 61, "time_elapsed": 1197919, "internal_node_id": "0.0-4.0-3.0-9.0"}}, {"uniqueid": "w98791412:a52229269", "current_trial": 62, "dateTime": 1664556367249, "trialdata": {"revealed_states": [], "num_clicks_accrued": [0, 0, 0, 0, 0, 0, 0, 0, 0, 0, 0, 0, 0], "stateRewards": ["", -2, 8, -24, 24, 2, -8, 48, -24, 2, 8, -24, -24], "withholdReward": true, "trial_id": "mdp_674708270444", "block": "test2", "trialIndex": 46, "score": 45, "costs": -2, "simulationMode": [null, null, null], "rewards": [2, -8, 48], "path": ["0", "0", "5", "6", "7"], "rt": [5324, 93, 154], "actions": ["right", "right", "up"], "actionTimes": [13719, 14304, 14949], "queries": {"click": {"state": {"target": ["3", "4", "11", "7", "8", "6", "5", "12"], "time": [9283, 9595, 9898, 11043, 11364, 11946, 12114, 12861]}, "edge": {"target": [], "time": []}}, "mouseover": {"state": {"target": ["1", "3", "2", "4", "11", "10", "0", "5", "7", "6", "8", "5", "6", "5", "12"], "time": [9072, 9139, 9439, 9473, 9789, 10040, 10390, 10457, 10907, 11191, 11274, 11741, 11775, 12075, 12809]}, "edge": {"target": [], "time": []}}, "mouseout": {"state": {"target": ["9", "0", "0", "1", "3", "2", "4", "11", "10", "0", "5", "7", "6", "8", "5", "6", "5", "12"], "time": [7888, 8021, 9005, 9089, 9406, 9456, 9739, 10006, 10090, 10424, 10540, 11157, 11241, 11575, 11758, 12042, 12275, 12960]}, "edge": {"target": [], "time": []}}}, "displayed_time": "17.40", "trialTime": 19188, "trial_type": "mouselab-mdp", "trial_index": 62, "time_elapsed": 1217166, "internal_node_id": "0.0-4.0-3.0-10.0"}}, {"uniqueid": "w98791412:a52229269", "current_trial": 63, "dateTime": 1664556386083, "trialdata": {"revealed_states": [], "num_clicks_accrued": [0, 0, 0, 0, 0, 0, 0, 0, 0, 0, 0, 0, 0], "stateRewards": ["", 2, -4, -48, 24, 4, 4, 48, -48, -2, -4, -24, -48], "withholdReward": true, "trial_id": "mdp_858916930936", "block": "test2", "trialIndex": 47, "score": 59, "costs": -2, "simulationMode": [null, null, null], "rewards": [4, 4, 48], "path": ["0", "0", "5", "6", "7"], "rt": [12738, 286, 42], "actions": ["right", "right", "up"], "actionTimes": [13569, 14353, 14893], "queries": {"click": {"state": {"target": ["7", "8", "4", "3", "11", "12", "6", "5"], "time": [9620, 9887, 10756, 11244, 11749, 12022, 12526, 12726]}, "edge": {"target": [], "time": []}}, "mouseover": {"state": {"target": ["5", "7", "6", "8", "3", "2", "4", "2", "3", "2", "11", "10", "12", "6", "5"], "time": [9212, 9512, 9762, 9829, 10130, 10496, 10547, 10881, 11164, 11414, 11631, 11898, 11965, 12365, 12715]}, "edge": {"target": [], "time": []}}, "mouseout": {"state": {"target": ["5", "0", "5", "7", "6", "8", "3", "2", "4", "2", "3", "2", "11", "10", "12", "6", "5"], "time": [620, 1237, 9412, 9729, 9796, 9996, 10146, 10530, 10864, 10914, 11381, 11464, 11864, 11931, 12181, 12666, 12882]}, "edge": {"target": [], "time": []}}}, "displayed_time": "15.40", "trialTime": 18777, "trial_type": "mouselab-mdp", "trial_index": 63, "time_elapsed": 1236000, "internal_node_id": "0.0-4.0-3.0-11.0"}}, {"uniqueid": "w98791412:a52229269", "current_trial": 64, "dateTime": 1664556400359, "trialdata": {"revealed_states": [], "num_clicks_accrued": [0, 0, 0, 0, 0, 0, 0, 0, 0, 0, 0, 0, 0], "stateRewards": ["", -2, -4, -48, -48, -2, -8, 48, -48, 4, -8, -48, 24], "withholdReward": true, "trial_id": "mdp_468495641521", "block": "test2", "trialIndex": 48, "score": 41, "costs": -2, "simulationMode": [null, null, null], "rewards": [-2, -8, 48], "path": ["0", "0", "5", "6", "7"], "rt": [4924, 135, 106], "actions": ["right", "right", "up"], "actionTimes": [8916, 9548, 10153], "queries": {"click": {"state": {"target": ["4", "3", "7", "8", "11", "12", "6", "5"], "time": [4737, 4995, 5529, 5794, 6425, 6714, 7625, 7787]}, "edge": {"target": [], "time": []}}, "mouseover": {"state": {"target": ["1", "4", "2", "3", "7", "6", "8", "11", "10", "12", "5", "6", "5"], "time": [4474, 4674, 4858, 4941, 5475, 5692, 5742, 6242, 6576, 6676, 7394, 7560, 7744]}, "edge": {"target": [], "time": []}}, "mouseout": {"state": {"target": ["5", "1", "4", "2", "3", "7", "6", "8", "11", "10", "12", "5", "6", "5", "6", "8"], "time": [3590, 4524, 4841, 4874, 5191, 5642, 5725, 6075, 6559, 6609, 6893, 7410, 7727, 7927, 7995, 12932]}, "edge": {"target": [], "time": []}}}, "displayed_time": "12.99", "trialTime": 14218, "trial_type": "mouselab-mdp", "trial_index": 64, "time_elapsed": 1250276, "internal_node_id": "0.0-4.0-3.0-12.0"}}, {"uniqueid": "w98791412:a52229269", "current_trial": 65, "dateTime": 1664556410263, "trialdata": {"revealed_states": [], "num_clicks_accrued": [0, 0, 0, 0, 0, 0, 0, 0, 0, 0, 0, 0, 0], "stateRewards": ["", -2, -8, 48, -24, 2, -4, -48, -24, -2, -4, -48, 48], "withholdReward": true, "trial_id": "mdp_143798438087", "block": "test2", "trialIndex": 49, "score": 44.5, "costs": -2.5, "simulationMode": [null, null, null], "rewards": [-2, -4, 48], "path": ["0", "0", "9", "10", "12"], "rt": [5214, 57, 62], "actions": ["left", "left", "down"], "actionTimes": [6374, 6917, 7473], "queries": {"click": {"state": {"target": ["4", "3", "7", "8", "11", "2", "1", "12", "9", "10"], "time": [1576, 1808, 2064, 2322, 2816, 3617, 3793, 4346, 5080, 5242]}, "edge": {"target": [], "time": []}}, "mouseover": {"state": {"target": ["1", "4", "2", "3", "7", "6", "8", "0", "9", "11", "10", "12", "9", "1", "2", "1", "9", "12", "12", "9", "10"], "time": [1271, 1404, 1688, 1738, 2004, 2238, 2305, 2555, 2588, 2672, 2922, 3007, 3155, 3206, 3456, 3773, 3974, 4023, 4240, 4941, 5208]}, "edge": {"target": [], "time": []}}, "mouseout": {"state": {"target": ["0", "1", "1", "4", "2", "3", "7", "6", "8", "0", "9", "11", "10", "12", "9", "1", "2", "1", "9", "12", "12", "9", "10", "9"], "time": [737, 1003, 1287, 1671, 1721, 1955, 2205, 2271, 2488, 2572, 2606, 2906, 2955, 3106, 3172, 3222, 3740, 3940, 3990, 4057, 4490, 5174, 5375, 5408]}, "edge": {"target": [], "time": []}}}, "displayed_time": "9.16", "trialTime": 9840, "trial_type": "mouselab-mdp", "trial_index": 65, "time_elapsed": 1260179, "internal_node_id": "0.0-4.0-3.0-13.0"}}, {"uniqueid": "w98791412:a52229269", "current_trial": 66, "dateTime": 1664556420082, "trialdata": {"revealed_states": [], "num_clicks_accrued": [0, 0, 0, 0, 0, 0, 0, 0, 0, 0, 0, 0, 0], "stateRewards": ["", 4, -4, 48, -48, 4, -4, 24, -24, 4, 8, -24, -48], "withholdReward": false, "trial_id": "mdp_433630527224", "block": "test2", "trialIndex": 50, "score": 51, "costs": -2, "simulationMode": [null, null, null], "rewards": [4, -4, 48], "path": ["0", "0", "1", "2", "3"], "rt": [4273, 20, 320], "actions": ["up", "up", "right"], "actionTimes": [4692, 5208, 6025], "queries": {"click": {"state": {"target": ["3", "4", "7", "8", "11", "12", "2", "1"], "time": [887, 1103, 1687, 1959, 2807, 3136, 3670, 3871]}, "edge": {"target": [], "time": []}}, "mouseover": {"state": {"target": ["3", "2", "4", "7", "6", "8", "5", "11", "11", "10", "12", "9", "1", "2", "1"], "time": [816, 1016, 1083, 1617, 1850, 1917, 2117, 2217, 2501, 2968, 3018, 3369, 3435, 3619, 3819]}, "edge": {"target": [], "time": []}}, "mouseout": {"state": {"target": ["0", "3", "2", "4", "7", "6", "8", "5", "11", "11", "10", "12", "9", "1", "2", "1", "7", "0"], "time": [549, 983, 1050, 1283, 1817, 1884, 2101, 2134, 2351, 2935, 3002, 3318, 3385, 3502, 3769, 4019, 4070, 8607]}, "edge": {"target": [], "time": []}}}, "displayed_time": "9.42", "trialTime": 9763, "trial_type": "mouselab-mdp", "trial_index": 66, "time_elapsed": 1269999, "internal_node_id": "0.0-4.0-3.0-14.0"}}, {"uniqueid": "w98791412:a52229269", "current_trial": 67, "dateTime": 1664556429527, "trialdata": {"revealed_states": [], "num_clicks_accrued": [0, 0, 0, 0, 0, 0, 0, 0, 0, 0, 0, 0, 0], "stateRewards": ["", -2, -4, -24, -24, 4, 8, 24, 24, -2, 8, 48, 48], "withholdReward": true, "trial_id": "mdp_620787912291", "block": "test2", "trialIndex": 51, "score": 57, "costs": -2, "simulationMode": [null, null, null], "rewards": [-2, 8, 48], "path": ["0", "0", "9", "10", "11"], "rt": [5014, 433, 31], "actions": ["left", "left", "up"], "actionTimes": [5664, 6592, 7124], "queries": {"click": {"state": {"target": ["4", "3", "7", "8", "12", "11", "10", "9"], "time": [1287, 1512, 1785, 2071, 2809, 3920, 4448, 4706]}, "edge": {"target": [], "time": []}}, "mouseover": {"state": {"target": ["1", "2", "4", "2", "3", "7", "6", "8", "5", "11", "11", "10", "12", "10", "11", "11", "11", "11", "10", "11", "10", "9"], "time": [936, 1036, 1186, 1403, 1437, 1704, 1937, 2004, 2271, 2404, 2656, 2721, 2807, 2955, 3038, 3239, 3422, 3606, 3706, 3839, 4106, 4607]}, "edge": {"target": [], "time": []}}, "mouseout": {"state": {"target": ["0", "1", "2", "4", "2", "3", "7", "6", "8", "5", "11", "11", "10", "12", "10", "11", "11", "11", "11", "10", "11", "10", "9"], "time": [535, 986, 1070, 1370, 1420, 1654, 1904, 1987, 2254, 2288, 2554, 2704, 2755, 2922, 3005, 3055, 3272, 3455, 3655, 3823, 4072, 4556, 4957]}, "edge": {"target": [], "time": []}}}, "displayed_time": "8.65", "trialTime": 9385, "trial_type": "mouselab-mdp", "trial_index": 67, "time_elapsed": 1279444, "internal_node_id": "0.0-4.0-3.0-15.0"}}, {"uniqueid": "w98791412:a52229269", "current_trial": 68, "dateTime": 1664556441281, "trialdata": {"revealed_states": [], "num_clicks_accrued": [0, 0, 0, 0, 0, 0, 0, 0, 0, 0, 0, 0, 0], "stateRewards": ["", -2, -8, -24, 24, -2, -8, -48, 24, -2, -8, 24, 24], "withholdReward": true, "trial_id": "mdp_336617436097", "block": "test2", "trialIndex": 52, "score": 16, "costs": -3, "simulationMode": [null, null, null], "rewards": [-2, -8, 24], "path": ["0", "0", "9", "10", "11"], "rt": [7607, 40, 26], "actions": ["left", "left", "up"], "actionTimes": [8179, 8719, 9255], "queries": {"click": {"state": {"target": ["4", "3", "7", "8", "11", "12", "10", "9", "2", "1", "6", "5"], "time": [1223, 1598, 1918, 2206, 2678, 3254, 4230, 4392, 5040, 5486, 6261, 6750]}, "edge": {"target": [], "time": []}}, "mouseover": {"state": {"target": ["2", "4", "2", "3", "7", "6", "8", "0", "9", "11", "10", "12", "9", "10", "9", "1", "2", "1", "1", "5", "5", "6", "5"], "time": [1020, 1154, 1371, 1421, 1804, 2071, 2155, 2422, 2455, 2555, 2805, 3172, 3773, 4157, 4340, 4690, 4924, 5191, 5391, 5675, 5942, 6209, 6693]}, "edge": {"target": [], "time": []}}, "mouseout": {"state": {"target": ["0", "2", "4", "2", "3", "7", "6", "8", "0", "9", "11", "10", "12", "9", "10", "9", "1", "2", "1", "1", "5", "5", "6", "5"], "time": [469, 1087, 1354, 1404, 1754, 2038, 2105, 2355, 2438, 2472, 2789, 2822, 3556, 4124, 4324, 4607, 4757, 5157, 5208, 5608, 5708, 6158, 6425, 6860]}, "edge": {"target": [], "time": []}}}, "displayed_time": "9.75", "trialTime": 11696, "trial_type": "mouselab-mdp", "trial_index": 68, "time_elapsed": 1291198, "internal_node_id": "0.0-4.0-3.0-16.0"}}, {"uniqueid": "w98791412:a52229269", "current_trial": 69, "dateTime": 1664556451678, "trialdata": {"revealed_states": [], "num_clicks_accrued": [0, 0, 0, 0, 0, 0, 0, 0, 0, 0, 0, 0, 0], "stateRewards": ["", -2, 8, 24, -48, -4, -8, -24, -48, -4, 8, -24, 48], "withholdReward": false, "trial_id": "mdp_464339499860", "block": "test2", "trialIndex": 53, "score": 55, "costs": -2, "simulationMode": [null, null, null], "rewards": [-4, 8, 48], "path": ["0", "0", "9", "10", "12"], "rt": [4770, 430, 165], "actions": ["left", "left", "down"], "actionTimes": [5435, 6367, 7020], "queries": {"click": {"state": {"target": ["3", "4", "11", "12", "7", "8", "10", "9"], "time": [1584, 1864, 2313, 2658, 3256, 3720, 4392, 4570]}, "edge": {"target": [], "time": []}}, "mouseover": {"state": {"target": ["3", "2", "4", "11", "10", "12", "9", "1", "7", "7", "6", "8", "10", "9"], "time": [1432, 1732, 1783, 2199, 2483, 2567, 2817, 2850, 2900, 3184, 3384, 3451, 4318, 4535]}, "edge": {"target": [], "time": []}}, "mouseout": {"state": {"target": ["0", "3", "2", "4", "11", "10", "12", "9", "1", "7", "7", "6", "8", "10", "9"], "time": [982, 1716, 1766, 2116, 2450, 2533, 2800, 2834, 2867, 2917, 3367, 3417, 3851, 4519, 4586]}, "edge": {"target": [], "time": []}}}, "displayed_time": "9.67", "trialTime": 10344, "trial_type": "mouselab-mdp", "trial_index": 69, "time_elapsed": 1301595, "internal_node_id": "0.0-4.0-3.0-17.0"}}, {"uniqueid": "w98791412:a52229269", "current_trial": 70, "dateTime": 1664556463038, "trialdata": {"revealed_states": [], "num_clicks_accrued": [0, 0, 0, 0, 0, 0, 0, 0, 0, 0, 0, 0, 0], "stateRewards": ["", -2, -4, -24, 48, -2, -8, -48, -24, 4, 8, 48, 24], "withholdReward": true, "trial_id": "mdp_625355871626", "block": "test2", "trialIndex": 54, "score": 63, "costs": -2, "simulationMode": [null, null, null], "rewards": [4, 8, 48], "path": ["0", "0", "9", "10", "11"], "rt": [5556, 72, 334], "actions": ["left", "left", "up"], "actionTimes": [6774, 7335, 8164], "queries": {"click": {"state": {"target": ["4", "3", "2", "1", "11", "12", "10", "9"], "time": [1598, 2102, 2798, 2999, 4910, 5453, 5719, 5910]}, "edge": {"target": [], "time": []}}, "mouseover": {"state": {"target": ["4", "2", "3", "3", "7", "1", "2", "1", "11", "10", "12", "10", "9"], "time": [1390, 1691, 1741, 1974, 2291, 2525, 2708, 2942, 4727, 5061, 5110, 5661, 5845]}, "edge": {"target": [], "time": []}}, "mouseout": {"state": {"target": ["1", "4", "0", "4", "2", "3", "3", "7", "1", "2", "1", "11", "10", "12", "10"], "time": [789, 956, 1290, 1674, 1724, 1757, 2241, 2475, 2541, 2908, 3492, 5027, 5077, 5565, 5812]}, "edge": {"target": [], "time": []}}}, "displayed_time": "10.22", "trialTime": 11302, "trial_type": "mouselab-mdp", "trial_index": 70, "time_elapsed": 1312955, "internal_node_id": "0.0-4.0-3.0-18.0"}}, {"uniqueid": "w98791412:a52229269", "current_trial": 71, "dateTime": 1664556478173, "trialdata": {"revealed_states": [], "num_clicks_accrued": [0, 0, 0, 0, 0, 0, 0, 0, 0, 0, 0, 0, 0], "stateRewards": ["", -2, 4, -24, 48, 4, -8, 48, -48, 2, -8, 48, 24], "withholdReward": true, "trial_id": "mdp_501111216502", "block": "test2", "trialIndex": 55, "score": 53, "costs": -2, "simulationMode": [null, null, null], "rewards": [-2, 4, 48], "path": ["0", "0", "1", "2", "4"], "rt": [7548, 116, 114], "actions": ["up", "up", "left"], "actionTimes": [8875, 9481, 10096], "queries": {"click": {"state": {"target": ["4", "3", "7", "11", "10", "6", "2", "1"], "time": [2005, 2276, 3085, 3573, 4638, 5581, 6941, 7414]}, "edge": {"target": [], "time": []}}, "mouseover": {"state": {"target": ["0", "1", "4", "2", "3", "7", "6", "7", "1", "11", "10", "12", "12", "12", "10", "9", "0", "5", "6", "8", "2", "1", "5"], "time": [1674, 1757, 1841, 2124, 2158, 2692, 2775, 3009, 3309, 3392, 3742, 3809, 4060, 4393, 4610, 4744, 5228, 5294, 5494, 5845, 6762, 7346, 7647]}, "edge": {"target": [], "time": []}}, "mouseout": {"state": {"target": ["9", "0", "1", "4", "2", "3", "7", "6", "7", "1", "11", "10", "12", "12", "12", "10", "9", "0", "5", "6", "8", "6", "2", "1"], "time": [1107, 1724, 1791, 2108, 2141, 2425, 2741, 2975, 3259, 3326, 3709, 3776, 3876, 4160, 4527, 4727, 4789, 5244, 5411, 5811, 6645, 6679, 7129, 7547]}, "edge": {"target": [], "time": []}}}, "displayed_time": "10.58", "trialTime": 15075, "trial_type": "mouselab-mdp", "trial_index": 71, "time_elapsed": 1328089, "internal_node_id": "0.0-4.0-3.0-19.0"}}, {"uniqueid": "w98791412:a52229269", "current_trial": 72, "dateTime": 1664556487660, "trialdata": {"revealed_states": [], "num_clicks_accrued": [0, 0, 0, 0, 0, 0, 0, 0, 0, 0, 0, 0, 0], "stateRewards": ["", -4, 8, 48, -48, 2, -4, 24, -24, -2, 4, -24, -24], "withholdReward": true, "trial_id": "mdp_804988042722", "block": "test2", "trialIndex": 56, "score": 56, "costs": -1, "simulationMode": [null, null, null], "rewards": [-4, 8, 48], "path": ["0", "0", "1", "2", "3"], "rt": [2918, 91, 83], "actions": ["up", "up", "right"], "actionTimes": [3881, 4460, 5036], "queries": {"click": {"state": {"target": ["4", "3", "2", "1"], "time": [1617, 1850, 2810, 2988]}, "edge": {"target": [], "time": []}}, "mouseover": {"state": {"target": ["1", "4", "2", "3", "7", "7", "2", "1", "7"], "time": [1384, 1483, 1734, 1783, 2250, 2500, 2734, 2968, 3201]}, "edge": {"target": [], "time": []}}, "mouseout": {"state": {"target": ["5", "1", "4", "2", "3", "7", "7", "3", "2", "1", "7"], "time": [765, 1416, 1733, 1767, 2017, 2317, 2517, 2634, 2918, 3135, 3218]}, "edge": {"target": [], "time": []}}}, "displayed_time": "8.96", "trialTime": 9424, "trial_type": "mouselab-mdp", "trial_index": 72, "time_elapsed": 1337577, "internal_node_id": "0.0-4.0-3.0-20.0"}}, {"uniqueid": "w98791412:a52229269", "current_trial": 73, "dateTime": 1664556497864, "trialdata": {"revealed_states": [], "num_clicks_accrued": [0, 0, 0, 0, 0, 0, 0, 0, 0, 0, 0, 0, 0], "stateRewards": ["", -4, 8, 24, -24, 4, 8, -24, -48, 2, 4, 24, -24], "withholdReward": true, "trial_id": "mdp_782187007008", "block": "test2", "trialIndex": 57, "score": 33, "costs": -2, "simulationMode": [null, null, null], "rewards": [2, 4, 24], "path": ["0", "0", "9", "10", "11"], "rt": [5132, 274, 201], "actions": ["left", "left", "up"], "actionTimes": [5741, 6516, 7210], "queries": {"click": {"state": {"target": ["4", "3", "7", "8", "11", "12", "10", "9"], "time": [1026, 1729, 1978, 2290, 3002, 3551, 4230, 4364]}, "edge": {"target": [], "time": []}}, "mouseover": {"state": {"target": ["1", "4", "2", "3", "7", "3", "7", "6", "8", "9", "11", "10", "12", "9", "10", "9", "1"], "time": [753, 920, 1137, 1337, 1488, 1688, 1888, 2138, 2205, 2589, 2989, 3139, 3546, 3973, 4140, 4340, 4808]}, "edge": {"target": [], "time": []}}, "mouseout": {"state": {"target": ["7", "1", "4", "2", "3", "7", "3", "7", "6", "8", "9", "11", "10", "12", "9", "10", "9", "1"], "time": [286, 837, 1121, 1170, 1354, 1604, 1855, 2105, 2171, 2489, 2605, 3106, 3223, 3809, 4090, 4307, 4691, 9378]}, "edge": {"target": [], "time": []}}}, "displayed_time": "9.61", "trialTime": 10139, "trial_type": "mouselab-mdp", "trial_index": 73, "time_elapsed": 1347780, "internal_node_id": "0.0-4.0-3.0-21.0"}}, {"uniqueid": "w98791412:a52229269", "current_trial": 74, "dateTime": 1664556507363, "trialdata": {"revealed_states": [], "num_clicks_accrued": [0, 0, 0, 0, 0, 0, 0, 0, 0, 0, 0, 0, 0], "stateRewards": ["", 2, 8, 48, -48, -2, -4, -24, 24, 4, -4, 48, -48], "withholdReward": true, "trial_id": "mdp_105734044587", "block": "test2", "trialIndex": 58, "score": 62, "costs": -1, "simulationMode": [null, null, null], "rewards": [2, 8, 48], "path": ["0", "0", "1", "2", "3"], "rt": [3041, 101, 208], "actions": ["up", "up", "right"], "actionTimes": [3635, 4229, 4937], "queries": {"click": {"state": {"target": ["4", "3", "2", "1"], "time": [1020, 1716, 2532, 2710]}, "edge": {"target": [], "time": []}}, "mouseover": {"state": {"target": ["1", "4", "2", "3", "3", "7", "7", "2", "1", "7"], "time": [824, 958, 1141, 1358, 1625, 1909, 2276, 2409, 2676, 2943]}, "edge": {"target": [], "time": []}}, "mouseout": {"state": {"target": ["0", "1", "4", "2", "3", "3", "7", "7", "2", "1"], "time": [707, 874, 1108, 1175, 1425, 1842, 1959, 2309, 2643, 2860]}, "edge": {"target": [], "time": []}}}, "displayed_time": "8.60", "trialTime": 9433, "trial_type": "mouselab-mdp", "trial_index": 74, "time_elapsed": 1357280, "internal_node_id": "0.0-4.0-3.0-22.0"}}, {"uniqueid": "w98791412:a52229269", "current_trial": 75, "dateTime": 1664556520771, "trialdata": {"revealed_states": [], "num_clicks_accrued": [0, 0, 0, 0, 0, 0, 0, 0, 0, 0, 0, 0, 0], "stateRewards": ["", 4, 4, -48, -48, 4, 4, -24, -24, -4, 8, -48, 24], "withholdReward": true, "trial_id": "mdp_669785455541", "block": "test2", "trialIndex": 59, "score": 31, "costs": -2, "simulationMode": [null, null, null], "rewards": [-4, 8, 24], "path": ["0", "0", "9", "10", "12"], "rt": [4912, 104, 117], "actions": ["left", "left", "down"], "actionTimes": [6504, 7108, 7721], "queries": {"click": {"state": {"target": ["4", "3", "7", "8", "12", "11", "10", "9"], "time": [2140, 2428, 2845, 3467, 4011, 4299, 5419, 5539]}, "edge": {"target": [], "time": []}}, "mouseover": {"state": {"target": ["4", "2", "3", "7", "6", "8", "8", "9", "10", "12", "10", "11", "10", "10", "9"], "time": [2099, 2283, 2349, 2716, 3000, 3050, 3300, 3684, 3717, 3884, 4134, 4168, 4568, 5018, 5524]}, "edge": {"target": [], "time": []}}, "mouseout": {"state": {"target": ["7", "4", "2", "3", "7", "6", "8", "8", "9", "10", "12", "10", "11", "10", "10", "9"], "time": [1214, 2266, 2299, 2599, 2966, 3033, 3100, 3634, 3701, 3734, 4117, 4151, 4535, 4585, 5486, 5686]}, "edge": {"target": [], "time": []}}}, "displayed_time": "10.59", "trialTime": 13305, "trial_type": "mouselab-mdp", "trial_index": 75, "time_elapsed": 1370688, "internal_node_id": "0.0-4.0-3.0-23.0"}}, {"uniqueid": "w98791412:a52229269", "current_trial": 76, "dateTime": 1664556532194, "trialdata": {"revealed_states": [], "num_clicks_accrued": [0, 0, 0, 0, 0, 0, 0, 0, 0, 0, 0, 0, 0], "stateRewards": ["", -2, -8, -48, 24, 2, -4, -48, 48, 2, 4, 24, -24], "withholdReward": true, "trial_id": "mdp_849341543762", "block": "test2", "trialIndex": 60, "score": 49, "costs": -2, "simulationMode": [null, null, null], "rewards": [2, -4, 48], "path": ["0", "0", "5", "6", "8"], "rt": [4550, 136, 80], "actions": ["right", "right", "down"], "actionTimes": [5444, 6073, 6667], "queries": {"click": {"state": {"target": ["4", "3", "11", "12", "7", "8", "6", "5"], "time": [1369, 1642, 2386, 2665, 3168, 3498, 4313, 4482]}, "edge": {"target": [], "time": []}}, "mouseover": {"state": {"target": ["4", "2", "3", "11", "10", "12", "5", "7", "6", "8", "6", "5"], "time": [1265, 1499, 1533, 2249, 2550, 2600, 2866, 2951, 3384, 3434, 4268, 4451]}, "edge": {"target": [], "time": []}}, "mouseout": {"state": {"target": ["0", "4", "2", "3", "11", "10", "12", "5", "7", "6", "8", "6", "5", "6"], "time": [1136, 1498, 1532, 1815, 2516, 2583, 2783, 2883, 3367, 3417, 4151, 4418, 4602, 4652]}, "edge": {"target": [], "time": []}}}, "displayed_time": "9.89", "trialTime": 11364, "trial_type": "mouselab-mdp", "trial_index": 76, "time_elapsed": 1382110, "internal_node_id": "0.0-4.0-3.0-24.0"}}, {"uniqueid": "w98791412:a52229269", "current_trial": 77, "dateTime": 1664556545503, "trialdata": {"revealed_states": [], "num_clicks_accrued": [0, 0, 0, 0, 0, 0, 0, 0, 0, 0, 0, 0, 0], "stateRewards": ["", -4, -8, -24, 24, 2, 8, 24, 48, 2, 4, 24, -48], "withholdReward": true, "trial_id": "mdp_122352383932", "block": "test2", "trialIndex": 61, "score": 61.5, "costs": -1.5, "simulationMode": [null, null, null], "rewards": [2, 8, 48], "path": ["0", "0", "5", "6", "8"], "rt": [4232, 33, 74], "actions": ["right", "right", "down"], "actionTimes": [8562, 9096, 9688], "queries": {"click": {"state": {"target": ["4", "3", "7", "8", "6", "5"], "time": [5227, 5908, 6339, 6611, 7453, 7675]}, "edge": {"target": [], "time": []}}, "mouseover": {"state": {"target": ["1", "4", "2", "4", "2", "3", "3", "7", "7", "6", "8", "0", "9", "5", "6", "5"], "time": [4675, 4725, 5042, 5192, 5376, 5426, 5747, 6110, 6277, 6460, 6510, 6927, 6961, 7244, 7403, 7611]}, "edge": {"target": [], "time": []}}, "mouseout": {"state": {"target": ["6", "5", "1", "4", "2", "4", "2", "3", "3", "7", "7", "6", "8", "0", "9", "5", "6", "5", "6", "6"], "time": [3741, 3791, 4692, 4775, 5126, 5342, 5409, 5476, 6027, 6127, 6444, 6494, 6861, 6944, 7094, 7278, 7578, 7795, 7828, 13167]}, "edge": {"target": [], "time": []}}}, "displayed_time": "12.33", "trialTime": 13253, "trial_type": "mouselab-mdp", "trial_index": 77, "time_elapsed": 1395420, "internal_node_id": "0.0-4.0-3.0-25.0"}}, {"uniqueid": "w98791412:a52229269", "current_trial": 78, "dateTime": 1664556554646, "trialdata": {"revealed_states": [], "num_clicks_accrued": [0, 0, 0, 0, 0, 0, 0, 0, 0, 0, 0, 0, 0], "stateRewards": ["", -4, 8, 24, -24, -2, 4, -24, 48, -2, 8, -48, -24], "withholdReward": true, "trial_id": "mdp_799359103169", "block": "test2", "trialIndex": 62, "score": 53.25, "costs": -1.75, "simulationMode": [null, null, null], "rewards": [-2, 4, 48], "path": ["0", "0", "5", "6", "8"], "rt": [3900, 57, 60], "actions": ["right", "right", "down"], "actionTimes": [4603, 5155, 5725], "queries": {"click": {"state": {"target": ["2", "4", "3", "7", "8", "6", "5"], "time": [1130, 1655, 2160, 2599, 2881, 3727, 3872]}, "edge": {"target": [], "time": []}}, "mouseover": {"state": {"target": ["1", "2", "4", "4", "3", "7", "8", "0", "11", "6", "5"], "time": [861, 1011, 1311, 1544, 2078, 2445, 2829, 3063, 3146, 3613, 3830]}, "edge": {"target": [], "time": []}}, "mouseout": {"state": {"target": ["5", "1", "2", "4", "4", "2", "3", "7", "8", "0", "11", "6"], "time": [276, 877, 1294, 1344, 1828, 1945, 2378, 2679, 3029, 3079, 3396, 3814]}, "edge": {"target": [], "time": []}}}, "displayed_time": "8.71", "trialTime": 9072, "trial_type": "mouselab-mdp", "trial_index": 78, "time_elapsed": 1404563, "internal_node_id": "0.0-4.0-3.0-26.0"}}, {"uniqueid": "w98791412:a52229269", "current_trial": 79, "dateTime": 1664556563740, "trialdata": {"revealed_states": [], "num_clicks_accrued": [0, 0, 0, 0, 0, 0, 0, 0, 0, 0, 0, 0, 0], "stateRewards": ["", -2, -8, 48, 24, 4, -8, 24, 48, 4, -4, 24, -48], "withholdReward": true, "trial_id": "mdp_871576155740", "block": "test2", "trialIndex": 63, "score": 41.75, "costs": -1.25, "simulationMode": [null, null, null], "rewards": [-2, -8, 48], "path": ["0", "0", "1", "2", "3"], "rt": [4033, 80, 39], "actions": ["up", "up", "right"], "actionTimes": [4474, 5041, 5583], "queries": {"click": {"state": {"target": ["11", "4", "3", "1", "2"], "time": [1567, 1973, 2421, 3327, 3621]}, "edge": {"target": [], "time": []}}, "mouseover": {"state": {"target": ["1", "11", "11", "10", "11", "4", "2", "3", "1", "2"], "time": [739, 873, 1070, 1340, 1473, 1807, 2124, 2257, 3292, 3542]}, "edge": {"target": [], "time": []}}, "mouseout": {"state": {"target": ["5", "1", "11", "11", "10", "11", "4", "2", "3", "1", "2"], "time": [172, 756, 990, 1290, 1440, 1757, 2107, 2157, 2608, 3509, 3742]}, "edge": {"target": [], "time": []}}}, "displayed_time": "8.44", "trialTime": 9036, "trial_type": "mouselab-mdp", "trial_index": 79, "time_elapsed": 1413657, "internal_node_id": "0.0-4.0-3.0-27.0"}}, {"uniqueid": "w98791412:a52229269", "current_trial": 80, "dateTime": 1664556576845, "trialdata": {"revealed_states": [], "num_clicks_accrued": [0, 0, 0, 0, 0, 0, 0, 0, 0, 0, 0, 0, 0], "stateRewards": ["", 2, 4, -48, 24, -4, -4, -24, 24, 2, -4, 24, -24], "withholdReward": false, "trial_id": "mdp_163600331068", "block": "test2", "trialIndex": 64, "score": 33, "costs": -2, "simulationMode": [null, null, null], "rewards": [2, 4, 24], "path": ["0", "0", "1", "2", "4"], "rt": [5180, 30, 14], "actions": ["up", "up", "left"], "actionTimes": [6117, 6649, 7151], "queries": {"click": {"state": {"target": ["4", "3", "7", "8", "11", "12", "2", "1"], "time": [1345, 1606, 1970, 2655, 3305, 3607, 5039, 5202]}, "edge": {"target": [], "time": []}}, "mouseover": {"state": {"target": ["1", "4", "2", "3", "7", "6", "8", "0", "11", "11", "10", "12", "9", "5", "1", "2", "1"], "time": [1047, 1280, 1464, 1530, 1914, 2131, 2431, 2882, 2932, 3199, 3466, 3532, 4049, 4517, 4717, 4950, 5150]}, "edge": {"target": [], "time": []}}, "mouseout": {"state": {"target": ["1", "1", "4", "2", "3", "7", "6", "8", "0", "11", "11", "10", "12", "9", "5", "1", "2", "1", "5"], "time": [763, 1113, 1447, 1497, 1730, 2097, 2214, 2815, 2898, 2949, 3432, 3499, 3816, 4083, 4633, 4817, 5122, 5351, 9121]}, "edge": {"target": [], "time": []}}}, "displayed_time": "8.94", "trialTime": 13039, "trial_type": "mouselab-mdp", "trial_index": 80, "time_elapsed": 1426762, "internal_node_id": "0.0-4.0-3.0-28.0"}}, {"uniqueid": "w98791412:a52229269", "current_trial": 81, "dateTime": 1664556587342, "trialdata": {"revealed_states": [], "num_clicks_accrued": [0, 0, 0, 0, 0, 0, 0, 0, 0, 0, 0, 0, 0], "stateRewards": ["", 2, 8, 48, 24, -4, 4, -48, 24, 2, 8, 48, 48], "withholdReward": false, "trial_id": "mdp_367344599162", "block": "test2", "trialIndex": 65, "score": 61.75, "costs": -1.25, "simulationMode": [null, null, null], "rewards": [2, 8, 48], "path": ["0", "0", "1", "2", "3"], "rt": [2758, 84, 15], "actions": ["up", "up", "right"], "actionTimes": [3273, 3858, 4373], "queries": {"click": {"state": {"target": ["4", "3", "7", "2", "1"], "time": [1064, 1344, 1870, 2374, 2528]}, "edge": {"target": [], "time": []}}, "mouseover": {"state": {"target": ["1", "4", "2", "3", "7", "6", "2", "1"], "time": [788, 938, 1188, 1255, 1655, 2122, 2289, 2489]}, "edge": {"target": [], "time": []}}, "mouseout": {"state": {"target": ["0", "1", "4", "2", "3", "7", "6", "2", "1"], "time": [710, 854, 1171, 1221, 1505, 1972, 2172, 2473, 5793]}, "edge": {"target": [], "time": []}}}, "displayed_time": "9.52", "trialTime": 10430, "trial_type": "mouselab-mdp", "trial_index": 81, "time_elapsed": 1437258, "internal_node_id": "0.0-4.0-3.0-29.0"}}, {"uniqueid": "w98791412:a52229269", "current_trial": 82, "dateTime": 1664556591546, "trialdata": {"rt": 4200, "stimulus": "<h1> End of block! </h1>\n\nYou have reached the end of the block 2/4. If you need a short break, feel free to take one now before moving on.\n\n<br><br>\nIn the next block, you will complete another 30 rounds of this game.\n\n<br><br>\n<div style='text-align: center;'>Press <code>space</code> to begin.</div>\n<br><br>\n<div style='text-align: center;'>(If the experiment doesn't continue, try clicking on the text and then pressing <code>space</code>.)</div>", "response": " ", "trial_id": "mdp_ready_3", "trial_type": "html-keyboard-response", "trial_index": 82, "time_elapsed": 1441463, "internal_node_id": "0.0-4.0-4.0"}}, {"uniqueid": "w98791412:a52229269", "current_trial": 83, "dateTime": 1664556601092, "trialdata": {"revealed_states": [], "num_clicks_accrued": [0, 0, 0, 0, 0, 0, 0, 0, 0, 0, 0, 0, 0], "stateRewards": ["", -4, 4, -48, -48, -2, -8, -48, -24, 4, 8, -24, 24], "withholdReward": true, "trial_id": "mdp_449260894259", "block": "test3", "trialIndex": 66, "score": 39, "costs": -2, "