{"condition": 0, "counterbalance": 0, "assignmentId": "a47133947", "workerId": "w84779726", "hitId": "h24112349", "currenttrial": 959, "bonus": 0, "data": [{"uniqueid": "w84779726:a47133947", "current_trial": 0, "dateTime": 1664463912572, "trialdata": {"success": true, "trial_type": "fullscreen", "trial_index": 0, "time_elapsed": 4344, "internal_node_id": "0.0-0.0"}}, {"uniqueid": "w84779726:a47133947", "current_trial": 1, "dateTime": 1664463939109, "trialdata": {"view_history": [{"page_index": 0, "viewing_time": 26527}], "rt": 26529, "trial_id": "exp_instructions_distractor", "trial_type": "instructions", "trial_index": 1, "time_elapsed": 30883, "internal_node_id": "0.0-1.0"}}, {"uniqueid": "w84779726:a47133947", "current_trial": 2, "dateTime": 1664463983357, "trialdata": {"view_history": [{"page_index": 0, "viewing_time": 44243}], "rt": 44243, "trial_id": "color_game_instructions", "trial_type": "instructions", "trial_index": 2, "time_elapsed": 75131, "internal_node_id": "0.0-2.0"}}, {"uniqueid": "w84779726:a47133947", "current_trial": 3, "dateTime": 1664463991291, "trialdata": {"rt": 7930, "stimulus": "<h1> Get ready to start the game! </h1>\n\nThank you for reading the instructions. Get ready start with the first of 5 block(s) of this game.\n<br><br>\nIn this first block, you will complete 90 rounds of this game before moving on.\n<br><br>\nRemember, the better you perform, the bigger your bonus will be!\n<br><br>\n<div style='text-align: center;'>Press <code>space</code> to begin.</div>", "response": " ", "trial_id": "stroop_1_ready_1", "trial_type": "html-keyboard-response", "trial_index": 3, "time_elapsed": 83065, "internal_node_id": "0.0-3.0"}}, {"uniqueid": "w84779726:a47133947", "current_trial": 4, "dateTime": 1664463993074, "trialdata": {"rt": 1728, "stimulus": "<p id='stroop-text' class='stroop-yellow'>BLUE</p>", "response": "y", "stimulus-type": "incongruent", "word": "blue", "color": "yellow", "correct_response": "y", "trial_id": "stroop-trial-1-incongruent-12", "trial_type": "html-keyboard-response", "trial_index": 4, "time_elapsed": 84847, "internal_node_id": "0.0-4.0-0.0"}}, {"uniqueid": "w84779726:a47133947", "current_trial": 5, "dateTime": 1664463994979, "trialdata": {"rt": 1401, "stimulus": "<p id='stroop-text' class='stroop-green'>RED</p>", "response": "g", "stimulus-type": "incongruent", "word": "red", "color": "green", "correct_response": "g", "trial_id": "stroop-trial-1-incongruent-20", "trial_type": "html-keyboard-response", "trial_index": 5, "time_elapsed": 86752, "internal_node_id": "0.0-4.0-1.0"}}, {"uniqueid": "w84779726:a47133947", "current_trial": 6, "dateTime": 1664463996183, "trialdata": {"rt": 701, "stimulus": "<p id='stroop-text' class='stroop-yellow'>BLUE</p>", "response": "y", "stimulus-type": "incongruent", "word": "blue", "color": "yellow", "correct_response": "y", "trial_id": "stroop-trial-1-incongruent-29", "trial_type": "html-keyboard-response", "trial_index": 6, "time_elapsed": 87957, "internal_node_id": "0.0-4.0-2.0"}}, {"uniqueid": "w84779726:a47133947", "current_trial": 7, "dateTime": 1664463997516, "trialdata": {"rt": 828, "stimulus": "<p id='stroop-text' class='stroop-blue'>CHAIR</p>", "response": "b", "stimulus-type": "unrelated", "word": "CHAIR", "color": "blue", "correct_response": "b", "trial_id": "stroop-trial-1-unrelated-29", "trial_type": "html-keyboard-response", "trial_index": 7, "time_elapsed": 89289, "internal_node_id": "0.0-4.0-3.0"}}, {"uniqueid": "w84779726:a47133947", "current_trial": 8, "dateTime": 1664463998830, "trialdata": {"rt": 811, "stimulus": "<p id='stroop-text' class='stroop-green'>CHAIR</p>", "response": "g", "stimulus-type": "unrelated", "word": "CHAIR", "color": "green", "correct_response": "g", "trial_id": "stroop-trial-1-unrelated-8", "trial_type": "html-keyboard-response", "trial_index": 8, "time_elapsed": 90603, "internal_node_id": "0.0-4.0-4.0"}}, {"uniqueid": "w84779726:a47133947", "current_trial": 9, "dateTime": 1664464000210, "trialdata": {"rt": 877, "stimulus": "<p id='stroop-text' class='stroop-blue'>RED</p>", "response": "b", "stimulus-type": "incongruent", "word": "red", "color": "blue", "correct_response": "b", "trial_id": "stroop-trial-1-incongruent-2", "trial_type": "html-keyboard-response", "trial_index": 9, "time_elapsed": 91984, "internal_node_id": "0.0-4.0-5.0"}}, {"uniqueid": "w84779726:a47133947", "current_trial": 10, "dateTime": 1664464001454, "trialdata": {"rt": 740, "stimulus": "<p id='stroop-text' class='stroop-green'>GREEN</p>", "response": "g", "stimulus-type": "congruent", "word": "green", "color": "green", "correct_response": "g", "trial_id": "stroop-trial-1-congruent-6", "trial_type": "html-keyboard-response", "trial_index": 10, "time_elapsed": 93227, "internal_node_id": "0.0-4.0-6.0"}}, {"uniqueid": "w84779726:a47133947", "current_trial": 11, "dateTime": 1664464002539, "trialdata": {"rt": 581, "stimulus": "<p id='stroop-text' class='stroop-green'>GREEN</p>", "response": "g", "stimulus-type": "congruent", "word": "green", "color": "green", "correct_response": "g", "trial_id": "stroop-trial-1-congruent-21", "trial_type": "html-keyboard-response", "trial_index": 11, "time_elapsed": 94312, "internal_node_id": "0.0-4.0-7.0"}}, {"uniqueid": "w84779726:a47133947", "current_trial": 12, "dateTime": 1664464003793, "trialdata": {"rt": 751, "stimulus": "<p id='stroop-text' class='stroop-red'>RED</p>", "response": "r", "stimulus-type": "congruent", "word": "red", "color": "red", "correct_response": "r", "trial_id": "stroop-trial-1-congruent-8", "trial_type": "html-keyboard-response", "trial_index": 12, "time_elapsed": 95567, "internal_node_id": "0.0-4.0-8.0"}}, {"uniqueid": "w84779726:a47133947", "current_trial": 13, "dateTime": 1664464005034, "trialdata": {"rt": 737, "stimulus": "<p id='stroop-text' class='stroop-yellow'>GREEN</p>", "response": "y", "stimulus-type": "incongruent", "word": "green", "color": "yellow", "correct_response": "y", "trial_id": "stroop-trial-1-incongruent-11", "trial_type": "html-keyboard-response", "trial_index": 13, "time_elapsed": 96807, "internal_node_id": "0.0-4.0-9.0"}}, {"uniqueid": "w84779726:a47133947", "current_trial": 14, "dateTime": 1664464006081, "trialdata": {"rt": 544, "stimulus": "<p id='stroop-text' class='stroop-yellow'>GREEN</p>", "response": "y", "stimulus-type": "incongruent", "word": "green", "color": "yellow", "correct_response": "y", "trial_id": "stroop-trial-1-incongruent-15", "trial_type": "html-keyboard-response", "trial_index": 14, "time_elapsed": 97854, "internal_node_id": "0.0-4.0-10.0"}}, {"uniqueid": "w84779726:a47133947", "current_trial": 15, "dateTime": 1664464007358, "trialdata": {"rt": 773, "stimulus": "<p id='stroop-text' class='stroop-blue'>DOG</p>", "response": "b", "stimulus-type": "unrelated", "word": "DOG", "color": "blue", "correct_response": "b", "trial_id": "stroop-trial-1-unrelated-26", "trial_type": "html-keyboard-response", "trial_index": 15, "time_elapsed": 99131, "internal_node_id": "0.0-4.0-11.0"}}, {"uniqueid": "w84779726:a47133947", "current_trial": 16, "dateTime": 1664464008622, "trialdata": {"rt": 761, "stimulus": "<p id='stroop-text' class='stroop-green'>GREEN</p>", "response": "g", "stimulus-type": "congruent", "word": "green", "color": "green", "correct_response": "g", "trial_id": "stroop-trial-1-congruent-26", "trial_type": "html-keyboard-response", "trial_index": 16, "time_elapsed": 100395, "internal_node_id": "0.0-4.0-12.0"}}, {"uniqueid": "w84779726:a47133947", "current_trial": 17, "dateTime": 1664464009845, "trialdata": {"rt": 718, "stimulus": "<p id='stroop-text' class='stroop-yellow'>SHIP</p>", "response": "y", "stimulus-type": "unrelated", "word": "SHIP", "color": "yellow", "correct_response": "y", "trial_id": "stroop-trial-1-unrelated-16", "trial_type": "html-keyboard-response", "trial_index": 17, "time_elapsed": 101619, "internal_node_id": "0.0-4.0-13.0"}}, {"uniqueid": "w84779726:a47133947", "current_trial": 18, "dateTime": 1664464011050, "trialdata": {"rt": 701, "stimulus": "<p id='stroop-text' class='stroop-blue'>YELLOW</p>", "response": "b", "stimulus-type": "incongruent", "word": "yellow", "color": "blue", "correct_response": "b", "trial_id": "stroop-trial-1-incongruent-24", "trial_type": "html-keyboard-response", "trial_index": 18, "time_elapsed": 102823, "internal_node_id": "0.0-4.0-14.0"}}, {"uniqueid": "w84779726:a47133947", "current_trial": 19, "dateTime": 1664464012218, "trialdata": {"rt": 664, "stimulus": "<p id='stroop-text' class='stroop-green'>GREEN</p>", "response": "g", "stimulus-type": "congruent", "word": "green", "color": "green", "correct_response": "g", "trial_id": "stroop-trial-1-congruent-30", "trial_type": "html-keyboard-response", "trial_index": 19, "time_elapsed": 103991, "internal_node_id": "0.0-4.0-15.0"}}, {"uniqueid": "w84779726:a47133947", "current_trial": 20, "dateTime": 1664464013475, "trialdata": {"rt": 754, "stimulus": "<p id='stroop-text' class='stroop-green'>YELLOW</p>", "response": "g", "stimulus-type": "incongruent", "word": "yellow", "color": "green", "correct_response": "g", "trial_id": "stroop-trial-1-incongruent-6", "trial_type": "html-keyboard-response", "trial_index": 20, "time_elapsed": 105249, "internal_node_id": "0.0-4.0-16.0"}}, {"uniqueid": "w84779726:a47133947", "current_trial": 21, "dateTime": 1664464014694, "trialdata": {"rt": 716, "stimulus": "<p id='stroop-text' class='stroop-blue'>BLUE</p>", "response": "b", "stimulus-type": "congruent", "word": "blue", "color": "blue", "correct_response": "b", "trial_id": "stroop-trial-1-congruent-27", "trial_type": "html-keyboard-response", "trial_index": 21, "time_elapsed": 106468, "internal_node_id": "0.0-4.0-17.0"}}, {"uniqueid": "w84779726:a47133947", "current_trial": 22, "dateTime": 1664464015922, "trialdata": {"rt": 724, "stimulus": "<p id='stroop-text' class='stroop-blue'>BOAT</p>", "response": "b", "stimulus-type": "unrelated", "word": "BOAT", "color": "blue", "correct_response": "b", "trial_id": "stroop-trial-1-unrelated-20", "trial_type": "html-keyboard-response", "trial_index": 22, "time_elapsed": 107695, "internal_node_id": "0.0-4.0-18.0"}}, {"uniqueid": "w84779726:a47133947", "current_trial": 23, "dateTime": 1664464017026, "trialdata": {"rt": 588, "stimulus": "<p id='stroop-text' class='stroop-red'>FORK</p>", "response": "r", "stimulus-type": "unrelated", "word": "FORK", "color": "red", "correct_response": "r", "trial_id": "stroop-trial-1-unrelated-25", "trial_type": "html-keyboard-response", "trial_index": 23, "time_elapsed": 108799, "internal_node_id": "0.0-4.0-19.0"}}, {"uniqueid": "w84779726:a47133947", "current_trial": 24, "dateTime": 1664464018220, "trialdata": {"rt": 690, "stimulus": "<p id='stroop-text' class='stroop-green'>CHAIR</p>", "response": "g", "stimulus-type": "unrelated", "word": "CHAIR", "color": "green", "correct_response": "g", "trial_id": "stroop-trial-1-unrelated-17", "trial_type": "html-keyboard-response", "trial_index": 24, "time_elapsed": 109993, "internal_node_id": "0.0-4.0-20.0"}}, {"uniqueid": "w84779726:a47133947", "current_trial": 25, "dateTime": 1664464019268, "trialdata": {"rt": 545, "stimulus": "<p id='stroop-text' class='stroop-green'>SHIP</p>", "response": "g", "stimulus-type": "unrelated", "word": "SHIP", "color": "green", "correct_response": "g", "trial_id": "stroop-trial-1-unrelated-11", "trial_type": "html-keyboard-response", "trial_index": 25, "time_elapsed": 111041, "internal_node_id": "0.0-4.0-21.0"}}, {"uniqueid": "w84779726:a47133947", "current_trial": 26, "dateTime": 1664464020366, "trialdata": {"rt": 594, "stimulus": "<p id='stroop-text' class='stroop-green'>MONKEY</p>", "response": "g", "stimulus-type": "unrelated", "word": "MONKEY", "color": "green", "correct_response": "g", "trial_id": "stroop-trial-1-unrelated-18", "trial_type": "html-keyboard-response", "trial_index": 26, "time_elapsed": 112140, "internal_node_id": "0.0-4.0-22.0"}}, {"uniqueid": "w84779726:a47133947", "current_trial": 27, "dateTime": 1664464021551, "trialdata": {"rt": 682, "stimulus": "<p id='stroop-text' class='stroop-blue'>BLUE</p>", "response": "b", "stimulus-type": "congruent", "word": "blue", "color": "blue", "correct_response": "b", "trial_id": "stroop-trial-1-congruent-11", "trial_type": "html-keyboard-response", "trial_index": 27, "time_elapsed": 113324, "internal_node_id": "0.0-4.0-23.0"}}, {"uniqueid": "w84779726:a47133947", "current_trial": 28, "dateTime": 1664464022693, "trialdata": {"rt": 638, "stimulus": "<p id='stroop-text' class='stroop-yellow'>WINDOW</p>", "response": "y", "stimulus-type": "unrelated", "word": "WINDOW", "color": "yellow", "correct_response": "y", "trial_id": "stroop-trial-1-unrelated-22", "trial_type": "html-keyboard-response", "trial_index": 28, "time_elapsed": 114466, "internal_node_id": "0.0-4.0-24.0"}}, {"uniqueid": "w84779726:a47133947", "current_trial": 29, "dateTime": 1664464023795, "trialdata": {"rt": 599, "stimulus": "<p id='stroop-text' class='stroop-blue'>BRAIN</p>", "response": "g", "stimulus-type": "unrelated", "word": "BRAIN", "color": "blue", "correct_response": "b", "trial_id": "stroop-trial-1-unrelated-4", "trial_type": "html-keyboard-response", "trial_index": 29, "time_elapsed": 115569, "internal_node_id": "0.0-4.0-25.0"}}, {"uniqueid": "w84779726:a47133947", "current_trial": 30, "dateTime": 1664464025045, "trialdata": {"rt": 746, "stimulus": "<p id='stroop-text' class='stroop-blue'>GREEN</p>", "response": "b", "stimulus-type": "incongruent", "word": "green", "color": "blue", "correct_response": "b", "trial_id": "stroop-trial-1-incongruent-21", "trial_type": "html-keyboard-response", "trial_index": 30, "time_elapsed": 116819, "internal_node_id": "0.0-4.0-26.0"}}, {"uniqueid": "w84779726:a47133947", "current_trial": 31, "dateTime": 1664464026533, "trialdata": {"rt": 984, "stimulus": "<p id='stroop-text' class='stroop-green'>YELLOW</p>", "response": "g", "stimulus-type": "incongruent", "word": "yellow", "color": "green", "correct_response": "g", "trial_id": "stroop-trial-1-incongruent-17", "trial_type": "html-keyboard-response", "trial_index": 31, "time_elapsed": 118306, "internal_node_id": "0.0-4.0-27.0"}}, {"uniqueid": "w84779726:a47133947", "current_trial": 32, "dateTime": 1664464028495, "trialdata": {"rt": 1454, "stimulus": "<p id='stroop-text' class='stroop-red'>CHAIR</p>", "response": "r", "stimulus-type": "unrelated", "word": "CHAIR", "color": "red", "correct_response": "r", "trial_id": "stroop-trial-1-unrelated-6", "trial_type": "html-keyboard-response", "trial_index": 32, "time_elapsed": 120268, "internal_node_id": "0.0-4.0-28.0"}}, {"uniqueid": "w84779726:a47133947", "current_trial": 33, "dateTime": 1664464029773, "trialdata": {"rt": 775, "stimulus": "<p id='stroop-text' class='stroop-blue'>YELLOW</p>", "response": "b", "stimulus-type": "incongruent", "word": "yellow", "color": "blue", "correct_response": "b", "trial_id": "stroop-trial-1-incongruent-19", "trial_type": "html-keyboard-response", "trial_index": 33, "time_elapsed": 121547, "internal_node_id": "0.0-4.0-29.0"}}, {"uniqueid": "w84779726:a47133947", "current_trial": 34, "dateTime": 1664464030943, "trialdata": {"rt": 667, "stimulus": "<p id='stroop-text' class='stroop-yellow'>YELLOW</p>", "response": "y", "stimulus-type": "congruent", "word": "yellow", "color": "yellow", "correct_response": "y", "trial_id": "stroop-trial-1-congruent-24", "trial_type": "html-keyboard-response", "trial_index": 34, "time_elapsed": 122717, "internal_node_id": "0.0-4.0-30.0"}}, {"uniqueid": "w84779726:a47133947", "current_trial": 35, "dateTime": 1664464032106, "trialdata": {"rt": 656, "stimulus": "<p id='stroop-text' class='stroop-blue'>CHAIR</p>", "response": "b", "stimulus-type": "unrelated", "word": "CHAIR", "color": "blue", "correct_response": "b", "trial_id": "stroop-trial-1-unrelated-30", "trial_type": "html-keyboard-response", "trial_index": 35, "time_elapsed": 123879, "internal_node_id": "0.0-4.0-31.0"}}, {"uniqueid": "w84779726:a47133947", "current_trial": 36, "dateTime": 1664464033104, "trialdata": {"rt": 494, "stimulus": "<p id='stroop-text' class='stroop-blue'>SHIP</p>", "response": "b", "stimulus-type": "unrelated", "word": "SHIP", "color": "blue", "correct_response": "b", "trial_id": "stroop-trial-1-unrelated-13", "trial_type": "html-keyboard-response", "trial_index": 36, "time_elapsed": 124877, "internal_node_id": "0.0-4.0-32.0"}}, {"uniqueid": "w84779726:a47133947", "current_trial": 37, "dateTime": 1664464034109, "trialdata": {"rt": 501, "stimulus": "<p id='stroop-text' class='stroop-blue'>FORK</p>", "response": "b", "stimulus-type": "unrelated", "word": "FORK", "color": "blue", "correct_response": "b", "trial_id": "stroop-trial-1-unrelated-10", "trial_type": "html-keyboard-response", "trial_index": 37, "time_elapsed": 125883, "internal_node_id": "0.0-4.0-33.0"}}, {"uniqueid": "w84779726:a47133947", "current_trial": 38, "dateTime": 1664464035112, "trialdata": {"rt": 499, "stimulus": "<p id='stroop-text' class='stroop-blue'>YELLOW</p>", "response": "b", "stimulus-type": "incongruent", "word": "yellow", "color": "blue", "correct_response": "b", "trial_id": "stroop-trial-1-incongruent-28", "trial_type": "html-keyboard-response", "trial_index": 38, "time_elapsed": 126885, "internal_node_id": "0.0-4.0-34.0"}}, {"uniqueid": "w84779726:a47133947", "current_trial": 39, "dateTime": 1664464036000, "trialdata": {"rt": 385, "stimulus": "<p id='stroop-text' class='stroop-blue'>BLUE</p>", "response": "b", "stimulus-type": "congruent", "word": "blue", "color": "blue", "correct_response": "b", "trial_id": "stroop-trial-1-congruent-22", "trial_type": "html-keyboard-response", "trial_index": 39, "time_elapsed": 127774, "internal_node_id": "0.0-4.0-35.0"}}, {"uniqueid": "w84779726:a47133947", "current_trial": 40, "dateTime": 1664464037004, "trialdata": {"rt": 500, "stimulus": "<p id='stroop-text' class='stroop-green'>GREEN</p>", "response": "g", "stimulus-type": "congruent", "word": "green", "color": "green", "correct_response": "g", "trial_id": "stroop-trial-1-congruent-28", "trial_type": "html-keyboard-response", "trial_index": 40, "time_elapsed": 128777, "internal_node_id": "0.0-4.0-36.0"}}, {"uniqueid": "w84779726:a47133947", "current_trial": 41, "dateTime": 1664464038343, "trialdata": {"rt": 834, "stimulus": "<p id='stroop-text' class='stroop-red'>DOG</p>", "response": "r", "stimulus-type": "unrelated", "word": "DOG", "color": "red", "correct_response": "r", "trial_id": "stroop-trial-1-unrelated-9", "trial_type": "html-keyboard-response", "trial_index": 41, "time_elapsed": 130115, "internal_node_id": "0.0-4.0-37.0"}}, {"uniqueid": "w84779726:a47133947", "current_trial": 42, "dateTime": 1664464039355, "trialdata": {"rt": 509, "stimulus": "<p id='stroop-text' class='stroop-yellow'>GREEN</p>", "response": "y", "stimulus-type": "incongruent", "word": "green", "color": "yellow", "correct_response": "y", "trial_id": "stroop-trial-1-incongruent-25", "trial_type": "html-keyboard-response", "trial_index": 42, "time_elapsed": 131129, "internal_node_id": "0.0-4.0-38.0"}}, {"uniqueid": "w84779726:a47133947", "current_trial": 43, "dateTime": 1664464040235, "trialdata": {"rt": 376, "stimulus": "<p id='stroop-text' class='stroop-yellow'>GREEN</p>", "response": "y", "stimulus-type": "incongruent", "word": "green", "color": "yellow", "correct_response": "y", "trial_id": "stroop-trial-1-incongruent-3", "trial_type": "html-keyboard-response", "trial_index": 43, "time_elapsed": 132009, "internal_node_id": "0.0-4.0-39.0"}}, {"uniqueid": "w84779726:a47133947", "current_trial": 44, "dateTime": 1664464041319, "trialdata": {"rt": 581, "stimulus": "<p id='stroop-text' class='stroop-green'>DOG</p>", "response": "g", "stimulus-type": "unrelated", "word": "DOG", "color": "green", "correct_response": "g", "trial_id": "stroop-trial-1-unrelated-7", "trial_type": "html-keyboard-response", "trial_index": 44, "time_elapsed": 133093, "internal_node_id": "0.0-4.0-40.0"}}, {"uniqueid": "w84779726:a47133947", "current_trial": 45, "dateTime": 1664464042566, "trialdata": {"rt": 743, "stimulus": "<p id='stroop-text' class='stroop-green'>CHAIR</p>", "response": "g", "stimulus-type": "unrelated", "word": "CHAIR", "color": "green", "correct_response": "g", "trial_id": "stroop-trial-1-unrelated-15", "trial_type": "html-keyboard-response", "trial_index": 45, "time_elapsed": 134340, "internal_node_id": "0.0-4.0-41.0"}}, {"uniqueid": "w84779726:a47133947", "current_trial": 46, "dateTime": 1664464043770, "trialdata": {"rt": 699, "stimulus": "<p id='stroop-text' class='stroop-red'>RED</p>", "response": "r", "stimulus-type": "congruent", "word": "red", "color": "red", "correct_response": "r", "trial_id": "stroop-trial-1-congruent-20", "trial_type": "html-keyboard-response", "trial_index": 46, "time_elapsed": 135543, "internal_node_id": "0.0-4.0-42.0"}}, {"uniqueid": "w84779726:a47133947", "current_trial": 47, "dateTime": 1664464044880, "trialdata": {"rt": 603, "stimulus": "<p id='stroop-text' class='stroop-blue'>STONE</p>", "response": "b", "stimulus-type": "unrelated", "word": "STONE", "color": "blue", "correct_response": "b", "trial_id": "stroop-trial-1-unrelated-21", "trial_type": "html-keyboard-response", "trial_index": 47, "time_elapsed": 136653, "internal_node_id": "0.0-4.0-43.0"}}, {"uniqueid": "w84779726:a47133947", "current_trial": 48, "dateTime": 1664464046032, "trialdata": {"rt": 647, "stimulus": "<p id='stroop-text' class='stroop-yellow'>MONKEY</p>", "response": "y", "stimulus-type": "unrelated", "word": "MONKEY", "color": "yellow", "correct_response": "y", "trial_id": "stroop-trial-1-unrelated-24", "trial_type": "html-keyboard-response", "trial_index": 48, "time_elapsed": 137806, "internal_node_id": "0.0-4.0-44.0"}}, {"uniqueid": "w84779726:a47133947", "current_trial": 49, "dateTime": 1664464047071, "trialdata": {"rt": 536, "stimulus": "<p id='stroop-text' class='stroop-green'>STONE</p>", "response": "g", "stimulus-type": "unrelated", "word": "STONE", "color": "green", "correct_response": "g", "trial_id": "stroop-trial-1-unrelated-5", "trial_type": "html-keyboard-response", "trial_index": 49, "time_elapsed": 138844, "internal_node_id": "0.0-4.0-45.0"}}, {"uniqueid": "w84779726:a47133947", "current_trial": 50, "dateTime": 1664464048188, "trialdata": {"rt": 613, "stimulus": "<p id='stroop-text' class='stroop-yellow'>GREEN</p>", "response": "y", "stimulus-type": "incongruent", "word": "green", "color": "yellow", "correct_response": "y", "trial_id": "stroop-trial-1-incongruent-26", "trial_type": "html-keyboard-response", "trial_index": 50, "time_elapsed": 139962, "internal_node_id": "0.0-4.0-46.0"}}, {"uniqueid": "w84779726:a47133947", "current_trial": 51, "dateTime": 1664464049224, "trialdata": {"rt": 531, "stimulus": "<p id='stroop-text' class='stroop-green'>GREEN</p>", "response": "g", "stimulus-type": "congruent", "word": "green", "color": "green", "correct_response": "g", "trial_id": "stroop-trial-1-congruent-4", "trial_type": "html-keyboard-response", "trial_index": 51, "time_elapsed": 140997, "internal_node_id": "0.0-4.0-47.0"}}, {"uniqueid": "w84779726:a47133947", "current_trial": 52, "dateTime": 1664464050592, "trialdata": {"rt": 859, "stimulus": "<p id='stroop-text' class='stroop-yellow'>BLUE</p>", "response": "y", "stimulus-type": "incongruent", "word": "blue", "color": "yellow", "correct_response": "y", "trial_id": "stroop-trial-1-incongruent-23", "trial_type": "html-keyboard-response", "trial_index": 52, "time_elapsed": 142366, "internal_node_id": "0.0-4.0-48.0"}}, {"uniqueid": "w84779726:a47133947", "current_trial": 53, "dateTime": 1664464051671, "trialdata": {"rt": 574, "stimulus": "<p id='stroop-text' class='stroop-green'>GREEN</p>", "response": "g", "stimulus-type": "congruent", "word": "green", "color": "green", "correct_response": "g", "trial_id": "stroop-trial-1-congruent-5", "trial_type": "html-keyboard-response", "trial_index": 53, "time_elapsed": 143444, "internal_node_id": "0.0-4.0-49.0"}}, {"uniqueid": "w84779726:a47133947", "current_trial": 54, "dateTime": 1664464052743, "trialdata": {"rt": 569, "stimulus": "<p id='stroop-text' class='stroop-red'>YELLOW</p>", "response": "r", "stimulus-type": "incongruent", "word": "yellow", "color": "red", "correct_response": "r", "trial_id": "stroop-trial-1-incongruent-22", "trial_type": "html-keyboard-response", "trial_index": 54, "time_elapsed": 144517, "internal_node_id": "0.0-4.0-50.0"}}, {"uniqueid": "w84779726:a47133947", "current_trial": 55, "dateTime": 1664464053966, "trialdata": {"rt": 716, "stimulus": "<p id='stroop-text' class='stroop-green'>GREEN</p>", "response": "g", "stimulus-type": "congruent", "word": "green", "color": "green", "correct_response": "g", "trial_id": "stroop-trial-1-congruent-19", "trial_type": "html-keyboard-response", "trial_index": 55, "time_elapsed": 145740, "internal_node_id": "0.0-4.0-51.0"}}, {"uniqueid": "w84779726:a47133947", "current_trial": 56, "dateTime": 1664464056783, "trialdata": {"rt": 2314, "stimulus": "<p id='stroop-text' class='stroop-yellow'>YELLOW</p>", "response": "y", "stimulus-type": "congruent", "word": "yellow", "color": "yellow", "correct_response": "y", "trial_id": "stroop-trial-1-congruent-23", "trial_type": "html-keyboard-response", "trial_index": 56, "time_elapsed": 148557, "internal_node_id": "0.0-4.0-52.0"}}, {"uniqueid": "w84779726:a47133947", "current_trial": 57, "dateTime": 1664464057926, "trialdata": {"rt": 639, "stimulus": "<p id='stroop-text' class='stroop-red'>BRIDGE</p>", "response": "r", "stimulus-type": "unrelated", "word": "BRIDGE", "color": "red", "correct_response": "r", "trial_id": "stroop-trial-1-unrelated-3", "trial_type": "html-keyboard-response", "trial_index": 57, "time_elapsed": 149699, "internal_node_id": "0.0-4.0-53.0"}}, {"uniqueid": "w84779726:a47133947", "current_trial": 58, "dateTime": 1664464059109, "trialdata": {"rt": 679, "stimulus": "<p id='stroop-text' class='stroop-green'>BLUE</p>", "response": "g", "stimulus-type": "incongruent", "word": "blue", "color": "green", "correct_response": "g", "trial_id": "stroop-trial-1-incongruent-10", "trial_type": "html-keyboard-response", "trial_index": 58, "time_elapsed": 150883, "internal_node_id": "0.0-4.0-54.0"}}, {"uniqueid": "w84779726:a47133947", "current_trial": 59, "dateTime": 1664464060183, "trialdata": {"rt": 570, "stimulus": "<p id='stroop-text' class='stroop-blue'>BOAT</p>", "response": "b", "stimulus-type": "unrelated", "word": "BOAT", "color": "blue", "correct_response": "b", "trial_id": "stroop-trial-1-unrelated-1", "trial_type": "html-keyboard-response", "trial_index": 59, "time_elapsed": 151957, "internal_node_id": "0.0-4.0-55.0"}}, {"uniqueid": "w84779726:a47133947", "current_trial": 60, "dateTime": 1664464061436, "trialdata": {"rt": 749, "stimulus": "<p id='stroop-text' class='stroop-green'>YELLOW</p>", "response": "g", "stimulus-type": "incongruent", "word": "yellow", "color": "green", "correct_response": "g", "trial_id": "stroop-trial-1-incongruent-4", "trial_type": "html-keyboard-response", "trial_index": 60, "time_elapsed": 153209, "internal_node_id": "0.0-4.0-56.0"}}, {"uniqueid": "w84779726:a47133947", "current_trial": 61, "dateTime": 1664464062953, "trialdata": {"rt": 1014, "stimulus": "<p id='stroop-text' class='stroop-blue'>BLUE</p>", "response": "b", "stimulus-type": "congruent", "word": "blue", "color": "blue", "correct_response": "b", "trial_id": "stroop-trial-1-congruent-1", "trial_type": "html-keyboard-response", "trial_index": 61, "time_elapsed": 154727, "internal_node_id": "0.0-4.0-57.0"}}, {"uniqueid": "w84779726:a47133947", "current_trial": 62, "dateTime": 1664464063942, "trialdata": {"rt": 483, "stimulus": "<p id='stroop-text' class='stroop-blue'>YELLOW</p>", "response": "b", "stimulus-type": "incongruent", "word": "yellow", "color": "blue", "correct_response": "b", "trial_id": "stroop-trial-1-incongruent-18", "trial_type": "html-keyboard-response", "trial_index": 62, "time_elapsed": 155716, "internal_node_id": "0.0-4.0-58.0"}}, {"uniqueid": "w84779726:a47133947", "current_trial": 63, "dateTime": 1664464064986, "trialdata": {"rt": 540, "stimulus": "<p id='stroop-text' class='stroop-yellow'>YELLOW</p>", "response": "y", "stimulus-type": "congruent", "word": "yellow", "color": "yellow", "correct_response": "y", "trial_id": "stroop-trial-1-congruent-17", "trial_type": "html-keyboard-response", "trial_index": 63, "time_elapsed": 156759, "internal_node_id": "0.0-4.0-59.0"}}, {"uniqueid": "w84779726:a47133947", "current_trial": 64, "dateTime": 1664464066030, "trialdata": {"rt": 540, "stimulus": "<p id='stroop-text' class='stroop-green'>GREEN</p>", "response": "g", "stimulus-type": "congruent", "word": "green", "color": "green", "correct_response": "g", "trial_id": "stroop-trial-1-congruent-12", "trial_type": "html-keyboard-response", "trial_index": 64, "time_elapsed": 157803, "internal_node_id": "0.0-4.0-60.0"}}, {"uniqueid": "w84779726:a47133947", "current_trial": 65, "dateTime": 1664464067280, "trialdata": {"rt": 747, "stimulus": "<p id='stroop-text' class='stroop-green'>RED</p>", "response": "r", "stimulus-type": "incongruent", "word": "red", "color": "green", "correct_response": "g", "trial_id": "stroop-trial-1-incongruent-13", "trial_type": "html-keyboard-response", "trial_index": 65, "time_elapsed": 159054, "internal_node_id": "0.0-4.0-61.0"}}, {"uniqueid": "w84779726:a47133947", "current_trial": 66, "dateTime": 1664464069540, "trialdata": {"rt": 1756, "stimulus": "<p id='stroop-text' class='stroop-blue'>YELLOW</p>", "response": "b", "stimulus-type": "incongruent", "word": "yellow", "color": "blue", "correct_response": "b", "trial_id": "stroop-trial-1-incongruent-16", "trial_type": "html-keyboard-response", "trial_index": 66, "time_elapsed": 161313, "internal_node_id": "0.0-4.0-62.0"}}, {"uniqueid": "w84779726:a47133947", "current_trial": 67, "dateTime": 1664464070749, "trialdata": {"rt": 703, "stimulus": "<p id='stroop-text' class='stroop-green'>RED</p>", "response": "g", "stimulus-type": "incongruent", "word": "red", "color": "green", "correct_response": "g", "trial_id": "stroop-trial-1-incongruent-7", "trial_type": "html-keyboard-response", "trial_index": 67, "time_elapsed": 162522, "internal_node_id": "0.0-4.0-63.0"}}, {"uniqueid": "w84779726:a47133947", "current_trial": 68, "dateTime": 1664464071931, "trialdata": {"rt": 679, "stimulus": "<p id='stroop-text' class='stroop-red'>RED</p>", "response": "r", "stimulus-type": "congruent", "word": "red", "color": "red", "correct_response": "r", "trial_id": "stroop-trial-1-congruent-2", "trial_type": "html-keyboard-response", "trial_index": 68, "time_elapsed": 163705, "internal_node_id": "0.0-4.0-64.0"}}, {"uniqueid": "w84779726:a47133947", "current_trial": 69, "dateTime": 1664464073244, "trialdata": {"rt": 809, "stimulus": "<p id='stroop-text' class='stroop-yellow'>RED</p>", "response": "y", "stimulus-type": "incongruent", "word": "red", "color": "yellow", "correct_response": "y", "trial_id": "stroop-trial-1-incongruent-14", "trial_type": "html-keyboard-response", "trial_index": 69, "time_elapsed": 165018, "internal_node_id": "0.0-4.0-65.0"}}, {"uniqueid": "w84779726:a47133947", "current_trial": 70, "dateTime": 1664464074339, "trialdata": {"rt": 591, "stimulus": "<p id='stroop-text' class='stroop-blue'>BOAT</p>", "response": "b", "stimulus-type": "unrelated", "word": "BOAT", "color": "blue", "correct_response": "b", "trial_id": "stroop-trial-1-unrelated-23", "trial_type": "html-keyboard-response", "trial_index": 70, "time_elapsed": 166113, "internal_node_id": "0.0-4.0-66.0"}}, {"uniqueid": "w84779726:a47133947", "current_trial": 71, "dateTime": 1664464075472, "trialdata": {"rt": 629, "stimulus": "<p id='stroop-text' class='stroop-yellow'>YELLOW</p>", "response": "y", "stimulus-type": "congruent", "word": "yellow", "color": "yellow", "correct_response": "y", "trial_id": "stroop-trial-1-congruent-29", "trial_type": "html-keyboard-response", "trial_index": 71, "time_elapsed": 167245, "internal_node_id": "0.0-4.0-67.0"}}, {"uniqueid": "w84779726:a47133947", "current_trial": 72, "dateTime": 1664464077305, "trialdata": {"rt": 1330, "stimulus": "<p id='stroop-text' class='stroop-green'>BLUE</p>", "response": "g", "stimulus-type": "incongruent", "word": "blue", "color": "green", "correct_response": "g", "trial_id": "stroop-trial-1-incongruent-5", "trial_type": "html-keyboard-response", "trial_index": 72, "time_elapsed": 169079, "internal_node_id": "0.0-4.0-68.0"}}, {"uniqueid": "w84779726:a47133947", "current_trial": 73, "dateTime": 1664464078547, "trialdata": {"rt": 737, "stimulus": "<p id='stroop-text' class='stroop-red'>RED</p>", "response": "r", "stimulus-type": "congruent", "word": "red", "color": "red", "correct_response": "r", "trial_id": "stroop-trial-1-congruent-18", "trial_type": "html-keyboard-response", "trial_index": 73, "time_elapsed": 170321, "internal_node_id": "0.0-4.0-69.0"}}, {"uniqueid": "w84779726:a47133947", "current_trial": 74, "dateTime": 1664464079891, "trialdata": {"rt": 841, "stimulus": "<p id='stroop-text' class='stroop-yellow'>DOG</p>", "response": "y", "stimulus-type": "unrelated", "word": "DOG", "color": "yellow", "correct_response": "y", "trial_id": "stroop-trial-1-unrelated-14", "trial_type": "html-keyboard-response", "trial_index": 74, "time_elapsed": 171665, "internal_node_id": "0.0-4.0-70.0"}}, {"uniqueid": "w84779726:a47133947", "current_trial": 75, "dateTime": 1664464081590, "trialdata": {"rt": 1194, "stimulus": "<p id='stroop-text' class='stroop-green'>STONE</p>", "response": "g", "stimulus-type": "unrelated", "word": "STONE", "color": "green", "correct_response": "g", "trial_id": "stroop-trial-1-unrelated-27", "trial_type": "html-keyboard-response", "trial_index": 75, "time_elapsed": 173363, "internal_node_id": "0.0-4.0-71.0"}}, {"uniqueid": "w84779726:a47133947", "current_trial": 76, "dateTime": 1664464082822, "trialdata": {"rt": 730, "stimulus": "<p id='stroop-text' class='stroop-blue'>BLUE</p>", "response": "b", "stimulus-type": "congruent", "word": "blue", "color": "blue", "correct_response": "b", "trial_id": "stroop-trial-1-congruent-7", "trial_type": "html-keyboard-response", "trial_index": 76, "time_elapsed": 174596, "internal_node_id": "0.0-4.0-72.0"}}, {"uniqueid": "w84779726:a47133947", "current_trial": 77, "dateTime": 1664464084145, "trialdata": {"rt": 819, "stimulus": "<p id='stroop-text' class='stroop-green'>WINDOW</p>", "response": "g", "stimulus-type": "unrelated", "word": "WINDOW", "color": "green", "correct_response": "g", "trial_id": "stroop-trial-1-unrelated-2", "trial_type": "html-keyboard-response", "trial_index": 77, "time_elapsed": 175918, "internal_node_id": "0.0-4.0-73.0"}}, {"uniqueid": "w84779726:a47133947", "current_trial": 78, "dateTime": 1664464085278, "trialdata": {"rt": 628, "stimulus": "<p id='stroop-text' class='stroop-blue'>CHAIR</p>", "response": "b", "stimulus-type": "unrelated", "word": "CHAIR", "color": "blue", "correct_response": "b", "trial_id": "stroop-trial-1-unrelated-12", "trial_type": "html-keyboard-response", "trial_index": 78, "time_elapsed": 177052, "internal_node_id": "0.0-4.0-74.0"}}, {"uniqueid": "w84779726:a47133947", "current_trial": 79, "dateTime": 1664464086441, "trialdata": {"rt": 659, "stimulus": "<p id='stroop-text' class='stroop-yellow'>BLUE</p>", "response": "y", "stimulus-type": "incongruent", "word": "blue", "color": "yellow", "correct_response": "y", "trial_id": "stroop-trial-1-incongruent-1", "trial_type": "html-keyboard-response", "trial_index": 79, "time_elapsed": 178215, "internal_node_id": "0.0-4.0-75.0"}}, {"uniqueid": "w84779726:a47133947", "current_trial": 80, "dateTime": 1664464088923, "trialdata": {"rt": 1977, "stimulus": "<p id='stroop-text' class='stroop-blue'>RED</p>", "response": "b", "stimulus-type": "incongruent", "word": "red", "color": "blue", "correct_response": "b", "trial_id": "stroop-trial-1-incongruent-27", "trial_type": "html-keyboard-response", "trial_index": 80, "time_elapsed": 180696, "internal_node_id": "0.0-4.0-76.0"}}, {"uniqueid": "w84779726:a47133947", "current_trial": 81, "dateTime": 1664464089956, "trialdata": {"rt": 529, "stimulus": "<p id='stroop-text' class='stroop-yellow'>YELLOW</p>", "response": "y", "stimulus-type": "congruent", "word": "yellow", "color": "yellow", "correct_response": "y", "trial_id": "stroop-trial-1-congruent-10", "trial_type": "html-keyboard-response", "trial_index": 81, "time_elapsed": 181730, "internal_node_id": "0.0-4.0-77.0"}}, {"uniqueid": "w84779726:a47133947", "current_trial": 82, "dateTime": 1664464091376, "trialdata": {"rt": 915, "stimulus": "<p id='stroop-text' class='stroop-blue'>BLUE</p>", "response": "b", "stimulus-type": "congruent", "word": "blue", "color": "blue", "correct_response": "b", "trial_id": "stroop-trial-1-congruent-13", "trial_type": "html-keyboard-response", "trial_index": 82, "time_elapsed": 183149, "internal_node_id": "0.0-4.0-78.0"}}, {"uniqueid": "w84779726:a47133947", "current_trial": 83, "dateTime": 1664464092314, "trialdata": {"rt": 433, "stimulus": "<p id='stroop-text' class='stroop-blue'>BLUE</p>", "response": "b", "stimulus-type": "congruent", "word": "blue", "color": "blue", "correct_response": "b", "trial_id": "stroop-trial-1-congruent-14", "trial_type": "html-keyboard-response", "trial_index": 83, "time_elapsed": 184088, "internal_node_id": "0.0-4.0-79.0"}}, {"uniqueid": "w84779726:a47133947", "current_trial": 84, "dateTime": 1664464093438, "trialdata": {"rt": 620, "stimulus": "<p id='stroop-text' class='stroop-yellow'>CHAIR</p>", "response": "y", "stimulus-type": "unrelated", "word": "CHAIR", "color": "yellow", "correct_response": "y", "trial_id": "stroop-trial-1-unrelated-28", "trial_type": "html-keyboard-response", "trial_index": 84, "time_elapsed": 185211, "internal_node_id": "0.0-4.0-80.0"}}, {"uniqueid": "w84779726:a47133947", "current_trial": 85, "dateTime": 1664464094431, "trialdata": {"rt": 489, "stimulus": "<p id='stroop-text' class='stroop-red'>RED</p>", "response": "r", "stimulus-type": "congruent", "word": "red", "color": "red", "correct_response": "r", "trial_id": "stroop-trial-1-congruent-9", "trial_type": "html-keyboard-response", "trial_index": 85, "time_elapsed": 186205, "internal_node_id": "0.0-4.0-81.0"}}, {"uniqueid": "w84779726:a47133947", "current_trial": 86, "dateTime": 1664464095365, "trialdata": {"rt": 425, "stimulus": "<p id='stroop-text' class='stroop-green'>GREEN</p>", "response": "g", "stimulus-type": "congruent", "word": "green", "color": "green", "correct_response": "g", "trial_id": "stroop-trial-1-congruent-15", "trial_type": "html-keyboard-response", "trial_index": 86, "time_elapsed": 187138, "internal_node_id": "0.0-4.0-82.0"}}, {"uniqueid": "w84779726:a47133947", "current_trial": 87, "dateTime": 1664464096552, "trialdata": {"rt": 683, "stimulus": "<p id='stroop-text' class='stroop-red'>GREEN</p>", "response": "r", "stimulus-type": "incongruent", "word": "green", "color": "red", "correct_response": "r", "trial_id": "stroop-trial-1-incongruent-9", "trial_type": "html-keyboard-response", "trial_index": 87, "time_elapsed": 188325, "internal_node_id": "0.0-4.0-83.0"}}, {"uniqueid": "w84779726:a47133947", "current_trial": 88, "dateTime": 1664464097642, "trialdata": {"rt": 585, "stimulus": "<p id='stroop-text' class='stroop-blue'>BRIDGE</p>", "response": "b", "stimulus-type": "unrelated", "word": "BRIDGE", "color": "blue", "correct_response": "b", "trial_id": "stroop-trial-1-unrelated-19", "trial_type": "html-keyboard-response", "trial_index": 88, "time_elapsed": 189415, "internal_node_id": "0.0-4.0-84.0"}}, {"uniqueid": "w84779726:a47133947", "current_trial": 89, "dateTime": 1664464098740, "trialdata": {"rt": 594, "stimulus": "<p id='stroop-text' class='stroop-green'>GREEN</p>", "response": "g", "stimulus-type": "congruent", "word": "green", "color": "green", "correct_response": "g", "trial_id": "stroop-trial-1-congruent-25", "trial_type": "html-keyboard-response", "trial_index": 89, "time_elapsed": 190514, "internal_node_id": "0.0-4.0-85.0"}}, {"uniqueid": "w84779726:a47133947", "current_trial": 90, "dateTime": 1664464099760, "trialdata": {"rt": 515, "stimulus": "<p id='stroop-text' class='stroop-yellow'>YELLOW</p>", "response": "y", "stimulus-type": "congruent", "word": "yellow", "color": "yellow", "correct_response": "y", "trial_id": "stroop-trial-1-congruent-16", "trial_type": "html-keyboard-response", "trial_index": 90, "time_elapsed": 191533, "internal_node_id": "0.0-4.0-86.0"}}, {"uniqueid": "w84779726:a47133947", "current_trial": 91, "dateTime": 1664464101276, "trialdata": {"rt": 1013, "stimulus": "<p id='stroop-text' class='stroop-green'>RED</p>", "response": "g", "stimulus-type": "incongruent", "word": "red", "color": "green", "correct_response": "g", "trial_id": "stroop-trial-1-incongruent-30", "trial_type": "html-keyboard-response", "trial_index": 91, "time_elapsed": 193050, "internal_node_id": "0.0-4.0-87.0"}}, {"uniqueid": "w84779726:a47133947", "current_trial": 92, "dateTime": 1664464102328, "trialdata": {"rt": 549, "stimulus": "<p id='stroop-text' class='stroop-green'>RED</p>", "response": "g", "stimulus-type": "incongruent", "word": "red", "color": "green", "correct_response": "g", "trial_id": "stroop-trial-1-incongruent-8", "trial_type": "html-keyboard-response", "trial_index": 92, "time_elapsed": 194102, "internal_node_id": "0.0-4.0-88.0"}}, {"uniqueid": "w84779726:a47133947", "current_trial": 93, "dateTime": 1664464103577, "trialdata": {"rt": 744, "stimulus": "<p id='stroop-text' class='stroop-yellow'>YELLOW</p>", "response": "y", "stimulus-type": "congruent", "word": "yellow", "color": "yellow", "correct_response": "y", "trial_id": "stroop-trial-1-congruent-3", "trial_type": "html-keyboard-response", "trial_index": 93, "time_elapsed": 195351, "internal_node_id": "0.0-4.0-89.0"}}, {"uniqueid": "w84779726:a47133947", "current_trial": 94, "dateTime": 1664464141731, "trialdata": {"rt": 37648, "stimulus": "  <h1> End of block! </h1>\n\n  You have reached the end of the block 1/5. If you need a short break, feel free to take one now before moving on.\n\n  <br><br>\n  In the next block, you will complete another 90 rounds of this game.\n\n  <br><br>\n  <div style='text-align: center;'>Press <code>space</code> to begin.</div>\n  <br><br>\n<div style='text-align: center;'>(If the experiment doesn't continue, try clicking on the text and then pressing <code>space</code>.)</div>", "response": " ", "trial_id": "stroop_1_ready_2", "trial_type": "html-keyboard-response", "trial_index": 94, "time_elapsed": 233505, "internal_node_id": "0.0-5.0"}}, {"uniqueid": "w84779726:a47133947", "current_trial": 95, "dateTime": 1664464143768, "trialdata": {"rt": 2032, "stimulus": "<p id='stroop-text' class='stroop-yellow'>STONE</p>", "response": "y", "stimulus-type": "unrelated", "word": "STONE", "color": "yellow", "correct_response": "y", "trial_id": "stroop-trial-1-unrelated-21", "trial_type": "html-keyboard-response", "trial_index": 95, "time_elapsed": 235542, "internal_node_id": "0.0-6.0-0.0"}}, {"uniqueid": "w84779726:a47133947", "current_trial": 96, "dateTime": 1664464144781, "trialdata": {"rt": 509, "stimulus": "<p id='stroop-text' class='stroop-green'>GREEN</p>", "response": "g", "stimulus-type": "congruent", "word": "green", "color": "green", "correct_response": "g", "trial_id": "stroop-trial-1-congruent-3", "trial_type": "html-keyboard-response", "trial_index": 96, "time_elapsed": 236555, "internal_node_id": "0.0-6.0-1.0"}}, {"uniqueid": "w84779726:a47133947", "current_trial": 97, "dateTime": 1664464145771, "trialdata": {"rt": 485, "stimulus": "<p id='stroop-text' class='stroop-red'>MONKEY</p>", "response": "r", "stimulus-type": "unrelated", "word": "MONKEY", "color": "red", "correct_response": "r", "trial_id": "stroop-trial-1-unrelated-22", "trial_type": "html-keyboard-response", "trial_index": 97, "time_elapsed": 237545, "internal_node_id": "0.0-6.0-2.0"}}, {"uniqueid": "w84779726:a47133947", "current_trial": 98, "dateTime": 1664464146889, "trialdata": {"rt": 614, "stimulus": "<p id='stroop-text' class='stroop-blue'>BOAT</p>", "response": "b", "stimulus-type": "unrelated", "word": "BOAT", "color": "blue", "correct_response": "b", "trial_id": "stroop-trial-1-unrelated-2", "trial_type": "html-keyboard-response", "trial_index": 98, "time_elapsed": 238663, "internal_node_id": "0.0-6.0-3.0"}}, {"uniqueid": "w84779726:a47133947", "current_trial": 99, "dateTime": 1664464147967, "trialdata": {"rt": 573, "stimulus": "<p id='stroop-text' class='stroop-yellow'>BLUE</p>", "response": "y", "stimulus-type": "incongruent", "word": "blue", "color": "yellow", "correct_response": "y", "trial_id": "stroop-trial-1-incongruent-9", "trial_type": "html-keyboard-response", "trial_index": 99, "time_elapsed": 239740, "internal_node_id": "0.0-6.0-4.0"}}, {"uniqueid": "w84779726:a47133947", "current_trial": 100, "dateTime": 1664464149245, "trialdata": {"rt": 775, "stimulus": "<p id='stroop-text' class='stroop-blue'>WINDOW</p>", "response": "b", "stimulus-type": "unrelated", "word": "WINDOW", "color": "blue", "correct_response": "b", "trial_id": "stroop-trial-1-unrelated-9", "trial_type": "html-keyboard-response", "trial_index": 100, "time_elapsed": 241019, "internal_node_id": "0.0-6.0-5.0"}}, {"uniqueid": "w84779726:a47133947", "current_trial": 101, "dateTime": 1664464150393, "trialdata": {"rt": 643, "stimulus": "<p id='stroop-text' class='stroop-red'>BRAIN</p>", "response": "r", "stimulus-type": "unrelated", "word": "BRAIN", "color": "red", "correct_response": "r", "trial_id": "stroop-trial-1-unrelated-15", "trial_type": "html-keyboard-response", "trial_index": 101, "time_elapsed": 242167, "internal_node_id": "0.0-6.0-6.0"}}, {"uniqueid": "w84779726:a47133947", "current_trial": 102, "dateTime": 1664464151552, "trialdata": {"rt": 655, "stimulus": "<p id='stroop-text' class='stroop-green'>RED</p>", "response": "g", "stimulus-type": "incongruent", "word": "red", "color": "green", "correct_response": "g", "trial_id": "stroop-trial-1-incongruent-19", "trial_type": "html-keyboard-response", "trial_index": 102, "time_elapsed": 243325, "internal_node_id": "0.0-6.0-7.0"}}, {"uniqueid": "w84779726:a47133947", "current_trial": 103, "dateTime": 1664464152824, "trialdata": {"rt": 767, "stimulus": "<p id='stroop-text' class='stroop-red'>RED</p>", "response": "r", "stimulus-type": "congruent", "word": "red", "color": "red", "correct_response": "r", "trial_id": "stroop-trial-1-congruent-7", "trial_type": "html-keyboard-response", "trial_index": 103, "time_elapsed": 244598, "internal_node_id": "0.0-6.0-8.0"}}, {"uniqueid": "w84779726:a47133947", "current_trial": 104, "dateTime": 1664464154283, "trialdata": {"rt": 954, "stimulus": "<p id='stroop-text' class='stroop-blue'>YELLOW</p>", "response": "b", "stimulus-type": "incongruent", "word": "yellow", "color": "blue", "correct_response": "b", "trial_id": "stroop-trial-1-incongruent-3", "trial_type": "html-keyboard-response", "trial_index": 104, "time_elapsed": 246057, "internal_node_id": "0.0-6.0-9.0"}}, {"uniqueid": "w84779726:a47133947", "current_trial": 105, "dateTime": 1664464155511, "trialdata": {"rt": 710, "stimulus": "<p id='stroop-text' class='stroop-red'>BOAT</p>", "response": "r", "stimulus-type": "unrelated", "word": "BOAT", "color": "red", "correct_response": "r", "trial_id": "stroop-trial-1-unrelated-8", "trial_type": "html-keyboard-response", "trial_index": 105, "time_elapsed": 247285, "internal_node_id": "0.0-6.0-10.0"}}, {"uniqueid": "w84779726:a47133947", "current_trial": 106, "dateTime": 1664464156675, "trialdata": {"rt": 659, "stimulus": "<p id='stroop-text' class='stroop-blue'>BLUE</p>", "response": "b", "stimulus-type": "congruent", "word": "blue", "color": "blue", "correct_response": "b", "trial_id": "stroop-trial-1-congruent-5", "trial_type": "html-keyboard-response", "trial_index": 106, "time_elapsed": 248448, "internal_node_id": "0.0-6.0-11.0"}}, {"uniqueid": "w84779726:a47133947", "current_trial": 107, "dateTime": 1664464157908, "trialdata": {"rt": 728, "stimulus": "<p id='stroop-text' class='stroop-blue'>GREEN</p>", "response": "b", "stimulus-type": "incongruent", "word": "green", "color": "blue", "correct_response": "b", "trial_id": "stroop-trial-1-incongruent-17", "trial_type": "html-keyboard-response", "trial_index": 107, "time_elapsed": 249682, "internal_node_id": "0.0-6.0-12.0"}}, {"uniqueid": "w84779726:a47133947", "current_trial": 108, "dateTime": 1664464159217, "trialdata": {"rt": 804, "stimulus": "<p id='stroop-text' class='stroop-green'>YELLOW</p>", "response": "g", "stimulus-type": "incongruent", "word": "yellow", "color": "green", "correct_response": "g", "trial_id": "stroop-trial-1-incongruent-15", "trial_type": "html-keyboard-response", "trial_index": 108, "time_elapsed": 250990, "internal_node_id": "0.0-6.0-13.0"}}, {"uniqueid": "w84779726:a47133947", "current_trial": 109, "dateTime": 1664464160230, "trialdata": {"rt": 509, "stimulus": "<p id='stroop-text' class='stroop-yellow'>YELLOW</p>", "response": "y", "stimulus-type": "congruent", "word": "yellow", "color": "yellow", "correct_response": "y", "trial_id": "stroop-trial-1-congruent-26", "trial_type": "html-keyboard-response", "trial_index": 109, "time_elapsed": 252003, "internal_node_id": "0.0-6.0-14.0"}}, {"uniqueid": "w84779726:a47133947", "current_trial": 110, "dateTime": 1664464161808, "trialdata": {"rt": 1074, "stimulus": "<p id='stroop-text' class='stroop-yellow'>RED</p>", "response": "y", "stimulus-type": "incongruent", "word": "red", "color": "yellow", "correct_response": "y", "trial_id": "stroop-trial-1-incongruent-4", "trial_type": "html-keyboard-response", "trial_index": 110, "time_elapsed": 253581, "internal_node_id": "0.0-6.0-15.0"}}, {"uniqueid": "w84779726:a47133947", "current_trial": 111, "dateTime": 1664464162926, "trialdata": {"rt": 613, "stimulus": "<p id='stroop-text' class='stroop-green'>GREEN</p>", "response": "g", "stimulus-type": "congruent", "word": "green", "color": "green", "correct_response": "g", "trial_id": "stroop-trial-1-congruent-6", "trial_type": "html-keyboard-response", "trial_index": 111, "time_elapsed": 254700, "internal_node_id": "0.0-6.0-16.0"}}, {"uniqueid": "w84779726:a47133947", "current_trial": 112, "dateTime": 1664464164285, "trialdata": {"rt": 855, "stimulus": "<p id='stroop-text' class='stroop-blue'>RED</p>", "response": "b", "stimulus-type": "incongruent", "word": "red", "color": "blue", "correct_response": "b", "trial_id": "stroop-trial-1-incongruent-27", "trial_type": "html-keyboard-response", "trial_index": 112, "time_elapsed": 256059, "internal_node_id": "0.0-6.0-17.0"}}, {"uniqueid": "w84779726:a47133947", "current_trial": 113, "dateTime": 1664464165554, "trialdata": {"rt": 765, "stimulus": "<p id='stroop-text' class='stroop-green'>RED</p>", "response": "g", "stimulus-type": "incongruent", "word": "red", "color": "green", "correct_response": "g", "trial_id": "stroop-trial-1-incongruent-11", "trial_type": "html-keyboard-response", "trial_index": 113, "time_elapsed": 257328, "internal_node_id": "0.0-6.0-18.0"}}, {"uniqueid": "w84779726:a47133947", "current_trial": 114, "dateTime": 1664464166960, "trialdata": {"rt": 902, "stimulus": "<p id='stroop-text' class='stroop-blue'>BLUE</p>", "response": "b", "stimulus-type": "congruent", "word": "blue", "color": "blue", "correct_response": "b", "trial_id": "stroop-trial-1-congruent-22", "trial_type": "html-keyboard-response", "trial_index": 114, "time_elapsed": 258734, "internal_node_id": "0.0-6.0-19.0"}}, {"uniqueid": "w84779726:a47133947", "current_trial": 115, "dateTime": 1664464170287, "trialdata": {"rt": 2821, "stimulus": "<p id='stroop-text' class='stroop-green'>RED</p>", "response": "g", "stimulus-type": "incongruent", "word": "red", "color": "green", "correct_response": "g", "trial_id": "stroop-trial-1-incongruent-8", "trial_type": "html-keyboard-response", "trial_index": 115, "time_elapsed": 262060, "internal_node_id": "0.0-6.0-20.0"}}, {"uniqueid": "w84779726:a47133947", "current_trial": 116, "dateTime": 1664464171314, "trialdata": {"rt": 523, "stimulus": "<p id='stroop-text' class='stroop-green'>GREEN</p>", "response": "g", "stimulus-type": "congruent", "word": "green", "color": "green", "correct_response": "g", "trial_id": "stroop-trial-1-congruent-17", "trial_type": "html-keyboard-response", "trial_index": 116, "time_elapsed": 263087, "internal_node_id": "0.0-6.0-21.0"}}, {"uniqueid": "w84779726:a47133947", "current_trial": 117, "dateTime": 1664464172443, "trialdata": {"rt": 624, "stimulus": "<p id='stroop-text' class='stroop-blue'>BLUE</p>", "response": "b", "stimulus-type": "congruent", "word": "blue", "color": "blue", "correct_response": "b", "trial_id": "stroop-trial-1-congruent-2", "trial_type": "html-keyboard-response", "trial_index": 117, "time_elapsed": 264216, "internal_node_id": "0.0-6.0-22.0"}}, {"uniqueid": "w84779726:a47133947", "current_trial": 118, "dateTime": 1664464173481, "trialdata": {"rt": 520, "stimulus": "<p id='stroop-text' class='stroop-green'>GREEN</p>", "response": "g", "stimulus-type": "congruent", "word": "green", "color": "green", "correct_response": "g", "trial_id": "stroop-trial-1-congruent-24", "trial_type": "html-keyboard-response", "trial_index": 118, "time_elapsed": 265255, "internal_node_id": "0.0-6.0-23.0"}}, {"uniqueid": "w84779726:a47133947", "current_trial": 119, "dateTime": 1664464175100, "trialdata": {"rt": 1114, "stimulus": "<p id='stroop-text' class='stroop-yellow'>BLUE</p>", "response": "y", "stimulus-type": "incongruent", "word": "blue", "color": "yellow", "correct_response": "y", "trial_id": "stroop-trial-1-incongruent-1", "trial_type": "html-keyboard-response", "trial_index": 119, "time_elapsed": 266873, "internal_node_id": "0.0-6.0-24.0"}}, {"uniqueid": "w84779726:a47133947", "current_trial": 120, "dateTime": 1664464176333, "trialdata": {"rt": 729, "stimulus": "<p id='stroop-text' class='stroop-yellow'>MONKEY</p>", "response": "y", "stimulus-type": "unrelated", "word": "MONKEY", "color": "yellow", "correct_response": "y", "trial_id": "stroop-trial-1-unrelated-17", "trial_type": "html-keyboard-response", "trial_index": 120, "time_elapsed": 268106, "internal_node_id": "0.0-6.0-25.0"}}, {"uniqueid": "w84779726:a47133947", "current_trial": 121, "dateTime": 1664464177371, "trialdata": {"rt": 525, "stimulus": "<p id='stroop-text' class='stroop-green'>GREEN</p>", "response": "g", "stimulus-type": "congruent", "word": "green", "color": "green", "correct_response": "g", "trial_id": "stroop-trial-1-congruent-4", "trial_type": "html-keyboard-response", "trial_index": 121, "time_elapsed": 269145, "internal_node_id": "0.0-6.0-26.0"}}, {"uniqueid": "w84779726:a47133947", "current_trial": 122, "dateTime": 1664464178475, "trialdata": {"rt": 598, "stimulus": "<p id='stroop-text' class='stroop-green'>BLUE</p>", "response": "g", "stimulus-type": "incongruent", "word": "blue", "color": "green", "correct_response": "g", "trial_id": "stroop-trial-1-incongruent-24", "trial_type": "html-keyboard-response", "trial_index": 122, "time_elapsed": 270248, "internal_node_id": "0.0-6.0-27.0"}}, {"uniqueid": "w84779726:a47133947", "current_trial": 123, "dateTime": 1664464179662, "trialdata": {"rt": 684, "stimulus": "<p id='stroop-text' class='stroop-red'>RED</p>", "response": "r", "stimulus-type": "congruent", "word": "red", "color": "red", "correct_response": "r", "trial_id": "stroop-trial-1-congruent-13", "trial_type": "html-keyboard-response", "trial_index": 123, "time_elapsed": 271435, "internal_node_id": "0.0-6.0-28.0"}}, {"uniqueid": "w84779726:a47133947", "current_trial": 124, "dateTime": 1664464180721, "trialdata": {"rt": 556, "stimulus": "<p id='stroop-text' class='stroop-red'>FORK</p>", "response": "r", "stimulus-type": "unrelated", "word": "FORK", "color": "red", "correct_response": "r", "trial_id": "stroop-trial-1-unrelated-29", "trial_type": "html-keyboard-response", "trial_index": 124, "time_elapsed": 272494, "internal_node_id": "0.0-6.0-29.0"}}, {"uniqueid": "w84779726:a47133947", "current_trial": 125, "dateTime": 1664464181800, "trialdata": {"rt": 574, "stimulus": "<p id='stroop-text' class='stroop-red'>DOG</p>", "response": "r", "stimulus-type": "unrelated", "word": "DOG", "color": "red", "correct_response": "r", "trial_id": "stroop-trial-1-unrelated-24", "trial_type": "html-keyboard-response", "trial_index": 125, "time_elapsed": 273574, "internal_node_id": "0.0-6.0-30.0"}}, {"uniqueid": "w84779726:a47133947", "current_trial": 126, "dateTime": 1664464182838, "trialdata": {"rt": 533, "stimulus": "<p id='stroop-text' class='stroop-green'>GREEN</p>", "response": "g", "stimulus-type": "congruent", "word": "green", "color": "green", "correct_response": "g", "trial_id": "stroop-trial-1-congruent-29", "trial_type": "html-keyboard-response", "trial_index": 126, "time_elapsed": 274612, "internal_node_id": "0.0-6.0-31.0"}}, {"uniqueid": "w84779726:a47133947", "current_trial": 127, "dateTime": 1664464183866, "trialdata": {"rt": 524, "stimulus": "<p id='stroop-text' class='stroop-blue'>RED</p>", "response": "b", "stimulus-type": "incongruent", "word": "red", "color": "blue", "correct_response": "b", "trial_id": "stroop-trial-1-incongruent-14", "trial_type": "html-keyboard-response", "trial_index": 127, "time_elapsed": 275640, "internal_node_id": "0.0-6.0-32.0"}}, {"uniqueid": "w84779726:a47133947", "current_trial": 128, "dateTime": 1664464185151, "trialdata": {"rt": 781, "stimulus": "<p id='stroop-text' class='stroop-red'>GREEN</p>", "response": "r", "stimulus-type": "incongruent", "word": "green", "color": "red", "correct_response": "r", "trial_id": "stroop-trial-1-incongruent-20", "trial_type": "html-keyboard-response", "trial_index": 128, "time_elapsed": 276924, "internal_node_id": "0.0-6.0-33.0"}}, {"uniqueid": "w84779726:a47133947", "current_trial": 129, "dateTime": 1664464186167, "trialdata": {"rt": 512, "stimulus": "<p id='stroop-text' class='stroop-yellow'>BRAIN</p>", "response": "y", "stimulus-type": "unrelated", "word": "BRAIN", "color": "yellow", "correct_response": "y", "trial_id": "stroop-trial-1-unrelated-1", "trial_type": "html-keyboard-response", "trial_index": 129, "time_elapsed": 277940, "internal_node_id": "0.0-6.0-34.0"}}, {"uniqueid": "w84779726:a47133947", "current_trial": 130, "dateTime": 1664464187247, "trialdata": {"rt": 575, "stimulus": "<p id='stroop-text' class='stroop-yellow'>YELLOW</p>", "response": "y", "stimulus-type": "congruent", "word": "yellow", "color": "yellow", "correct_response": "y", "trial_id": "stroop-trial-1-congruent-18", "trial_type": "html-keyboard-response", "trial_index": 130, "time_elapsed": 279020, "internal_node_id": "0.0-6.0-35.0"}}, {"uniqueid": "w84779726:a47133947", "current_trial": 131, "dateTime": 1664464188211, "trialdata": {"rt": 450, "stimulus": "<p id='stroop-text' class='stroop-green'>GREEN</p>", "response": "g", "stimulus-type": "congruent", "word": "green", "color": "green", "correct_response": "g", "trial_id": "stroop-trial-1-congruent-9", "trial_type": "html-keyboard-response", "trial_index": 131, "time_elapsed": 279984, "internal_node_id": "0.0-6.0-36.0"}}, {"uniqueid": "w84779726:a47133947", "current_trial": 132, "dateTime": 1664464189355, "trialdata": {"rt": 637, "stimulus": "<p id='stroop-text' class='stroop-green'>BOTTLE</p>", "response": "g", "stimulus-type": "unrelated", "word": "BOTTLE", "color": "green", "correct_response": "g", "trial_id": "stroop-trial-1-unrelated-4", "trial_type": "html-keyboard-response", "trial_index": 132, "time_elapsed": 281128, "internal_node_id": "0.0-6.0-37.0"}}, {"uniqueid": "w84779726:a47133947", "current_trial": 133, "dateTime": 1664464190452, "trialdata": {"rt": 595, "stimulus": "<p id='stroop-text' class='stroop-red'>BRAIN</p>", "response": "r", "stimulus-type": "unrelated", "word": "BRAIN", "color": "red", "correct_response": "r", "trial_id": "stroop-trial-1-unrelated-25", "trial_type": "html-keyboard-response", "trial_index": 133, "time_elapsed": 282226, "internal_node_id": "0.0-6.0-38.0"}}, {"uniqueid": "w84779726:a47133947", "current_trial": 134, "dateTime": 1664464191602, "trialdata": {"rt": 645, "stimulus": "<p id='stroop-text' class='stroop-yellow'>GREEN</p>", "response": "y", "stimulus-type": "incongruent", "word": "green", "color": "yellow", "correct_response": "y", "trial_id": "stroop-trial-1-incongruent-30", "trial_type": "html-keyboard-response", "trial_index": 134, "time_elapsed": 283376, "internal_node_id": "0.0-6.0-39.0"}}, {"uniqueid": "w84779726:a47133947", "current_trial": 135, "dateTime": 1664464193345, "trialdata": {"rt": 1239, "stimulus": "<p id='stroop-text' class='stroop-red'>SHIP</p>", "response": "r", "stimulus-type": "unrelated", "word": "SHIP", "color": "red", "correct_response": "r", "trial_id": "stroop-trial-1-unrelated-12", "trial_type": "html-keyboard-response", "trial_index": 135, "time_elapsed": 285118, "internal_node_id": "0.0-6.0-40.0"}}, {"uniqueid": "w84779726:a47133947", "current_trial": 136, "dateTime": 1664464194506, "trialdata": {"rt": 656, "stimulus": "<p id='stroop-text' class='stroop-yellow'>BRIDGE</p>", "response": "y", "stimulus-type": "unrelated", "word": "BRIDGE", "color": "yellow", "correct_response": "y", "trial_id": "stroop-trial-1-unrelated-23", "trial_type": "html-keyboard-response", "trial_index": 136, "time_elapsed": 286280, "internal_node_id": "0.0-6.0-41.0"}}, {"uniqueid": "w84779726:a47133947", "current_trial": 137, "dateTime": 1664464195714, "trialdata": {"rt": 703, "stimulus": "<p id='stroop-text' class='stroop-blue'>RED</p>", "response": "b", "stimulus-type": "incongruent", "word": "red", "color": "blue", "correct_response": "b", "trial_id": "stroop-trial-1-incongruent-22", "trial_type": "html-keyboard-response", "trial_index": 137, "time_elapsed": 287487, "internal_node_id": "0.0-6.0-42.0"}}, {"uniqueid": "w84779726:a47133947", "current_trial": 138, "dateTime": 1664464196929, "trialdata": {"rt": 712, "stimulus": "<p id='stroop-text' class='stroop-green'>CHAIR</p>", "response": "g", "stimulus-type": "unrelated", "word": "CHAIR", "color": "green", "correct_response": "g", "trial_id": "stroop-trial-1-unrelated-20", "trial_type": "html-keyboard-response", "trial_index": 138, "time_elapsed": 288703, "internal_node_id": "0.0-6.0-43.0"}}, {"uniqueid": "w84779726:a47133947", "current_trial": 139, "dateTime": 1664464198212, "trialdata": {"rt": 776, "stimulus": "<p id='stroop-text' class='stroop-yellow'>BRIDGE</p>", "response": "y", "stimulus-type": "unrelated", "word": "BRIDGE", "color": "yellow", "correct_response": "y", "trial_id": "stroop-trial-1-unrelated-10", "trial_type": "html-keyboard-response", "trial_index": 139, "time_elapsed": 289985, "internal_node_id": "0.0-6.0-44.0"}}, {"uniqueid": "w84779726:a47133947", "current_trial": 140, "dateTime": 1664464199414, "trialdata": {"rt": 698, "stimulus": "<p id='stroop-text' class='stroop-yellow'>RED</p>", "response": "y", "stimulus-type": "incongruent", "word": "red", "color": "yellow", "correct_response": "y", "trial_id": "stroop-trial-1-incongruent-21", "trial_type": "html-keyboard-response", "trial_index": 140, "time_elapsed": 291188, "internal_node_id": "0.0-6.0-45.0"}}, {"uniqueid": "w84779726:a47133947", "current_trial": 141, "dateTime": 1664464200408, "trialdata": {"rt": 489, "stimulus": "<p id='stroop-text' class='stroop-blue'>YELLOW</p>", "response": "b", "stimulus-type": "incongruent", "word": "yellow", "color": "blue", "correct_response": "b", "trial_id": "stroop-trial-1-incongruent-12", "trial_type": "html-keyboard-response", "trial_index": 141, "time_elapsed": 292182, "internal_node_id": "0.0-6.0-46.0"}}, {"uniqueid": "w84779726:a47133947", "current_trial": 142, "dateTime": 1664464201622, "trialdata": {"rt": 708, "stimulus": "<p id='stroop-text' class='stroop-green'>YELLOW</p>", "response": "g", "stimulus-type": "incongruent", "word": "yellow", "color": "green", "correct_response": "g", "trial_id": "stroop-trial-1-incongruent-5", "trial_type": "html-keyboard-response", "trial_index": 142, "time_elapsed": 293396, "internal_node_id": "0.0-6.0-47.0"}}, {"uniqueid": "w84779726:a47133947", "current_trial": 143, "dateTime": 1664464202855, "trialdata": {"rt": 726, "stimulus": "<p id='stroop-text' class='stroop-blue'>BLUE</p>", "response": "b", "stimulus-type": "congruent", "word": "blue", "color": "blue", "correct_response": "b", "trial_id": "stroop-trial-1-congruent-10", "trial_type": "html-keyboard-response", "trial_index": 143, "time_elapsed": 294628, "internal_node_id": "0.0-6.0-48.0"}}, {"uniqueid": "w84779726:a47133947", "current_trial": 144, "dateTime": 1664464203973, "trialdata": {"rt": 615, "stimulus": "<p id='stroop-text' class='stroop-red'>BLUE</p>", "response": "r", "stimulus-type": "incongruent", "word": "blue", "color": "red", "correct_response": "r", "trial_id": "stroop-trial-1-incongruent-26", "trial_type": "html-keyboard-response", "trial_index": 144, "time_elapsed": 295747, "internal_node_id": "0.0-6.0-49.0"}}, {"uniqueid": "w84779726:a47133947", "current_trial": 145, "dateTime": 1664464205066, "trialdata": {"rt": 582, "stimulus": "<p id='stroop-text' class='stroop-red'>RED</p>", "response": "r", "stimulus-type": "congruent", "word": "red", "color": "red", "correct_response": "r", "trial_id": "stroop-trial-1-congruent-8", "trial_type": "html-keyboard-response", "trial_index": 145, "time_elapsed": 296839, "internal_node_id": "0.0-6.0-50.0"}}, {"uniqueid": "w84779726:a47133947", "current_trial": 146, "dateTime": 1664464206100, "trialdata": {"rt": 527, "stimulus": "<p id='stroop-text' class='stroop-yellow'>YELLOW</p>", "response": "y", "stimulus-type": "congruent", "word": "yellow", "color": "yellow", "correct_response": "y", "trial_id": "stroop-trial-1-congruent-28", "trial_type": "html-keyboard-response", "trial_index": 146, "time_elapsed": 297873, "internal_node_id": "0.0-6.0-51.0"}}, {"uniqueid": "w84779726:a47133947", "current_trial": 147, "dateTime": 1664464207059, "trialdata": {"rt": 455, "stimulus": "<p id='stroop-text' class='stroop-green'>GREEN</p>", "response": "g", "stimulus-type": "congruent", "word": "green", "color": "green", "correct_response": "g", "trial_id": "stroop-trial-1-congruent-27", "trial_type": "html-keyboard-response", "trial_index": 147, "time_elapsed": 298833, "internal_node_id": "0.0-6.0-52.0"}}, {"uniqueid": "w84779726:a47133947", "current_trial": 148, "dateTime": 1664464207972, "trialdata": {"rt": 408, "stimulus": "<p id='stroop-text' class='stroop-yellow'>BLUE</p>", "response": "y", "stimulus-type": "incongruent", "word": "blue", "color": "yellow", "correct_response": "y", "trial_id": "stroop-trial-1-incongruent-29", "trial_type": "html-keyboard-response", "trial_index": 148, "time_elapsed": 299746, "internal_node_id": "0.0-6.0-53.0"}}, {"uniqueid": "w84779726:a47133947", "current_trial": 149, "dateTime": 1664464209037, "trialdata": {"rt": 561, "stimulus": "<p id='stroop-text' class='stroop-yellow'>MONKEY</p>", "response": "y", "stimulus-type": "unrelated", "word": "MONKEY", "color": "yellow", "correct_response": "y", "trial_id": "stroop-trial-1-unrelated-7", "trial_type": "html-keyboard-response", "trial_index": 149, "time_elapsed": 300811, "internal_node_id": "0.0-6.0-54.0"}}, {"uniqueid": "w84779726:a47133947", "current_trial": 150, "dateTime": 1664464209954, "trialdata": {"rt": 413, "stimulus": "<p id='stroop-text' class='stroop-yellow'>CHAIR</p>", "response": "y", "stimulus-type": "unrelated", "word": "CHAIR", "color": "yellow", "correct_response": "y", "trial_id": "stroop-trial-1-unrelated-26", "trial_type": "html-keyboard-response", "trial_index": 150, "time_elapsed": 301727, "internal_node_id": "0.0-6.0-55.0"}}, {"uniqueid": "w84779726:a47133947", "current_trial": 151, "dateTime": 1664464210909, "trialdata": {"rt": 437, "stimulus": "<p id='stroop-text' class='stroop-yellow'>YELLOW</p>", "response": "y", "stimulus-type": "congruent", "word": "yellow", "color": "yellow", "correct_response": "y", "trial_id": "stroop-trial-1-congruent-19", "trial_type": "html-keyboard-response", "trial_index": 151, "time_elapsed": 302683, "internal_node_id": "0.0-6.0-56.0"}}, {"uniqueid": "w84779726:a47133947", "current_trial": 152, "dateTime": 1664464212032, "trialdata": {"rt": 617, "stimulus": "<p id='stroop-text' class='stroop-red'>BRIDGE</p>", "response": "r", "stimulus-type": "unrelated", "word": "BRIDGE", "color": "red", "correct_response": "r", "trial_id": "stroop-trial-1-unrelated-19", "trial_type": "html-keyboard-response", "trial_index": 152, "time_elapsed": 303805, "internal_node_id": "0.0-6.0-57.0"}}, {"uniqueid": "w84779726:a47133947", "current_trial": 153, "dateTime": 1664464213190, "trialdata": {"rt": 653, "stimulus": "<p id='stroop-text' class='stroop-green'>GREEN</p>", "response": "g", "stimulus-type": "congruent", "word": "green", "color": "green", "correct_response": "g", "trial_id": "stroop-trial-1-congruent-16", "trial_type": "html-keyboard-response", "trial_index": 153, "time_elapsed": 304964, "internal_node_id": "0.0-6.0-58.0"}}, {"uniqueid": "w84779726:a47133947", "current_trial": 154, "dateTime": 1664464214194, "trialdata": {"rt": 499, "stimulus": "<p id='stroop-text' class='stroop-blue'>MONKEY</p>", "response": "b", "stimulus-type": "unrelated", "word": "MONKEY", "color": "blue", "correct_response": "b", "trial_id": "stroop-trial-1-unrelated-16", "trial_type": "html-keyboard-response", "trial_index": 154, "time_elapsed": 305968, "internal_node_id": "0.0-6.0-59.0"}}, {"uniqueid": "w84779726:a47133947", "current_trial": 155, "dateTime": 1664464215208, "trialdata": {"rt": 508, "stimulus": "<p id='stroop-text' class='stroop-blue'>BLUE</p>", "response": "b", "stimulus-type": "congruent", "word": "blue", "color": "blue", "correct_response": "b", "trial_id": "stroop-trial-1-congruent-14", "trial_type": "html-keyboard-response", "trial_index": 155, "time_elapsed": 306981, "internal_node_id": "0.0-6.0-60.0"}}, {"uniqueid": "w84779726:a47133947", "current_trial": 156, "dateTime": 1664464216261, "trialdata": {"rt": 541, "stimulus": "<p id='stroop-text' class='stroop-green'>DOG</p>", "response": "g", "stimulus-type": "unrelated", "word": "DOG", "color": "green", "correct_response": "g", "trial_id": "stroop-trial-1-unrelated-3", "trial_type": "html-keyboard-response", "trial_index": 156, "time_elapsed": 308034, "internal_node_id": "0.0-6.0-61.0"}}, {"uniqueid": "w84779726:a47133947", "current_trial": 157, "dateTime": 1664464217314, "trialdata": {"rt": 548, "stimulus": "<p id='stroop-text' class='stroop-red'>RED</p>", "response": "r", "stimulus-type": "congruent", "word": "red", "color": "red", "correct_response": "r", "trial_id": "stroop-trial-1-congruent-20", "trial_type": "html-keyboard-response", "trial_index": 157, "time_elapsed": 309087, "internal_node_id": "0.0-6.0-62.0"}}, {"uniqueid": "w84779726:a47133947", "current_trial": 158, "dateTime": 1664464218478, "trialdata": {"rt": 659, "stimulus": "<p id='stroop-text' class='stroop-red'>YELLOW</p>", "response": "r", "stimulus-type": "incongruent", "word": "yellow", "color": "red", "correct_response": "r", "trial_id": "stroop-trial-1-incongruent-7", "trial_type": "html-keyboard-response", "trial_index": 158, "time_elapsed": 310251, "internal_node_id": "0.0-6.0-63.0"}}, {"uniqueid": "w84779726:a47133947", "current_trial": 159, "dateTime": 1664464219866, "trialdata": {"rt": 882, "stimulus": "<p id='stroop-text' class='stroop-red'>FORK</p>", "response": "r", "stimulus-type": "unrelated", "word": "FORK", "color": "red", "correct_response": "r", "trial_id": "stroop-trial-1-unrelated-5", "trial_type": "html-keyboard-response", "trial_index": 159, "time_elapsed": 311639, "internal_node_id": "0.0-6.0-64.0"}}, {"uniqueid": "w84779726:a47133947", "current_trial": 160, "dateTime": 1664464220914, "trialdata": {"rt": 544, "stimulus": "<p id='stroop-text' class='stroop-yellow'>MONKEY</p>", "response": "y", "stimulus-type": "unrelated", "word": "MONKEY", "color": "yellow", "correct_response": "y", "trial_id": "stroop-trial-1-unrelated-30", "trial_type": "html-keyboard-response", "trial_index": 160, "time_elapsed": 312687, "internal_node_id": "0.0-6.0-65.0"}}, {"uniqueid": "w84779726:a47133947", "current_trial": 161, "dateTime": 1664464222283, "trialdata": {"rt": 864, "stimulus": "<p id='stroop-text' class='stroop-red'>GREEN</p>", "response": "r", "stimulus-type": "incongruent", "word": "green", "color": "red", "correct_response": "r", "trial_id": "stroop-trial-1-incongruent-18", "trial_type": "html-keyboard-response", "trial_index": 161, "time_elapsed": 314057, "internal_node_id": "0.0-6.0-66.0"}}, {"uniqueid": "w84779726:a47133947", "current_trial": 162, "dateTime": 1664464223286, "trialdata": {"rt": 496, "stimulus": "<p id='stroop-text' class='stroop-red'>RED</p>", "response": "r", "stimulus-type": "congruent", "word": "red", "color": "red", "correct_response": "r", "trial_id": "stroop-trial-1-congruent-30", "trial_type": "html-keyboard-response", "trial_index": 162, "time_elapsed": 315059, "internal_node_id": "0.0-6.0-67.0"}}, {"uniqueid": "w84779726:a47133947", "current_trial": 163, "dateTime": 1664464224480, "trialdata": {"rt": 690, "stimulus": "<p id='stroop-text' class='stroop-yellow'>GREEN</p>", "response": "y", "stimulus-type": "incongruent", "word": "green", "color": "yellow", "correct_response": "y", "trial_id": "stroop-trial-1-incongruent-2", "trial_type": "html-keyboard-response", "trial_index": 163, "time_elapsed": 316253, "internal_node_id": "0.0-6.0-68.0"}}, {"uniqueid": "w84779726:a47133947", "current_trial": 164, "dateTime": 1664464225548, "trialdata": {"rt": 561, "stimulus": "<p id='stroop-text' class='stroop-green'>RED</p>", "response": "g", "stimulus-type": "incongruent", "word": "red", "color": "green", "correct_response": "g", "trial_id": "stroop-trial-1-incongruent-28", "trial_type": "html-keyboard-response", "trial_index": 164, "time_elapsed": 317321, "internal_node_id": "0.0-6.0-69.0"}}, {"uniqueid": "w84779726:a47133947", "current_trial": 165, "dateTime": 1664464226631, "trialdata": {"rt": 578, "stimulus": "<p id='stroop-text' class='stroop-green'>BLUE</p>", "response": "g", "stimulus-type": "incongruent", "word": "blue", "color": "green", "correct_response": "g", "trial_id": "stroop-trial-1-incongruent-16", "trial_type": "html-keyboard-response", "trial_index": 165, "time_elapsed": 318405, "internal_node_id": "0.0-6.0-70.0"}}, {"uniqueid": "w84779726:a47133947", "current_trial": 166, "dateTime": 1664464227625, "trialdata": {"rt": 490, "stimulus": "<p id='stroop-text' class='stroop-yellow'>YELLOW</p>", "response": "y", "stimulus-type": "congruent", "word": "yellow", "color": "yellow", "correct_response": "y", "trial_id": "stroop-trial-1-congruent-25", "trial_type": "html-keyboard-response", "trial_index": 166, "time_elapsed": 319399, "internal_node_id": "0.0-6.0-71.0"}}, {"uniqueid": "w84779726:a47133947", "current_trial": 167, "dateTime": 1664464228588, "trialdata": {"rt": 457, "stimulus": "<p id='stroop-text' class='stroop-yellow'>CHAIR</p>", "response": "y", "stimulus-type": "unrelated", "word": "CHAIR", "color": "yellow", "correct_response": "y", "trial_id": "stroop-trial-1-unrelated-27", "trial_type": "html-keyboard-response", "trial_index": 167, "time_elapsed": 320362, "internal_node_id": "0.0-6.0-72.0"}}, {"uniqueid": "w84779726:a47133947", "current_trial": 168, "dateTime": 1664464229758, "trialdata": {"rt": 665, "stimulus": "<p id='stroop-text' class='stroop-green'>GREEN</p>", "response": "g", "stimulus-type": "congruent", "word": "green", "color": "green", "correct_response": "g", "trial_id": "stroop-trial-1-congruent-1", "trial_type": "html-keyboard-response", "trial_index": 168, "time_elapsed": 321531, "internal_node_id": "0.0-6.0-73.0"}}, {"uniqueid": "w84779726:a47133947", "current_trial": 169, "dateTime": 1664464230716, "trialdata": {"rt": 454, "stimulus": "<p id='stroop-text' class='stroop-green'>BRIDGE</p>", "response": "g", "stimulus-type": "unrelated", "word": "BRIDGE", "color": "green", "correct_response": "g", "trial_id": "stroop-trial-1-unrelated-28", "trial_type": "html-keyboard-response", "trial_index": 169, "time_elapsed": 322490, "internal_node_id": "0.0-6.0-74.0"}}, {"uniqueid": "w84779726:a47133947", "current_trial": 170, "dateTime": 1664464231904, "trialdata": {"rt": 681, "stimulus": "<p id='stroop-text' class='stroop-red'>MONKEY</p>", "response": "r", "stimulus-type": "unrelated", "word": "MONKEY", "color": "red", "correct_response": "r", "trial_id": "stroop-trial-1-unrelated-18", "trial_type": "html-keyboard-response", "trial_index": 170, "time_elapsed": 323677, "internal_node_id": "0.0-6.0-75.0"}}, {"uniqueid": "w84779726:a47133947", "current_trial": 171, "dateTime": 1664464232922, "trialdata": {"rt": 501, "stimulus": "<p id='stroop-text' class='stroop-red'>RED</p>", "response": "r", "stimulus-type": "congruent", "word": "red", "color": "red", "correct_response": "r", "trial_id": "stroop-trial-1-congruent-11", "trial_type": "html-keyboard-response", "trial_index": 171, "time_elapsed": 324696, "internal_node_id": "0.0-6.0-76.0"}}, {"uniqueid": "w84779726:a47133947", "current_trial": 172, "dateTime": 1664464233891, "trialdata": {"rt": 464, "stimulus": "<p id='stroop-text' class='stroop-red'>BRAIN</p>", "response": "r", "stimulus-type": "unrelated", "word": "BRAIN", "color": "red", "correct_response": "r", "trial_id": "stroop-trial-1-unrelated-6", "trial_type": "html-keyboard-response", "trial_index": 172, "time_elapsed": 325664, "internal_node_id": "0.0-6.0-77.0"}}, {"uniqueid": "w84779726:a47133947", "current_trial": 173, "dateTime": 1664464234924, "trialdata": {"rt": 529, "stimulus": "<p id='stroop-text' class='stroop-green'>CHAIR</p>", "response": "g", "stimulus-type": "unrelated", "word": "CHAIR", "color": "green", "correct_response": "g", "trial_id": "stroop-trial-1-unrelated-13", "trial_type": "html-keyboard-response", "trial_index": 173, "time_elapsed": 326698, "internal_node_id": "0.0-6.0-78.0"}}, {"uniqueid": "w84779726:a47133947", "current_trial": 174, "dateTime": 1664464236163, "trialdata": {"rt": 722, "stimulus": "<p id='stroop-text' class='stroop-red'>RED</p>", "response": "r", "stimulus-type": "congruent", "word": "red", "color": "red", "correct_response": "r", "trial_id": "stroop-trial-1-congruent-21", "trial_type": "html-keyboard-response", "trial_index": 174, "time_elapsed": 327936, "internal_node_id": "0.0-6.0-79.0"}}, {"uniqueid": "w84779726:a47133947", "current_trial": 175, "dateTime": 1664464237251, "trialdata": {"rt": 578, "stimulus": "<p id='stroop-text' class='stroop-blue'>BLUE</p>", "response": "b", "stimulus-type": "congruent", "word": "blue", "color": "blue", "correct_response": "b", "trial_id": "stroop-trial-1-congruent-23", "trial_type": "html-keyboard-response", "trial_index": 175, "time_elapsed": 329024, "internal_node_id": "0.0-6.0-80.0"}}, {"uniqueid": "w84779726:a47133947", "current_trial": 176, "dateTime": 1664464238210, "trialdata": {"rt": 455, "stimulus": "<p id='stroop-text' class='stroop-blue'>BLUE</p>", "response": "b", "stimulus-type": "congruent", "word": "blue", "color": "blue", "correct_response": "b", "trial_id": "stroop-trial-1-congruent-15", "trial_type": "html-keyboard-response", "trial_index": 176, "time_elapsed": 329984, "internal_node_id": "0.0-6.0-81.0"}}, {"uniqueid": "w84779726:a47133947", "current_trial": 177, "dateTime": 1664464239194, "trialdata": {"rt": 477, "stimulus": "<p id='stroop-text' class='stroop-blue'>SHIP</p>", "response": "b", "stimulus-type": "unrelated", "word": "SHIP", "color": "blue", "correct_response": "b", "trial_id": "stroop-trial-1-unrelated-14", "trial_type": "html-keyboard-response", "trial_index": 177, "time_elapsed": 330968, "internal_node_id": "0.0-6.0-82.0"}}, {"uniqueid": "w84779726:a47133947", "current_trial": 178, "dateTime": 1664464240113, "trialdata": {"rt": 414, "stimulus": "<p id='stroop-text' class='stroop-blue'>GREEN</p>", "response": "b", "stimulus-type": "incongruent", "word": "green", "color": "blue", "correct_response": "b", "trial_id": "stroop-trial-1-incongruent-25", "trial_type": "html-keyboard-response", "trial_index": 178, "time_elapsed": 331887, "internal_node_id": "0.0-6.0-83.0"}}, {"uniqueid": "w84779726:a47133947", "current_trial": 179, "dateTime": 1664464241696, "trialdata": {"rt": 1072, "stimulus": "<p id='stroop-text' class='stroop-green'>RED</p>", "response": "g", "stimulus-type": "incongruent", "word": "red", "color": "green", "correct_response": "g", "trial_id": "stroop-trial-1-incongruent-23", "trial_type": "html-keyboard-response", "trial_index": 179, "time_elapsed": 333469, "internal_node_id": "0.0-6.0-84.0"}}, {"uniqueid": "w84779726:a47133947", "current_trial": 180, "dateTime": 1664464242684, "trialdata": {"rt": 483, "stimulus": "<p id='stroop-text' class='stroop-yellow'>FORK</p>", "response": "y", "stimulus-type": "unrelated", "word": "FORK", "color": "yellow", "correct_response": "y", "trial_id": "stroop-trial-1-unrelated-11", "trial_type": "html-keyboard-response", "trial_index": 180, "time_elapsed": 334458, "internal_node_id": "0.0-6.0-85.0"}}, {"uniqueid": "w84779726:a47133947", "current_trial": 181, "dateTime": 1664464243992, "trialdata": {"rt": 802, "stimulus": "<p id='stroop-text' class='stroop-yellow'>RED</p>", "response": "y", "stimulus-type": "incongruent", "word": "red", "color": "yellow", "correct_response": "y", "trial_id": "stroop-trial-1-incongruent-10", "trial_type": "html-keyboard-response", "trial_index": 181, "time_elapsed": 335765, "internal_node_id": "0.0-6.0-86.0"}}, {"uniqueid": "w84779726:a47133947", "current_trial": 182, "dateTime": 1664464245095, "trialdata": {"rt": 598, "stimulus": "<p id='stroop-text' class='stroop-blue'>YELLOW</p>", "response": "b", "stimulus-type": "incongruent", "word": "yellow", "color": "blue", "correct_response": "b", "trial_id": "stroop-trial-1-incongruent-6", "trial_type": "html-keyboard-response", "trial_index": 182, "time_elapsed": 336869, "internal_node_id": "0.0-6.0-87.0"}}, {"uniqueid": "w84779726:a47133947", "current_trial": 183, "dateTime": 1664464246295, "trialdata": {"rt": 695, "stimulus": "<p id='stroop-text' class='stroop-yellow'>GREEN</p>", "response": "y", "stimulus-type": "incongruent", "word": "green", "color": "yellow", "correct_response": "y", "trial_id": "stroop-trial-1-incongruent-13", "trial_type": "html-keyboard-response", "trial_index": 183, "time_elapsed": 338068, "internal_node_id": "0.0-6.0-88.0"}}, {"uniqueid": "w84779726:a47133947", "current_trial": 184, "dateTime": 1664464247367, "trialdata": {"rt": 568, "stimulus": "<p id='stroop-text' class='stroop-blue'>BLUE</p>", "response": "b", "stimulus-type": "congruent", "word": "blue", "color": "blue", "correct_response": "b", "trial_id": "stroop-trial-1-congruent-12", "trial_type": "html-keyboard-response", "trial_index": 184, "time_elapsed": 339141, "internal_node_id": "0.0-6.0-89.0"}}, {"uniqueid": "w84779726:a47133947", "current_trial": 185, "dateTime": 1664464254818, "trialdata": {"rt": 6944, "stimulus": "  <h1> End of block! </h1>\n\n  You have reached the end of the block 2/5. If you need a short break, feel free to take one now before moving on.\n\n  <br><br>\n  In the next block, you will complete another 90 rounds of this game.\n\n  <br><br>\n  <div style='text-align: center;'>Press <code>space</code> to begin.</div>\n  <br><br>\n<div style='text-align: center;'>(If the experiment doesn't continue, try clicking on the text and then pressing <code>space</code>.)</div>", "response": " ", "trial_id": "stroop_1_ready_3", "trial_type": "html-keyboard-response", "trial_index": 185, "time_elapsed": 346592, "internal_node_id": "0.0-7.0"}}, {"uniqueid": "w84779726:a47133947", "current_trial": 186, "dateTime": 1664464257519, "trialdata": {"rt": 2696, "stimulus": "<p id='stroop-text' class='stroop-red'>BLUE</p>", "response": "r", "stimulus-type": "incongruent", "word": "blue", "color": "red", "correct_response": "r", "trial_id": "stroop-trial-1-incongruent-10", "trial_type": "html-keyboard-response", "trial_index": 186, "time_elapsed": 349293, "internal_node_id": "0.0-8.0-0.0"}}, {"uniqueid": "w84779726:a47133947", "current_trial": 187, "dateTime": 1664464258497, "trialdata": {"rt": 470, "stimulus": "<p id='stroop-text' class='stroop-red'>YELLOW</p>", "response": "r", "stimulus-type": "incongruent", "word": "yellow", "color": "red", "correct_response": "r", "trial_id": "stroop-trial-1-incongruent-26", "trial_type": "html-keyboard-response", "trial_index": 187, "time_elapsed": 350270, "internal_node_id": "0.0-8.0-1.0"}}, {"uniqueid": "w84779726:a47133947", "current_trial": 188, "dateTime": 1664464259671, "trialdata": {"rt": 670, "stimulus": "<p id='stroop-text' class='stroop-blue'>BLUE</p>", "response": "b", "stimulus-type": "congruent", "word": "blue", "color": "blue", "correct_response": "b", "trial_id": "stroop-trial-1-congruent-17", "trial_type": "html-keyboard-response", "trial_index": 188, "time_elapsed": 351445, "internal_node_id": "0.0-8.0-2.0"}}, {"uniqueid": "w84779726:a47133947", "current_trial": 189, "dateTime": 1664464260810, "trialdata": {"rt": 634, "stimulus": "<p id='stroop-text' class='stroop-green'>GREEN</p>", "response": "g", "stimulus-type": "congruent", "word": "green", "color": "green", "correct_response": "g", "trial_id": "stroop-trial-1-congruent-25", "trial_type": "html-keyboard-response", "trial_index": 189, "time_elapsed": 352584, "internal_node_id": "0.0-8.0-3.0"}}, {"uniqueid": "w84779726:a47133947", "current_trial": 190, "dateTime": 1664464261762, "trialdata": {"rt": 446, "stimulus": "<p id='stroop-text' class='stroop-green'>BLUE</p>", "response": "g", "stimulus-type": "incongruent", "word": "blue", "color": "green", "correct_response": "g", "trial_id": "stroop-trial-1-incongruent-7", "trial_type": "html-keyboard-response", "trial_index": 190, "time_elapsed": 353536, "internal_node_id": "0.0-8.0-4.0"}}, {"uniqueid": "w84779726:a47133947", "current_trial": 191, "dateTime": 1664464262791, "trialdata": {"rt": 525, "stimulus": "<p id='stroop-text' class='stroop-yellow'>YELLOW</p>", "response": "y", "stimulus-type": "congruent", "word": "yellow", "color": "yellow", "correct_response": "y", "trial_id": "stroop-trial-1-congruent-12", "trial_type": "html-keyboard-response", "trial_index": 191, "time_elapsed": 354564, "internal_node_id": "0.0-8.0-5.0"}}, {"uniqueid": "w84779726:a47133947", "current_trial": 192, "dateTime": 1664464263778, "trialdata": {"rt": 480, "stimulus": "<p id='stroop-text' class='stroop-yellow'>DOG</p>", "response": "y", "stimulus-type": "unrelated", "word": "DOG", "color": "yellow", "correct_response": "y", "trial_id": "stroop-trial-1-unrelated-2", "trial_type": "html-keyboard-response", "trial_index": 192, "time_elapsed": 355552, "internal_node_id": "0.0-8.0-6.0"}}, {"uniqueid": "w84779726:a47133947", "current_trial": 193, "dateTime": 1664464264788, "trialdata": {"rt": 507, "stimulus": "<p id='stroop-text' class='stroop-green'>GREEN</p>", "response": "g", "stimulus-type": "congruent", "word": "green", "color": "green", "correct_response": "g", "trial_id": "stroop-trial-1-congruent-21", "trial_type": "html-keyboard-response", "trial_index": 193, "time_elapsed": 356562, "internal_node_id": "0.0-8.0-7.0"}}, {"uniqueid": "w84779726:a47133947", "current_trial": 194, "dateTime": 1664464265856, "trialdata": {"rt": 560, "stimulus": "<p id='stroop-text' class='stroop-yellow'>YELLOW</p>", "response": "y", "stimulus-type": "congruent", "word": "yellow", "color": "yellow", "correct_response": "y", "trial_id": "stroop-trial-1-congruent-13", "trial_type": "html-keyboard-response", "trial_index": 194, "time_elapsed": 357629, "internal_node_id": "0.0-8.0-8.0"}}, {"uniqueid": "w84779726:a47133947", "current_trial": 195, "dateTime": 1664464266889, "trialdata": {"rt": 528, "stimulus": "<p id='stroop-text' class='stroop-blue'>SHIP</p>", "response": "b", "stimulus-type": "unrelated", "word": "SHIP", "color": "blue", "correct_response": "b", "trial_id": "stroop-trial-1-unrelated-20", "trial_type": "html-keyboard-response", "trial_index": 195, "time_elapsed": 358662, "internal_node_id": "0.0-8.0-9.0"}}, {"uniqueid": "w84779726:a47133947", "current_trial": 196, "dateTime": 1664464267882, "trialdata": {"rt": 489, "stimulus": "<p id='stroop-text' class='stroop-blue'>MONKEY</p>", "response": "b", "stimulus-type": "unrelated", "word": "MONKEY", "color": "blue", "correct_response": "b", "trial_id": "stroop-trial-1-unrelated-5", "trial_type": "html-keyboard-response", "trial_index": 196, "time_elapsed": 359656, "internal_node_id": "0.0-8.0-10.0"}}, {"uniqueid": "w84779726:a47133947", "current_trial": 197, "dateTime": 1664464268863, "trialdata": {"rt": 476, "stimulus": "<p id='stroop-text' class='stroop-blue'>BLUE</p>", "response": "b", "stimulus-type": "congruent", "word": "blue", "color": "blue", "correct_response": "b", "trial_id": "stroop-trial-1-congruent-16", "trial_type": "html-keyboard-response", "trial_index": 197, "time_elapsed": 360637, "internal_node_id": "0.0-8.0-11.0"}}, {"uniqueid": "w84779726:a47133947", "current_trial": 198, "dateTime": 1664464270220, "trialdata": {"rt": 852, "stimulus": "<p id='stroop-text' class='stroop-yellow'>YELLOW</p>", "response": "y", "stimulus-type": "congruent", "word": "yellow", "color": "yellow", "correct_response": "y", "trial_id": "stroop-trial-1-congruent-9", "trial_type": "html-keyboard-response", "trial_index": 198, "time_elapsed": 361994, "internal_node_id": "0.0-8.0-12.0"}}, {"uniqueid": "w84779726:a47133947", "current_trial": 199, "dateTime": 1664464271494, "trialdata": {"rt": 769, "stimulus": "<p id='stroop-text' class='stroop-blue'>DOG</p>", "response": "b", "stimulus-type": "unrelated", "word": "DOG", "color": "blue", "correct_response": "b", "trial_id": "stroop-trial-1-unrelated-23", "trial_type": "html-keyboard-response", "trial_index": 199, "time_elapsed": 363268, "internal_node_id": "0.0-8.0-13.0"}}, {"uniqueid": "w84779726:a47133947", "current_trial": 200, "dateTime": 1664464272588, "trialdata": {"rt": 589, "stimulus": "<p id='stroop-text' class='stroop-yellow'>YELLOW</p>", "response": "y", "stimulus-type": "congruent", "word": "yellow", "color": "yellow", "correct_response": "y", "trial_id": "stroop-trial-1-congruent-3", "trial_type": "html-keyboard-response", "trial_index": 200, "time_elapsed": 364362, "internal_node_id": "0.0-8.0-14.0"}}, {"uniqueid": "w84779726:a47133947", "current_trial": 201, "dateTime": 1664464273760, "trialdata": {"rt": 668, "stimulus": "<p id='stroop-text' class='stroop-green'>STONE</p>", "response": "g", "stimulus-type": "unrelated", "word": "STONE", "color": "green", "correct_response": "g", "trial_id": "stroop-trial-1-unrelated-25", "trial_type": "html-keyboard-response", "trial_index": 201, "time_elapsed": 365534, "internal_node_id": "0.0-8.0-15.0"}}, {"uniqueid": "w84779726:a47133947", "current_trial": 202, "dateTime": 1664464274909, "trialdata": {"rt": 643, "stimulus": "<p id='stroop-text' class='stroop-yellow'>GREEN</p>", "response": "y", "stimulus-type": "incongruent", "word": "green", "color": "yellow", "correct_response": "y", "trial_id": "stroop-trial-1-incongruent-12", "trial_type": "html-keyboard-response", "trial_index": 202, "time_elapsed": 366683, "internal_node_id": "0.0-8.0-16.0"}}, {"uniqueid": "w84779726:a47133947", "current_trial": 203, "dateTime": 1664464278759, "trialdata": {"rt": 3345, "stimulus": "<p id='stroop-text' class='stroop-green'>WINDOW</p>", "response": "g", "stimulus-type": "unrelated", "word": "WINDOW", "color": "green", "correct_response": "g", "trial_id": "stroop-trial-1-unrelated-17", "trial_type": "html-keyboard-response", "trial_index": 203, "time_elapsed": 370532, "internal_node_id": "0.0-8.0-17.0"}}, {"uniqueid": "w84779726:a47133947", "current_trial": 204, "dateTime": 1664464279823, "trialdata": {"rt": 558, "stimulus": "<p id='stroop-text' class='stroop-red'>BOTTLE</p>", "response": "r", "stimulus-type": "unrelated", "word": "BOTTLE", "color": "red", "correct_response": "r", "trial_id": "stroop-trial-1-unrelated-21", "trial_type": "html-keyboard-response", "trial_index": 204, "time_elapsed": 371596, "internal_node_id": "0.0-8.0-18.0"}}, {"uniqueid": "w84779726:a47133947", "current_trial": 205, "dateTime": 1664464280921, "trialdata": {"rt": 589, "stimulus": "<p id='stroop-text' class='stroop-yellow'>CHAIR</p>", "response": "y", "stimulus-type": "unrelated", "word": "CHAIR", "color": "yellow", "correct_response": "y", "trial_id": "stroop-trial-1-unrelated-26", "trial_type": "html-keyboard-response", "trial_index": 205, "time_elapsed": 372694, "internal_node_id": "0.0-8.0-19.0"}}, {"uniqueid": "w84779726:a47133947", "current_trial": 206, "dateTime": 1664464282624, "trialdata": {"rt": 1198, "stimulus": "<p id='stroop-text' class='stroop-blue'>RED</p>", "response": "b", "stimulus-type": "incongruent", "word": "red", "color": "blue", "correct_response": "b", "trial_id": "stroop-trial-1-incongruent-30", "trial_type": "html-keyboard-response", "trial_index": 206, "time_elapsed": 374397, "internal_node_id": "0.0-8.0-20.0"}}, {"uniqueid": "w84779726:a47133947", "current_trial": 207, "dateTime": 1664464284228, "trialdata": {"rt": 1090, "stimulus": "<p id='stroop-text' class='stroop-green'>FORK</p>", "response": "g", "stimulus-type": "unrelated", "word": "FORK", "color": "green", "correct_response": "g", "trial_id": "stroop-trial-1-unrelated-6", "trial_type": "html-keyboard-response", "trial_index": 207, "time_elapsed": 376001, "internal_node_id": "0.0-8.0-21.0"}}, {"uniqueid": "w84779726:a47133947", "current_trial": 208, "dateTime": 1664464285226, "trialdata": {"rt": 493, "stimulus": "<p id='stroop-text' class='stroop-green'>GREEN</p>", "response": "g", "stimulus-type": "congruent", "word": "green", "color": "green", "correct_response": "g", "trial_id": "stroop-trial-1-congruent-24", "trial_type": "html-keyboard-response", "trial_index": 208, "time_elapsed": 377000, "internal_node_id": "0.0-8.0-22.0"}}, {"uniqueid": "w84779726:a47133947", "current_trial": 209, "dateTime": 1664464286290, "trialdata": {"rt": 559, "stimulus": "<p id='stroop-text' class='stroop-blue'>BLUE</p>", "response": "b", "stimulus-type": "congruent", "word": "blue", "color": "blue", "correct_response": "b", "trial_id": "stroop-trial-1-congruent-19", "trial_type": "html-keyboard-response", "trial_index": 209, "time_elapsed": 378063, "internal_node_id": "0.0-8.0-23.0"}}, {"uniqueid": "w84779726:a47133947", "current_trial": 210, "dateTime": 1664464287553, "trialdata": {"rt": 758, "stimulus": "<p id='stroop-text' class='stroop-red'>YELLOW</p>", "response": "r", "stimulus-type": "incongruent", "word": "yellow", "color": "red", "correct_response": "r", "trial_id": "stroop-trial-1-incongruent-1", "trial_type": "html-keyboard-response", "trial_index": 210, "time_elapsed": 379327, "internal_node_id": "0.0-8.0-24.0"}}, {"uniqueid": "w84779726:a47133947", "current_trial": 211, "dateTime": 1664464288766, "trialdata": {"rt": 698, "stimulus": "<p id='stroop-text' class='stroop-red'>YELLOW</p>", "response": "r", "stimulus-type": "incongruent", "word": "yellow", "color": "red", "correct_response": "r", "trial_id": "stroop-trial-1-incongruent-11", "trial_type": "html-keyboard-response", "trial_index": 211, "time_elapsed": 380539, "internal_node_id": "0.0-8.0-25.0"}}, {"uniqueid": "w84779726:a47133947", "current_trial": 212, "dateTime": 1664464289953, "trialdata": {"rt": 683, "stimulus": "<p id='stroop-text' class='stroop-blue'>YELLOW</p>", "response": "b", "stimulus-type": "incongruent", "word": "yellow", "color": "blue", "correct_response": "b", "trial_id": "stroop-trial-1-incongruent-16", "trial_type": "html-keyboard-response", "trial_index": 212, "time_elapsed": 381727, "internal_node_id": "0.0-8.0-26.0"}}, {"uniqueid": "w84779726:a47133947", "current_trial": 213, "dateTime": 1664464291157, "trialdata": {"rt": 699, "stimulus": "<p id='stroop-text' class='stroop-yellow'>RED</p>", "response": "y", "stimulus-type": "incongruent", "word": "red", "color": "yellow", "correct_response": "y", "trial_id": "stroop-trial-1-incongruent-6", "trial_type": "html-keyboard-response", "trial_index": 213, "time_elapsed": 382930, "internal_node_id": "0.0-8.0-27.0"}}, {"uniqueid": "w84779726:a47133947", "current_trial": 214, "dateTime": 1664464292555, "trialdata": {"rt": 893, "stimulus": "<p id='stroop-text' class='stroop-red'>GREEN</p>", "response": "r", "stimulus-type": "incongruent", "word": "green", "color": "red", "correct_response": "r", "trial_id": "stroop-trial-1-incongruent-14", "trial_type": "html-keyboard-response", "trial_index": 214, "time_elapsed": 384329, "internal_node_id": "0.0-8.0-28.0"}}, {"uniqueid": "w84779726:a47133947", "current_trial": 215, "dateTime": 1664464293679, "trialdata": {"rt": 620, "stimulus": "<p id='stroop-text' class='stroop-green'>GREEN</p>", "response": "g", "stimulus-type": "congruent", "word": "green", "color": "green", "correct_response": "g", "trial_id": "stroop-trial-1-congruent-14", "trial_type": "html-keyboard-response", "trial_index": 215, "time_elapsed": 385453, "internal_node_id": "0.0-8.0-29.0"}}, {"uniqueid": "w84779726:a47133947", "current_trial": 216, "dateTime": 1664464294823, "trialdata": {"rt": 638, "stimulus": "<p id='stroop-text' class='stroop-red'>RED</p>", "response": "r", "stimulus-type": "congruent", "word": "red", "color": "red", "correct_response": "r", "trial_id": "stroop-trial-1-congruent-10", "trial_type": "html-keyboard-response", "trial_index": 216, "time_elapsed": 386596, "internal_node_id": "0.0-8.0-30.0"}}, {"uniqueid": "w84779726:a47133947", "current_trial": 217, "dateTime": 1664464296659, "trialdata": {"rt": 1331, "stimulus": "<p id='stroop-text' class='stroop-yellow'>BRAIN</p>", "response": "y", "stimulus-type": "unrelated", "word": "BRAIN", "color": "yellow", "correct_response": "y", "trial_id": "stroop-trial-1-unrelated-18", "trial_type": "html-keyboard-response", "trial_index": 217, "time_elapsed": 388432, "internal_node_id": "0.0-8.0-31.0"}}, {"uniqueid": "w84779726:a47133947", "current_trial": 218, "dateTime": 1664464297668, "trialdata": {"rt": 506, "stimulus": "<p id='stroop-text' class='stroop-yellow'>RED</p>", "response": "y", "stimulus-type": "incongruent", "word": "red", "color": "yellow", "correct_response": "y", "trial_id": "stroop-trial-1-incongruent-25", "trial_type": "html-keyboard-response", "trial_index": 218, "time_elapsed": 389442, "internal_node_id": "0.0-8.0-32.0"}}, {"uniqueid": "w84779726:a47133947", "current_trial": 219, "dateTime": 1664464298931, "trialdata": {"rt": 758, "stimulus": "<p id='stroop-text' class='stroop-green'>YELLOW</p>", "response": "g", "stimulus-type": "incongruent", "word": "yellow", "color": "green", "correct_response": "g", "trial_id": "stroop-trial-1-incongruent-9", "trial_type": "html-keyboard-response", "trial_index": 219, "time_elapsed": 390705, "internal_node_id": "0.0-8.0-33.0"}}, {"uniqueid": "w84779726:a47133947", "current_trial": 220, "dateTime": 1664464299936, "trialdata": {"rt": 499, "stimulus": "<p id='stroop-text' class='stroop-blue'>MONKEY</p>", "response": "b", "stimulus-type": "unrelated", "word": "MONKEY", "color": "blue", "correct_response": "b", "trial_id": "stroop-trial-1-unrelated-28", "trial_type": "html-keyboard-response", "trial_index": 220, "time_elapsed": 391709, "internal_node_id": "0.0-8.0-34.0"}}, {"uniqueid": "w84779726:a47133947", "current_trial": 221, "dateTime": 1664464301054, "trialdata": {"rt": 611, "stimulus": "<p id='stroop-text' class='stroop-yellow'>CHAIR</p>", "response": "y", "stimulus-type": "unrelated", "word": "CHAIR", "color": "yellow", "correct_response": "y", "trial_id": "stroop-trial-1-unrelated-3", "trial_type": "html-keyboard-response", "trial_index": 221, "time_elapsed": 392827, "internal_node_id": "0.0-8.0-35.0"}}, {"uniqueid": "w84779726:a47133947", "current_trial": 222, "dateTime": 1664464302013, "trialdata": {"rt": 453, "stimulus": "<p id='stroop-text' class='stroop-yellow'>FORK</p>", "response": "y", "stimulus-type": "unrelated", "word": "FORK", "color": "yellow", "correct_response": "y", "trial_id": "stroop-trial-1-unrelated-16", 