{"condition": 1, "counterbalance": 0, "assignmentId": "a37075868", "workerId": "w99425110", "hitId": "h86680668", "currenttrial": 137, "bonus": 0, "data": [{"uniqueid": "w99425110:a37075868", "current_trial": 0, "dateTime": 1664367885251, "trialdata": {"success": true, "trial_type": "fullscreen", "trial_index": 0, "time_elapsed": 4908, "internal_node_id": "0.0-0.0"}}, {"uniqueid": "w99425110:a37075868", "current_trial": 1, "dateTime": 1664367903182, "trialdata": {"view_history": [{"page_index": 0, "viewing_time": 17928}], "rt": 17928, "trial_id": "exp_instructions_no_distractor", "trial_type": "instructions", "trial_index": 1, "time_elapsed": 22839, "internal_node_id": "0.0-1.0"}}, {"uniqueid": "w99425110:a37075868", "current_trial": 2, "dateTime": 1664367912101, "trialdata": {"success": true, "trial_type": "fullscreen", "trial_index": 2, "time_elapsed": 31758, "internal_node_id": "0.0-2.0-0.0"}}, {"uniqueid": "w99425110:a37075868", "current_trial": 3, "dateTime": 1664368388406, "trialdata": {"view_history": [{"page_index": 0, "viewing_time": 407107}, {"page_index": 1, "viewing_time": 30632}, {"page_index": 2, "viewing_time": 9292}, {"page_index": 3, "viewing_time": 7284}, {"page_index": 4, "viewing_time": 21989}], "rt": 476303, "trial_id": "mouselab_instructions_1", "trial_type": "instructions", "trial_index": 3, "time_elapsed": 508063, "internal_node_id": "0.0-2.0-1.0"}}, {"uniqueid": "w99425110:a37075868", "current_trial": 4, "dateTime": 1664368416649, "trialdata": {"revealed_states": [], "num_clicks_accrued": [0, 0, 0, 0, 0, 0, 0, 0, 0, 0, 0, 0, 0], "stateRewards": ["", 10, 10, 10, 10, -10, -10, 10, 10, 10, -10, 10, 10], "withholdReward": false, "trial_id": "practice_1", "block": "test", "trialIndex": 0, "score": 11.5, "costs": -0.5, "simulationMode": [null, null, null], "rewards": [10, -10, 10], "path": ["0", "0", "9", "10", "11"], "rt": [14598, 1294, 2084], "actions": ["left", "left", "up"], "actionTimes": [19491, 21289, 23874], "queries": {"click": {"state": {"target": ["5", "9"], "time": [12388, 15328]}, "edge": {"target": [], "time": []}}, "mouseover": {"state": {"target": ["9", "0", "5", "6", "5", "5", "1", "9"], "time": [7610, 8604, 8675, 9191, 9247, 11939, 14548, 14771]}, "edge": {"target": [], "time": []}}, "mouseout": {"state": {"target": ["0", "1", "2", "4", "11", "10", "0", "9", "0", "5", "6", "5", "5", "5", "1", "9", "0", "5"], "time": [784, 1797, 2419, 2603, 2715, 3038, 7563, 8581, 8652, 8683, 9224, 9992, 12699, 14298, 14715, 15533, 26806, 26948]}, "edge": {"target": [], "time": []}}}, "displayed_time": "24.38", "trialTime": 28122, "trial_type": "mouselab-mdp", "trial_index": 4, "time_elapsed": 536306, "internal_node_id": "0.0-2.0-2.0-0.0"}}, {"uniqueid": "w99425110:a37075868", "current_trial": 5, "dateTime": 1664368429324, "trialdata": {"revealed_states": [], "num_clicks_accrued": [0, 0, 0, 0, 0, 0, 0, 0, 0, 0, 0, 0, 0], "stateRewards": ["", -10, 10, -10, -10, 10, 10, -10, -10, -10, -10, -10, 10], "withholdReward": false, "trial_id": "practice_2", "block": "test", "trialIndex": 1, "score": 11.5, "costs": -0.5, "simulationMode": [null, null, null], "rewards": [10, 10, -10], "path": ["0", "0", "5", "6", "8"], "rt": [5812, 390, 323], "actions": ["right", "right", "down"], "actionTimes": [9071, 9968, 10795], "queries": {"click": {"state": {"target": ["1", "5"], "time": [5020, 7724]}, "edge": {"target": [], "time": []}}, "mouseover": {"state": {"target": ["0", "1", "5", "5", "8"], "time": [4499, 4559, 5219, 6931, 8155]}, "edge": {"target": [], "time": []}}, "mouseout": {"state": {"target": ["10", "10", "0", "0", "1", "5", "5", "8"], "time": [2815, 2879, 3417, 4512, 5195, 5531, 8103, 8161]}, "edge": {"target": [], "time": []}}}, "displayed_time": "11.30", "trialTime": 12649, "trial_type": "mouselab-mdp", "trial_index": 5, "time_elapsed": 548981, "internal_node_id": "0.0-2.0-2.0-1.0"}}, {"uniqueid": "w99425110:a37075868", "current_trial": 6, "dateTime": 1664368496186, "trialdata": {"view_history": [{"page_index": 0, "viewing_time": 36468}, {"page_index": 1, "viewing_time": 14948}, {"page_index": 2, "viewing_time": 15444}], "rt": 66860, "trial_id": "mouselab_instructions_2_scarce", "trial_type": "instructions", "trial_index": 6, "time_elapsed": 615843, "internal_node_id": "0.0-2.0-3.0"}}, {"uniqueid": "w99425110:a37075868", "current_trial": 7, "dateTime": 1664368538918, "trialdata": {"rt": 42730, "response": {"Q0": "$-48 to $48", "Q1": "The cost is always $0.25.", "Q2": "The better I perform the higher my bonus will be.", "Q3": "No, the amount of cash at each node of the web may be different each time.", "Q4": "The values of the nodes walked through from start to finish.", "Q5": "No, the spider might forget to count the money on some rounds."}, "question_order": [0, 1, 2, 3, 4, 5], "correct": {"Q0": "$-48 to $48", "Q1": "The cost is always $0.25.", "Q2": "The better I perform the higher my bonus will be.", "Q3": "No, the amount of cash at each node of the web may be different each time.", "Q4": "The values of the nodes walked through from start to finish.", "Q5": "No, the spider might forget to count the money on some rounds."}, "trial_id": "mouselab_quiz_scarce", "trial_type": "survey-multi-choice", "trial_index": 7, "time_elapsed": 658575, "internal_node_id": "0.0-2.0-4.0"}}, {"uniqueid": "w99425110:a37075868", "current_trial": 8, "dateTime": 1664368555972, "trialdata": {"rt": 17048, "stimulus": "\n<h1> Get ready to start the game! </h1>\n\nThank you for reading the instructions. Get ready start with the first of 4 block(s) of this game.\n<br><br>\nIn this first block, you will complete 30 rounds of this game before moving on.\n<br><br>\nRemember, the more money the spider gets, the bigger your bonus will be!\n<br><br>\n<div style='text-align: center;'>Press <code>space</code> to begin.</div>\n\n<br><br>\n(If, at any point, the <code>space</code> key does not take you to the next page, click once on the text and try again.)", "response": " ", "trial_id": "mdp_ready_1", "trial_type": "html-keyboard-response", "trial_index": 8, "time_elapsed": 675629, "internal_node_id": "0.0-4.0-0.0"}}, {"uniqueid": "w99425110:a37075868", "current_trial": 9, "dateTime": 1664368569315, "trialdata": {"revealed_states": [], "num_clicks_accrued": [0, 0, 0, 0, 0, 0, 0, 0, 0, 0, 0, 0, 0], "stateRewards": ["", -4, 8, -24, 48, 2, -8, 24, 48, 2, -8, -24, -48], "withholdReward": true, "trial_id": "mdp_493778446445", "block": "test1", "trialIndex": 2, "score": 46.75, "costs": -0.25, "simulationMode": [null, null, null], "rewards": [2, -8, 48], "path": ["0", "0", "5", "6", "8"], "rt": [2709, 258, 400], "actions": ["right", "right", "down"], "actionTimes": [4664, 5424, 6329], "queries": {"click": {"state": {"target": ["5"], "time": [3272]}, "edge": {"target": [], "time": []}}, "mouseover": {"state": {"target": ["5", "8"], "time": [2529, 3848]}, "edge": {"target": [], "time": []}}, "mouseout": {"state": {"target": ["5", "0", "0", "5", "8"], "time": [1384, 1676, 2464, 3840, 3856]}, "edge": {"target": [], "time": []}}}, "displayed_time": "9.97", "trialTime": 13313, "trial_type": "mouselab-mdp", "trial_index": 9, "time_elapsed": 688972, "internal_node_id": "0.0-4.0-1.0-0.0"}}, {"uniqueid": "w99425110:a37075868", "current_trial": 10, "dateTime": 1664368580414, "trialdata": {"revealed_states": [], "num_clicks_accrued": [0, 0, 0, 0, 0, 0, 0, 0, 0, 0, 0, 0, 0], "stateRewards": ["", 4, -4, 24, 48, 4, 8, -24, -24, -2, 4, 48, 48], "withholdReward": true, "trial_id": "mdp_624998450453", "block": "test1", "trialIndex": 3, "score": 52.75, "costs": -0.25, "simulationMode": [null, null, null], "rewards": [4, -4, 48], "path": ["0", "0", "1", "2", "4"], "rt": [1791, 172, 209], "actions": ["up", "up", "left"], "actionTimes": [3213, 3888, 4605], "queries": {"click": {"state": {"target": ["1"], "time": [2140]}, "edge": {"target": [], "time": []}}, "mouseover": {"state": {"target": ["1"], "time": [1820]}, "edge": {"target": [], "time": []}}, "mouseout": {"state": {"target": ["8", "5", "0", "1"], "time": [927, 1145, 1684, 2652]}, "edge": {"target": [], "time": []}}}, "displayed_time": "9.42", "trialTime": 11072, "trial_type": "mouselab-mdp", "trial_index": 10, "time_elapsed": 700071, "internal_node_id": "0.0-4.0-1.0-1.0"}}, {"uniqueid": "w99425110:a37075868", "current_trial": 11, "dateTime": 1664368591118, "trialdata": {"revealed_states": [], "num_clicks_accrued": [0, 0, 0, 0, 0, 0, 0, 0, 0, 0, 0, 0, 0], "stateRewards": ["", -4, -4, -24, 48, -4, -8, -24, 48, 2, 4, 48, 48], "withholdReward": true, "trial_id": "mdp_810954007398", "block": "test1", "trialIndex": 4, "score": 58.75, "costs": -0.25, "simulationMode": [null, null, null], "rewards": [2, 4, 48], "path": ["0", "0", "9", "10", "12"], "rt": [2665, 304, 298], "actions": ["left", "left", "down"], "actionTimes": [4025, 4834, 5639], "queries": {"click": {"state": {"target": ["9"], "time": [2303]}, "edge": {"target": [], "time": []}}, "mouseover": {"state": {"target": ["9", "8"], "time": [1894, 3198]}, "edge": {"target": [], "time": []}}, "mouseout": {"state": {"target": ["6", "5", "0", "0", "9", "9", "8"], "time": [852, 867, 1042, 1254, 2750, 3166, 3206]}, "edge": {"target": [], "time": []}}}, "displayed_time": "9.37", "trialTime": 10678, "trial_type": "mouselab-mdp", "trial_index": 11, "time_elapsed": 710775, "internal_node_id": "0.0-4.0-1.0-2.0"}}, {"uniqueid": "w99425110:a37075868", "current_trial": 12, "dateTime": 1664368601874, "trialdata": {"revealed_states": [], "num_clicks_accrued": [0, 0, 0, 0, 0, 0, 0, 0, 0, 0, 0, 0, 0], "stateRewards": ["", 2, -8, 24, -48, 2, 4, 48, -48, -2, -8, -48, 48], "withholdReward": true, "trial_id": "mdp_629420544881", "block": "test1", "trialIndex": 5, "score": 22.25, "costs": -0.75, "simulationMode": [null, null, null], "rewards": [2, -8, 24], "path": ["0", "0", "1", "2", "3"], "rt": [4293, 69, 30], "actions": ["up", "up", "right"], "actionTimes": [5908, 6485, 7021], "queries": {"click": {"state": {"target": ["1", "2", "4"], "time": [2337, 3089, 4838]}, "edge": {"target": [], "time": []}}, "mouseover": {"state": {"target": ["1", "2", "4", "7"], "time": [2097, 2870, 4233, 5229]}, "edge": {"target": [], "time": []}}, "mouseout": {"state": {"target": ["6", "5", "1", "1", "2", "4", "2", "7"], "time": [990, 1219, 2609, 2817, 4112, 5109, 5141, 5237]}, "edge": {"target": [], "time": []}}}, "displayed_time": "9.62", "trialTime": 10728, "trial_type": "mouselab-mdp", "trial_index": 12, "time_elapsed": 721531, "internal_node_id": "0.0-4.0-1.0-3.0"}}, {"uniqueid": "w99425110:a37075868", "current_trial": 13, "dateTime": 1664368614161, "trialdata": {"revealed_states": [], "num_clicks_accrued": [0, 0, 0, 0, 0, 0, 0, 0, 0, 0, 0, 0, 0], "stateRewards": ["", -2, -4, -24, 48, -2, -8, -48, -24, 4, 8, 48, 24], "withholdReward": true, "trial_id": "mdp_625355871626", "block": "test1", "trialIndex": 6, "score": 40.75, "costs": -0.25, "simulationMode": [null, null, null], "rewards": [4, 8, 24], "path": ["0", "0", "9", "10", "12"], "rt": [2958, 136, 71], "actions": ["left", "left", "down"], "actionTimes": [4751, 5392, 5966], "queries": {"click": {"state": {"target": ["5"], "time": [3196]}, "edge": {"target": [], "time": []}}, "mouseover": {"state": {"target": ["6", "5"], "time": [2784, 3016]}, "edge": {"target": [], "time": []}}, "mouseout": {"state": {"target": ["2", "4", "11", "9", "6", "5"], "time": [967, 976, 1260, 1471, 2905, 3332]}, "edge": {"target": [], "time": []}}}, "displayed_time": "10.79", "trialTime": 12263, "trial_type": "mouselab-mdp", "trial_index": 13, "time_elapsed": 733818, "internal_node_id": "0.0-4.0-1.0-4.0"}}, {"uniqueid": "w99425110:a37075868", "current_trial": 14, "dateTime": 1664368625877, "trialdata": {"revealed_states": [], "num_clicks_accrued": [0, 0, 0, 0, 0, 0, 0, 0, 0, 0, 0, 0, 0], "stateRewards": ["", -2, -4, -48, -48, 4, -4, 48, 24, 4, 4, 48, 48], "withholdReward": true, "trial_id": "mdp_950960813932", "block": "test1", "trialIndex": 7, "score": 28.75, "costs": -0.25, "simulationMode": [null, null, null], "rewards": [4, -4, 24], "path": ["0", "0", "5", "6", "8"], "rt": [1784, 85, 150], "actions": ["right", "right", "down"], "actionTimes": [3698, 4285, 4939], "queries": {"click": {"state": {"target": ["5"], "time": [2631]}, "edge": {"target": [], "time": []}}, "mouseover": {"state": {"target": ["8", "6", "5", "6"], "time": [2104, 2215, 2527, 2975]}, "edge": {"target": [], "time": []}}, "mouseout": {"state": {"target": ["4", "11", "10", "0", "8", "6", "5", "6"], "time": [1396, 1439, 1500, 1766, 2111, 2381, 2943, 2991]}, "edge": {"target": [], "time": []}}}, "displayed_time": "9.91", "trialTime": 11690, "trial_type": "mouselab-mdp", "trial_index": 14, "time_elapsed": 745534, "internal_node_id": "0.0-4.0-1.0-5.0"}}, {"uniqueid": "w99425110:a37075868", "current_trial": 15, "dateTime": 1664368638717, "trialdata": {"revealed_states": [], "num_clicks_accrued": [0, 0, 0, 0, 0, 0, 0, 0, 0, 0, 0, 0, 0], "stateRewards": ["", 2, 4, 48, -48, 2, 4, 24, -24, 2, -4, -24, -48], "withholdReward": false, "trial_id": "mdp_706591889062", "block": "test1", "trialIndex": 8, "score": 34, "costs": -1, "simulationMode": [null, null, null], "rewards": [2, 4, 24], "path": ["0", "0", "5", "6", "7"], "rt": [4739, 422, 85], "actions": ["right", "right", "up"], "actionTimes": [6068, 6994, 7586], "queries": {"click": {"state": {"target": ["5", "6", "8", "7"], "time": [2623, 3374, 4098, 5090]}, "edge": {"target": [], "time": []}}, "mouseover": {"state": {"target": ["0", "5", "5", "6", "8", "7"], "time": [1486, 1630, 2414, 3110, 3858, 4818]}, "edge": {"target": [], "time": []}}, "mouseout": {"state": {"target": ["11", "0", "5", "5", "6", "8", "7"], "time": [886, 1518, 1974, 2790, 3574, 4458, 5306]}, "edge": {"target": [], "time": []}}}, "displayed_time": "10.33", "trialTime": 12812, "trial_type": "mouselab-mdp", "trial_index": 15, "time_elapsed": 758374, "internal_node_id": "0.0-4.0-1.0-6.0"}}, {"uniqueid": "w99425110:a37075868", "current_trial": 16, "dateTime": 1664368649491, "trialdata": {"revealed_states": [], "num_clicks_accrued": [0, 0, 0, 0, 0, 0, 0, 0, 0, 0, 0, 0, 0], "stateRewards": ["", -4, 8, 24, -24, 4, 8, -24, -48, 2, 4, 24, -24], "withholdReward": true, "trial_id": "mdp_782187007008", "block": "test1", "trialIndex": 9, "score": 32.25, "costs": -0.75, "simulationMode": [null, null, null], "rewards": [-4, 8, 24], "path": ["0", "0", "1", "2", "3"], "rt": [4235, 500, 83], "actions": ["up", "up", "right"], "actionTimes": [5406, 6413, 7003], "queries": {"click": {"state": {"target": ["1", "2", "3"], "time": [1811, 3886, 4510]}, "edge": {"target": [], "time": []}}, "mouseover": {"state": {"target": ["1", "5", "2", "5", "2", "3"], "time": [1605, 2334, 2812, 3021, 3478, 4398]}, "edge": {"target": [], "time": []}}, "mouseout": {"state": {"target": ["7", "5", "0", "1", "5", "2", "1", "5", "2", "3"], "time": [737, 778, 1331, 2091, 2542, 2934, 2958, 3454, 4206, 4846]}, "edge": {"target": [], "time": []}}}, "displayed_time": "9.17", "trialTime": 10747, "trial_type": "mouselab-mdp", "trial_index": 16, "time_elapsed": 769148, "internal_node_id": "0.0-4.0-1.0-7.0"}}, {"uniqueid": "w99425110:a37075868", "current_trial": 17, "dateTime": 1664368661798, "trialdata": {"revealed_states": [], "num_clicks_accrued": [0, 0, 0, 0, 0, 0, 0, 0, 0, 0, 0, 0, 0], "stateRewards": ["", -4, -8, -24, -48, -2, -8, 24, -48, -4, -8, 24, -48], "withholdReward": false, "trial_id": "mdp_621812384092", "block": "test1", "trialIndex": 10, "score": 18.25, "costs": -0.75, "simulationMode": [null, null, null], "rewards": [-2, -8, 24], "path": ["0", "0", "5", "6", "7"], "rt": [3596, 482, 133], "actions": ["right", "right", "up"], "actionTimes": [5030, 6015, 6651], "queries": {"click": {"state": {"target": ["5", "6", "7"], "time": [2025, 3241, 4150]}, "edge": {"target": [], "time": []}}, "mouseover": {"state": {"target": ["5", "6", "7"], "time": [1877, 2994, 4045]}, "edge": {"target": [], "time": []}}, "mouseout": {"state": {"target": ["3", "0", "5", "5", "6", "6", "7"], "time": [926, 1785, 2217, 2801, 3449, 3833, 4389]}, "edge": {"target": [], "time": []}}}, "displayed_time": "10.44", "trialTime": 12280, "trial_type": "mouselab-mdp", "trial_index": 17, "time_elapsed": 781454, "internal_node_id": "0.0-4.0-1.0-8.0"}}, {"uniqueid": "w99425110:a37075868", "current_trial": 18, "dateTime": 1664368673997, "trialdata": {"revealed_states": [], "num_clicks_accrued": [0, 0, 0, 0, 0, 0, 0, 0, 0, 0, 0, 0, 0], "stateRewards": ["", -4, 8, -48, -48, -2, -8, -24, -48, 2, -4, -48, 24], "withholdReward": true, "trial_id": "mdp_743906784415", "block": "test1", "trialIndex": 11, "score": -30.25, "costs": -1.25, "simulationMode": [null, null, null], "rewards": [-2, -8, -24], "path": ["0", "0", "5", "6", "7"], "rt": [5828, 336, 128], "actions": ["right", "right", "up"], "actionTimes": [7728, 8567, 9198], "queries": {"click": {"state": {"target": ["1", "2", "4", "3", "5"], "time": [2670, 3294, 4285, 5053, 6913]}, "edge": {"target": [], "time": []}}, "mouseover": {"state": {"target": ["1", "2", "4", "3", "3", "7", "6", "5", "0", "0", "5", "6"], "time": [2472, 3037, 4074, 4653, 4781, 5229, 6337, 6354, 6362, 6676, 6713, 7081]}, "edge": {"target": [], "time": []}}, "mouseout": {"state": {"target": ["6", "5", "0", "1", "2", "4", "2", "3", "3", "7", "6", "5", "0", "0", "5", "6"], "time": [1313, 1480, 2161, 2981, 3686, 4616, 4645, 4661, 5205, 5237, 6345, 6361, 6377, 6698, 7051, 7105]}, "edge": {"target": [], "time": []}}}, "displayed_time": "10.90", "trialTime": 12172, "trial_type": "mouselab-mdp", "trial_index": 18, "time_elapsed": 793654, "internal_node_id": "0.0-4.0-1.0-9.0"}}, {"uniqueid": "w99425110:a37075868", "current_trial": 19, "dateTime": 1664368689221, "trialdata": {"revealed_states": [], "num_clicks_accrued": [0, 0, 0, 0, 0, 0, 0, 0, 0, 0, 0, 0, 0], "stateRewards": ["", -2, 8, -48, 48, -4, -8, 24, 24, -2, -4, 48, -48], "withholdReward": true, "trial_id": "mdp_867247318592", "block": "test1", "trialIndex": 12, "score": 16.25, "costs": -0.75, "simulationMode": [null, null, null], "rewards": [-4, -8, 24], "path": ["0", "0", "5", "6", "8"], "rt": [2992, 106, 83], "actions": ["right", "right", "down"], "actionTimes": [4499, 5109, 5696], "queries": {"click": {"state": {"target": ["5", "6", "8"], "time": [2447, 3299, 3699]}, "edge": {"target": [], "time": []}}, "mouseover": {"state": {"target": ["5", "8", "6", "8"], "time": [2223, 2996, 3164, 3510]}, "edge": {"target": [], "time": []}}, "mouseout": {"state": {"target": ["6", "1", "0", "5", "8", "6", "8"], "time": [951, 983, 1879, 2699, 3136, 3497, 3885]}, "edge": {"target": [], "time": []}}}, "displayed_time": "10.51", "trialTime": 15198, "trial_type": "mouselab-mdp", "trial_index": 19, "time_elapsed": 808878, "internal_node_id": "0.0-4.0-1.0-10.0"}}, {"uniqueid": "w99425110:a37075868", "current_trial": 20, "dateTime": 1664368699931, "trialdata": {"revealed_states": [], "num_clicks_accrued": [0, 0, 0, 0, 0, 0, 0, 0, 0, 0, 0, 0, 0], "stateRewards": ["", 2, 4, -24, -24, 4, 8, -48, 48, 2, 4, -24, -48], "withholdReward": false, "trial_id": "mdp_565165082781", "block": "test1", "trialIndex": 13, "score": -14.75, "costs": -1.75, "simulationMode": [null, null, null], "rewards": [2, 4, -24], "path": ["0", "0", "1", "2", "4"], "rt": [6277, 77, 48], "actions": ["up", "up", "left"], "actionTimes": [7330, 7913, 8466], "queries": {"click": {"state": {"target": ["9", "10", "11", "12", "1", "2", "3"], "time": [1579, 2427, 2906, 3567, 5446, 5947, 6619]}, "edge": {"target": [], "time": []}}, "mouseover": {"state": {"target": ["9", "10", "10", "11", "12", "8", "1", "2", "3", "3"], "time": [1434, 1959, 2283, 2690, 3374, 3762, 5334, 5758, 6211, 6482]}, "edge": {"target": [], "time": []}}, "mouseout": {"state": {"target": ["9", "0", "9", "10", "10", "11", "10", "12", "8", "1", "2", "3", "3"], "time": [698, 1355, 1883, 1987, 2658, 3246, 3358, 3702, 3777, 5694, 6184, 6370, 6762]}, "edge": {"target": [], "time": []}}}, "displayed_time": "9.05", "trialTime": 10683, "trial_type": "mouselab-mdp", "trial_index": 20, "time_elapsed": 819588, "internal_node_id": "0.0-4.0-1.0-11.0"}}, {"uniqueid": "w99425110:a37075868", "current_trial": 21, "dateTime": 1664368710545, "trialdata": {"revealed_states": [], "num_clicks_accrued": [0, 0, 0, 0, 0, 0, 0, 0, 0, 0, 0, 0, 0], "stateRewards": ["", -4, 4, -48, -48, -4, 8, -24, 24, 2, -4, 48, 48], "withholdReward": true, "trial_id": "mdp_821566905048", "block": "test1", "trialIndex": 14, "score": 32, "costs": -1, "simulationMode": [null, null, null], "rewards": [-4, 8, 24], "path": ["0", "0", "5", "6", "8"], "rt": [3285, 403, 115], "actions": ["right", "right", "down"], "actionTimes": [5249, 6157, 6778], "queries": {"click": {"state": {"target": ["5", "6", "7", "8"], "time": [2431, 3200, 3631, 4431]}, "edge": {"target": [], "time": []}}, "mouseover": {"state": {"target": ["5", "6", "7", "8"], "time": [2211, 3007, 3423, 4318]}, "edge": {"target": [], "time": []}}, "mouseout": {"state": {"target": ["8", "0", "5", "6", "7", "8", "8"], "time": [1499, 2181, 2735, 3391, 3950, 4664, 9722]}, "edge": {"target": [], "time": []}}}, "displayed_time": "9.97", "trialTime": 10585, "trial_type": "mouselab-mdp", "trial_index": 21, "time_elapsed": 830201, "internal_node_id": "0.0-4.0-1.0-12.0"}}, {"uniqueid": "w99425110:a37075868", "current_trial": 22, "dateTime": 1664368720406, "trialdata": {"revealed_states": [], "num_clicks_accrued": [0, 0, 0, 0, 0, 0, 0, 0, 0, 0, 0, 0, 0], "stateRewards": ["", -4, 8, 24, -48, -4, -8, -24, 24, 2, -4, -48, 24], "withholdReward": true, "trial_id": "mdp_898449441629", "block": "test1", "trialIndex": 15, "score": 15.75, "costs": -1.25, "simulationMode": [null, null, null], "rewards": [-4, -8, 24], "path": ["0", "0", "5", "6", "8"], "rt": [4367, 49, 24], "actions": ["right", "right", "down"], "actionTimes": [5008, 5564, 6094], "queries": {"click": {"state": {"target": ["1", "5", "7", "6", "8"], "time": [1105, 1825, 2325, 2852, 3957]}, "edge": {"target": [], "time": []}}, "mouseover": {"state": {"target": ["1", "5", "7", "6", "0", "8"], "time": [944, 1600, 2212, 2677, 3537, 3835]}, "edge": {"target": [], "time": []}}, "mouseout": {"state": {"target": ["9", "0", "1", "5", "7", "6", "1", "0", "8"], "time": [325, 848, 1568, 2040, 2588, 3162, 3412, 3551, 4099]}, "edge": {"target": [], "time": []}}}, "displayed_time": "8.64", "trialTime": 9836, "trial_type": "mouselab-mdp", "trial_index": 22, "time_elapsed": 840063, "internal_node_id": "0.0-4.0-1.0-13.0"}}, {"uniqueid": "w99425110:a37075868", "current_trial": 23, "dateTime": 1664368731177, "trialdata": {"revealed_states": [], "num_clicks_accrued": [0, 0, 0, 0, 0, 0, 0, 0, 0, 0, 0, 0, 0], "stateRewards": ["", -2, -4, -24, 48, -4, 8, 48, 48, 2, 8, -48, -24], "withholdReward": true, "trial_id": "mdp_136376573354", "block": "test1", "trialIndex": 16, "score": 46.25, "costs": -0.75, "simulationMode": [null, null, null], "rewards": [-2, -4, 48], "path": ["0", "0", "1", "2", "4"], "rt": [2245, 157, 40], "actions": ["up", "up", "left"], "actionTimes": [3814, 4477, 5018], "queries": {"click": {"state": {"target": ["1", "2", "4"], "time": [2001, 2513, 2961]}, "edge": {"target": [], "time": []}}, "mouseover": {"state": {"target": ["1", "2", "4"], "time": [1787, 2369, 2786]}, "edge": {"target": [], "time": []}}, "mouseout": {"state": {"target": ["7", "5", "0", "1", "2", "4", "1"], "time": [1169, 1301, 1712, 2293, 2712, 3312, 3464]}, "edge": {"target": [], "time": []}}}, "displayed_time": "9.57", "trialTime": 10747, "trial_type": "mouselab-mdp", "trial_index": 23, "time_elapsed": 850834, "internal_node_id": "0.0-4.0-1.0-14.0"}}, {"uniqueid": "w99425110:a37075868", "current_trial": 24, "dateTime": 1664368741964, "trialdata": {"revealed_states": [], "num_clicks_accrued": [0, 0, 0, 0, 0, 0, 0, 0, 0, 0, 0, 0, 0], "stateRewards": ["", -2, 4, 24, 48, 2, 4, -48, -48, -2, 8, 48, -24], "withholdReward": true, "trial_id": "mdp_305701202606", "block": "test1", "trialIndex": 17, "score": 29.5, "costs": -1.5, "simulationMode": [null, null, null], "rewards": [-2, 4, 24], "path": ["0", "0", "1", "2", "3"], "rt": [4370, 19, 1179], "actions": ["up", "up", "right"], "actionTimes": [5438, 5960, 7653], "queries": {"click": {"state": {"target": ["5", "6", "7", "8", "2", "3"], "time": [1513, 1993, 2413, 3021, 4125, 4733]}, "edge": {"target": [], "time": []}}, "mouseover": {"state": {"target": ["5", "6", "7", "8", "1", "4", "2", "3", "3"], "time": [1376, 1776, 2270, 2818, 3484, 3540, 3928, 4365, 4588]}, "edge": {"target": [], "time": []}}, "mouseout": {"state": {"target": ["1", "0", "5", "6", "7", "6", "8", "5", "1", "4", "2", "3", "3", "7"], "time": [576, 1192, 1744, 2196, 2693, 2741, 3356, 3435, 3508, 3772, 4351, 4388, 4868, 4884]}, "edge": {"target": [], "time": []}}}, "displayed_time": "10.07", "trialTime": 10757, "trial_type": "mouselab-mdp", "trial_index": 24, "time_elapsed": 861620, "internal_node_id": "0.0-4.0-1.0-15.0"}}, {"uniqueid": "w99425110:a37075868", "current_trial": 25, "dateTime": 1664368752347, "trialdata": {"revealed_states": [], "num_clicks_accrued": [0, 0, 0, 0, 0, 0, 0, 0, 0, 0, 0, 0, 0], "stateRewards": ["", -2, -4, -24, -48, -2, 8, -48, 24, 4, -4, -24, -24], "withholdReward": true, "trial_id": "mdp_915304165774", "block": "test1", "trialIndex": 18, "score": 33.5, "costs": -1.5, "simulationMode": [null, null, null], "rewards": [-2, 8, 24], "path": ["0", "0", "5", "6", "8"], "rt": [5040, 83, 63], "actions": ["right", "right", "down"], "actionTimes": [6553, 7138, 7708], "queries": {"click": {"state": {"target": ["9", "12", "11", "2", "3", "4"], "time": [1895, 2567, 3335, 4171, 4699, 5659]}, "edge": {"target": [], "time": []}}, "mouseover": {"state": {"target": ["9", "10", "12", "10", "11", "2", "3", "4"], "time": [1703, 2206, 2435, 2879, 3134, 3794, 4610, 5482]}, "edge": {"target": [], "time": []}}, "mouseout": {"state": {"target": ["3", "2", "4", "0", "9", "10", "12", "10", "11", "2", "3", "3", "2", "4", "2"], "time": [874, 918, 942, 1646, 2118, 2222, 2858, 3110, 3554, 4426, 4915, 5234, 5242, 5811, 5826]}, "edge": {"target": [], "time": []}}}, "displayed_time": "9.51", "trialTime": 10359, "trial_type": "mouselab-mdp", "trial_index": 25, "time_elapsed": 872004, "internal_node_id": "0.0-4.0-1.0-16.0"}}, {"uniqueid": "w99425110:a37075868", "current_trial": 26, "dateTime": 1664368762628, "trialdata": {"revealed_states": [], "num_clicks_accrued": [0, 0, 0, 0, 0, 0, 0, 0, 0, 0, 0, 0, 0], "stateRewards": ["", -4, 8, -24, -24, 4, -8, 48, -24, -4, -8, -24, -48], "withholdReward": true, "trial_id": "mdp_391766721791", "block": "test1", "trialIndex": 19, "score": 48.5, "costs": -0.5, "simulationMode": [null, null, null], "rewards": [4, -8, 48], "path": ["0", "0", "5", "6", "7"], "rt": [2113, 48, 55], "actions": ["right", "right", "up"], "actionTimes": [3398, 3952, 4514], "queries": {"click": {"state": {"target": ["5", "7"], "time": [1924, 2532]}, "edge": {"target": [], "time": []}}, "mouseover": {"state": {"target": ["5", "5", "6", "7"], "time": [1462, 1715, 2169, 2363]}, "edge": {"target": [], "time": []}}, "mouseout": {"state": {"target": ["6", "5", "5", "5", "6", "7", "5"], "time": [979, 1019, 1523, 2107, 2227, 2745, 8807]}, "edge": {"target": [], "time": []}}}, "displayed_time": "9.29", "trialTime": 10253, "trial_type": "mouselab-mdp", "trial_index": 26, "time_elapsed": 882285, "internal_node_id": "0.0-4.0-1.0-17.0"}}, {"uniqueid": "w99425110:a37075868", "current_trial": 27, "dateTime": 1664368772519, "trialdata": {"revealed_states": [], "num_clicks_accrued": [0, 0, 0, 0, 0, 0, 0, 0, 0, 0, 0, 0, 0], "stateRewards": ["", -2, -8, -24, -48, 4, -8, 48, 24, 2, 4, -48, -48], "withholdReward": true, "trial_id": "mdp_898082967464", "block": "test1", "trialIndex": 20, "score": 48.75, "costs": -0.25, "simulationMode": [null, null, null], "rewards": [4, -8, 48], "path": ["0", "0", "5", "6", "7"], "rt": [1477, 119, 57], "actions": ["right", "right", "up"], "actionTimes": [2323, 2944, 3506], "queries": {"click": {"state": {"target": ["7"], "time": [1422]}, "edge": {"target": [], "time": []}}, "mouseover": {"state": {"target": ["5", "6", "7"], "time": [981, 1029, 1301]}, "edge": {"target": [], "time": []}}, "mouseout": {"state": {"target": ["8", "5", "0", "5", "6"], "time": [229, 570, 949, 1005, 1111]}, "edge": {"target": [], "time": []}}}, "displayed_time": "8.85", "trialTime": 9865, "trial_type": "mouselab-mdp", "trial_index": 27, "time_elapsed": 892176, "internal_node_id": "0.0-4.0-1.0-18.0"}}, {"uniqueid": "w99425110:a37075868", "current_trial": 28, "dateTime": 1664368782353, "trialdata": {"revealed_states": [], "num_clicks_accrued": [0, 0, 0, 0, 0, 0, 0, 0, 0, 0, 0, 0, 0], "stateRewards": ["", 2, 4, 48, 48, 4, -8, 24, -48, -4, -8, -24, -48], "withholdReward": true, "trial_id": "mdp_343818007251", "block": "test1", "trialIndex": 21, "score": 58.75, "costs": -0.25, "simulationMode": [null, null, null], "rewards": [2, 4, 48], "path": ["0", "0", "1", "2", "3"], "rt": [1319, 89, 22], "actions": ["up", "up", "right"], "actionTimes": [2486, 3081, 3611], "queries": {"click": {"state": {"target": ["3"], "time": [1694]}, "edge": {"target": [], "time": []}}, "mouseover": {"state": {"target": ["3"], "time": [1533]}, "edge": {"target": [], "time": []}}, "mouseout": {"state": {"target": ["7", "7", "3"], "time": [233, 529, 9598]}, "edge": {"target": [], "time": []}}}, "displayed_time": "9.17", "trialTime": 9807, "trial_type": "mouselab-mdp", "trial_index": 28, "time_elapsed": 902009, "internal_node_id": "0.0-4.0-1.0-19.0"}}, {"uniqueid": "w99425110:a37075868", "current_trial": 29, "dateTime": 1664368792625, "trialdata": {"revealed_states": [], "num_clicks_accrued": [0, 0, 0, 0, 0, 0, 0, 0, 0, 0, 0, 0, 0], "stateRewards": ["", 4, -4, 48, 24, 2, 4, 24, -24, 2, 4, 24, 48], "withholdReward": true, "trial_id": "mdp_736351885282", "block": "test1", "trialIndex": 22, "score": 52.25, "costs": -0.75, "simulationMode": [null, null, null], "rewards": [4, -4, 48], "path": ["0", "0", "1", "2", "3"], "rt": [2621, 83, 35], "actions": ["up", "up", "right"], "actionTimes": [3187, 3776, 4318], "queries": {"click": {"state": {"target": ["3", "2", "1"], "time": [1121, 1794, 2437]}, "edge": {"target": [], "time": []}}, "mouseover": {"state": {"target": ["1", "3", "2", "1", "7"], "time": [817, 953, 1617, 2329, 2604]}, "edge": {"target": [], "time": []}}, "mouseout": {"state": {"target": ["1", "0", "1", "3", "2", "1", "7"], "time": [337, 772, 865, 1441, 1961, 2573, 2611]}, "edge": {"target": [], "time": []}}}, "displayed_time": "9.57", "trialTime": 10244, "trial_type": "mouselab-mdp", "trial_index": 29, "time_elapsed": 912282, "internal_node_id": "0.0-4.0-1.0-20.0"}}, {"uniqueid": "w99425110:a37075868", "current_trial": 30, "dateTime": 1664368803102, "trialdata": {"revealed_states": [], "num_clicks_accrued": [0, 0, 0, 0, 0, 0, 0, 0, 0, 0, 0, 0, 0], "stateRewards": ["", -4, 4, -24, 48, 2, 4, -48, 24, 4, -8, -24, 24], "withholdReward": true, "trial_id": "mdp_740130150937", "block": "test1", "trialIndex": 23, "score": 34.25, "costs": -0.75, "simulationMode": [null, null, null], "rewards": [2, 4, 24], "path": ["0", "0", "5", "6", "8"], "rt": [2617, 150, 102], "actions": ["right", "right", "down"], "actionTimes": [3649, 4303, 4906], "queries": {"click": {"state": {"target": ["8", "6", "5"], "time": [1701, 2405, 2949]}, "edge": {"target": [], "time": []}}, "mouseover": {"state": {"target": ["5", "6", "8", "6", "5"], "time": [1134, 1148, 1541, 1939, 2796]}, "edge": {"target": [], "time": []}}, "mouseout": {"state": {"target": ["5", "6", "8", "6", "5", "6", "8"], "time": [1148, 1156, 1860, 2668, 3068, 3093, 10380]}, "edge": {"target": [], "time": []}}}, "displayed_time": "10.03", "trialTime": 10448, "trial_type": "mouselab-mdp", "trial_index": 30, "time_elapsed": 922759, "internal_node_id": "0.0-4.0-1.0-21.0"}}, {"uniqueid": "w99425110:a37075868", "current_trial": 31, "dateTime": 1664368813218, "trialdata": {"revealed_states": [], "num_clicks_accrued": [0, 0, 0, 0, 0, 0, 0, 0, 0, 0, 0, 0, 0], "stateRewards": ["", 4, -8, 24, 48, 2, 4, 48, 48, 2, 8, -48, -48], "withholdReward": true, "trial_id": "mdp_783704746330", "block": "test1", "trialIndex": 24, "score": 24.25, "costs": -0.75, "simulationMode": [null, null, null], "rewards": [4, -8, 24], "path": ["0", "0", "1", "2", "3"], "rt": [2796, 134, 16], "actions": ["up", "up", "right"], "actionTimes": [3430, 4070, 4591], "queries": {"click": {"state": {"target": ["12", "11", "3"], "time": [1129, 1705, 2585]}, "edge": {"target": [], "time": []}}, "mouseover": {"state": {"target": ["9", "12", "10", "11", "4", "2", "3", "7"], "time": [793, 1048, 1424, 1576, 2001, 2033, 2384, 3021]}, "edge": {"target": [], "time": []}}, "mouseout": {"state": {"target": ["0", "9", "12", "10", "11", "4", "2", "3", "7"], "time": [537, 863, 1392, 1472, 1973, 2016, 2368, 2951, 3060]}, "edge": {"target": [], "time": []}}}, "displayed_time": "9.63", "trialTime": 10088, "trial_type": "mouselab-mdp", "trial_index": 31, "time_elapsed": 932875, "internal_node_id": "0.0-4.0-1.0-22.0"}}, {"uniqueid": "w99425110:a37075868", "current_trial": 32, "dateTime": 1664368823611, "trialdata": {"revealed_states": [], "num_clicks_accrued": [0, 0, 0, 0, 0, 0, 0, 0, 0, 0, 0, 0, 0], "stateRewards": ["", -4, -8, 24, -48, 2, 4, -48, -48, 2, -8, 24, 48], "withholdReward": false, "trial_id": "mdp_111262146724", "block": "test1", "trialIndex": 25, "score": 16.25, "costs": -0.75, "simulationMode": [null, null, null], "rewards": [-4, -8, 24], "path": ["0", "0", "1", "2", "3"], "rt": [3231, 58, 55], "actions": ["up", "up", "right"], "actionTimes": [4553, 5118, 5677], "queries": {"click": {"state": {"target": ["7", "3", "4"], "time": [2002, 2882, 3842]}, "edge": {"target": [], "time": []}}, "mouseover": {"state": {"target": ["7", "7", "6", "3", "3", "2", "2", "4"], "time": [1554, 1921, 2369, 2601, 2786, 3257, 3449, 3575]}, "edge": {"target": [], "time": []}}, "mouseout": {"state": {"target": ["5", "0", "7", "7", "6", "3", "3", "2", "2", "4"], "time": [733, 893, 1584, 2354, 2450, 2722, 3110, 3313, 3529, 3958]}, "edge": {"target": [], "time": []}}}, "displayed_time": "9.32", "trialTime": 10366, "trial_type": "mouselab-mdp", "trial_index": 32, "time_elapsed": 943268, "internal_node_id": "0.0-4.0-1.0-23.0"}}, {"uniqueid": "w99425110:a37075868", "current_trial": 33, "dateTime": 1664368834151, "trialdata": {"revealed_states": [], "num_clicks_accrued": [0, 0, 0, 0, 0, 0, 0, 0, 0, 0, 0, 0, 0], "stateRewards": ["", -4, -8, 48, 24, 4, -8, 24, -48, -2, -8, 24, -48], "withholdReward": false, "trial_id": "mdp_952038635544", "block": "test1", "trialIndex": 26, "score": 18.5, "costs": -0.5, "simulationMode": [null, null, null], "rewards": [-2, -8, 24], "path": ["0", "0", "9", "10", "11"], "rt": [2783, 60, 14], "actions": ["left", "left", "up"], "actionTimes": [3555, 4116, 4633], "queries": {"click": {"state": {"target": ["8", "11"], "time": [1573, 2741]}, "edge": {"target": [], "time": []}}, "mouseover": {"state": {"target": ["5", "8", "6", "7", "1", "10", "11", "5", "6"], "time": [1148, 1396, 1908, 2124, 2172, 2437, 2548, 3052, 3061]}, "edge": {"target": [], "time": []}}, "mouseout": {"state": {"target": ["7", "5", "0", "5", "8", "6", "7", "1", "10", "11", "5", "6"], "time": [284, 476, 964, 1196, 1876, 1988, 2132, 2189, 2516, 3028, 3060, 3068]}, "edge": {"target": [], "time": []}}}, "displayed_time": "9.77", "trialTime": 10509, "trial_type": "mouselab-mdp", "trial_index": 33, "time_elapsed": 953808, "internal_node_id": "0.0-4.0-1.0-24.0"}}, {"uniqueid": "w99425110:a37075868", "current_trial": 34, "dateTime": 1664368843688, "trialdata": {"revealed_states": [], "num_clicks_accrued": [0, 0, 0, 0, 0, 0, 0, 0, 0, 0, 0, 0, 0], "stateRewards": ["", -2, -8, 48, -24, 2, -4, -48, -24, -2, -4, -48, 48], "withholdReward": false, "trial_id": "mdp_143798438087", "block": "test1", "trialIndex": 27, "score": 46.75, "costs": -0.25, "simulationMode": [null, null, null], "rewards": [-2, -4, 48], "path": ["0", "0", "9", "10", "12"], "rt": [1372, 81, 9], "actions": ["left", "left", "down"], "actionTimes": [1969, 2554, 3065], "queries": {"click": {"state": {"target": ["12"], "time": [1043]}, "edge": {"target": [], "time": []}}, "mouseover": {"state": {"target": ["9", "12", "12", "9"], "time": [745, 849, 977, 1401]}, "edge": {"target": [], "time": []}}, "mouseout": {"state": {"target": ["6", "5", "9", "12", "12", "9"], "time": [73, 105, 786, 857, 1307, 1409]}, "edge": {"target": [], "time": []}}}, "displayed_time": "8.60", "trialTime": 9507, "trial_type": "mouselab-mdp", "trial_index": 34, "time_elapsed": 963345, "internal_node_id": "0.0-4.0-1.0-25.0"}}, {"uniqueid": "w99425110:a37075868", "current_trial": 35, "dateTime": 1664368853141, "trialdata": {"revealed_states": [], "num_clicks_accrued": [0, 0, 0, 0, 0, 0, 0, 0, 0, 0, 0, 0, 0], "stateRewards": ["", -2, 4, -24, 48, 4, -8, 48, -48, 2, -8, 48, 24], "withholdReward": true, "trial_id": "mdp_501111216502", "block": "test1", "trialIndex": 28, "score": 46.5, "costs": -0.5, "simulationMode": [null, null, null], "rewards": [2, -8, 48], "path": ["0", "0", "9", "10", "11"], "rt": [2478, 34, 10], "actions": ["left", "left", "up"], "actionTimes": [3263, 3799, 4318], "queries": {"click": {"state": {"target": ["3", "11"], "time": [1485, 2445]}, "edge": {"target": [], "time": []}}, "mouseover": {"state": {"target": ["1", "3", "2", "4", "11"], "time": [962, 1365, 1773, 1996, 2132]}, "edge": {"target": [], "time": []}}, "mouseout": {"state": {"target": ["1", "3", "2", "4", "11"], "time": [976, 1757, 1805, 2092, 9161]}, "edge": {"target": [], "time": []}}}, "displayed_time": "8.79", "trialTime": 9423, "trial_type": "mouselab-mdp", "trial_index": 35, "time_elapsed": 972798, "internal_node_id": "0.0-4.0-1.0-26.0"}}, {"uniqueid": "w99425110:a37075868", "current_trial": 36, "dateTime": 1664368862473, "trialdata": {"revealed_states": [], "num_clicks_accrued": [0, 0, 0, 0, 0, 0, 0, 0, 0, 0, 0, 0, 0], "stateRewards": ["", -2, -8, 48, 24, 4, -8, 24, 48, 4, -4, 24, -48], "withholdReward": false, "trial_id": "mdp_871576155740", "block": "test1", "trialIndex": 29, "score": 48.75, "costs": -0.25, "simulationMode": [null, null, null], "rewards": [4, -8, 48], "path": ["0", "0", "5", "6", "8"], "rt": [1356, 56, 30], "actions": ["right", "right", "down"], "actionTimes": [1925, 2484, 3021], "queries": {"click": {"state": {"target": ["8"], "time": [1112]}, "edge": {"target": [], "time": []}}, "mouseover": {"state": {"target": ["5", "8", "6"], "time": [775, 1013, 1543]}, "edge": {"target": [], "time": []}}, "mouseout": {"state": {"target": ["11", "5", "8"], "time": [23, 808, 1472]}, "edge": {"target": [], "time": []}}}, "displayed_time": "8.57", "trialTime": 9302, "trial_type": "mouselab-mdp", "trial_index": 36, "time_elapsed": 982130, "internal_node_id": "0.0-4.0-1.0-27.0"}}, {"uniqueid": "w99425110:a37075868", "current_trial": 37, "dateTime": 1664368872752, "trialdata": {"revealed_states": [], "num_clicks_accrued": [0, 0, 0, 0, 0, 0, 0, 0, 0, 0, 0, 0, 0], "stateRewards": ["", -4, 4, 24, 24, -2, 8, 24, -48, 4, -8, -24, -48], "withholdReward": true, "trial_id": "mdp_651542905861", "block": "test1", "trialIndex": 30, "score": 28.25, "costs": -0.75, "simulationMode": [null, null, null], "rewards": [-4, 4, 24], "path": ["0", "0", "1", "2", "3"], "rt": [3164, 25, 592], "actions": ["up", "up", "right"], "actionTimes": [3795, 4326, 5427], "queries": {"click": {"state": {"target": ["3", "11", "8"], "time": [1156, 2100, 2824]}, "edge": {"target": [], "time": []}}, "mouseover": {"state": {"target": ["3", "11", "9", "8", "8"], "time": [1028, 1858, 2427, 2464, 2672]}, "edge": {"target": [], "time": []}}, "mouseout": {"state": {"target": ["5", "3", "11", "9", "8", "8"], "time": [107, 1754, 2420, 2435, 2472, 2960]}, "edge": {"target": [], "time": []}}}, "displayed_time": "9.63", "trialTime": 10249, "trial_type": "mouselab-mdp", "trial_index": 37, "time_elapsed": 992409, "internal_node_id": "0.0-4.0-1.0-28.0"}}, {"uniqueid": "w99425110:a37075868", "current_trial": 38, "dateTime": 1664368883672, "trialdata": {"revealed_states": [], "num_clicks_accrued": [0, 0, 0, 0, 0, 0, 0, 0, 0, 0, 0, 0, 0], "stateRewards": ["", 4, 8, 48, -48, -4, 8, -24, -24, -4, 8, 48, 48], "withholdReward": false, "trial_id": "mdp_377640328420", "block": "test1", "trialIndex": 31, "score": 56.25, "costs": -0.75, "simulationMode": [null, null, null], "rewards": [-4, 8, 48], "path": ["0", "0", "9", "10", "12"], "rt": [2941, 123, 68], "actions": ["left", "left", "down"], "actionTimes": [3572, 4198, 4773], "queries": {"click": {"state": {"target": ["7", "4", "12"], "time": [1206, 1913, 2553]}, "edge": {"target": [], "time": []}}, "mouseover": {"state": {"target": ["7", "1", "4", "10", "12", "5", "6"], "time": [1174, 1572, 1788, 2353, 2443, 3024, 3034]}, "edge": {"target": [], "time": []}}, "mouseout": {"state": {"target": ["6", "5", "0", "7", "1", "4", "10", "12", "5", "6"], "time": [217, 372, 729, 1444, 1580, 2106, 2376, 2872, 3033, 3040]}, "edge": {"target": [], "time": []}}}, "displayed_time": "9.63", "trialTime": 10890, "trial_type": "mouselab-mdp", "trial_index": 38, "time_elapsed": 1003329, "internal_node_id": "0.0-4.0-1.0-29.0"}}, {"uniqueid": "w99425110:a37075868", "current_trial": 39, "dateTime": 1664368893335, "trialdata": {"rt": 9660, "stimulus": "<h1> End of block! </h1>\n\nYou have reached the end of the block 1/4. If you need a short break, feel free to take one now before moving on.\n\n<br><br>\nIn the next block, you will complete another 30 rounds of this game.\n\n<br><br>\n<div style='text-align: center;'>Press <code>space</code> to begin.</div>\n<br><br>\n<div style='text-align: center;'>(If the experiment doesn't continue, try clicking on the text and then pressing <code>space</code>.)</div>", "response": " ", "trial_id": "mdp_ready_2", "trial_type": "html-keyboard-response", "trial_index": 39, "time_elapsed": 1012992, "internal_node_id": "0.0-4.0-2.0"}}, {"uniqueid": "w99425110:a37075868", "current_trial": 40, "dateTime": 1664368903723, "trialdata": {"revealed_states": [], "num_clicks_accrued": [0, 0, 0, 0, 0, 0, 0, 0, 0, 0, 0, 0, 0], "stateRewards": ["", 4, 4, 48, -24, -4, -8, 24, -24, 2, -8, -24, 24], "withholdReward": true, "trial_id": "mdp_933201675789", "block": "test2", "trialIndex": 32, "score": 60.5, "costs": -0.5, "simulationMode": [null, null, null], "rewards": [4, 4, 48], "path": ["0", "0", "1", "2", "3"], "rt": [2813, 56, 40], "actions": ["up", "up", "right"], "actionTimes": [3736, 4296, 4843], "queries": {"click": {"state": {"target": ["7", "3"], "time": [1573, 2825]}, "edge": {"target": [], "time": []}}, "mouseover": {"state": {"target": ["7", "6", "5", "3", "2"], "time": [1430, 2157, 2491, 2621, 3115]}, "edge": {"target": [], "time": []}}, "mouseout": {"state": {"target": ["6", "1", "0", "7", "6", "5", "3", "2", "4"], "time": [469, 653, 1045, 1885, 2333, 2499, 3088, 6685, 9121]}, "edge": {"target": [], "time": []}}}, "displayed_time": "9.93", "trialTime": 10358, "trial_type": "mouselab-mdp", "trial_index": 40, "time_elapsed": 1023380, "internal_node_id": "0.0-4.0-3.0-0.0"}}, {"uniqueid": "w99425110:a37075868", "current_trial": 41, "dateTime": 1664368912857, "trialdata": {"revealed_states": [], "num_clicks_accrued": [0, 0, 0, 0, 0, 0, 0, 0, 0, 0, 0, 0, 0], "stateRewards": ["", -2, -4, -48, -48, -2, -8, 48, -48, 4, -8, -48, 24], "withholdReward": true, "trial_id": "mdp_468495641521", "block": "test2", "trialIndex": 33, "score": 24.25, "costs": -0.75, "simulationMode": [null, null, null], "rewards": [4, -8, 24], "path": ["0", "0", "9", "10", "12"], "rt": [3150, 65, 75], "actions": ["left", "left", "down"], "actionTimes": [3862, 4432, 5010], "queries": {"click": {"state": {"target": ["12", "4", "8"], "time": [1192, 2200, 2955]}, "edge": {"target": [], "time": []}}, "mouseover": {"state": {"target": ["9", "10", "12", "10", "11", "4", "2", "5", "8", "6"], "time": [855, 919, 1078, 1511, 1599, 2015, 2439, 2568, 2795, 3291]}, "edge": {"target": [], "time": []}}, "mouseout": {"state": {"target": ["4", "9", "10", "12", "10", "11", "4", "2", "5", "8", "6"], "time": [128, 887, 983, 1488, 1551, 1679, 2415, 2495, 2667, 3251, 3307]}, "edge": {"target": [], "time": []}}}, "displayed_time": "8.71", "trialTime": 9102, "trial_type": "mouselab-mdp", "trial_index": 41, "time_elapsed": 1032514, "internal_node_id": "0.0-4.0-3.0-1.0"}}, {"uniqueid": "w99425110:a37075868", "current_trial": 42, "dateTime": 1664368925056, "trialdata": {"revealed_states": [], "num_clicks_accrued": [0, 0, 0, 0, 0, 0, 0, 0, 0, 0, 0, 0, 0], "stateRewards": ["", 2, -4, 48, -24, 4, -8, -24, 48, -2, -4, 24, -48], "withholdReward": true, "trial_id": "mdp_357328205509", "block": "test2", "trialIndex": 34, "score": 48.75, "costs": -0.25, "simulationMode": [null, null, null], "rewards": [4, -8, 48], "path": ["0", "0", "5", "6", "8"], "rt": [1407, 97, 22], "actions": ["right", "right", "down"], "actionTimes": [2067, 2672, 3199], "queries": {"click": {"state": {"target": ["8"], "time": [1172]}, "edge": {"target": [], "time": []}}, "mouseover": {"state": {"target": ["0", "8", "6"], "time": [827, 1059, 1691]}, "edge": {"target": [], "time": []}}, "mouseout": {"state": {"target": ["7", "5", "0", "0", "8", "6", "5", "0", "1"], "time": [307, 443, 777, 835, 1547, 10323, 10491, 10827, 11679]}, "edge": {"target": [], "time": []}}}, "displayed_time": "8.66", "trialTime": 12169, "trial_type": "mouselab-mdp", "trial_index": 42, "time_elapsed": 1044713, "internal_node_id": "0.0-4.0-3.0-2.0"}}, {"uniqueid": "w99425110:a37075868", "current_trial": 43, "dateTime": 1664368935309, "trialdata": {"revealed_states": [], "num_clicks_accrued": [0, 0, 0, 0, 0, 0, 0, 0, 0, 0, 0, 0, 0], "stateRewards": ["", 2, -4, -48, -48, -2, -4, -24, -48, -2, 8, 24, 24], "withholdReward": true, "trial_id": "mdp_656069446729", "block": "test2", "trialIndex": 35, "score": 34.25, "costs": -0.75, "simulationMode": [null, null, null], "rewards": [-2, 8, 24], "path": ["0", "0", "9", "10", "11"], "rt": [3559, 50, 157], "actions": ["left", "left", "up"], "actionTimes": [4138, 4696, 5358], "queries": {"click": {"state": {"target": ["11", "3", "12"], "time": [1024, 1905, 3285]}, "edge": {"target": [], "time": []}}, "mouseover": {"state": {"target": ["11", "3", "2", "4", "10", "12", "12"], "time": [920, 1736, 2268, 2516, 2744, 2796, 3119]}, "edge": {"target": [], "time": []}}, "mouseout": {"state": {"target": ["1", "0", "11", "3", "2", "4", "10", "12", "12"], "time": [352, 649, 1320, 2212, 2411, 2556, 2751, 2844, 3484]}, "edge": {"target": [], "time": []}}}, "displayed_time": "9.58", "trialTime": 10223, "trial_type": "mouselab-mdp", "trial_index": 43, "time_elapsed": 1054966, "internal_node_id": "0.0-4.0-3.0-3.0"}}, {"uniqueid": "w99425110:a37075868", "current_trial": 44, "dateTime": 1664368944616, "trialdata": {"revealed_states": [], "num_clicks_accrued": [0, 0, 0, 0, 0, 0, 0, 0, 0, 0, 0, 0, 0], "stateRewards": ["", 2, 8, -48, -24, 4, 4, 24, 48, 4, -4, -48, 48], "withholdReward": true, "trial_id": "mdp_665096999232", "block": "test2", "trialIndex": 36, "score": 36.25, "costs": -0.75, "simulationMode": [null, null, null], "rewards": [4, 4, 24], "path": ["0", "0", "5", "6", "7"], "rt": [3419, 4, 41], "actions": ["right", "right", "up"], "actionTimes": [4079, 4587, 5138], "queries": {"click": {"state": {"target": ["7", "3", "4"], "time": [1048, 2039, 2840]}, "edge": {"target": [], "time": []}}, "mouseover": {"state": {"target": ["7", "6", "2", "2", "3", "2", "4"], "time": [836, 1489, 1743, 1823, 1839, 2415, 2695]}, "edge": {"target": [], "time": []}}, "mouseout": {"state": {"target": ["5", "0", "7", "6", "2", "2", "3", "2", "4"], "time": [339, 747, 1461, 1575, 1752, 1831, 2407, 2527, 3231]}, "edge": {"target": [], "time": []}}}, "displayed_time": "8.67", "trialTime": 9277, "trial_type": "mouselab-mdp", "trial_index": 44, "time_elapsed": 1064273, "internal_node_id": "0.0-4.0-3.0-4.0"}}, {"uniqueid": "w99425110:a37075868", "current_trial": 45, "dateTime": 1664368954196, "trialdata": {"revealed_states": [], "num_clicks_accrued": [0, 0, 0, 0, 0, 0, 0, 0, 0, 0, 0, 0, 0], "stateRewards": ["", 2, 8, 48, -24, -4, 4, 48, 24, -2, 8, 24, 24], "withholdReward": true, "trial_id": "mdp_123436106791", "block": "test2", "trialIndex": 37, "score": 34.25, "costs": -0.75, "simulationMode": [null, null, null], "rewards": [-2, 8, 24], "path": ["0", "0", "9", "10", "12"], "rt": [3381, 71, 23], "actions": ["left", "left", "down"], "actionTimes": [3877, 4452, 4979], "queries": {"click": {"state": {"target": ["12", "4", "8"], "time": [1069, 1937, 2912]}, "edge": {"target": [], "time": []}}, "mouseover": {"state": {"target": ["12", "2", "4", "2", "3", "6", "8"], "time": [1008, 1496, 1751, 2224, 2257, 2712, 2868]}, "edge": {"target": [], "time": []}}, "mouseout": {"state": {"target": ["1", "0", "12", "2", "4", "2", "3", "6", "8"], "time": [118, 661, 1464, 1543, 2200, 2240, 2304, 2720, 3073]}, "edge": {"target": [], "time": []}}}, "displayed_time": "8.50", "trialTime": 9546, "trial_type": "mouselab-mdp", "trial_index": 45, "time_elapsed": 1073853, "internal_node_id": "0.0-4.0-3.0-5.0"}}, {"uniqueid": "w99425110:a37075868", "current_trial": 46, "dateTime": 1664368964616, "trialdata": {"revealed_states": [], "num_clicks_accrued": [0, 0, 0, 0, 0, 0, 0, 0, 0, 0, 0, 0, 0], "stateRewards": ["", 4, -8, 48, -24, -4, 4, 24, 24, -2, -4, 24, 24], "withholdReward": false, "trial_id": "mdp_542168715839", "block": "test2", "trialIndex": 38, "score": 48.5, "costs": -0.5, "simulationMode": [null, null, null], "rewards": [4, -8, 48], "path": ["0", "0", "1", "2", "3"], "rt": [2523, 33, 540], "actions": ["up", "up", "right"], "actionTimes": [4282, 4820, 5861], "queries": {"click": {"state": {"target": ["7", "3"], "time": [2433, 3441]}, "edge": {"target": [], "time": []}}, "mouseover": {"state": {"target": ["5", "7", "6", "6", "3", "2", "3", "2"], "time": [1919, 2319, 2784, 2976, 3007, 3207, 3392, 3735]}, "edge": {"target": [], "time": []}}, "mouseout": {"state": {"target": ["6", "5", "0", "9", "9", "0", "5", "7", "6", "6", "3", "2", "3"], "time": [699, 707, 716, 724, 1240, 1903, 1928, 2720, 2903, 2984, 3015, 3233, 3703]}, "edge": {"target": [], "time": []}}}, "displayed_time": "9.76", "trialTime": 10389, "trial_type": "mouselab-mdp", "trial_index": 46, "time_elapsed": 1084273, "internal_node_id": "0.0-4.0-3.0-6.0"}}, {"uniqueid": "w99425110:a37075868", "current_trial": 47, "dateTime": 1664368974070, "trialdata": {"revealed_states": [], "num_clicks_accrued": [0, 0, 0, 0, 0, 0, 0, 0, 0, 0, 0, 0, 0], "stateRewards": ["", 4, 4, 24, 24, 4, -4, 48, 48, 4, 4, 24, -48], "withholdReward": true, "trial_id": "mdp_454251689008", "block": "test2", "trialIndex": 39, "score": 52.25, "costs": -0.75, "simulationMode": [null, null, null], "rewards": [4, -4, 48], "path": ["0", "0", "5", "6", "8"], "rt": [3059, 51, 64], "actions": ["right", "right", "down"], "actionTimes": [3744, 4298, 4866], "queries": {"click": {"state": {"target": ["12", "4", "8"], "time": [1085, 1853, 2769]}, "edge": {"target": [], "time": []}}, "mouseover": {"state": {"target": ["9", "12", "9", "1", "2", "4", "2", "3", "5", "8", "6"], "time": [844, 925, 1380, 1413, 1460, 1735, 2156, 2236, 2429, 2651, 3072]}, "edge": {"target": [], "time": []}}, "mouseout": {"state": {"target": ["2", "1", "9", "12", "9", "1", "2", "4", "2", "3", "5", "8", "6"], "time": [21, 460, 861, 1284, 1397, 1430, 1629, 2054, 2212, 2277, 2437, 3040, 3241]}, "edge": {"target": [], "time": []}}}, "displayed_time": "8.69", "trialTime": 9424, "trial_type": "mouselab-mdp", "trial_index": 47, "time_elapsed": 1093727, "internal_node_id": "0.0-4.0-3.0-7.0"}}, {"uniqueid": "w99425110:a37075868", "current_trial": 48, "dateTime": 1664368987635, "trialdata": {"revealed_states": [], "num_clicks_accrued": [0, 0, 0, 0, 0, 0, 0, 0, 0, 0, 0, 0, 0], "stateRewards": ["", -4, 8, -24, -24, 4, -8, 48, -24, -4, -8, -24, -48], "withholdReward": false, "trial_id": "mdp_391766721791", "block": "test2", "trialIndex": 40, "score": 48.75, "costs": -0.25, "simulationMode": [null, null, null], "rewards": [4, -8, 48], "path": ["0", "0", "5", "6", "7"], "rt": [1493, 39, 226], "actions": ["right", "right", "up"], "actionTimes": [2347, 2892, 3621], "queries": {"click": {"state": {"target": ["7"], "time": [1367]}, "edge": {"target": [], "time": []}}, "mouseover": {"state": {"target": ["7"], "time": [1239]}, "edge": {"target": [], "time": []}}, "mouseout": {"state": {"target": ["9", "10", "10", "9", "0", "7", "7"], "time": [270, 279, 526, 551, 703, 12678, 13327]}, "edge": {"target": [], "time": []}}}, "displayed_time": "8.86", "trialTime": 13535, "trial_type": "mouselab-mdp", "trial_index": 48, "time_elapsed": 1107292, "internal_node_id": "0.0-4.0-3.0-8.0"}}, {"uniqueid": "w99425110:a37075868", "current_trial": 49, "dateTime": 1664368998898, "trialdata": {"revealed_states": [], "num_clicks_accrued": [0, 0, 0, 0, 0, 0, 0, 0, 0, 0, 0, 0, 0], "stateRewards": ["", -2, -4, -48, -48, 4, -4, 48, 24, 4, 4, 48, 48], "withholdReward": true, "trial_id": "mdp_950960813932", "block": "test2", "trialIndex": 41, "score": 52.75, "costs": -0.25, "simulationMode": [null, null, null], "rewards": [4, -4, 48], "path": ["0", "0", "5", "6", "7"], "rt": [1218, 114, 338], "actions": ["right", "right", "up"], "actionTimes": [2096, 2716, 3558], "queries": {"click": {"state": {"target": ["7"], "time": [1259]}, "edge": {"target": [], "time": []}}, "mouseover": {"state": {"target": ["5", "7"], "time": [1019, 1110]}, "edge": {"target": [], "time": []}}, "mouseout": {"state": {"target": ["7", "5", "0", "5", "7"], "time": [250, 354, 995, 1027, 1474]}, "edge": {"target": [], "time": []}}}, "displayed_time": "9.88", "trialTime": 11234, "trial_type": "mouselab-mdp", "trial_index": 49, "time_elapsed": 1118555, "internal_node_id": "0.0-4.0-3.0-9.0"}}, {"uniqueid": "w99425110:a37075868", "current_trial": 50, "dateTime": 1664369015355, "trialdata": {"revealed_states": [], "num_clicks_accrued": [0, 0, 0, 0, 0, 0, 0, 0, 0, 0, 0, 0, 0], "stateRewards": ["", -2, -4, -24, -48, 2, -8, -24, -24, 4, -8, 48, 48], "withholdReward": true, "trial_id": "mdp_950599994674", "block": "test2", "trialIndex": 42, "score": 48.75, "costs": -0.25, "simulationMode": [null, null, null], "rewards": [4, -8, 48], "path": ["0", "0", "9", "10", "11"], "rt": [1573, 101, 254], "actions": ["left", "left", "up"], "actionTimes": [2182, 2786, 3543], "queries": {"click": {"state": {"target": ["11"], "time": [1248]}, "edge": {"target": [], "time": []}}, "mouseover": {"state": {"target": ["9", "11"], "time": [932, 1135]}, "edge": {"target": [], "time": []}}, "mouseout": {"state": {"target": ["7", "5", "0", "0", "9", "11", "0", "0"], "time": [147, 243, 260, 427, 1003, 15112, 15511, 16164]}, "edge": {"target": [], "time": []}}}, "displayed_time": "9.61", "trialTime": 16423, "trial_type": "mouselab-mdp", "trial_index": 50, "time_elapsed": 1135012, "internal_node_id": "0.0-4.0-3.0-10.0"}}, {"uniqueid": "w99425110:a37075868", "current_trial": 51, "dateTime": 1664369025937, "trialdata": {"revealed_states": [], "num_clicks_accrued": [0, 0, 0, 0, 0, 0, 0, 0, 0, 0, 0, 0, 0], "stateRewards": ["", -2, -4, -24, -48, -2, 8, -48, 24, 4, -4, -24, -24], "withholdReward": true, "trial_id": "mdp_915304165774", "block": "test2", "trialIndex": 43, "score": -26.25, "costs": -1.25, "simulationMode": [null, null, null], "rewards": [-2, -4, -24], "path": ["0", "0", "1", "2", "3"], "rt": [6007, 59, 332], "actions": ["up", "up", "right"], "actionTimes": [6335, 6898, 7733], "queries": {"click": {"state": {"target": ["8", "4", "12", "7", "11"], "time": [1155, 2083, 2919, 4151, 5151]}, "edge": {"target": [], "time": []}}, "mouseover": {"state": {"target": ["0", "8", "2", "2", "4", "11", "10", "12", "0", "7", "1", "11", "1"], "time": [482, 802, 1578, 1811, 1963, 2478, 2495, 2838, 3319, 3703, 4598, 4982, 5422]}, "edge": {"target": [], "time": []}}, "mouseout": {"state": {"target": ["0", "8", "2", "2", "4", "11", "10", "12", "0", "7", "1", "11", "1", "7"], "time": [498, 1434, 1706, 1867, 2446, 2488, 2503, 3302, 3328, 4583, 4615, 5311, 5438, 5463]}, "edge": {"target": [], "time": []}}}, "displayed_time": "8.33", "trialTime": 10549, "trial_type": "mouselab-mdp", "trial_index": 51, "time_elapsed": 1145594, "internal_node_id": "0.0-4.0-3.0-11.0"}}, {"uniqueid": "w99425110:a37075868", "current_trial": 52, "dateTime": 1664369038452, "trialdata": {"revealed_states": [], "num_clicks_accrued": [0, 0, 0, 0, 0, 0, 0, 0, 0, 0, 0, 0, 0], "stateRewards": ["", -2, 8, -48, 48, -4, 8, -24, 24, 4, -4, 24, -48], "withholdReward": false, "trial_id": "mdp_904238083902", "block": "test2", "trialIndex": 44, "score": 32.25, "costs": -0.75, "simulationMode": [null, null, null], "rewards": [-4, 8, 24], "path": ["0", "0", "5", "6", "8"], "rt": [3176, 74, 173], "actions": ["right", "right", "down"], "actionTimes": [4672, 5253, 5929], "queries": {"click": {"state": {"target": ["12", "3", "8"], "time": [2019, 3027, 3731]}, "edge": {"target": [], "time": []}}, "mouseover": {"state": {"target": ["9", "12", "9", "4", "2", "3", "5", "8", "6"], "time": [1634, 1834, 2347, 2602, 2723, 2827, 3475, 3619, 4090]}, "edge": {"target": [], "time": []}}, "mouseout": {"state": {"target": ["0", "9", "12", "9", "4", "2", "3", "5", "8", "6"], "time": [1586, 1682, 2314, 2370, 2643, 2807, 3354, 3482, 3955, 4099]}, "edge": {"target": [], "time": []}}}, "displayed_time": "9.50", "trialTime": 12483, "trial_type": "mouselab-mdp", "trial_index": 52, "time_elapsed": 1158109, "internal_node_id": "0.0-4.0-3.0-12.0"}}, {"uniqueid": "w99425110:a37075868", "current_trial": 53, "dateTime": 1664369049352, "trialdata": {"revealed_states": [], "num_clicks_accrued": [0, 0, 0, 0, 0, 0, 0, 0, 0, 0, 0, 0, 0], "stateRewards": ["", -2, -8, 48, 24, 2, 8, -48, 24, -4, 8, 48, 48], "withholdReward": true, "trial_id": "mdp_875436109858", "block": "test2", "trialIndex": 45, "score": 18.5, "costs": -0.5, "simulationMode": [null, null, null], "rewards": [-2, -8, 24], "path": ["0", "0", "1", "2", "4"], "rt": [2082, 109, 187], "actions": ["up", "up", "left"], "actionTimes": [2742, 3358, 4046], "queries": {"click": {"state": {"target": ["7", "4"], "time": [1043, 1778]}, "edge": {"target": [], "time": []}}, "mouseover": {"state": {"target": ["7", "1", "4"], "time": [946, 1537, 1641]}, "edge": {"target": [], "time": []}}, "mouseout": {"state": {"target": ["7", "7", "1", "4"], "time": [329, 1305, 1611, 1953]}, "edge": {"target": [], "time": []}}}, "displayed_time": "8.66", "trialTime": 10867, "trial_type": "mouselab-mdp", "trial_index": 53, "time_elapsed": 1169009, "internal_node_id": "0.0-4.0-3.0-13.0"}}, {"uniqueid": "w99425110:a37075868", "current_trial": 54, "dateTime": 1664369059193, "trialdata": {"revealed_states": [], "num_clicks_accrued": [0, 0, 0, 0, 0, 0, 0, 0, 0, 0, 0, 0, 0], "stateRewards": ["", 2, -8, -24, 48, -4, -8, 24, -48, 4, -8, -24, -24], "withholdReward": true, "trial_id": "mdp_928911266656", "block": "test2", "trialIndex": 46, "score": 16, "costs": -1, "simulationMode": [null, null, null], "rewards": [-4, -8, 24], "path": ["0", "0", "5", "6", "7"], "rt": [5129, 2, 186], "actions": ["right", "right", "up"], "actionTimes": [6218, 6727, 7425], "queries": {"click": {"state": {"target": ["12", "3", "8", "7"], "time": [3296, 4064, 4784, 5280]}, "edge": {"target": [], "time": []}}, "mouseover": {"state": {"target": ["9", "12", "9", "1", "3", "3", "8", "6", "7", "9", "10", "10"], "time": [2911, 3071, 3609, 3631, 3663, 3895, 4671, 5025, 5136, 5475, 5492, 5667]}, "edge": {"target": [], "time": []}}, "mouseout": {"state": {"target": ["0", "9", "12", "9", "1", "3", "3", "8", "6", "7", "9", "10", "10"], "time": [2768, 3007, 3596, 3616, 3647, 3672, 4400, 5011, 5071, 5443, 5491, 5500, 5723]}, "edge": {"target": [], "time": []}}}, "displayed_time": "9.09", "trialTime": 9810, "trial_type": "mouselab-mdp", "trial_index": 54, "time_elapsed": 1178850, "internal_node_id": "0.0-4.0-3.0-14.0"}}, {"uniqueid": "w99425110:a37075868", "current_trial": 55, "dateTime": 1664369069870, "trialdata": {"revealed_states": [], "num_clicks_accrued": [0, 0, 0, 0, 0, 0, 0, 0, 0, 0, 0, 0, 0], "stateRewards": ["", -4, -4, -24, -24, -2, 4, 48, -24, -2, -4, -24, 48], "withholdReward": true, "trial_id": "mdp_855903341564", "block": "test2", "trialIndex": 47, "score": 54, "costs": -1, "simulationMode": [null, null, null], "rewards": [-2, 4, 48], "path": ["0", "0", "5", "6", "7"], "rt": [3311, 20, 170], "actions": ["right", "right", "up"], "actionTimes": [4459, 4983, 5668], "queries": {"click": {"state": {"target": ["11", "3", "8", "7"], "time": [1673, 2217, 3069, 3518]}, "edge": {"target": [], "time": []}}, "mouseover": {"state": {"target": ["11", "2", "3", "6", "8", "6", "7"], "time": [1584, 2001, 2016, 2596, 2862, 3324, 3382]}, "edge": {"target": [], "time": []}}, "mouseout": {"state": {"target": ["0", "11", "2", "3", "6", "8", "6", "7"], "time": [1280, 1960, 2009, 2494, 2677, 3295, 3365, 3780]}, "edge": {"target": [], "time": []}}}, "displayed_time": "10.15", "trialTime": 10644, "trial_type": "mouselab-mdp", "trial_index": 55, "time_elapsed": 1189527, "internal_node_id": "0.0-4.0-3.0-15.0"}}, {"uniqueid": "w99425110:a37075868", "current_trial": 56, "dateTime": 1664369079672, "trialdata": {"revealed_states": [], "num_clicks_accrued": [0, 0, 0, 0, 0, 0, 0, 0, 0, 0, 0, 0, 0], "stateRewards": ["", 4, 8, 48, 48, 4, 4, -24, -48, 4, 8, -48, -48], "withholdReward": true, "trial_id": "mdp_984548726931", "block": "test2", "trialIndex": 48, "score": 64.5, "costs": -0.5, "simulationMode": [null, null, null], "rewards": [4, 8, 48], "path": ["0", "0", "1", "2", "4"], "rt": [2037, 84, 172], "actions": ["up", "up", "left"], "actionTimes": [3435, 4025, 4699], "queries": {"click": {"state": {"target": ["7", "4"], "time": [1889, 2561]}, "edge": {"target": [], "time": []}}, "mouseover": {"state": {"target": ["7", "4", "4"], "time": [1808, 2273, 2465]}, "edge": {"target": [], "time": []}}, "mouseout": {"state": {"target": ["9", "7", "4", "4"], "time": [1072, 2169, 2312, 2800]}, "edge": {"target": [], "time": []}}}, "displayed_time": "9.40", "trialTime": 9769, "trial_type": "mouselab-mdp", "trial_index": 56, "time_elapsed": 1199329, "internal_node_id": "0.0-4.0-3.0-16.0"}}, {"uniqueid": "w99425110:a37075868", "current_trial": 57, "dateTime": 1664369088668, "trialdata": {"revealed_states": [], "num_clicks_accrued": [0, 0, 0, 0, 0, 0, 0, 0, 0, 0, 0, 0, 0], "stateRewards": ["", 2, 4, 48, -48, 2, -4, 48, 24, -2, -8, -24, 48], "withholdReward": true, "trial_id": "mdp_962424406744", "block": "test2", "trialIndex": 49, "score": 42.75, "costs": -0.25, "simulationMode": [null, null, null], "rewards": [-2, -8, 48], "path": ["0", "0", "9", "10", "12"], "rt": [1151, 163, 41], "actions": ["left", "left", "down"], "actionTimes": [1805, 2469, 3014], "queries": {"click": {"state": {"target": ["12"], "time": [1054]}, "edge": {"target": [], "time": []}}, "mouseover": {"state": {"target": ["0", "12"], "time": [797, 918]}, "edge": {"target": [], "time": []}}, "mouseout": {"state": {"target": ["9", "0", "0", "12", "4", "2", "0", "0"], "time": [365, 589, 822, 1439, 6706, 7745, 7962, 8393]}, "edge": {"target": [], "time": []}}}, "displayed_time": "8.66", "trialTime": 8963, "trial_type": "mouselab-mdp", "trial_index": 57, "time_elapsed": 1208325, "internal_node_id": "0.0-4.0-3.0-17.0"}}, {"uniqueid": "w99425110:a37075868", "current_trial": 58, "dateTime": 1664369100296, "trialdata": {"revealed_states": [], "num_clicks_accrued": [0, 0, 0, 0, 0, 0, 0, 0, 0, 0, 0, 0, 0], "stateRewards": ["", 4, 4, 48, -48, -2, 4, 48, -48, -4, 4, -24, -24], "withholdReward": true, "trial_id": "mdp_753324812898", "block": "test2", "trialIndex": 50, "score": 54.75, "costs": -0.25, "simulationMode": [null, null, null], "rewards": [-2, 4, 48], "path": ["0", "0", "5", "6", "7"], "rt": [1380, 86, 66], "actions": ["right", "right", "up"], "actionTimes": [1803, 2394, 2964], "queries": {"click": {"state": {"target": ["7"], "time": [882]}, "edge": {"target": [], "time": []}}, "mouseover": {"state": {"target": ["7", "7"], "time": [728, 830]}, "edge": {"target": [], "time": []}}, "mouseout": {"state": {"target": ["0", "7", "7"], "time": [213, 733, 1109]}, "edge": {"target": [], "time": []}}}, "displayed_time": "9.42", "trialTime": 11594, "trial_type": "mouselab-mdp", "trial_index": 58, "time_elapsed": 1219952, "internal_node_id": "0.0-4.0-3.0-18.0"}}, {"uniqueid": "w99425110:a37075868", "current_trial": 59, "dateTime": 1664369112715, "trialdata": {"revealed_states": [], "num_clicks_accrued": [0, 0, 0, 0, 0, 0, 0, 0, 0, 0, 0, 0, 0], "stateRewards": ["", 2, 4, 48, -24, 2, -8, -24, -24, 2, -8, -24, -48], "withholdReward": false, "trial_id": "mdp_274832552938", "block": "test2", "trialIndex": 51, "score": 58.5, "costs": -0.5, "simulationMode": [null, null, null], "rewards": [2, 4, 48], "path": ["0", "0", "1", "2", "3"], "rt": [2102, 22, 250], "actions": ["up", "up", "right"], "actionTimes": [2692, 3216, 3982], "queries": {"click": {"state": {"target": ["8", "3"], "time": [1033, 1881]}, "edge": {"target": [], "time": []}}, "mouseover": {"state": {"target": ["5", "8", "6", "7", "3", "2", "2", "3"], "time": [752, 891, 1328, 1433, 1464, 1504, 1681, 1720]}, "edge": {"target": [], "time": []}}, "mouseout": {"state": {"target": ["5", "0", "5", "8", "6", "7", "3", "2", "2", "3"], "time": [129, 537, 761, 1312, 1408, 1448, 1489, 1592, 1689, 2097]}, "edge": {"target": [], "time": []}}}, "displayed_time": "8.60", "trialTime": 12385, "trial_type": "mouselab-mdp", "trial_index": 59, "time_elapsed": 1232372, "internal_node_id": "0.0-4.0-3.0-19.0"}}, {"uniqueid": "w99425110:a37075868", "current_trial": 60, "dateTime": 1664369122563, "trialdata": {"revealed_states": [], "num_clicks_accrued": [0, 0, 0, 0, 0, 0, 0, 0, 0, 0, 0, 0, 0], "stateRewards": ["", -4, -4, -24, 24, 4, 4, -24, -24, -4, 4, 24, 24], "withholdReward": true, "trial_id": "mdp_787781487383", "block": "test2", "trialIndex": 52, "score": 28.25, "costs": -0.75, "simulationMode": [null, null, null], "rewards": [-4, 4, 24], "path": ["0", "0", "9", "10", "11"], "rt": [2770, 74, 99], "actions": ["left", "left", "up"], "actionTimes": [3207, 3787, 4388], "queries": {"click": {"state": {"target": ["3", "11", "12"], "time": [990, 1710, 2319]}, "edge": {"target": [], "time": []}}, "mouseover": {"state": {"target": ["3", "1", "11", "10", "12"], "time": [861, 1166, 1611, 1910, 2207]}, "edge": {"target": [], "time": []}}, "mouseout": {"state": {"target": ["3", "1", "0", "3", "1", "11", "10", "12"], "time": [77, 168, 510, 1133, 1293, 1877, 2118, 2525]}, "edge": {"target": [], "time": []}}}, "displayed_time": "9.44", "trialTime": 9814, "trial_type": "mouselab-mdp", "trial_index": 60, "time_elapsed": 1242220, "internal_node_id": "0.0-4.0-3.0-20.0"}}, {"uniqueid": "w99425110:a37075868", "current_trial": 61, "dateTime": 1664369133753, "trialdata": {"revealed_states": [], "num_clicks_accrued": [0, 0, 0, 0, 0, 0, 0, 0, 0, 0, 0, 0, 0], "stateRewards": ["", 2, -4, -48, 24, -4, 4, 24, 24, 2, -8, -24, -48], "withholdReward": true, "trial_id": "mdp_807654778305", "block": "test2", "trialIndex": 53, "score": 28.25, "costs": -0.75, "simulationMode": [null, null, null], "rewards": [-4, 4, 24], "path": ["0", "0", "5", "6", "8"], "rt": [3412, 64, 20], "actions": ["right", "right", "down"], "actionTimes": [4993, 5563, 6088], "queries": {"click": {"state": {"target": ["7", "8", "3"], "time": [2522, 3322, 4186]}, "edge": {"target": [], "time": []}}, "mouseover": {"state": {"target": ["5", "6", "7", "7", "7", "6", "8", "3", "3"], "time": [1702, 1718, 1850, 2249, 2490, 3001, 3218, 4021, 4177]}, "edge": {"target": [], "time": []}}, "mouseout": {"state": {"target": ["9", "0", "5", "6", "7", "7", "7", "6", "8", "3", "3"], "time": [837, 1693, 1711, 1727, 1857, 2281, 2953, 3066, 3522, 4121, 4442]}, "edge": {"target": [], "time": []}}}, "displayed_time": "10.58", "trialTime": 11156, "trial_type": "mouselab-mdp", "trial_index": 61, "time_elapsed": 1253410, "internal_node_id": "0.0-4.0-3.0-21.0"}}, {"uniqueid": "w99425110:a37075868", "current_trial": 62, "dateTime": 1664369144075, "trialdata": {"revealed_states": [], "num_clicks_accrued": [0, 0, 0, 0, 0, 0, 0, 0, 0, 0, 0, 0, 0], "stateRewards": ["", -4, -4, -24, -48, -4, 8, -24, -48, 4, -8, 24, -24], "withholdReward": false, "trial_id": "mdp_924927483179", "block": "test2", "trialIndex": 54, "score": 24.25, "costs": -0.75, "simulationMode": [null, null, null], "rewards": [4, -8, 24], "path": ["0", "0", "9", "10", "11"], "rt": [2919, 54, 184], "actions": ["left", "left", "up"], "actionTimes": [3266, 3824, 4514], "queries": {"click": {"state": {"target": ["8", "3", "11"], "time": [906, 1658, 2411]}, "edge": {"target": [], "time": []}}, "mouseover": {"state": {"target": ["0", "8", "3", "3", "2", "4", "11", "11", "10"], "time": [541, 721, 1241, 1570, 1868, 2001, 2089, 2337, 2705]}, "edge": {"target": [], "time": []}}, "mouseout": {"state": {"target": ["0", "8", "3", "3", "2", "4", "11", "11", "10"], "time": [561, 1202, 1257, 1848, 1962, 2025, 2154, 2617, 2870]}, "edge": {"target": [], "time": []}}}, "displayed_time": "8.35", "trialTime": 10286, "trial_type": "mouselab-mdp", "trial_index": 62, "time_elapsed": 1263732, "internal_node_id": "0.0-4.0-3.0-22.0"}}, {"uniqueid": "w99425110:a37075868", "current_trial": 63, "dateTime": 1664369154064, "trialdata": {"revealed_states": [], "num_clicks_accrued": [0, 0, 0, 0, 0, 0, 0, 0, 0, 0, 0, 0, 0], "stateRewards": ["", -4, -8, 48, 24, 4, -8, 24, -48, -2, -8, 24, -48], "withholdReward": true, "trial_id": "mdp_952038635544", "block": "test2", "trialIndex": 55, "score": 40.5, "costs": -0.5, "simulationMode": [null, null, null], "rewards": [-4, -8, 48], "path": ["0", "0", "1", "2", "3"], "rt": [2018, 9, 386], "actions": ["up", "up", "right"], "actionTimes": [2935, 3448, 4344], "queries": {"click": {"state": {"target": ["12", "3"], "time": [1590, 2102]}, "edge": {"target": [], "time": []}}, "mouseover": {"state": {"target": ["0", "9", "12", "9", "1", "3"], "time": [1041, 1081, 1351, 1805, 1870, 1893]}, "edge": {"target": [], "time": []}}, "mouseout": {"state": {"target": ["6", "5", "0", "0", "9", "12", "9", "1", "3"], "time": [233, 465, 489, 1050, 1090, 1753, 1853, 1877, 2261]}, "edge": {"target": [], "time": []}}}, "displayed_time": "8.92", "trialTime": 9954, "trial_type": "mouselab-mdp", "trial_index": 63, "time_elapsed": 1273721, "internal_node_id": "0.0-4.0-3.0-23.0"}}, {"uniqueid": "w99425110:a37075868", "current_trial": 64, "dateTime": 1664369175961, "trialdata": {"revealed_states": [], "num_clicks_accrued": [0, 0, 0, 0, 0, 0, 0, 0, 0, 0, 0, 0, 0], "stateRewards": ["", -4, -4, 24, -48, -2, 8, -24, -48, -4, 4, 24, -48], "withholdReward": false, "trial_id": "mdp_934626330092", "block": "test2", "trialIndex": 56, "score": 28.25, "costs": -0.75, "simulationMode": [null, null, null], "rewards": [-4, 4, 24], "path": ["0", "0", "9", "10", "11"], "rt": [2851, 44, 128], "actions": ["left", "left", "up"], "actionTimes": [4132, 4683, 5315], "queries": {"click": {"state": {"target": ["7", "8", "11"], "time": [1937, 2608, 3219]}, "edge": {"target": [], "time": []}}, "mouseover": {"state": {"target": ["7", "7", "6", "8", "9", "11"], "time": [1519, 1863, 2151, 2367, 2883, 3107]}, "edge": {"target": [], "time": []}}, "mouseout": {"state": {"target": ["1", "7", "7", "6", "8", "9", "11"], "time": [631, 1528, 2120, 2247, 2807, 2907, 3523]}, "edge": {"target": [], "time": []}}}, "displayed_time": "9.28", "trialTime": 21861, "trial_type": "mouselab-mdp", "trial_index": 64, "time_elapsed": 1295618, "internal_node_id": "0.0-4.0-3.0-24.0"}}, {"uniqueid": "w99425110:a37075868", "current_trial": 65, "dateTime": 1664369186071, "trialdata": {"revealed_states": [], "num_clicks_accrued": [0, 0, 0, 0, 0, 0, 0, 0, 0, 0, 0, 0, 0], "stateRewards": ["", -4, -8, -48, 48, -2, 8, 48, 48, -2, -4, -48, -48], "withholdReward": true, "trial_id": "mdp_752833580638", "block": "test2", "trialIndex": 57, "score": 58, "costs": -1, "simulationMode": [null, null, null], "rewards": [-2, 8, 48], "path": ["0", "0", "5", "6", "7"], "rt": [4471, 4, 8], "actions": ["right", "right", "up"], "actionTimes": [5136, 5643, 6160], "queries": {"click": {"state": {"target": ["12", "3", "11", "7"], "time": [1123, 1971, 2839, 3944]}, "edge": {"target": [], "time": []}}, "mouseover": {"state": {"target": ["9", "12", "9", "1", "3", "11", "5", "6", "7", "7"], "time": [890, 970, 1395, 1443, 1843, 2670, 3151, 3159, 3430, 3641]}, "edge": {"target": [], "time": []}}, "mouseout": {"state": {"target": ["9", "9", "12", "9", "1", "3", "11", "5", "6", "7"], "time": [362, 946, 1362, 1434, 1450, 2198, 3126, 3159, 3169, 3470]}, "edge": {"target": [], "time": []}}}, "displayed_time": "9.67", "trialTime": 10079, "trial_type": "mouselab-mdp", "trial_index": 65, "time_elapsed": 1305728, "internal_node_id": "0.0-4.0-3.0-25.0"}}, {"uniqueid": "w99425110:a37075868", "current_trial": 66, "dateTime": 1664369196884, "trialdata": {"revealed_states": [], "num_clicks_accrued": [0, 0, 0, 0, 0, 0, 0, 0, 0, 0, 0, 0, 0], "stateRewards": ["", -4, -4, -24, 48, -4, -8, -24, 48, 2, 4, 48, 48], "withholdReward": false, "trial_id": "mdp_810954007398", "block": "test2", "trialIndex": 58, "score": 40.75, "costs": -0.25, "simulationMode": [null, null, null], "rewards": [-4, -8, 48], "path": ["0", "0", "5", "6", "8"], "rt": [1845, 43, 22], "actions": ["right", "right", "down"], "actionTimes": [3051, 3599, 4129], "queries": {"click": {"state": {"target": ["8"], "time": [1998]}, "edge": {"target": [], "time": []}}, "mouseover": {"state": {"target": ["5", "8", "6", "2"], "time": [1454, 1726, 2198, 2285]}, "edge": {"target": [], "time": []}}, "mouseout": {"state": {"target": ["7", "5", "8", "6"], "time": [801, 1477, 2173, 2213]}, "edge": {"target": [], "time": []}}}, "displayed_time": "10.21", "trialTime": 10779, "trial_type": "mouselab-mdp", "trial_index": 66, "time_elapsed": 1316541, "internal_node_id": "0.0-4.0-3.0-26.0"}}, {"uniqueid": "w99425110:a37075868", "current_trial": 67, "dateTime": 1664369207509, "trialdata": {"revealed_states": [], "num_clicks_accrued": [0, 0, 0, 0, 0, 0, 0, 0, 0, 0, 0, 0, 0], "stateRewards": ["", -2, -8, 48, 24, 2, 4, 24, -24, -2, -4, 48, -48], "withholdReward": false, "trial_id": "mdp_411152402386", "block": "test2", "trialIndex": 59, "score": 18, "costs": -1, "simulationMode": [null, null, null], "rewards": [-2, -8, 24], "path": ["0", "0", "1", "2", "4"], "rt": [4248, 122, 147], "actions": ["up", "up", "left"], "actionTimes": [5199, 5824, 6474], "queries": {"click": {"state": {"target": ["4", "8", "12", "7"], "time": [1445, 2841, 3578, 4330]}, "edge": {"target": [], "time": []}}, "mouseover": {"state": {"target": ["4", "8", "8", "12", "5", "7"], "time": [1333, 2427, 2688, 3489, 3913, 4249]}, "edge": {"target": [], "time": []}}, "mouseout": {"state": {"target": ["2", "1", "0", "0", "4", "8", "8", "12", "5", "7"], "time": [381, 484, 508, 1061, 1801, 2434, 3105, 3873, 3921, 4473]}, "edge": {"target": [], "time": []}}}, "displayed_time": "9.95", "trialTime": 10595, "trial_type": "mouselab-mdp", "trial_index": 67, "time_elapsed": 1327166, "internal_node_id": "0.0-4.0-3.0-27.0"}}, {"uniqueid": "w99425110:a37075868", "current_trial": 68, "dateTime": 1664369217040, "trialdata": {"revealed_states": [], "num_clicks_accrued": [0, 0, 0, 0, 0, 0, 0, 0, 0, 0, 0, 0, 0], "stateRewards": ["", 2, -8, 24, -24, -2, 8, -48, -48, 2, -8, -24, -48], "withholdReward": true, "trial_id": "mdp_744278669205", "block": "test2", "trialIndex": 60, "score": 21.5, "costs": -1.5, "simulationMode": [null, null, null], "rewards": [2, -8, 24], "path": ["0", "0", "1", "2", "3"], "rt": [5129, 99, 18], "actions": ["up", "up", "right"], "actionTimes": [6079, 6682, 7204], "queries": {"click": {"state": {"target": ["3", "7", "8", "11", "4", "12"], "time": [1876, 2388, 2980, 3736, 4296, 4920]}, "edge": {"target": [], "time": []}}, "mouseover": {"state": {"target": ["1", "3", "7", "6", "8", "0", "9", "11", "4", "12", "0", "5", "6"], "time": [1180, 1724, 2276, 2660, 2812, 3162, 3169, 3682, 4016, 4800, 5280, 5298, 5328]}, "edge": {"target": [], "time": []}}, "mouseout": {"state": {"target": ["6", "5", "1", "3", "7", "6", "8", "0", "9", "11", "4", "12", "0", "5", "6"], "time": [484, 740, 1196, 2060, 2588, 2756, 3148, 3169, 3176, 3968, 4480, 5240, 5288, 5320, 5344]}, "edge": {"target": [], "time": []}}}, "displayed_time": "8.95", "trialTime": 9497, "trial_type": "mouselab-mdp", "trial_index": 68, "time_elapsed": 1336697, "internal_node_id": "0.0-4.0-3.0-28.0"}}, {"uniqueid": "w99425110:a37075868", "current_trial": 69, "dateTime": 1664369226483, "trialdata": {"revealed_states": [], "num_clicks_accrued": [0, 0, 0, 0, 0, 0, 0, 0, 0, 0, 0, 0, 0], "stateRewards": ["", -4, -8, 24, 48, 2, -4, -24, 24, -4, 8, 48, 48], "withholdReward": true, "trial_id": "mdp_496672670022", "block": "test2", "trialIndex": 61, "score": 40.5, "costs": -0.5, "simulationMode": [null, null, null], "rewards": [-4, -8, 48], "path": ["0", "0", "1", "2", "4"], "rt": [2215, 152, 26], "actions": ["up", "up", "left"], "actionTimes": [3247, 3904, 4437], "queries": {"click": {"state": {"target": ["3", "4"], "time": [1575, 2391]}, "edge": {"target": [], "time": []}}, "mouseover": {"state": {"target": ["3", "2", "4", "11", "11"], "time": [1496, 2039, 2263, 2663, 2895]}, "edge": {"target": [], "time": []}}, "mouseout": {"state": {"target": ["10", "9", "3", "2", "4", "11"], "time": [675, 723, 1831, 2167, 2607, 2679]}, "edge": {"target": [], "time": []}}}, "displayed_time": "9.03", "trialTime": 9415, "trial_type": "mouselab-mdp", "trial_index": 69, "time_elapsed": 1346140, "internal_node_id": "0.0-4.0-3.0-29.0"}}, {"uniqueid": "w99425110:a37075868", "current_trial": 70, "dateTime": 1664369228233, "trialdata": {"rt": 1746, "stimulus": "<h1> End of block! </h1>\n\nYou have reached the end of the block 2/4. If you need a short break, feel free to take one now before moving on.\n\n<br><br>\nIn the next block, you will complete another 30 rounds of this game.\n\n<br><br>\n<div style='text-align: center;'>Press <code>space</code> to begin.</div>\n<br><br>\n<div style='text-align: center;'>(If the experiment doesn't continue, try clicking on the text and then pressing <code>space</code>.)</div>", "response": " ", "trial_id": "mdp_ready_3", "trial_type": "html-keyboard-response", "trial_index": 70, "time_elapsed": 1347890, "internal_node_id": "0.0-4.0-4.0"}}, {"uniqueid": "w99425110:a37075868", "current_trial": 71, "dateTime": 1664369240770, "trialdata": {"revealed_states": [], "num_clicks_accrued": [0, 0, 0, 0, 0, 0, 0, 0, 0, 0, 0, 0, 0], "stateRewards": ["", 2, 4, 48, -24, 2, -8, -24, -24, 2, -8, -24, -48], "withholdReward": true, "trial_id": "mdp_274832552938", "block": "test3", "trialIndex": 62, "score": 58.25, "costs": -0.75, "simulationMode": [null, null, null], "rewards": [2, 4, 48], "path": ["0", "0", "1", "2", "3"], "rt": [2500, 28, 347], "actions": ["up", "up", "right"], "actionTimes": [3581, 4112, 4965], "queries": {"click": {"state": {"target": ["8", "7", "3"], "time": [1733, 2246, 2741]}, "edge": {"target": [], "time": []}}, "mouseover": {"state": {"target": ["0", "8", "8", "6", "7", "3", "2"], "time": [1294, 1333, 1597, 1901, 2069, 2525, 3042]}, "edge": {"target": [], "time": []}}, "mouseout": {"state": {"target": ["11", "9", "0", "0", "8", "8", "6", "7", "3"], "time": [241, 528, 717, 1309, 1350, 1869, 1941, 2461, 2932]}, "edge": {"target": [], "time": []}}}, "displayed_time": "10.08", "trialTime": 12503, "trial_type": "mouselab-mdp", "trial_index": 71, "time_elapsed": 1360427, "internal_node_id": "0.0-4.0-5.0-0.0"}}, {"uniqueid": "w99425110:a37075868", "current_trial": 72, "dateTime": 1664369250990, "trialdata": {"revealed_states": [], "num_clicks_accrued": [0, 0, 0, 0, 0, 0, 0, 0, 0, 0, 0, 0, 0], "stateRewards": ["", 2, -8, 24, -48, 2, 4, 48, -48, -2, -8, -48, 48], "withholdReward": false, "trial_id": "mdp_629420544881", "block": "test3", "trialIndex": 63, "score": 42.75, "costs": -0.25, "simulationMode": [null, null, null], "rewards": [-2, -8, 48], "path": ["0", "0", "9", "10", "12"], "rt": [1598, 80, 47], "actions": ["left", "left", "down"], "actionTimes": [2286, 2872, 3422], "queries": {"click": {"state": {"target": ["12"], "time": [1209]}, "edge": {"target": [], "time": []}}, "mouseover": {"state": {"target": ["9", "12", "10", "11", "4"], "time": [841, 1044, 1393, 1646, 1857]}, "edge": {"target": [], "time": []}}, "mouseout": {"state": {"target": ["2", "9", "12", "10", "11", "4", "4", "2", "5", "5"], "time": [65, 857, 1345, 1401, 1689, 4834, 4945, 8189, 8261, 8773]}, "edge": {"target": [], "time": []}}}, "displayed_time": "9.69", "trialTime": 10188, "trial_type": "mouselab-mdp", "trial_index": 72, "time_elapsed": 1370647, "internal_node_id": "0.0-4.0-5.0-1.0"}}, {"uniqueid": "w99425110:a37075868", "current_trial": 73, "dateTime": 1664369260249, "trialdata": {"revealed_states": [], "num_clicks_accrued": [0, 0, 0, 0, 0, 0, 0, 0, 0, 0, 0, 0, 0], "stateRewards": ["", -4, 8, 48, -48, 2, -4, 24, -24, -2, 4, -24, -24], "withholdReward": false, "trial_id": "mdp_804988042722", "block": "test3", "trialIndex": 64, "score": 56.75, "costs": -0.25, "simulationMode": [null, null, null], "rewards": [-4, 8, 48], "path": ["0", "0", "1", "2", "3"], "rt": [1384, 38, 4], "actions": ["up", "up", "right"], "actionTimes": [1789, 2334, 2840], "queries": {"click": {"state": {"target": ["3"], "time": [914]}, "edge": {"target": [], "time": []}}, "mouseover": {"state": {"target": ["3", "2"], "time": [747, 1282]}, "edge": {"target": [], "time": []}}, "mouseout": {"state": {"target": ["0", "3", "2", "1", "2", "1", "0"], "time": [491, 1170, 7301, 7733, 8214, 8269, 8777]}, "edge": {"target": [], "time": []}}}, "displayed_time": "8.40", "trialTime": 9224, "trial_type": "mouselab-mdp", "trial_index": 73, "time_elapsed": 1379906, "internal_node_id": "0.0-4.0-5.0-2.0"}}, {"uniqueid": "w99425110:a37075868", "current_trial": 74, "dateTime": 1664369269436, "trialdata": {"revealed_states": [], "num_clicks_accrued": [0, 0, 0, 0, 0, 0, 0, 0, 0, 0, 0, 0, 0], "stateRewards": ["", 2, -4, 24, 24, 4, -4, -24, 24, -4, -4, 48, 48], "withholdReward": true, "trial_id": "mdp_566306223773", "block": "test3", "trialIndex": 65, "score": 44.75, "costs": -0.25, "simulationMode": [null, null, null], "rewards": [-4, -4, 48], "path": ["0", "0", "9", "10", "12"], "rt": [1303, 92, 63], "actions": ["left", "left", "down"], "actionTimes": [1720, 2319, 2886], "queries": {"click": {"state": {"target": ["12"], "time": [910]}, "edge": {"target": [], "time": []}}, "mouseover": {"state": {"target": ["12"], "time": [741]}, "edge": {"target": [], "time": []}}, "mouseout": {"state": {"target": ["0", "12", "9"], "time": [549, 1082, 9011]}, "edge": {"target": [], "time": []}}}, "displayed_time": "8.42", "trialTime": 9150, "trial_type": "mouselab-mdp", "trial_index": 74, "time_elapsed": 1389093, "internal_node_id": "0.0-4.0-5.0-3.0"}}, {"uniqueid": "w99425110:a37075868", "current_trial": 75, "dateTime": 1664369279393, "trialdata": {"revealed_states": [], "num_clicks_accrued": [0, 0, 0, 0, 0, 0, 0, 0, 0, 0, 0, 0, 0], "stateRewards": ["", -2, -4, -24, -48, 2, -8, -24, -24, 4, -8, 48, 48], "withholdReward": true, "trial_id": "mdp_950599994674", "block": "test3", "trialIndex": 66, "score": 47.75, "costs": -1.25, "simulationMode": [null, null, null], "rewards": [4, -8, 48], "path": ["0", "0", "9", "10", "12"], "rt": [3757, 28, 35], "actions": ["left", "left", "down"], "actionTimes": [4324, 4855, 5402], "queries": {"click": {"state": {"target": ["8", "7", "3", "4", "12"], "time": [994, 1477, 1942, 2421, 3079]}, "edge": {"target": [], "time": []}}, "mouseover": {"state": {"target": ["5", "8", "6", "7", "3", "2", "4", "10", "12", "10"], "time": [689, 721, 1265, 1361, 1781, 2165, 2246, 2741, 2869, 3253]}, "edge": {"target": [], "time": []}}, "mouseout": {"state": {"target": ["0", "0", "5", "8", "6", "7", "3", "2", "4", "10", "12", "10", "10", "9", "9", "9"], "time": [65, 513, 699, 1217, 1289, 1733, 2117, 2238, 2605, 2829, 3223, 3445, 9238, 9337, 9578, 9913]}, "edge": {"target": [], "time": []}}}, "displayed_time": "9.57", "trialTime": 9928, "trial_type": "mouselab-mdp", "trial_index": 75, "time_elapsed": 1399050, "internal_node_id": "0.0-4.0-5.0-4.0"}}, {"uniqueid": "w99425110:a37075868", "current_trial": 76, "dateTime": 1664369288469, "trialdata": {"revealed_states": [], "num_clicks_accrued": [0, 0, 0, 0, 0, 0, 0, 0, 0, 0, 0, 0, 0], "stateRewards": ["", 4, 4, 24, -48, 2, -8, -24, -48, 4, 8, 48, 48], "withholdReward": false, "trial_id": "mdp_592471239511", "block": "test3", "trialIndex": 67, "score": 64.75, "costs": -0.25, "simulationMode": [null, null, null], "rewards": [4, 8, 48], "path": ["0", "0", "9", "10", "12"], "rt": [1441, 7, 28], "actions": ["left", "left", "down"], "actionTimes": [1960, 2474, 3008], "queries": {"click": {"state": {"target": ["12"], "time": [1019]}, "edge": {"target": [], "time": []}}, "mouseover": {"state": {"target": ["12", "10", "11"], "time": [910, 1202, 1412]}, "edge": {"target": [], "time": []}}, "mouseout": {"state": {"target": ["0", "12", "10", "11", "9"], "time": [654, 1162, 1266, 1570, 8278]}, "edge": {"target": [], "time": []}}}, "displayed_time": "8.52", "trialTime": 9041, "trial_type": "mouselab-mdp", "trial_index": 76, "time_elapsed": 1408126, "internal_node_id": "0.0-4.0-5.0-5.0"}}, {"uniqueid": "w99425110:a37075868", "current_trial": 77, "dateTime": 1664369298397, "trialdata": {"revealed_states": [], "num_clicks_accrued": [0, 0, 0, 0, 0, 0, 0, 0, 0, 0, 0, 0, 0], "stateRewards": ["", -2, -8, -24, 24, -2, -8, -48, 24, -2, -8, 24, 24], "withholdReward": false, "trial_id": "mdp_336617436097", "block": "test3", "trialIndex": 68, "score": 17.5, "costs": -1.5, "simulationMode": [null, null, null], "rewards": [-2, -8, 24], "path": ["0", "0", "9", "10", "12"], "rt": [4689, 104, 101], "actions": ["left", "left", "down"], "actionTimes": [5063, 5670, 6278], "queries": {"click": {"state": {"target": ["3", "8", "7", "11", "12", "4"], "time": [884, 1527, 2103, 2872, 3479, 4059]}, "edge": {"target": [], "time": []}}, "mouseover": {"state": {"target": ["3", "6", "8", "6", "7", "5", "0", "9", "10", "11", "10", "12", "10", "4"], "time": [707, 1216, 1447, 1681, 1783, 2335, 2383, 2416, 2543, 2703, 3095, 3360, 3647, 4055]}, "edge": {"target": [], "time": []}}, "mouseout": {"state": {"target": ["0", "3", "6", "8", "6", "7", "5", "0", "9", "10", "11", "10", "12", "10", "4"], "time": [435, 1059, 1239, 1654, 1751, 2292, 2359, 2399, 2439, 2551, 3055, 3239, 3615, 3687, 4339]}, "edge": {"target": [], "time": []}}}, "displayed_time": "9.38", "trialTime": 9894, "trial_type": "mouselab-mdp", "trial_index": 77, "time_elapsed": 1418054, "internal_node_id": "0.0-4.0-5.0-6.0"}}, {"uniqueid": "w99425110:a37075868", "current_trial": 78, "dateTime": 1664369307138, "trialdata": {"revealed_states": [], "num_clicks_accrued": [0, 0, 0, 0, 0, 0, 0, 0, 0, 0, 0, 0, 0], "stateRewards": ["", -2, -8, 24, -24, 4, -8, 48, 48, -4, -8, -24, -48], "withholdReward": true, "trial_id": "mdp_286767261523", "block": "test3", "trialIndex": 69, "score": 48.75, "costs": -0.25, "simulationMode": [null, null, null], "rewards": [4, -8, 48], "path": ["0", "0", "5", "6", "7"], "rt": [1431, 84, 64], "actions": ["right", "right", "up"], "actionTimes": [1772, 2361, 2930], "queries": {"click": {"state": {"target": ["7"], "time": [819]}, "edge": {"target": [], "time": []}}, "mouseover": {"state": {"target": ["7", "3"], "time": [708, 1362]}, "edge": {"target": [], "time": []}}, "mouseout": {"state": {"target": ["0", "7", "3", "1", "0"], "time": [402, 1020, 7646, 8134, 8606]}, "edge": {"target": [], "time": []}}}, "displayed_time": "8.34", "trialTime": 8705, "trial_type": "mouselab-mdp", "trial_index": 78, "time_elapsed": 1426795, "internal_node_id": "0.0-4.0-5.0-7.0"}}, {"uniqueid": "w99425110:a37075868", "current_trial": 79, "dateTime": 1664369315851, "trialdata": {"revealed_states": [], "num_clicks_accrued": [0, 0, 0, 0, 0, 0, 0, 0, 0, 0, 0, 0, 0], "stateRewards": ["", 2, -8, 24, 24, 4, -4, -24, -48, 4, 8, 24, 24], "withholdReward": true, "trial_id": "mdp_249803813713", "block": "test3", "trialIndex": 70, "score": 21.5, "costs": -1.5, "simulationMode": [null, null, null], "rewards": [2, -8, 24], "path": ["0", "0", "1", "2", "4"], "rt": [4149, 33, 33], "actions": ["up", "up", "left"], "actionTimes": [4532, 5072, 5607], "queries": {"click": {"state": {"target": ["12", "3", "4", "8", "7", "11"], "time": [911, 1535, 1999, 2592, 3087, 3635]}, "edge": {"target": [], "time": []}}, "mouseover": {"state": {"target": ["12", "12", "9", "1", "3", "2", "4", "1", "8", "6", "7", "11"], "time": [535, 823, 1119, 1161, 1357, 1727, 1839, 2175, 2503, 2800, 2879, 3399]}, "edge": {"target": [], "time": []}}, "mouseout": {"state": {"target": ["0", "12", "12", "9", "1", "3", "2", "4", "1", "8", "6", "7", "11", "9"], "time": [502, 551, 1111, 1143, 1191, 1703, 1759, 2159, 2183, 2751, 2847, 3239, 3971, 7543]}, "edge": {"target": [], "time": []}}}, "displayed_time": "8.38", "trialTime": 8679, "trial_type": "mouselab-mdp", "trial_index": 79, "time_elapsed": 1435508, "internal_node_id": "0.0-4.0-5.0-8.0"}}, {"uniqueid": "w99425110:a37075868", "current_trial": 80, "dateTime": 1664369324616, "trialdata": {"revealed_states": [], "num_clicks_accrued": [0, 0, 0, 0, 0, 0, 0, 0, 0, 0, 0, 0, 0], "stateRewards": ["", 2, -4, -48, 24, 4, 4, 48, -48, -2, -4, -24, -48], "withholdReward": true, "trial_id": "mdp_858916930936", "block": "test3", "trialIndex": 71, "score": 60.25, "costs": -0.75, "simulationMode": [null, null, null], "rewards": [4, 4, 48], "path": ["0", "0", "5", "6", "7"], "rt": [2894, 13, 107], "actions": ["right", "right", "up"], "actionTimes": [3363, 3881, 4494], "queries": {"click": {"state": {"target": ["12", "3", "7"], "time": [964, 1733, 2212]}, "edge": {"target": [], "time": []}}, "mouseover": {"state": {"target": ["12", "9", "3", "7", "6"], "time": [870, 1187, 1523, 2140, 2435]}, "edge": {"target": [], "time": []}}, "mouseout": {"state": {"target": ["0", "12", "9", "3", "7", "6", "8"], "time": [595, 1148, 1219, 1924, 2404, 2483, 8016]}, "edge": {"target": [], "time": []}}}, "displayed_time": "8.47", "trialTime": 8724, "trial_type": "mouselab-mdp", "trial_index": 80, "time_elapsed": 1444272, "internal_node_id": "0.0-4.0-5.0-9.0"}}, {"uniqueid": "w99425110:a37075868", "current_trial": 81, "dateTime": 1664369334718, "trialdata": {"revealed_states": [], "num_clicks_accrued": [0, 0, 0, 0, 0, 0, 0, 0, 0, 0, 0, 0, 0], "stateRewards": ["", -4, 8, -48, -48, -4, 4, -24, -48, 2, -4, -24, 24], "withholdReward": true, "trial_id": "mdp_183773275291", "block": "test3", "trialIndex": 72, "score": 26, "costs": -1, "simulationMode": [null, null, null], "rewards": [2, -4, 24], "path": ["0", "0", "9", "10", "12"], "rt": [3658, 515, 112], "actions": ["left", "left", "down"], "actionTimes": [4376, 5397, 6013], "queries": {"click": {"state": {"target": ["7", "4", "12", "3"], "time": [1070, 2098, 2738, 3538]}, "edge": {"target": [], "time": []}}, "mouseover": {"state": {"target": ["7", "6", "2", "4", "10", "12", "9", "2", "3"], "time": [918, 1410, 1754, 2023, 2409, 2650, 2961, 3001, 3487]}, "edge": {"target": [], "time": []}}, "mouseout": {"state": {"target": ["0", "7", "6", "2", "4", "10", "12", "9", "2", "3"], "time": [621, 1254, 1434, 1762, 2314, 2529, 2929, 2970, 3025, 6922]}, "edge": {"target": [], "time": []}}}, "displayed_time": "9.72", "trialTime": 10073, "trial_type": "mouselab-mdp", "trial_index": 81, "time_elapsed": 1454375, "internal_node_id": "0.0-4.0-5.0-10.0"}}, {"uniqueid": "w99425110:a37075868", "current_trial": 82, "dateTime": 1664369343749, "trialdata": {"revealed_states": [], "num_clicks_accrued": [0, 0, 0, 0, 0, 0, 0, 0, 0, 0, 0, 0, 0], "stateRewards": ["", 2, 4, 48, -48, 2, 4, 24, -24, 2, -4, -24, -48], "withholdReward": true, "trial_id": "mdp_706591889062", "block": "test3", "trialIndex": 73, "score": 58.5, "costs": -0.5, "simulationMode": [null, null, null], "rewards": [2, 4, 48], "path": ["0", "0", "1", "2", "3"], "rt": [2198, 30, 56], "actions": ["up", "up", "right"], "actionTimes": [2630, 3162, 3723], "queries": {"click": {"state": {"target": ["8", "3"], "time": [1088, 1716]}, "edge": {"target": [], "time": []}}, "mouseover": {"state": {"target": ["5", "8", "8", "6", "7", "3", "2"], "time": [567, 600, 865, 1335, 1383, 1504, 1899]}, "edge": {"target": [], "time": []}}, "mouseout": {"state": {"target": ["5", "5", "8", "8", "6", "7", "3", "2", "1"], "time": [95, 579, 783, 1296, 1368, 1400, 1876, 1924, 8591]}, "edge": {"target": [], "time": []}}}, "displayed_time": "8.43", "trialTime": 9002, "trial_type": "mouselab-mdp", "trial_index": 82, "time_elapsed": 1463406, "internal_node_id": "0.0-4.0-5.0-11.0"}}, {"uniqueid": "w99425110:a37075868", "current_trial": 83, "dateTime": 1664369353595, "trialdata": {"revealed_states": [], "num_clicks_accrued": [0, 0, 0, 0, 0, 0, 0, 0, 0, 0, 0, 0, 0], "stateRewards": ["", -2, -8, 48, 24, 2, 8, -48, 24, -4, 8, 48, 48], "withholdReward": true, "trial_id": "mdp_875436109858", "block": "test3", "trialIndex": 74, "score": 56.75, "costs": -0.25, "simulationMode": [null, null, null], "rewards": [-4, 8, 48], "path": ["0", "0", "9", "10", "12"], "rt": [1350, 92, 61], "actions": ["left", "left", "down"], "actionTimes": [1731, 2327, 2892], "queries": {"click": {"state": {"target": ["12"], "time": [799]}, "edge": {"target": [], "time": []}}, "mouseover": {"state": {"target": ["9", "12", "10", "11"], "time": [565, 685, 982, 1094]}, "edge": {"target": [], "time": []}}, "mouseout": {"state": {"target": ["0", "9", "12", "10", "11", "10", "12"], "time": [262, 583, 950, 1030, 6233, 6273, 6418]}, "edge": {"target": [], "time": []}}}, "displayed_time": "9.38", "trialTime": 9806, "trial_type": "mouselab-mdp", "trial_index": 83, "time_elapsed": 1473252, "internal_node_id": "0.0-4.0-5.0-12.0"}}, {"uniqueid": "w99425110:a37075868", "current_trial": 84, "dateTime": 1664369362615, "trialdata": {"revealed_states": [], "num_clicks_accrued": [0, 0, 0, 0, 0, 0, 0, 0, 0, 0, 0, 0, 0], "stateRewards": ["", 2, -4, 24, 48, -2, 4, -48, -48, -4, 4, 24, -24], "withholdReward": false, "trial_id": "mdp_900363662757", "block": "test3", "trialIndex": 75, "score": 50.5, "costs": -0.5, "simulationMode": [null, null, null], "rewards": [2, -4, 48], "path": ["0", "0", "1", "2", "4"], "rt": [2144, 94, 131], "actions": ["up", "up", "left"], "actionTimes": [2498, 3100, 3734], "queries": {"click": {"state": {"target": ["12", "4"], "time": [756, 1588]}, "edge": {"target": [], "time": []}}, "mouseover": {"state": {"target": ["12", "9", "1", "2", "2", "4", "1"], "time": [634, 914, 1026, 1146, 1258, 1458, 1750]}, "edge": {"target": [], "time": []}}, "mouseout": {"state": {"target": ["0", "12", "9", "1", "2", "2", "4", "1", "5", "1"], "time": [483, 882, 931, 1082, 1154, 1347, 1731, 1763, 6107, 6998]}, "edge": {"target": [], "time": []}}}, "displayed_time": "8.36", "trialTime": 8982, "trial_type": "mouselab-mdp", "trial_index": 84, "time_elapsed": 1482271, "internal_node_id": "0.0-4.0-5.0-13.0"}}, {"uniqueid": "w99425110:a37075868", "current_trial": 85, "dateTime": 1664369372529, "trialdata": {"revealed_states": [], "num_clicks_accrued": [0, 0, 0, 0, 0, 0, 0, 0, 0, 0, 0, 0, 0], "stateRewards": ["", -4, -4, -24, 24, 4, 4, -24, -24, -4, 4, 24, 24], "withholdReward": true, "trial_id": "mdp_787781487383", "block": "test3", "trialIndex": 76, "score": 27.5, "costs": -1.5, "simulationMode": [null, null, null], "rewards": [-4, 4, 24], "path": ["0", "0", "9", "10", "12"], "rt": [4598, 48, 98], "actions": ["left", "left", "down"], "actionTimes": [5146, 5701, 6305], "queries": {"click": {"state": {"target": ["7", "8", "4", "3", "11", "12"], "time": [1094, 1797, 2581, 3241, 3865, 4409]}, "edge": {"target": [], "time": []}}, "mouseover": {"state": {"target": ["5", "7", "6", "8", "5", "1", "2", "4", "4", "1", "3", "1", "10", "11", "10", "12"], "time": [671, 1038, 1413, 1677, 1965, 2052, 2072, 2109, 2379, 2976, 3112, 3417, 3561, 3761, 4112, 4312]}, "edge": {"target": [], "time": []}}, "mouseout": {"state": {"target": ["0", "5", "7", "6", "8", "5", "1", "2", "4", "4", "1", "3", "1", "10", "11", "10", "12"], "time": [656, 693, 1324, 1492, 1926, 2021, 2062, 2079, 2261, 2789, 2987, 3360, 3440, 3728, 4088, 4145, 4680]}, "edge": {"target": [], "time": []}}}, "displayed_time": "9.55", "trialTime": 9875, "trial_type": "mouselab-mdp", "trial_index": 85, "time_elapsed": 1492186, "internal_node_id": "0.0-4.0-5.0-14.0"}}, {"uniqueid": "w99425110:a37075868", "current_trial": 86, "dateTime": 1664369381523, "trialdata": {"revealed_states": [], "num_clicks_accrued": [0, 0, 0, 0, 0, 0, 0, 0, 0, 0, 0, 0, 0], "stateRewards": ["", -4, 8, 24, 24, -2, 8, -48, 48, 4, -8, 48, -48], "withholdReward": true, "trial_id": "mdp_295249220524", "block": "test3", "trialIndex": 77, "score": 48, "costs": -1, "simulationMode": [null, null, null], "rewards": [4, -8, 48], "path": ["0", "0", "9", "10", "11"], "rt": [3033, 409, 38], "actions": ["left", "left", "up"], "actionTimes": [3789, 4704, 5249], "queries": {"click": {"state": {"target": ["12", "3", "4", "11"], "time": [1126, 1688, 2374, 2762]}, "edge": {"target": [], "time": []}}, "mouseover": {"state": {"target": ["12", "9", "3", "4", "4", "11", "0"], "time": [997, 1333, 1510, 1965, 2261, 2598, 3042]}, "edge": {"target": [], "time": []}}, "mouseout": {"state": {"target": ["0", "12", "9", "3", "4", "4", "11", "0"], "time": [902, 1311, 1350, 1854, 1990, 2533, 2905, 3052]}, "edge": {"target": [], "time": []}}}, "displayed_time": "8.76", "trialTime": 8957, "trial_type": "mouselab-mdp", "trial_index": 86, "time_elapsed": 1501180, "internal_node_id": "0.0-4.0-5.0-15.0"}}, {"uniqueid": "w99425110:a37075868", "current_trial": 87, "dateTime": 1664369390846, "trialdata": {"revealed_states": [], "num_clicks_accrued": [0, 0, 0, 0, 0, 0, 0, 0, 0, 0, 0, 0, 0], "stateRewards": ["", -4, 8, 24, -24, -2, 4, -24, 48, -2, 8, -48, -24], "withholdReward": false, "trial_id": "mdp_799359103169", "block": "test3", "trialIndex": 78, "score": 54.5, "costs": -0.5, "simulationMode": [null, null, null], "rewards": [-2, 4, 48], "path": ["0", "0", "5", "6", "8"], "rt": [2257, 79, 45], "actions": ["right", "right", "down"], "actionTimes": [2958, 3544, 4092], "queries": {"click": {"state": {"target": ["7", "8"], "time": [1365, 1795]}, "edge": {"target": [], "time": []}}, "mouseover": {"state": {"target": ["7", "7", "6", "8", "0", "9", "10"], "time": [871, 1227, 1603, 1779, 2027, 2051, 2070]}, "edge": {"target": [], "time": []}}, "mouseout": {"state": {"target": ["7", "7", "6", "8", "0", "9", "10", "11", "10", "12", "12", "12"], "time": [887, 1579, 1643, 1923, 2043, 2059, 2307, 5868, 5899, 5947, 6337, 6955]}, "edge": {"target": [], "time": []}}}, "displayed_time": "8.70", "trialTime": 9285, "trial_type": "mouselab-mdp", "trial_index": 87, "time_elapsed": 1510502, "internal_node_id": "0.0-4.0-5.0-16.0"}}, {"uniqueid": "w99425110:a37075868", "current_trial": 88, "dateTime": 1664369400682, "trialdata": {"revealed_states": [], "num_clicks_accrued": [0, 0, 0, 0, 0, 0, 0, 0, 0, 0, 0, 0, 0], "stateRewards": ["", 2, -8, 24, -24, -2, 8, -48, -48, 2, -8, -24, -48], "withholdReward": true, "trial_id": "mdp_744278669205", "block": "test3", "trialIndex": 79, "score": 21.5, "costs": -1.5, "simulationMode": [null, null, null], "rewards": [2, -8, 24], "path": ["0", "0", "1", "2", "3"], "rt": [5744, 82, 130], "actions": ["up", "up", "right"], "actionTimes": [6105, 6690, 7327], "queries": {"click": {"state": {"target": ["7", "4", "12", "11", "3", "8"], "time": [1036, 2155, 2976, 3487, 4176, 4943]}, "edge": {"target": [], "time": []}}, "mouseover": {"state": {"target": ["7", "7", "2", "4", "4", "4", "4", "11", "10", "12", "10", "11", "2", "3", "5", "8"], "time": [587, 883, 1323, 1342, 1636, 1932, 2131, 2615, 2679, 2911, 3207, 3264, 3735, 4027, 4567, 4799]}, "edge": {"target": [], "time": []}}, "mouseout": {"state": {"target": ["0", "7", "7", "2", "4", "4", "4", "4", "11", "10", "12", "10", "11", "2", "3", "5", "8"], "time": [283, 643, 1283, 1331, 1379, 1707, 2003, 2475, 2632, 2766, 3167, 3247, 3615, 3759, 4334, 4591, 5127]}, "edge": {"target": [], "time": []}}}, "displayed_time": "9.36", "trialTime": 9805, "trial_type": "