{"condition": 0, "counterbalance": 0, "assignmentId": "a81702813", "workerId": "w10196801", "hitId": "h88403747", "currenttrial": 977, "bonus": 0, "data": [{"uniqueid": "w10196801:a81702813", "current_trial": 0, "dateTime": 1664555125838, "trialdata": {"success": true, "trial_type": "fullscreen", "trial_index": 0, "time_elapsed": 10858, "internal_node_id": "0.0-0.0"}}, {"uniqueid": "w10196801:a81702813", "current_trial": 1, "dateTime": 1664555144408, "trialdata": {"view_history": [{"page_index": 0, "viewing_time": 18563}], "rt": 18564, "trial_id": "exp_instructions_distractor", "trial_type": "instructions", "trial_index": 1, "time_elapsed": 29429, "internal_node_id": "0.0-1.0"}}, {"uniqueid": "w10196801:a81702813", "current_trial": 2, "dateTime": 1664555221063, "trialdata": {"view_history": [{"page_index": 0, "viewing_time": 76653}], "rt": 76653, "trial_id": "color_game_instructions", "trial_type": "instructions", "trial_index": 2, "time_elapsed": 106084, "internal_node_id": "0.0-2.0"}}, {"uniqueid": "w10196801:a81702813", "current_trial": 3, "dateTime": 1664555224413, "trialdata": {"rt": 3348, "stimulus": "<h1> Get ready to start the game! </h1>\n\nThank you for reading the instructions. Get ready start with the first of 5 block(s) of this game.\n<br><br>\nIn this first block, you will complete 90 rounds of this game before moving on.\n<br><br>\nRemember, the better you perform, the bigger your bonus will be!\n<br><br>\n<div style='text-align: center;'>Press <code>space</code> to begin.</div>", "response": " ", "trial_id": "stroop_1_ready_1", "trial_type": "html-keyboard-response", "trial_index": 3, "time_elapsed": 109434, "internal_node_id": "0.0-3.0"}}, {"uniqueid": "w10196801:a81702813", "current_trial": 4, "dateTime": 1664555226006, "trialdata": {"rt": 1578, "stimulus": "<p id='stroop-text' class='stroop-green'>YELLOW</p>", "response": "y", "stimulus-type": "incongruent", "word": "yellow", "color": "green", "correct_response": "g", "trial_id": "stroop-trial-1-incongruent-30", "trial_type": "html-keyboard-response", "trial_index": 4, "time_elapsed": 111027, "internal_node_id": "0.0-4.0-0.0"}}, {"uniqueid": "w10196801:a81702813", "current_trial": 5, "dateTime": 1664555228057, "trialdata": {"rt": 1549, "stimulus": "<p id='stroop-text' class='stroop-red'>STONE</p>", "response": "r", "stimulus-type": "unrelated", "word": "STONE", "color": "red", "correct_response": "r", "trial_id": "stroop-trial-1-unrelated-21", "trial_type": "html-keyboard-response", "trial_index": 5, "time_elapsed": 113078, "internal_node_id": "0.0-4.0-1.0"}}, {"uniqueid": "w10196801:a81702813", "current_trial": 6, "dateTime": 1664555229917, "trialdata": {"rt": 1359, "stimulus": "<p id='stroop-text' class='stroop-green'>STONE</p>", "response": "g", "stimulus-type": "unrelated", "word": "STONE", "color": "green", "correct_response": "g", "trial_id": "stroop-trial-1-unrelated-14", "trial_type": "html-keyboard-response", "trial_index": 6, "time_elapsed": 114938, "internal_node_id": "0.0-4.0-2.0"}}, {"uniqueid": "w10196801:a81702813", "current_trial": 7, "dateTime": 1664555231709, "trialdata": {"rt": 1290, "stimulus": "<p id='stroop-text' class='stroop-blue'>STONE</p>", "response": "b", "stimulus-type": "unrelated", "word": "STONE", "color": "blue", "correct_response": "b", "trial_id": "stroop-trial-1-unrelated-30", "trial_type": "html-keyboard-response", "trial_index": 7, "time_elapsed": 116730, "internal_node_id": "0.0-4.0-3.0"}}, {"uniqueid": "w10196801:a81702813", "current_trial": 8, "dateTime": 1664555234133, "trialdata": {"rt": 1922, "stimulus": "<p id='stroop-text' class='stroop-green'>YELLOW</p>", "response": "g", "stimulus-type": "incongruent", "word": "yellow", "color": "green", "correct_response": "g", "trial_id": "stroop-trial-1-incongruent-25", "trial_type": "html-keyboard-response", "trial_index": 8, "time_elapsed": 119154, "internal_node_id": "0.0-4.0-4.0"}}, {"uniqueid": "w10196801:a81702813", "current_trial": 9, "dateTime": 1664555235830, "trialdata": {"rt": 1194, "stimulus": "<p id='stroop-text' class='stroop-red'>BOAT</p>", "response": "r", "stimulus-type": "unrelated", "word": "BOAT", "color": "red", "correct_response": "r", "trial_id": "stroop-trial-1-unrelated-27", "trial_type": "html-keyboard-response", "trial_index": 9, "time_elapsed": 120850, "internal_node_id": "0.0-4.0-5.0"}}, {"uniqueid": "w10196801:a81702813", "current_trial": 10, "dateTime": 1664555237601, "trialdata": {"rt": 1270, "stimulus": "<p id='stroop-text' class='stroop-red'>RED</p>", "response": "r", "stimulus-type": "congruent", "word": "red", "color": "red", "correct_response": "r", "trial_id": "stroop-trial-1-congruent-25", "trial_type": "html-keyboard-response", "trial_index": 10, "time_elapsed": 122622, "internal_node_id": "0.0-4.0-6.0"}}, {"uniqueid": "w10196801:a81702813", "current_trial": 11, "dateTime": 1664555239395, "trialdata": {"rt": 1291, "stimulus": "<p id='stroop-text' class='stroop-red'>BLUE</p>", "response": "b", "stimulus-type": "incongruent", "word": "blue", "color": "red", "correct_response": "r", "trial_id": "stroop-trial-1-incongruent-11", "trial_type": "html-keyboard-response", "trial_index": 11, "time_elapsed": 124415, "internal_node_id": "0.0-4.0-7.0"}}, {"uniqueid": "w10196801:a81702813", "current_trial": 12, "dateTime": 1664555241792, "trialdata": {"rt": 1895, "stimulus": "<p id='stroop-text' class='stroop-blue'>YELLOW</p>", "response": "b", "stimulus-type": "incongruent", "word": "yellow", "color": "blue", "correct_response": "b", "trial_id": "stroop-trial-1-incongruent-9", "trial_type": "html-keyboard-response", "trial_index": 12, "time_elapsed": 126813, "internal_node_id": "0.0-4.0-8.0"}}, {"uniqueid": "w10196801:a81702813", "current_trial": 13, "dateTime": 1664555244451, "trialdata": {"rt": 2157, "stimulus": "<p id='stroop-text' class='stroop-green'>BLUE</p>", "response": "g", "stimulus-type": "incongruent", "word": "blue", "color": "green", "correct_response": "g", "trial_id": "stroop-trial-1-incongruent-5", "trial_type": "html-keyboard-response", "trial_index": 13, "time_elapsed": 129472, "internal_node_id": "0.0-4.0-9.0"}}, {"uniqueid": "w10196801:a81702813", "current_trial": 14, "dateTime": 1664555246258, "trialdata": {"rt": 1305, "stimulus": "<p id='stroop-text' class='stroop-yellow'>YELLOW</p>", "response": "y", "stimulus-type": "congruent", "word": "yellow", "color": "yellow", "correct_response": "y", "trial_id": "stroop-trial-1-congruent-9", "trial_type": "html-keyboard-response", "trial_index": 14, "time_elapsed": 131279, "internal_node_id": "0.0-4.0-10.0"}}, {"uniqueid": "w10196801:a81702813", "current_trial": 15, "dateTime": 1664555248332, "trialdata": {"rt": 1572, "stimulus": "<p id='stroop-text' class='stroop-blue'>BLUE</p>", "response": "b", "stimulus-type": "congruent", "word": "blue", "color": "blue", "correct_response": "b", "trial_id": "stroop-trial-1-congruent-23", "trial_type": "html-keyboard-response", "trial_index": 15, "time_elapsed": 133353, "internal_node_id": "0.0-4.0-11.0"}}, {"uniqueid": "w10196801:a81702813", "current_trial": 16, "dateTime": 1664555249858, "trialdata": {"rt": 1024, "stimulus": "<p id='stroop-text' class='stroop-red'>BOTTLE</p>", "response": "r", "stimulus-type": "unrelated", "word": "BOTTLE", "color": "red", "correct_response": "r", "trial_id": "stroop-trial-1-unrelated-28", "trial_type": "html-keyboard-response", "trial_index": 16, "time_elapsed": 134879, "internal_node_id": "0.0-4.0-12.0"}}, {"uniqueid": "w10196801:a81702813", "current_trial": 17, "dateTime": 1664555251158, "trialdata": {"rt": 797, "stimulus": "<p id='stroop-text' class='stroop-yellow'>YELLOW</p>", "response": "y", "stimulus-type": "congruent", "word": "yellow", "color": "yellow", "correct_response": "y", "trial_id": "stroop-trial-1-congruent-17", "trial_type": "html-keyboard-response", "trial_index": 17, "time_elapsed": 136179, "internal_node_id": "0.0-4.0-13.0"}}, {"uniqueid": "w10196801:a81702813", "current_trial": 18, "dateTime": 1664555252254, "trialdata": {"rt": 593, "stimulus": "<p id='stroop-text' class='stroop-yellow'>MONKEY</p>", "response": "y", "stimulus-type": "unrelated", "word": "MONKEY", "color": "yellow", "correct_response": "y", "trial_id": "stroop-trial-1-unrelated-23", "trial_type": "html-keyboard-response", "trial_index": 18, "time_elapsed": 137275, "internal_node_id": "0.0-4.0-14.0"}}, {"uniqueid": "w10196801:a81702813", "current_trial": 19, "dateTime": 1664555254863, "trialdata": {"rt": 2107, "stimulus": "<p id='stroop-text' class='stroop-green'>YELLOW</p>", "response": "g", "stimulus-type": "incongruent", "word": "yellow", "color": "green", "correct_response": "g", "trial_id": "stroop-trial-1-incongruent-22", "trial_type": "html-keyboard-response", "trial_index": 19, "time_elapsed": 139884, "internal_node_id": "0.0-4.0-15.0"}}, {"uniqueid": "w10196801:a81702813", "current_trial": 20, "dateTime": 1664555256487, "trialdata": {"rt": 1122, "stimulus": "<p id='stroop-text' class='stroop-green'>YELLOW</p>", "response": "g", "stimulus-type": "incongruent", "word": "yellow", "color": "green", "correct_response": "g", "trial_id": "stroop-trial-1-incongruent-17", "trial_type": "html-keyboard-response", "trial_index": 20, "time_elapsed": 141508, "internal_node_id": "0.0-4.0-16.0"}}, {"uniqueid": "w10196801:a81702813", "current_trial": 21, "dateTime": 1664555258038, "trialdata": {"rt": 1047, "stimulus": "<p id='stroop-text' class='stroop-blue'>WINDOW</p>", "response": "b", "stimulus-type": "unrelated", "word": "WINDOW", "color": "blue", "correct_response": "b", "trial_id": "stroop-trial-1-unrelated-9", "trial_type": "html-keyboard-response", "trial_index": 21, "time_elapsed": 143059, "internal_node_id": "0.0-4.0-17.0"}}, {"uniqueid": "w10196801:a81702813", "current_trial": 22, "dateTime": 1664555259269, "trialdata": {"rt": 729, "stimulus": "<p id='stroop-text' class='stroop-yellow'>YELLOW</p>", "response": "y", "stimulus-type": "congruent", "word": "yellow", "color": "yellow", "correct_response": "y", "trial_id": "stroop-trial-1-congruent-7", "trial_type": "html-keyboard-response", "trial_index": 22, "time_elapsed": 144290, "internal_node_id": "0.0-4.0-18.0"}}, {"uniqueid": "w10196801:a81702813", "current_trial": 23, "dateTime": 1664555260429, "trialdata": {"rt": 658, "stimulus": "<p id='stroop-text' class='stroop-red'>RED</p>", "response": "r", "stimulus-type": "congruent", "word": "red", "color": "red", "correct_response": "r", "trial_id": "stroop-trial-1-congruent-6", "trial_type": "html-keyboard-response", "trial_index": 23, "time_elapsed": 145450, "internal_node_id": "0.0-4.0-19.0"}}, {"uniqueid": "w10196801:a81702813", "current_trial": 24, "dateTime": 1664555262792, "trialdata": {"rt": 1861, "stimulus": "<p id='stroop-text' class='stroop-yellow'>BLUE</p>", "response": "y", "stimulus-type": "incongruent", "word": "blue", "color": "yellow", "correct_response": "y", "trial_id": "stroop-trial-1-incongruent-3", "trial_type": "html-keyboard-response", "trial_index": 24, "time_elapsed": 147812, "internal_node_id": "0.0-4.0-20.0"}}, {"uniqueid": "w10196801:a81702813", "current_trial": 25, "dateTime": 1664555264882, "trialdata": {"rt": 1588, "stimulus": "<p id='stroop-text' class='stroop-blue'>BLUE</p>", "response": "b", "stimulus-type": "congruent", "word": "blue", "color": "blue", "correct_response": "b", "trial_id": "stroop-trial-1-congruent-5", "trial_type": "html-keyboard-response", "trial_index": 25, "time_elapsed": 149903, "internal_node_id": "0.0-4.0-21.0"}}, {"uniqueid": "w10196801:a81702813", "current_trial": 26, "dateTime": 1664555266339, "trialdata": {"rt": 955, "stimulus": "<p id='stroop-text' class='stroop-yellow'>YELLOW</p>", "response": "y", "stimulus-type": "congruent", "word": "yellow", "color": "yellow", "correct_response": "y", "trial_id": "stroop-trial-1-congruent-8", "trial_type": "html-keyboard-response", "trial_index": 26, "time_elapsed": 151360, "internal_node_id": "0.0-4.0-22.0"}}, {"uniqueid": "w10196801:a81702813", "current_trial": 27, "dateTime": 1664555267864, "trialdata": {"rt": 1023, "stimulus": "<p id='stroop-text' class='stroop-yellow'>RED</p>", "response": "y", "stimulus-type": "incongruent", "word": "red", "color": "yellow", "correct_response": "y", "trial_id": "stroop-trial-1-incongruent-15", "trial_type": "html-keyboard-response", "trial_index": 27, "time_elapsed": 152885, "internal_node_id": "0.0-4.0-23.0"}}, {"uniqueid": "w10196801:a81702813", "current_trial": 28, "dateTime": 1664555269343, "trialdata": {"rt": 977, "stimulus": "<p id='stroop-text' class='stroop-yellow'>RED</p>", "response": "y", "stimulus-type": "incongruent", "word": "red", "color": "yellow", "correct_response": "y", "trial_id": "stroop-trial-1-incongruent-29", "trial_type": "html-keyboard-response", "trial_index": 28, "time_elapsed": 154364, "internal_node_id": "0.0-4.0-24.0"}}, {"uniqueid": "w10196801:a81702813", "current_trial": 29, "dateTime": 1664555270736, "trialdata": {"rt": 891, "stimulus": "<p id='stroop-text' class='stroop-green'>YELLOW</p>", "response": "g", "stimulus-type": "incongruent", "word": "yellow", "color": "green", "correct_response": "g", "trial_id": "stroop-trial-1-incongruent-10", "trial_type": "html-keyboard-response", "trial_index": 29, "time_elapsed": 155756, "internal_node_id": "0.0-4.0-25.0"}}, {"uniqueid": "w10196801:a81702813", "current_trial": 30, "dateTime": 1664555271898, "trialdata": {"rt": 661, "stimulus": "<p id='stroop-text' class='stroop-blue'>BLUE</p>", "response": "b", "stimulus-type": "congruent", "word": "blue", "color": "blue", "correct_response": "b", "trial_id": "stroop-trial-1-congruent-26", "trial_type": "html-keyboard-response", "trial_index": 30, "time_elapsed": 156919, "internal_node_id": "0.0-4.0-26.0"}}, {"uniqueid": "w10196801:a81702813", "current_trial": 31, "dateTime": 1664555273223, "trialdata": {"rt": 822, "stimulus": "<p id='stroop-text' class='stroop-yellow'>RED</p>", "response": "y", "stimulus-type": "incongruent", "word": "red", "color": "yellow", "correct_response": "y", "trial_id": "stroop-trial-1-incongruent-19", "trial_type": "html-keyboard-response", "trial_index": 31, "time_elapsed": 158243, "internal_node_id": "0.0-4.0-27.0"}}, {"uniqueid": "w10196801:a81702813", "current_trial": 32, "dateTime": 1664555274673, "trialdata": {"rt": 949, "stimulus": "<p id='stroop-text' class='stroop-green'>GREEN</p>", "response": "g", "stimulus-type": "congruent", "word": "green", "color": "green", "correct_response": "g", "trial_id": "stroop-trial-1-congruent-20", "trial_type": "html-keyboard-response", "trial_index": 32, "time_elapsed": 159694, "internal_node_id": "0.0-4.0-28.0"}}, {"uniqueid": "w10196801:a81702813", "current_trial": 33, "dateTime": 1664555275934, "trialdata": {"rt": 758, "stimulus": "<p id='stroop-text' class='stroop-red'>WINDOW</p>", "response": "r", "stimulus-type": "unrelated", "word": "WINDOW", "color": "red", "correct_response": "r", "trial_id": "stroop-trial-1-unrelated-26", "trial_type": "html-keyboard-response", "trial_index": 33, "time_elapsed": 160955, "internal_node_id": "0.0-4.0-29.0"}}, {"uniqueid": "w10196801:a81702813", "current_trial": 34, "dateTime": 1664555277585, "trialdata": {"rt": 1148, "stimulus": "<p id='stroop-text' class='stroop-green'>RED</p>", "response": "g", "stimulus-type": "incongruent", "word": "red", "color": "green", "correct_response": "g", "trial_id": "stroop-trial-1-incongruent-26", "trial_type": "html-keyboard-response", "trial_index": 34, "time_elapsed": 162605, "internal_node_id": "0.0-4.0-30.0"}}, {"uniqueid": "w10196801:a81702813", "current_trial": 35, "dateTime": 1664555278720, "trialdata": {"rt": 633, "stimulus": "<p id='stroop-text' class='stroop-blue'>GREEN</p>", "response": "b", "stimulus-type": "incongruent", "word": "green", "color": "blue", "correct_response": "b", "trial_id": "stroop-trial-1-incongruent-20", "trial_type": "html-keyboard-response", "trial_index": 35, "time_elapsed": 163741, "internal_node_id": "0.0-4.0-31.0"}}, {"uniqueid": "w10196801:a81702813", "current_trial": 36, "dateTime": 1664555280311, "trialdata": {"rt": 1088, "stimulus": "<p id='stroop-text' class='stroop-yellow'>RED</p>", "response": "y", "stimulus-type": "incongruent", "word": "red", "color": "yellow", "correct_response": "y", "trial_id": "stroop-trial-1-incongruent-2", "trial_type": "html-keyboard-response", "trial_index": 36, "time_elapsed": 165331, "internal_node_id": "0.0-4.0-32.0"}}, {"uniqueid": "w10196801:a81702813", "current_trial": 37, "dateTime": 1664555281449, "trialdata": {"rt": 634, "stimulus": "<p id='stroop-text' class='stroop-yellow'>YELLOW</p>", "response": "y", "stimulus-type": "congruent", "word": "yellow", "color": "yellow", "correct_response": "y", "trial_id": "stroop-trial-1-congruent-24", "trial_type": "html-keyboard-response", "trial_index": 37, "time_elapsed": 166470, "internal_node_id": "0.0-4.0-33.0"}}, {"uniqueid": "w10196801:a81702813", "current_trial": 38, "dateTime": 1664555282554, "trialdata": {"rt": 601, "stimulus": "<p id='stroop-text' class='stroop-yellow'>WINDOW</p>", "response": "y", "stimulus-type": "unrelated", "word": "WINDOW", "color": "yellow", "correct_response": "y", "trial_id": "stroop-trial-1-unrelated-10", "trial_type": "html-keyboard-response", "trial_index": 38, "time_elapsed": 167574, "internal_node_id": "0.0-4.0-34.0"}}, {"uniqueid": "w10196801:a81702813", "current_trial": 39, "dateTime": 1664555283775, "trialdata": {"rt": 719, "stimulus": "<p id='stroop-text' class='stroop-red'>GREEN</p>", "response": "r", "stimulus-type": "incongruent", "word": "green", "color": "red", "correct_response": "r", "trial_id": "stroop-trial-1-incongruent-14", "trial_type": "html-keyboard-response", "trial_index": 39, "time_elapsed": 168795, "internal_node_id": "0.0-4.0-35.0"}}, {"uniqueid": "w10196801:a81702813", "current_trial": 40, "dateTime": 1664555284867, "trialdata": {"rt": 590, "stimulus": "<p id='stroop-text' class='stroop-red'>RED</p>", "response": "r", "stimulus-type": "congruent", "word": "red", "color": "red", "correct_response": "r", "trial_id": "stroop-trial-1-congruent-2", "trial_type": "html-keyboard-response", "trial_index": 40, "time_elapsed": 169887, "internal_node_id": "0.0-4.0-36.0"}}, {"uniqueid": "w10196801:a81702813", "current_trial": 41, "dateTime": 1664555285861, "trialdata": {"rt": 491, "stimulus": "<p id='stroop-text' class='stroop-red'>RED</p>", "response": "r", "stimulus-type": "congruent", "word": "red", "color": "red", "correct_response": "r", "trial_id": "stroop-trial-1-congruent-27", "trial_type": "html-keyboard-response", "trial_index": 41, "time_elapsed": 170881, "internal_node_id": "0.0-4.0-37.0"}}, {"uniqueid": "w10196801:a81702813", "current_trial": 42, "dateTime": 1664555286964, "trialdata": {"rt": 601, "stimulus": "<p id='stroop-text' class='stroop-red'>GREEN</p>", "response": "r", "stimulus-type": "incongruent", "word": "green", "color": "red", "correct_response": "r", "trial_id": "stroop-trial-1-incongruent-7", "trial_type": "html-keyboard-response", "trial_index": 42, "time_elapsed": 171985, "internal_node_id": "0.0-4.0-38.0"}}, {"uniqueid": "w10196801:a81702813", "current_trial": 43, "dateTime": 1664555288241, "trialdata": {"rt": 774, "stimulus": "<p id='stroop-text' class='stroop-yellow'>GREEN</p>", "response": "y", "stimulus-type": "incongruent", "word": "green", "color": "yellow", "correct_response": "y", "trial_id": "stroop-trial-1-incongruent-28", "trial_type": "html-keyboard-response", "trial_index": 43, "time_elapsed": 173262, "internal_node_id": "0.0-4.0-39.0"}}, {"uniqueid": "w10196801:a81702813", "current_trial": 44, "dateTime": 1664555289233, "trialdata": {"rt": 489, "stimulus": "<p id='stroop-text' class='stroop-yellow'>BOTTLE</p>", "response": "y", "stimulus-type": "unrelated", "word": "BOTTLE", "color": "yellow", "correct_response": "y", "trial_id": "stroop-trial-1-unrelated-4", "trial_type": "html-keyboard-response", "trial_index": 44, "time_elapsed": 174254, "internal_node_id": "0.0-4.0-40.0"}}, {"uniqueid": "w10196801:a81702813", "current_trial": 45, "dateTime": 1664555290441, "trialdata": {"rt": 706, "stimulus": "<p id='stroop-text' class='stroop-yellow'>GREEN</p>", "response": "y", "stimulus-type": "incongruent", "word": "green", "color": "yellow", "correct_response": "y", "trial_id": "stroop-trial-1-incongruent-24", "trial_type": "html-keyboard-response", "trial_index": 45, "time_elapsed": 175461, "internal_node_id": "0.0-4.0-41.0"}}, {"uniqueid": "w10196801:a81702813", "current_trial": 46, "dateTime": 1664555291561, "trialdata": {"rt": 617, "stimulus": "<p id='stroop-text' class='stroop-red'>RED</p>", "response": "r", "stimulus-type": "congruent", "word": "red", "color": "red", "correct_response": "r", "trial_id": "stroop-trial-1-congruent-18", "trial_type": "html-keyboard-response", "trial_index": 46, "time_elapsed": 176581, "internal_node_id": "0.0-4.0-42.0"}}, {"uniqueid": "w10196801:a81702813", "current_trial": 47, "dateTime": 1664555292584, "trialdata": {"rt": 521, "stimulus": "<p id='stroop-text' class='stroop-red'>RED</p>", "response": "r", "stimulus-type": "congruent", "word": "red", "color": "red", "correct_response": "r", "trial_id": "stroop-trial-1-congruent-12", "trial_type": "html-keyboard-response", "trial_index": 47, "time_elapsed": 177604, "internal_node_id": "0.0-4.0-43.0"}}, {"uniqueid": "w10196801:a81702813", "current_trial": 48, "dateTime": 1664555293937, "trialdata": {"rt": 851, "stimulus": "<p id='stroop-text' class='stroop-green'>YELLOW</p>", "response": "g", "stimulus-type": "incongruent", "word": "yellow", "color": "green", "correct_response": "g", "trial_id": "stroop-trial-1-incongruent-21", "trial_type": "html-keyboard-response", "trial_index": 48, "time_elapsed": 178958, "internal_node_id": "0.0-4.0-44.0"}}, {"uniqueid": "w10196801:a81702813", "current_trial": 49, "dateTime": 1664555295038, "trialdata": {"rt": 599, "stimulus": "<p id='stroop-text' class='stroop-green'>GREEN</p>", "response": "g", "stimulus-type": "congruent", "word": "green", "color": "green", "correct_response": "g", "trial_id": "stroop-trial-1-congruent-4", "trial_type": "html-keyboard-response", "trial_index": 49, "time_elapsed": 180059, "internal_node_id": "0.0-4.0-45.0"}}, {"uniqueid": "w10196801:a81702813", "current_trial": 50, "dateTime": 1664555296182, "trialdata": {"rt": 640, "stimulus": "<p id='stroop-text' class='stroop-yellow'>YELLOW</p>", "response": "y", "stimulus-type": "congruent", "word": "yellow", "color": "yellow", "correct_response": "y", "trial_id": "stroop-trial-1-congruent-21", "trial_type": "html-keyboard-response", "trial_index": 50, "time_elapsed": 181202, "internal_node_id": "0.0-4.0-46.0"}}, {"uniqueid": "w10196801:a81702813", "current_trial": 51, "dateTime": 1664555297368, "trialdata": {"rt": 684, "stimulus": "<p id='stroop-text' class='stroop-blue'>STONE</p>", "response": "b", "stimulus-type": "unrelated", "word": "STONE", "color": "blue", "correct_response": "b", "trial_id": "stroop-trial-1-unrelated-20", "trial_type": "html-keyboard-response", "trial_index": 51, "time_elapsed": 182389, "internal_node_id": "0.0-4.0-47.0"}}, {"uniqueid": "w10196801:a81702813", "current_trial": 52, "dateTime": 1664555298589, "trialdata": {"rt": 717, "stimulus": "<p id='stroop-text' class='stroop-yellow'>WINDOW</p>", "response": "y", "stimulus-type": "unrelated", "word": "WINDOW", "color": "yellow", "correct_response": "y", "trial_id": "stroop-trial-1-unrelated-5", "trial_type": "html-keyboard-response", "trial_index": 52, "time_elapsed": 183609, "internal_node_id": "0.0-4.0-48.0"}}, {"uniqueid": "w10196801:a81702813", "current_trial": 53, "dateTime": 1664555300135, "trialdata": {"rt": 1042, "stimulus": "<p id='stroop-text' class='stroop-green'>BLUE</p>", "response": "g", "stimulus-type": "incongruent", "word": "blue", "color": "green", "correct_response": "g", "trial_id": "stroop-trial-1-incongruent-12", "trial_type": "html-keyboard-response", "trial_index": 53, "time_elapsed": 185155, "internal_node_id": "0.0-4.0-49.0"}}, {"uniqueid": "w10196801:a81702813", "current_trial": 54, "dateTime": 1664555301938, "trialdata": {"rt": 1299, "stimulus": "<p id='stroop-text' class='stroop-yellow'>RED</p>", "response": "y", "stimulus-type": "incongruent", "word": "red", "color": "yellow", "correct_response": "y", "trial_id": "stroop-trial-1-incongruent-13", "trial_type": "html-keyboard-response", "trial_index": 54, "time_elapsed": 186958, "internal_node_id": "0.0-4.0-50.0"}}, {"uniqueid": "w10196801:a81702813", "current_trial": 55, "dateTime": 1664555303103, "trialdata": {"rt": 663, "stimulus": "<p id='stroop-text' class='stroop-blue'>BRAIN</p>", "response": "b", "stimulus-type": "unrelated", "word": "BRAIN", "color": "blue", "correct_response": "b", "trial_id": "stroop-trial-1-unrelated-7", "trial_type": "html-keyboard-response", "trial_index": 55, "time_elapsed": 188123, "internal_node_id": "0.0-4.0-51.0"}}, {"uniqueid": "w10196801:a81702813", "current_trial": 56, "dateTime": 1664555304734, "trialdata": {"rt": 1129, "stimulus": "<p id='stroop-text' class='stroop-yellow'>BOAT</p>", "response": "y", "stimulus-type": "unrelated", "word": "BOAT", "color": "yellow", "correct_response": "y", "trial_id": "stroop-trial-1-unrelated-1", "trial_type": "html-keyboard-response", "trial_index": 56, "time_elapsed": 189755, "internal_node_id": "0.0-4.0-52.0"}}, {"uniqueid": "w10196801:a81702813", "current_trial": 57, "dateTime": 1664555306117, "trialdata": {"rt": 881, "stimulus": "<p id='stroop-text' class='stroop-green'>STONE</p>", "response": "g", "stimulus-type": "unrelated", "word": "STONE", "color": "green", "correct_response": "g", "trial_id": "stroop-trial-1-unrelated-15", "trial_type": "html-keyboard-response", "trial_index": 57, "time_elapsed": 191138, "internal_node_id": "0.0-4.0-53.0"}}, {"uniqueid": "w10196801:a81702813", "current_trial": 58, "dateTime": 1664555307089, "trialdata": {"rt": 468, "stimulus": "<p id='stroop-text' class='stroop-green'>GREEN</p>", "response": "g", "stimulus-type": "congruent", "word": "green", "color": "green", "correct_response": "g", "trial_id": "stroop-trial-1-congruent-1", "trial_type": "html-keyboard-response", "trial_index": 58, "time_elapsed": 192109, "internal_node_id": "0.0-4.0-54.0"}}, {"uniqueid": "w10196801:a81702813", "current_trial": 59, "dateTime": 1664555307996, "trialdata": {"rt": 406, "stimulus": "<p id='stroop-text' class='stroop-green'>GREEN</p>", "response": "g", "stimulus-type": "congruent", "word": "green", "color": "green", "correct_response": "g", "trial_id": "stroop-trial-1-congruent-22", "trial_type": "html-keyboard-response", "trial_index": 59, "time_elapsed": 193017, "internal_node_id": "0.0-4.0-55.0"}}, {"uniqueid": "w10196801:a81702813", "current_trial": 60, "dateTime": 1664555309172, "trialdata": {"rt": 673, "stimulus": "<p id='stroop-text' class='stroop-yellow'>STONE</p>", "response": "y", "stimulus-type": "unrelated", "word": "STONE", "color": "yellow", "correct_response": "y", "trial_id": "stroop-trial-1-unrelated-8", "trial_type": "html-keyboard-response", "trial_index": 60, "time_elapsed": 194193, "internal_node_id": "0.0-4.0-56.0"}}, {"uniqueid": "w10196801:a81702813", "current_trial": 61, "dateTime": 1664555310936, "trialdata": {"rt": 1261, "stimulus": "<p id='stroop-text' class='stroop-yellow'>DOG</p>", "response": "y", "stimulus-type": "unrelated", "word": "DOG", "color": "yellow", "correct_response": "y", "trial_id": "stroop-trial-1-unrelated-17", "trial_type": "html-keyboard-response", "trial_index": 61, "time_elapsed": 195957, "internal_node_id": "0.0-4.0-57.0"}}, {"uniqueid": "w10196801:a81702813", "current_trial": 62, "dateTime": 1664555312241, "trialdata": {"rt": 801, "stimulus": "<p id='stroop-text' class='stroop-green'>RED</p>", "response": "g", "stimulus-type": "incongruent", "word": "red", "color": "green", "correct_response": "g", "trial_id": "stroop-trial-1-incongruent-6", "trial_type": "html-keyboard-response", "trial_index": 62, "time_elapsed": 197262, "internal_node_id": "0.0-4.0-58.0"}}, {"uniqueid": "w10196801:a81702813", "current_trial": 63, "dateTime": 1664555313289, "trialdata": {"rt": 545, "stimulus": "<p id='stroop-text' class='stroop-green'>RED</p>", "response": "g", "stimulus-type": "incongruent", "word": "red", "color": "green", "correct_response": "g", "trial_id": "stroop-trial-1-incongruent-4", "trial_type": "html-keyboard-response", "trial_index": 63, "time_elapsed": 198310, "internal_node_id": "0.0-4.0-59.0"}}, {"uniqueid": "w10196801:a81702813", "current_trial": 64, "dateTime": 1664555314523, "trialdata": {"rt": 731, "stimulus": "<p id='stroop-text' class='stroop-yellow'>STONE</p>", "response": "y", "stimulus-type": "unrelated", "word": "STONE", "color": "yellow", "correct_response": "y", "trial_id": "stroop-trial-1-unrelated-25", "trial_type": "html-keyboard-response", "trial_index": 64, "time_elapsed": 199544, "internal_node_id": "0.0-4.0-60.0"}}, {"uniqueid": "w10196801:a81702813", "current_trial": 65, "dateTime": 1664555315709, "trialdata": {"rt": 684, "stimulus": "<p id='stroop-text' class='stroop-blue'>RED</p>", "response": "b", "stimulus-type": "incongruent", "word": "red", "color": "blue", "correct_response": "b", "trial_id": "stroop-trial-1-incongruent-23", "trial_type": "html-keyboard-response", "trial_index": 65, "time_elapsed": 200730, "internal_node_id": "0.0-4.0-61.0"}}, {"uniqueid": "w10196801:a81702813", "current_trial": 66, "dateTime": 1664555316924, "trialdata": {"rt": 710, "stimulus": "<p id='stroop-text' class='stroop-green'>DOG</p>", "response": "g", "stimulus-type": "unrelated", "word": "DOG", "color": "green", "correct_response": "g", "trial_id": "stroop-trial-1-unrelated-13", "trial_type": "html-keyboard-response", "trial_index": 66, "time_elapsed": 201944, "internal_node_id": "0.0-4.0-62.0"}}, {"uniqueid": "w10196801:a81702813", "current_trial": 67, "dateTime": 1664555318344, "trialdata": {"rt": 905, "stimulus": "<p id='stroop-text' class='stroop-yellow'>RED</p>", "response": "y", "stimulus-type": "incongruent", "word": "red", "color": "yellow", "correct_response": "y", "trial_id": "stroop-trial-1-incongruent-1", "trial_type": "html-keyboard-response", "trial_index": 67, "time_elapsed": 203365, "internal_node_id": "0.0-4.0-63.0"}}, {"uniqueid": "w10196801:a81702813", "current_trial": 68, "dateTime": 1664555319634, "trialdata": {"rt": 787, "stimulus": "<p id='stroop-text' class='stroop-blue'>GREEN</p>", "response": "b", "stimulus-type": "incongruent", "word": "green", "color": "blue", "correct_response": "b", "trial_id": "stroop-trial-1-incongruent-8", "trial_type": "html-keyboard-response", "trial_index": 68, "time_elapsed": 204655, "internal_node_id": "0.0-4.0-64.0"}}, {"uniqueid": "w10196801:a81702813", "current_trial": 69, "dateTime": 1664555320604, "trialdata": {"rt": 463, "stimulus": "<p id='stroop-text' class='stroop-blue'>STONE</p>", "response": "b", "stimulus-type": "unrelated", "word": "STONE", "color": "blue", "correct_response": "b", "trial_id": "stroop-trial-1-unrelated-2", "trial_type": "html-keyboard-response", "trial_index": 69, "time_elapsed": 205624, "internal_node_id": "0.0-4.0-65.0"}}, {"uniqueid": "w10196801:a81702813", "current_trial": 70, "dateTime": 1664555321933, "trialdata": {"rt": 827, "stimulus": "<p id='stroop-text' class='stroop-green'>BRIDGE</p>", "response": "g", "stimulus-type": "unrelated", "word": "BRIDGE", "color": "green", "correct_response": "g", "trial_id": "stroop-trial-1-unrelated-16", "trial_type": "html-keyboard-response", "trial_index": 70, "time_elapsed": 206954, "internal_node_id": "0.0-4.0-66.0"}}, {"uniqueid": "w10196801:a81702813", "current_trial": 71, "dateTime": 1664555323127, "trialdata": {"rt": 691, "stimulus": "<p id='stroop-text' class='stroop-red'>YELLOW</p>", "response": "r", "stimulus-type": "incongruent", "word": "yellow", "color": "red", "correct_response": "r", "trial_id": "stroop-trial-1-incongruent-16", "trial_type": "html-keyboard-response", "trial_index": 71, "time_elapsed": 208148, "internal_node_id": "0.0-4.0-67.0"}}, {"uniqueid": "w10196801:a81702813", "current_trial": 72, "dateTime": 1664555324251, "trialdata": {"rt": 622, "stimulus": "<p id='stroop-text' class='stroop-blue'>BLUE</p>", "response": "b", "stimulus-type": "congruent", "word": "blue", "color": "blue", "correct_response": "b", "trial_id": "stroop-trial-1-congruent-14", "trial_type": "html-keyboard-response", "trial_index": 72, "time_elapsed": 209272, "internal_node_id": "0.0-4.0-68.0"}}, {"uniqueid": "w10196801:a81702813", "current_trial": 73, "dateTime": 1664555325512, "trialdata": {"rt": 759, "stimulus": "<p id='stroop-text' class='stroop-yellow'>DOG</p>", "response": "y", "stimulus-type": "unrelated", "word": "DOG", "color": "yellow", "correct_response": "y", "trial_id": "stroop-trial-1-unrelated-3", "trial_type": "html-keyboard-response", "trial_index": 73, "time_elapsed": 210533, "internal_node_id": "0.0-4.0-69.0"}}, {"uniqueid": "w10196801:a81702813", "current_trial": 74, "dateTime": 1664555326665, "trialdata": {"rt": 650, "stimulus": "<p id='stroop-text' class='stroop-red'>RED</p>", "response": "r", "stimulus-type": "congruent", "word": "red", "color": "red", "correct_response": "r", "trial_id": "stroop-trial-1-congruent-30", "trial_type": "html-keyboard-response", "trial_index": 74, "time_elapsed": 211686, "internal_node_id": "0.0-4.0-70.0"}}, {"uniqueid": "w10196801:a81702813", "current_trial": 75, "dateTime": 1664555328796, "trialdata": {"rt": 1629, "stimulus": "<p id='stroop-text' class='stroop-green'>GREEN</p>", "response": "g", "stimulus-type": "congruent", "word": "green", "color": "green", "correct_response": "g", "trial_id": "stroop-trial-1-congruent-13", "trial_type": "html-keyboard-response", "trial_index": 75, "time_elapsed": 213817, "internal_node_id": "0.0-4.0-71.0"}}, {"uniqueid": "w10196801:a81702813", "current_trial": 76, "dateTime": 1664555329966, "trialdata": {"rt": 667, "stimulus": "<p id='stroop-text' class='stroop-red'>RED</p>", "response": "r", "stimulus-type": "congruent", "word": "red", "color": "red", "correct_response": "r", "trial_id": "stroop-trial-1-congruent-29", "trial_type": "html-keyboard-response", "trial_index": 76, "time_elapsed": 214987, "internal_node_id": "0.0-4.0-72.0"}}, {"uniqueid": "w10196801:a81702813", "current_trial": 77, "dateTime": 1664555331110, "trialdata": {"rt": 642, "stimulus": "<p id='stroop-text' class='stroop-red'>RED</p>", "response": "r", "stimulus-type": "congruent", "word": "red", "color": "red", "correct_response": "r", "trial_id": "stroop-trial-1-congruent-28", "trial_type": "html-keyboard-response", "trial_index": 77, "time_elapsed": 216131, "internal_node_id": "0.0-4.0-73.0"}}, {"uniqueid": "w10196801:a81702813", "current_trial": 78, "dateTime": 1664555332405, "trialdata": {"rt": 793, "stimulus": "<p id='stroop-text' class='stroop-blue'>STONE</p>", "response": "b", "stimulus-type": "unrelated", "word": "STONE", "color": "blue", "correct_response": "b", "trial_id": "stroop-trial-1-unrelated-19", "trial_type": "html-keyboard-response", "trial_index": 78, "time_elapsed": 217426, "internal_node_id": "0.0-4.0-74.0"}}, {"uniqueid": "w10196801:a81702813", "current_trial": 79, "dateTime": 1664555333616, "trialdata": {"rt": 707, "stimulus": "<p id='stroop-text' class='stroop-red'>RED</p>", "response": "r", "stimulus-type": "congruent", "word": "red", "color": "red", "correct_response": "r", "trial_id": "stroop-trial-1-congruent-10", "trial_type": "html-keyboard-response", "trial_index": 79, "time_elapsed": 218636, "internal_node_id": "0.0-4.0-75.0"}}, {"uniqueid": "w10196801:a81702813", "current_trial": 80, "dateTime": 1664555334965, "trialdata": {"rt": 847, "stimulus": "<p id='stroop-text' class='stroop-green'>BOAT</p>", "response": "g", "stimulus-type": "unrelated", "word": "BOAT", "color": "green", "correct_response": "g", "trial_id": "stroop-trial-1-unrelated-11", "trial_type": "html-keyboard-response", "trial_index": 80, "time_elapsed": 219986, "internal_node_id": "0.0-4.0-76.0"}}, {"uniqueid": "w10196801:a81702813", "current_trial": 81, "dateTime": 1664555336364, "trialdata": {"rt": 896, "stimulus": "<p id='stroop-text' class='stroop-yellow'>BRAIN</p>", "response": "y", "stimulus-type": "unrelated", "word": "BRAIN", "color": "yellow", "correct_response": "y", "trial_id": "stroop-trial-1-unrelated-18", "trial_type": "html-keyboard-response", "trial_index": 81, "time_elapsed": 221385, "internal_node_id": "0.0-4.0-77.0"}}, {"uniqueid": "w10196801:a81702813", "current_trial": 82, "dateTime": 1664555337408, "trialdata": {"rt": 541, "stimulus": "<p id='stroop-text' class='stroop-yellow'>YELLOW</p>", "response": "y", "stimulus-type": "congruent", "word": "yellow", "color": "yellow", "correct_response": "y", "trial_id": "stroop-trial-1-congruent-16", "trial_type": "html-keyboard-response", "trial_index": 82, "time_elapsed": 222429, "internal_node_id": "0.0-4.0-78.0"}}, {"uniqueid": "w10196801:a81702813", "current_trial": 83, "dateTime": 1664555338417, "trialdata": {"rt": 506, "stimulus": "<p id='stroop-text' class='stroop-yellow'>RED</p>", "response": "y", "stimulus-type": "incongruent", "word": "red", "color": "yellow", "correct_response": "y", "trial_id": "stroop-trial-1-incongruent-18", "trial_type": "html-keyboard-response", "trial_index": 83, "time_elapsed": 223437, "internal_node_id": "0.0-4.0-79.0"}}, {"uniqueid": "w10196801:a81702813", "current_trial": 84, "dateTime": 1664555339685, "trialdata": {"rt": 766, "stimulus": "<p id='stroop-text' class='stroop-green'>BLUE</p>", "response": "g", "stimulus-type": "incongruent", "word": "blue", "color": "green", "correct_response": "g", "trial_id": "stroop-trial-1-incongruent-27", "trial_type": "html-keyboard-response", "trial_index": 84, "time_elapsed": 224706, "internal_node_id": "0.0-4.0-80.0"}}, {"uniqueid": "w10196801:a81702813", "current_trial": 85, "dateTime": 1664555340767, "trialdata": {"rt": 580, "stimulus": "<p id='stroop-text' class='stroop-blue'>BLUE</p>", "response": "b", "stimulus-type": "congruent", "word": "blue", "color": "blue", "correct_response": "b", "trial_id": "stroop-trial-1-congruent-11", "trial_type": "html-keyboard-response", "trial_index": 85, "time_elapsed": 225788, "internal_node_id": "0.0-4.0-81.0"}}, {"uniqueid": "w10196801:a81702813", "current_trial": 86, "dateTime": 1664555342136, "trialdata": {"rt": 867, "stimulus": "<p id='stroop-text' class='stroop-blue'>MONKEY</p>", "response": "b", "stimulus-type": "unrelated", "word": "MONKEY", "color": "blue", "correct_response": "b", "trial_id": "stroop-trial-1-unrelated-12", "trial_type": "html-keyboard-response", "trial_index": 86, "time_elapsed": 227157, "internal_node_id": "0.0-4.0-82.0"}}, {"uniqueid": "w10196801:a81702813", "current_trial": 87, "dateTime": 1664555343438, "trialdata": {"rt": 801, "stimulus": "<p id='stroop-text' class='stroop-yellow'>CHAIR</p>", "response": "y", "stimulus-type": "unrelated", "word": "CHAIR", "color": "yellow", "correct_response": "y", "trial_id": "stroop-trial-1-unrelated-22", "trial_type": "html-keyboard-response", "trial_index": 87, "time_elapsed": 228459, "internal_node_id": "0.0-4.0-83.0"}}, {"uniqueid": "w10196801:a81702813", "current_trial": 88, "dateTime": 1664555344594, "trialdata": {"rt": 652, "stimulus": "<p id='stroop-text' class='stroop-red'>FORK</p>", "response": "r", "stimulus-type": "unrelated", "word": "FORK", "color": "red", "correct_response": "r", "trial_id": "stroop-trial-1-unrelated-24", "trial_type": "html-keyboard-response", "trial_index": 88, "time_elapsed": 229614, "internal_node_id": "0.0-4.0-84.0"}}, {"uniqueid": "w10196801:a81702813", "current_trial": 89, "dateTime": 1664555345823, "trialdata": {"rt": 726, "stimulus": "<p id='stroop-text' class='stroop-blue'>BOTTLE</p>", "response": "b", "stimulus-type": "unrelated", "word": "BOTTLE", "color": "blue", "correct_response": "b", "trial_id": "stroop-trial-1-unrelated-6", "trial_type": "html-keyboard-response", "trial_index": 89, "time_elapsed": 230844, "internal_node_id": "0.0-4.0-85.0"}}, {"uniqueid": "w10196801:a81702813", "current_trial": 90, "dateTime": 1664555346928, "trialdata": {"rt": 604, "stimulus": "<p id='stroop-text' class='stroop-red'>RED</p>", "response": "r", "stimulus-type": "congruent", "word": "red", "color": "red", "correct_response": "r", "trial_id": "stroop-trial-1-congruent-15", "trial_type": "html-keyboard-response", "trial_index": 90, "time_elapsed": 231949, "internal_node_id": "0.0-4.0-86.0"}}, {"uniqueid": "w10196801:a81702813", "current_trial": 91, "dateTime": 1664555347974, "trialdata": {"rt": 543, "stimulus": "<p id='stroop-text' class='stroop-red'>RED</p>", "response": "r", "stimulus-type": "congruent", "word": "red", "color": "red", "correct_response": "r", "trial_id": "stroop-trial-1-congruent-3", "trial_type": "html-keyboard-response", "trial_index": 91, "time_elapsed": 232995, "internal_node_id": "0.0-4.0-87.0"}}, {"uniqueid": "w10196801:a81702813", "current_trial": 92, "dateTime": 1664555348946, "trialdata": {"rt": 470, "stimulus": "<p id='stroop-text' class='stroop-red'>RED</p>", "response": "r", "stimulus-type": "congruent", "word": "red", "color": "red", "correct_response": "r", "trial_id": "stroop-trial-1-congruent-19", "trial_type": "html-keyboard-response", "trial_index": 92, "time_elapsed": 233967, "internal_node_id": "0.0-4.0-88.0"}}, {"uniqueid": "w10196801:a81702813", "current_trial": 93, "dateTime": 1664555350156, "trialdata": {"rt": 707, "stimulus": "<p id='stroop-text' class='stroop-green'>BRIDGE</p>", "response": "g", "stimulus-type": "unrelated", "word": "BRIDGE", "color": "green", "correct_response": "g", "trial_id": "stroop-trial-1-unrelated-29", "trial_type": "html-keyboard-response", "trial_index": 93, "time_elapsed": 235177, "internal_node_id": "0.0-4.0-89.0"}}, {"uniqueid": "w10196801:a81702813", "current_trial": 94, "dateTime": 1664555356125, "trialdata": {"rt": 5467, "stimulus": "  <h1> End of block! </h1>\n\n  You have reached the end of the block 1/5. If you need a short break, feel free to take one now before moving on.\n\n  <br><br>\n  In the next block, you will complete another 90 rounds of this game.\n\n  <br><br>\n  <div style='text-align: center;'>Press <code>space</code> to begin.</div>\n  <br><br>\n<div style='text-align: center;'>(If the experiment doesn't continue, try clicking on the text and then pressing <code>space</code>.)</div>", "response": " ", "trial_id": "stroop_1_ready_2", "trial_type": "html-keyboard-response", "trial_index": 94, "time_elapsed": 241146, "internal_node_id": "0.0-5.0"}}, {"uniqueid": "w10196801:a81702813", "current_trial": 95, "dateTime": 1664555357036, "trialdata": {"rt": 908, "stimulus": "<p id='stroop-text' class='stroop-blue'>SHIP</p>", "response": "b", "stimulus-type": "unrelated", "word": "SHIP", "color": "blue", "correct_response": "b", "trial_id": "stroop-trial-1-unrelated-10", "trial_type": "html-keyboard-response", "trial_index": 95, "time_elapsed": 242056, "internal_node_id": "0.0-6.0-0.0"}}, {"uniqueid": "w10196801:a81702813", "current_trial": 96, "dateTime": 1664555358005, "trialdata": {"rt": 466, "stimulus": "<p id='stroop-text' class='stroop-blue'>BLUE</p>", "response": "b", "stimulus-type": "congruent", "word": "blue", "color": "blue", "correct_response": "b", "trial_id": "stroop-trial-1-congruent-3", "trial_type": "html-keyboard-response", "trial_index": 96, "time_elapsed": 243026, "internal_node_id": "0.0-6.0-1.0"}}, {"uniqueid": "w10196801:a81702813", "current_trial": 97, "dateTime": 1664555359449, "trialdata": {"rt": 942, "stimulus": "<p id='stroop-text' class='stroop-green'>BOTTLE</p>", "response": "g", "stimulus-type": "unrelated", "word": "BOTTLE", "color": "green", "correct_response": "g", "trial_id": "stroop-trial-1-unrelated-13", "trial_type": "html-keyboard-response", "trial_index": 97, "time_elapsed": 244470, "internal_node_id": "0.0-6.0-2.0"}}, {"uniqueid": "w10196801:a81702813", "current_trial": 98, "dateTime": 1664555360409, "trialdata": {"rt": 458, "stimulus": "<p id='stroop-text' class='stroop-green'>GREEN</p>", "response": "g", "stimulus-type": "congruent", "word": "green", "color": "green", "correct_response": "g", "trial_id": "stroop-trial-1-congruent-19", "trial_type": "html-keyboard-response", "trial_index": 98, "time_elapsed": 245429, "internal_node_id": "0.0-6.0-3.0"}}, {"uniqueid": "w10196801:a81702813", "current_trial": 99, "dateTime": 1664555361295, "trialdata": {"rt": 383, "stimulus": "<p id='stroop-text' class='stroop-green'>GREEN</p>", "response": "g", "stimulus-type": "congruent", "word": "green", "color": "green", "correct_response": "g", "trial_id": "stroop-trial-1-congruent-23", "trial_type": "html-keyboard-response", "trial_index": 99, "time_elapsed": 246316, "internal_node_id": "0.0-6.0-4.0"}}, {"uniqueid": "w10196801:a81702813", "current_trial": 100, "dateTime": 1664555362441, "trialdata": {"rt": 643, "stimulus": "<p id='stroop-text' class='stroop-blue'>GREEN</p>", "response": "b", "stimulus-type": "incongruent", "word": "green", "color": "blue", "correct_response": "b", "trial_id": "stroop-trial-1-incongruent-23", "trial_type": "html-keyboard-response", "trial_index": 100, "time_elapsed": 247461, "internal_node_id": "0.0-6.0-5.0"}}, {"uniqueid": "w10196801:a81702813", "current_trial": 101, "dateTime": 1664555363514, "trialdata": {"rt": 570, "stimulus": "<p id='stroop-text' class='stroop-red'>RED</p>", "response": "r", "stimulus-type": "congruent", "word": "red", "color": "red", "correct_response": "r", "trial_id": "stroop-trial-1-congruent-5", "trial_type": "html-keyboard-response", "trial_index": 101, "time_elapsed": 248535, "internal_node_id": "0.0-6.0-6.0"}}, {"uniqueid": "w10196801:a81702813", "current_trial": 102, "dateTime": 1664555364636, "trialdata": {"rt": 620, "stimulus": "<p id='stroop-text' class='stroop-blue'>BRAIN</p>", "response": "b", "stimulus-type": "unrelated", "word": "BRAIN", "color": "blue", "correct_response": "b", "trial_id": "stroop-trial-1-unrelated-21", "trial_type": "html-keyboard-response", "trial_index": 102, "time_elapsed": 249657, "internal_node_id": "0.0-6.0-7.0"}}, {"uniqueid": "w10196801:a81702813", "current_trial": 103, "dateTime": 1664555365624, "trialdata": {"rt": 487, "stimulus": "<p id='stroop-text' class='stroop-yellow'>RED</p>", "response": "y", "stimulus-type": "incongruent", "word": "red", "color": "yellow", "correct_response": "y", "trial_id": "stroop-trial-1-incongruent-2", "trial_type": "html-keyboard-response", "trial_index": 103, "time_elapsed": 250645, "internal_node_id": "0.0-6.0-8.0"}}, {"uniqueid": "w10196801:a81702813", "current_trial": 104, "dateTime": 1664555367338, "trialdata": {"rt": 1210, "stimulus": "<p id='stroop-text' class='stroop-blue'>BLUE</p>", "response": "b", "stimulus-type": "congruent", "word": "blue", "color": "blue", "correct_response": "b", "trial_id": "stroop-trial-1-congruent-13", "trial_type": "html-keyboard-response", "trial_index": 104, "time_elapsed": 252359, "internal_node_id": "0.0-6.0-9.0"}}, {"uniqueid": "w10196801:a81702813", "current_trial": 105, "dateTime": 1664555368466, "trialdata": {"rt": 626, "stimulus": "<p id='stroop-text' class='stroop-red'>RED</p>", "response": "r", "stimulus-type": "congruent", "word": "red", "color": "red", "correct_response": "r", "trial_id": "stroop-trial-1-congruent-24", "trial_type": "html-keyboard-response", "trial_index": 105, "time_elapsed": 253487, "internal_node_id": "0.0-6.0-10.0"}}, {"uniqueid": "w10196801:a81702813", "current_trial": 106, "dateTime": 1664555369679, "trialdata": {"rt": 711, "stimulus": "<p id='stroop-text' class='stroop-green'>BOAT</p>", "response": "g", "stimulus-type": "unrelated", "word": "BOAT", "color": "green", "correct_response": "g", "trial_id": "stroop-trial-1-unrelated-18", "trial_type": "html-keyboard-response", "trial_index": 106, "time_elapsed": 254700, "internal_node_id": "0.0-6.0-11.0"}}, {"uniqueid": "w10196801:a81702813", "current_trial": 107, "dateTime": 1664555370842, "trialdata": {"rt": 660, "stimulus": "<p id='stroop-text' class='stroop-red'>RED</p>", "response": "r", "stimulus-type": "congruent", "word": "red", "color": "red", "correct_response": "r", "trial_id": "stroop-trial-1-congruent-1", "trial_type": "html-keyboard-response", "trial_index": 107, "time_elapsed": 255862, "internal_node_id": "0.0-6.0-12.0"}}, {"uniqueid": "w10196801:a81702813", "current_trial": 108, "dateTime": 1664555371777, "trialdata": {"rt": 431, "stimulus": "<p id='stroop-text' class='stroop-red'>YELLOW</p>", "response": "r", "stimulus-type": "incongruent", "word": "yellow", "color": "red", "correct_response": "r", "trial_id": "stroop-trial-1-incongruent-1", "trial_type": "html-keyboard-response", "trial_index": 108, "time_elapsed": 256797, "internal_node_id": "0.0-6.0-13.0"}}, {"uniqueid": "w10196801:a81702813", "current_trial": 109, "dateTime": 1664555372735, "trialdata": {"rt": 457, "stimulus": "<p id='stroop-text' class='stroop-red'>RED</p>", "response": "r", "stimulus-type": "congruent", "word": "red", "color": "red", "correct_response": "r", "trial_id": "stroop-trial-1-congruent-17", "trial_type": "html-keyboard-response", "trial_index": 109, "time_elapsed": 257756, "internal_node_id": "0.0-6.0-14.0"}}, {"uniqueid": "w10196801:a81702813", "current_trial": 110, "dateTime": 1664555374056, "trialdata": {"rt": 813, "stimulus": "<p id='stroop-text' class='stroop-blue'>GREEN</p>", "response": "b", "stimulus-type": "incongruent", "word": "green", "color": "blue", "correct_response": "b", "trial_id": "stroop-trial-1-incongruent-8", "trial_type": "html-keyboard-response", "trial_index": 110, "time_elapsed": 259077, "internal_node_id": "0.0-6.0-15.0"}}, {"uniqueid": "w10196801:a81702813", "current_trial": 111, "dateTime": 1664555375403, "trialdata": {"rt": 843, "stimulus": "<p id='stroop-text' class='stroop-yellow'>BRIDGE</p>", "response": "y", "stimulus-type": "unrelated", "word": "BRIDGE", "color": "yellow", "correct_response": "y", "trial_id": "stroop-trial-1-unrelated-11", "trial_type": "html-keyboard-response", "trial_index": 111, "time_elapsed": 260424, "internal_node_id": "0.0-6.0-16.0"}}, {"uniqueid": "w10196801:a81702813", "current_trial": 112, "dateTime": 1664555376531, "trialdata": {"rt": 626, "stimulus": "<p id='stroop-text' class='stroop-red'>BLUE</p>", "response": "r", "stimulus-type": "incongruent", "word": "blue", "color": "red", "correct_response": "r", "trial_id": "stroop-trial-1-incongruent-25", "trial_type": "html-keyboard-response", "trial_index": 112, "time_elapsed": 261552, "internal_node_id": "0.0-6.0-17.0"}}, {"uniqueid": "w10196801:a81702813", "current_trial": 113, "dateTime": 1664555377703, "trialdata": {"rt": 669, "stimulus": "<p id='stroop-text' class='stroop-green'>STONE</p>", "response": "g", "stimulus-type": "unrelated", "word": "STONE", "color": "green", "correct_response": "g", "trial_id": "stroop-trial-1-unrelated-25", "trial_type": "html-keyboard-response", "trial_index": 113, "time_elapsed": 262723, "internal_node_id": "0.0-6.0-18.0"}}, {"uniqueid": "w10196801:a81702813", "current_trial": 114, "dateTime": 1664555378734, "trialdata": {"rt": 529, "stimulus": "<p id='stroop-text' class='stroop-blue'>BLUE</p>", "response": "b", "stimulus-type": "congruent", "word": "blue", "color": "blue", "correct_response": "b", "trial_id": "stroop-trial-1-congruent-4", "trial_type": "html-keyboard-response", "trial_index": 114, "time_elapsed": 263755, "internal_node_id": "0.0-6.0-19.0"}}, {"uniqueid": "w10196801:a81702813", "current_trial": 115, "dateTime": 1664555379996, "trialdata": {"rt": 760, "stimulus": "<p id='stroop-text' class='stroop-yellow'>RED</p>", "response": "y", "stimulus-type": "incongruent", "word": "red", "color": "yellow", "correct_response": "y", "trial_id": "stroop-trial-1-incongruent-28", "trial_type": "html-keyboard-response", "trial_index": 115, "time_elapsed": 265017, "internal_node_id": "0.0-6.0-20.0"}}, {"uniqueid": "w10196801:a81702813", "current_trial": 116, "dateTime": 1664555381085, "trialdata": {"rt": 586, "stimulus": "<p id='stroop-text' class='stroop-red'>RED</p>", "response": "r", "stimulus-type": "congruent", "word": "red", "color": "red", "correct_response": "r", "trial_id": "stroop-trial-1-congruent-12", "trial_type": "html-keyboard-response", "trial_index": 116, "time_elapsed": 266106, "internal_node_id": "0.0-6.0-21.0"}}, {"uniqueid": "w10196801:a81702813", "current_trial": 117, "dateTime": 1664555382048, "trialdata": {"rt": 460, "stimulus": "<p id='stroop-text' class='stroop-red'>RED</p>", "response": "r", "stimulus-type": "congruent", "word": "red", "color": "red", "correct_response": "r", "trial_id": "stroop-trial-1-congruent-16", "trial_type": "html-keyboard-response", "trial_index": 117, "time_elapsed": 267068, "internal_node_id": "0.0-6.0-22.0"}}, {"uniqueid": "w10196801:a81702813", "current_trial": 118, "dateTime": 1664555383024, "trialdata": {"rt": 473, "stimulus": "<p id='stroop-text' class='stroop-red'>BOAT</p>", "response": "r", "stimulus-type": "unrelated", "word": "BOAT", "color": "red", "correct_response": "r", "trial_id": "stroop-trial-1-unrelated-4", "trial_type": "html-keyboard-response", "trial_index": 118, "time_elapsed": 268044, "internal_node_id": "0.0-6.0-23.0"}}, {"uniqueid": "w10196801:a81702813", "current_trial": 119, "dateTime": 1664555384162, "trialdata": {"rt": 636, "stimulus": "<p id='stroop-text' class='stroop-yellow'>YELLOW</p>", "response": "y", "stimulus-type": "congruent", "word": "yellow", "color": "yellow", "correct_response": "y", "trial_id": "stroop-trial-1-congruent-7", "trial_type": "html-keyboard-response", "trial_index": 119, "time_elapsed": 269182, "internal_node_id": "0.0-6.0-24.0"}}, {"uniqueid": "w10196801:a81702813", "current_trial": 120, "dateTime": 1664555385591, "trialdata": {"rt": 928, "stimulus": "<p id='stroop-text' class='stroop-red'>GREEN</p>", "response": "r", "stimulus-type": "incongruent", "word": "green", "color": "red", "correct_response": "r", "trial_id": "stroop-trial-1-incongruent-11", "trial_type": "html-keyboard-response", "trial_index": 120, "time_elapsed": 270612, "internal_node_id": "0.0-6.0-25.0"}}, {"uniqueid": "w10196801:a81702813", "current_trial": 121, "dateTime": 1664555387172, "trialdata": {"rt": 1078, "stimulus": "<p id='stroop-text' class='stroop-green'>BLUE</p>", "response": "g", "stimulus-type": "incongruent", "word": "blue", "color": "green", "correct_response": "g", "trial_id": "stroop-trial-1-incongruent-29", "trial_type": "html-keyboard-response", "trial_index": 121, "time_elapsed": 272192, "internal_node_id": "0.0-6.0-26.0"}}, {"uniqueid": "w10196801:a81702813", "current_trial": 122, "dateTime": 1664555388286, "trialdata": {"rt": 611, "stimulus": "<p id='stroop-text' class='stroop-yellow'>YELLOW</p>", "response": "y", "stimulus-type": "congruent", "word": "yellow", "color": "yellow", "correct_response": "y", "trial_id": "stroop-trial-1-congruent-21", "trial_type": "html-keyboard-response", "trial_index": 122, "time_elapsed": 273306, "internal_node_id": "0.0-6.0-27.0"}}, {"uniqueid": "w10196801:a81702813", "current_trial": 123, "dateTime": 1664555389521, "trialdata": {"rt": 733, "stimulus": "<p id='stroop-text' class='stroop-red'>MONKEY</p>", "response": "r", "stimulus-type": "unrelated", "word": "MONKEY", "color": "red", "correct_response": "r", "trial_id": "stroop-trial-1-unrelated-17", "trial_type": "html-keyboard-response", "trial_index": 123, "time_elapsed": 274542, "internal_node_id": "0.0-6.0-28.0"}}, {"uniqueid": "w10196801:a81702813", "current_trial": 124, "dateTime": 1664555390761, "trialdata": {"rt": 737, "stimulus": "<p id='stroop-text' class='stroop-blue'>STONE</p>", "response": "b", "stimulus-type": "unrelated", "word": "STONE", "color": "blue", "correct_response": "b", "trial_id": "stroop-trial-1-unrelated-27", "trial_type": "html-keyboard-response", "trial_index": 124, "time_elapsed": 275782, "internal_node_id": "0.0-6.0-29.0"}}, {"uniqueid": "w10196801:a81702813", "current_trial": 125, "dateTime": 1664555392692, "trialdata": {"rt": 1428, "stimulus": "<p id='stroop-text' class='stroop-green'>SHIP</p>", "response": "g", "stimulus-type": "unrelated", "word": "SHIP", "color": "green", "correct_response": "g", "trial_id": "stroop-trial-1-unrelated-29", "trial_type": "html-keyboard-response", "trial_index": 125, "time_elapsed": 277712, "internal_node_id": "0.0-6.0-30.0"}}, {"uniqueid": "w10196801:a81702813", "current_trial": 126, "dateTime": 1664555393719, "trialdata": {"rt": 525, "stimulus": "<p id='stroop-text' class='stroop-red'>RED</p>", "response": "r", "stimulus-type": "congruent", "word": "red", "color": "red", "correct_response": "r", "trial_id": "stroop-trial-1-congruent-22", "trial_type": "html-keyboard-response", "trial_index": 126, "time_elapsed": 278740, "internal_node_id": "0.0-6.0-31.0"}}, {"uniqueid": "w10196801:a81702813", "current_trial": 127, "dateTime": 1664555395275, "trialdata": {"rt": 1052, "stimulus": "<p id='stroop-text' class='stroop-blue'>RED</p>", "response": "b", "stimulus-type": "incongruent", "word": "red", "color": "blue", "correct_response": "b", "trial_id": "stroop-trial-1-incongruent-22", "trial_type": "html-keyboard-response", "trial_index": 127, "time_elapsed": 280295, "internal_node_id": "0.0-6.0-32.0"}}, {"uniqueid": "w10196801:a81702813", "current_trial": 128, "dateTime": 1664555396362, "trialdata": {"rt": 583, "stimulus": "<p id='stroop-text' class='stroop-blue'>YELLOW</p>", "response": "b", "stimulus-type": "incongruent", "word": "yellow", "color": "blue", "correct_response": "b", "trial_id": "stroop-trial-1-incongruent-12", "trial_type": "html-keyboard-response", "trial_index": 128, "time_elapsed": 281383, "internal_node_id": "0.0-6.0-33.0"}}, {"uniqueid": "w10196801:a81702813", "current_trial": 129, "dateTime": 1664555398466, "trialdata": {"rt": 1601, "stimulus": "<p id='stroop-text' class='stroop-yellow'>BOAT</p>", "response": "y", "stimulus-type": "unrelated", "word": "BOAT", "color": "yellow", "correct_response": "y", "trial_id": "stroop-trial-1-unrelated-9", "trial_type": "html-keyboard-response", "trial_index": 129, "time_elapsed": 283487, "internal_node_id": "0.0-6.0-34.0"}}, {"uniqueid": "w10196801:a81702813", "current_trial": 130, "dateTime": 1664555400464, "trialdata": {"rt": 1496, "stimulus": "<p id='stroop-text' class='stroop-blue'>YELLOW</p>", "response": "b", "stimulus-type": "incongruent", "word": "yellow", "color": "blue", "correct_response": "b", "trial_id": "stroop-trial-1-incongruent-13", "trial_type": "html-keyboard-response", "trial_index": 130, "time_elapsed": 285485, "internal_node_id": "0.0-6.0-35.0"}}, {"uniqueid": "w10196801:a81702813", "current_trial": 131, "dateTime": 1664555401909, "trialdata": {"rt": 941, "stimulus": "<p id='stroop-text' class='stroop-green'>BRAIN</p>", "response": "g", "stimulus-type": "unrelated", "word": "BRAIN", "color": "green", "correct_response": "g", "trial_id": "stroop-trial-1-unrelated-23", "trial_type": "html-keyboard-response", "trial_index": 131, "time_elapsed": 286929, "internal_node_id": "0.0-6.0-36.0"}}, {"uniqueid": "w10196801:a81702813", "current_trial": 132, "dateTime": 1664555403024, "trialdata": {"rt": 612, "stimulus": "<p id='stroop-text' class='stroop-yellow'>YELLOW</p>", "response": "y", "stimulus-type": "congruent", "word": "yellow", "color": "yellow", "correct_response": "y", "trial_id": "stroop-trial-1-congruent-25", "trial_type": "html-keyboard-response", "trial_index": 132, "time_elapsed": 288045, "internal_node_id": "0.0-6.0-37.0"}}, {"uniqueid": "w10196801:a81702813", "current_trial": 133, "dateTime": 1664555404291, "trialdata": {"rt": 764, "stimulus": "<p id='stroop-text' class='stroop-red'>GREEN</p>", "response": "r", "stimulus-type": "incongruent", "word": "green", "color": "red", "correct_response": "r", "trial_id": "stroop-trial-1-incongruent-10", "trial_type": "html-keyboard-response", "trial_index": 133, "time_elapsed": 289311, "internal_node_id": "0.0-6.0-38.0"}}, {"uniqueid": "w10196801:a81702813", "current_trial": 134, "dateTime": 1664555405264, "trialdata": {"rt": 471, "stimulus": "<p id='stroop-text' class='stroop-red'>RED</p>", "response": "r", "stimulus-type": "congruent", "word": "red", "color": "red", "correct_response": "r", "trial_id": "stroop-trial-1-congruent-2", "trial_type": "html-keyboard-response", "trial_index": 134, "time_elapsed": 290285, "internal_node_id": "0.0-6.0-39.0"}}, {"uniqueid": "w10196801:a81702813", "current_trial": 135, "dateTime": 1664555406677, "trialdata": {"rt": 910, "stimulus": "<p id='stroop-text' class='stroop-blue'>BOTTLE</p>", "response": "b", "stimulus-type": "unrelated", "word": "BOTTLE", "color": "blue", "correct_response": "b", "trial_id": "stroop-trial-1-unrelated-14", "trial_type": "html-keyboard-response", "trial_index": 135, "time_elapsed": 291697, "internal_node_id": "0.0-6.0-40.0"}}, {"uniqueid": "w10196801:a81702813", "current_trial": 136, "dateTime": 1664555407840, "trialdata": {"rt": 660, "stimulus": "<p id='stroop-text' class='stroop-yellow'>BOAT</p>", "response": "y", "stimulus-type": "unrelated", "word": "BOAT", "color": "yellow", "correct_response": "y", "trial_id": "stroop-trial-1-unrelated-30", "trial_type": "html-keyboard-response", "trial_index": 136, "time_elapsed": 292860, "internal_node_id": "0.0-6.0-41.0"}}, {"uniqueid": "w10196801:a81702813", "current_trial": 137, "dateTime": 1664555409034, "trialdata": {"rt": 692, "stimulus": "<p id='stroop-text' class='stroop-green'>GREEN</p>", "response": "g", "stimulus-type": "congruent", "word": "green", "color": "green", "correct_response": "g", "trial_id": "stroop-trial-1-congruent-28", "trial_type": "html-keyboard-response", "trial_index": 137, "time_elapsed": 294055, "internal_node_id": "0.0-6.0-42.0"}}, {"uniqueid": "w10196801:a81702813", "current_trial": 138, "dateTime": 1664555410097, "trialdata": {"rt": 560, "stimulus": "<p id='stroop-text' class='stroop-blue'>BLUE</p>", "response": "b", "stimulus-type": "congruent", "word": "blue", "color": "blue", "correct_response": "b", "trial_id": "stroop-trial-1-congruent-20", "trial_type": "html-keyboard-response", "trial_index": 138, "time_elapsed": 295118, "internal_node_id": "0.0-6.0-43.0"}}, {"uniqueid": "w10196801:a81702813", "current_trial": 139, "dateTime": 1664555411242, "trialdata": {"rt": 642, "stimulus": "<p id='stroop-text' class='stroop-yellow'>YELLOW</p>", "response": "y", "stimulus-type": "congruent", "word": "yellow", "color": "yellow", "correct_response": "y", "trial_id": "stroop-trial-1-congruent-14", "trial_type": "html-keyboard-response", "trial_index": 139, "time_elapsed": 296263, "internal_node_id": "0.0-6.0-44.0"}}, {"uniqueid": "w10196801:a81702813", "current_trial": 140, "dateTime": 1664555412449, "trialdata": {"rt": 703, "stimulus": "<p id='stroop-text' class='stroop-blue'>YELLOW</p>", "response": "b", "stimulus-type": "incongruent", "word": "yellow", "color": "blue", "correct_response": "b", "trial_id": "stroop-trial-1-incongruent-6", "trial_type": "html-keyboard-response", "trial_index": 140, "time_elapsed": 297470, "internal_node_id": "0.0-6.0-45.0"}}, {"uniqueid": "w10196801:a81702813", "current_trial": 141, "dateTime": 1664555413945, "trialdata": {"rt": 993, "stimulus": "<p id='stroop-text' class='stroop-yellow'>GREEN</p>", "response": "y", "stimulus-type": "incongruent", "word": "green", "color": "yellow", "correct_response": "y", "trial_id": "stroop-trial-1-incongruent-17", "trial_type": "html-keyboard-response", "trial_index": 141, "time_elapsed": 298966, "internal_node_id": "0.0-6.0-46.0"}}, {"uniqueid": "w10196801:a81702813", "current_trial": 142, "dateTime": 1664555415081, "trialdata": {"rt": 634, "stimulus": "<p id='stroop-text' class='stroop-yellow'>BOTTLE</p>", "response": "y", "stimulus-type": "unrelated", "word": "BOTTLE", "color": "yellow", "correct_response": "y", "trial_id": "stroop-trial-1-unrelated-22", "trial_type": "html-keyboard-response", "trial_index": 142, "time_elapsed": 300102, "internal_node_id": "0.0-6.0-47.0"}}, {"uniqueid": "w10196801:a81702813", "current_trial": 143, "dateTime": 1664555416175, "trialdata": {"rt": 591, "stimulus": "<p id='stroop-text' class='stroop-red'>RED</p>", "response": "r", "stimulus-type": "congruent", "word": "red", "color": "red", "correct_response": "r", "trial_id": "stroop-trial-1-congruent-29", "trial_type": "html-keyboard-response", "trial_index": 143, "time_elapsed": 301195, "internal_node_id": "0.0-6.0-48.0"}}, {"uniqueid": "w10196801:a81702813", "current_trial": 144, "dateTime": 1664555417165, "trialdata": {"rt": 486, "stimulus": "<p id='stroop-text' class='stroop-red'>WINDOW</p>", "response": "r", "stimulus-type": "unrelated", "word": "WINDOW", "color": "red", "correct_response": "r", "trial_id": "stroop-trial-1-unrelated-7", "trial_type": "html-keyboard-response", "trial_index": 144, "time_elapsed": 302186, "internal_node_id": "0.0-6.0-49.0"}}, {"uniqueid": "w10196801:a81702813", "current_trial": 145, "dateTime": 1664555418511, "trialdata": {"rt": 844, "stimulus": "<p id='stroop-text' class='stroop-blue'>GREEN</p>", "response": "b", "stimulus-type": "incongruent", "word": "green", "color": "blue", "correct_response": "b", "trial_id": "stroop-trial-1-incongruent-27", "trial_type": "html-keyboard-response", "trial_index": 145, "time_elapsed": 303532, "internal_node_id": "0.0-6.0-50.0"}}, {"uniqueid": "w10196801:a81702813", "current_trial": 146, "dateTime": 1664555419674, "trialdata": {"rt": 661, "stimulus": "<p id='stroop-text' class='stroop-yellow'>BOTTLE</p>", "response": "y", "stimulus-type": "unrelated", "word": "BOTTLE", "color": "yellow", "correct_response": "y", "trial_id": "stroop-trial-1-unrelated-15", "trial_type": "html-keyboard-response", "trial_index": 146, "time_elapsed": 304695, "internal_node_id": "0.0-6.0-51.0"}}, {"uniqueid": "w10196801:a81702813", "current_trial": 147, "dateTime": 1664555421573, "trialdata": {"rt": 1394, "stimulus": "<p id='stroop-text' class='stroop-green'>BRIDGE</p>", "response": "g", "stimulus-type": "unrelated", "word": "BRIDGE", "color": "green", "correct_response": "g", "trial_id": "stroop-trial-1-unrelated-5", "trial_type": "html-keyboard-response", "trial_index": 147, "time_elapsed": 306594, "internal_node_id": "0.0-6.0-52.0"}}, {"uniqueid": "w10196801:a81702813", "current_trial": 148, "dateTime": 1664555422708, "trialdata": {"rt": 633, "stimulus": "<p id='stroop-text' class='stroop-red'>YELLOW</p>", "response": "r", "stimulus-type": "incongruent", "word": "yellow", "color": "red", "correct_response": "r", "trial_id": "stroop-trial-1-incongruent-20", "trial_type": "html-keyboard-response", "trial_index": 148, "time_elapsed": 307729, "internal_node_id": "0.0-6.0-53.0"}}, {"uniqueid": "w10196801:a81702813", "current_trial": 149, "dateTime": 1664555424021, "trialdata": {"rt": 810, "stimulus": "<p id='stroop-text' class='stroop-blue'>FORK</p>", "response": "b", "stimulus-type": "unrelated", "word": "FORK", "color": "blue", "correct_response": "b", "trial_id": "stroop-trial-1-unrelated-8", "trial_type": "html-keyboard-response", "trial_index": 149, "time_elapsed": 309042, "internal_node_id": "0.0-6.0-54.0"}}, {"uniqueid": "w10196801:a81702813", "current_trial": 150, "dateTime": 1664555425670, "trialdata": {"rt": 1146, "stimulus": "<p id='stroop-text' class='stroop-green'>RED</p>", "response": "g", "stimulus-type": "incongruent", "word": "red", "color": "green", "correct_response": "g", "trial_id": "stroop-trial-1-incongruent-18", "trial_type": "html-keyboard-response", "trial_index": 150, "time_elapsed": 310691, "internal_node_id": "0.0-6.0-55.0"}}, {"uniqueid": "w10196801:a81702813", "current_trial": 151, "dateTime": 1664555426745, "trialdata": {"rt": 573, "stimulus": "<p id='stroop-text' class='stroop-blue'>RED</p>", "response": "b", "stimulus-type": "incongruent", "word": "red", "color": "blue", "correct_response": "b", "trial_id": "stroop-trial-1-incongruent-5", "trial_type": "html-keyboard-response", "trial_index": 151, "time_elapsed": 311766, "internal_node_id": "0.0-6.0-56.0"}}, {"uniqueid": "w10196801:a81702813", "current_trial": 152, "dateTime": 1664555427685, "trialdata": {"rt": 436, "stimulus": "<p id='stroop-text' class='stroop-blue'>GREEN</p>", "response": "b", "stimulus-type": "incongruent", "word": "green", "color": "blue", "correct_response": "b", "trial_id": "stroop-trial-1-incongruent-26", "trial_type": "html-keyboard-response", "trial_index": 152, "time_elapsed": 312705, "internal_node_id": "0.0-6.0-57.0"}}, {"uniqueid": "w10196801:a81702813", "current_trial": 153, "dateTime": 1664555428741, "trialdata": {"rt": 554, "stimulus": "<p id='stroop-text' class='stroop-red'>RED</p>", "response": "r", "stimulus-type": "congruent", "word": "red", "color": "red", "correct_response": "r", "trial_id": "stroop-trial-1-congruent-6", "trial_type": "html-keyboard-response", "trial_index": 153, "time_elapsed": 313762, "internal_node_id": "0.0-6.0-58.0"}}, {"uniqueid": "w10196801:a81702813", "current_trial": 154, "dateTime": 1664555429796, "trialdata": {"rt": 552, "stimulus": "<p id='stroop-text' class='stroop-blue'>BLUE</p>", "response": "b", "stimulus-type": "congruent", "word": "blue", "color": "blue", "correct_response": "b", "trial_id": "stroop-trial-1-congruent-30", "trial_type": "html-keyboard-response", "trial_index": 154, "time_elapsed": 314817, "internal_node_id": "0.0-6.0-59.0"}}, {"uniqueid": "w10196801:a81702813", "current_trial": 155, "dateTime": 1664555431131, "trialdata": {"rt": 832, "stimulus": "<p id='stroop-text' class='stroop-red'>BLUE</p>", "response": "r", "stimulus-type": "incongruent", "word": "blue", "color": "red", "correct_response": "r", "trial_id": "stroop-trial-1-incongruent-14", "trial_type": "html-keyboard-response", "trial_index": 155, "time_elapsed": 316151, "internal_node_id": "0.0-6.0-60.0"}}, {"uniqueid": "w10196801:a81702813", "current_trial": 156, "dateTime": 1664555432367, "trialdata": {"rt": 733, "stimulus": "<p id='stroop-text' class='stroop-blue'>YELLOW</p>", "response": "b", "stimulus-type": "incongruent", "word": "yellow", "color": "blue", "correct_response": "b", "trial_id": "stroop-trial-1-incongruent-4", "trial_type": "html-keyboard-response", "trial_index": 156, "time_elapsed": 317388, "internal_node_id": "0.0-6.0-61.0"}}, {"uniqueid": "w10196801:a81702813", "current_trial": 157, "dateTime": 1664555433659, "trialdata": {"rt": 788, "stimulus": "<p id='stroop-text' class='stroop-blue'>YELLOW</p>", "response": "b", "stimulus-type": "incongruent", "word": "yellow", "color": "blue", "correct_response": "b", "trial_id": "stroop-trial-1-incongruent-24", "trial_type": "html-keyboard-response", "trial_index": 157, "time_elapsed": 318679, "internal_node_id": "0.0-6.0-62.0"}}, {"uniqueid": "w10196801:a81702813", "current_trial": 158, "dateTime": 1664555434903, "trialdata": {"rt": 733, "stimulus": "<p id='stroop-text' class='stroop-red'>BOTTLE</p>", "response": "r", "stimulus-type": "unrelated", "word": "BOTTLE", "color": "red", "correct_response": "r", "trial_id": "stroop-trial-1-unrelated-6", "trial_type": "html-keyboard-response", "trial_index": 158, "time_elapsed": 319924, "internal_node_id": "0.0-6.0-63.0"}}, {"uniqueid": "w10196801:a81702813", "current_trial": 159, "dateTime": 1664555435980, "trialdata": {"rt": 575, "stimulus": "<p id='stroop-text' class='stroop-red'>MONKEY</p>", "response": "r", "stimulus-type": "unrelated", "word": "MONKEY", "color": "red", "correct_response": "r", "trial_id": "stroop-trial-1-unrelated-3", "trial_type": "html-keyboard-response", "trial_index": 159, "time_elapsed": 321001, "internal_node_id": "0.0-6.0-64.0"}}, {"uniqueid": "w10196801:a81702813", "current_trial": 160, "dateTime": 1664555437092, "trialdata": {"rt": 609, "stimulus": "<p id='stroop-text' class='stroop-yellow'>YELLOW</p>", "response": "y", "stimulus-type": "congruent", "word": "yellow", "color": "yellow", "correct_response": "y", "trial_id": "stroop-trial-1-congruent-26", "trial_type": "html-keyboard-response", "trial_index": 160, "time_elapsed": 322113, "internal_node_id": "0.0-6.0-65.0"}}, {"uniqueid": "w10196801:a81702813", "current_trial": 161, "dateTime": 1664555438146, "trialdata": {"rt": 551, "stimulus": "<p id='stroop-text' class='stroop-yellow'>WINDOW</p>", "response": "y", "stimulus-type": "unrelated", "word": "WINDOW", "color": "yellow", "correct_response": "y", "trial_id": "stroop-trial-1-unrelated-20", "trial_type": "html-keyboard-response", "trial_index": 161, "time_elapsed": 323167, "internal_node_id": "0.0-6.0-66.0"}}, {"uniqueid": "w10196801:a81702813", "current_trial": 162, "dateTime": 1664555439106, "trialdata": {"rt": 456, "stimulus": "<p id='stroop-text' class='stroop-yellow'>MONKEY</p>", "response": "y", "stimulus-type": "unrelated", "word": "MONKEY", "color": "yellow", "correct_response": "y", "trial_id": "stroop-trial-1-unrelated-24", "trial_type": "html-keyboard-response", "trial_index": 162, "time_elapsed": 324127, "internal_node_id": "0.0-6.0-67.0"}}, {"uniqueid": "w10196801:a81702813", "current_trial": 163, "dateTime": 1664555440183, "trialdata": {"rt": 574, "stimulus": "<p id='stroop-text' class='stroop-blue'>BLUE</p>", "response": "b", "stimulus-type": "congruent", "word": "blue", "color": "blue", "correct_response": "b", "trial_id": "stroop-trial-1-congruent-27", "trial_type": "html-keyboard-response", "trial_index": 163, "time_elapsed": 325204, "internal_node_id": "0.0-6.0-68.0"}}, {"uniqueid": "w10196801:a81702813", "current_trial": 164, "dateTime": 1664555441353, "trialdata": {"rt": 668, "stimulus": "<p id='stroop-text' class='stroop-yellow'>WINDOW</p>", "response": "y", "stimulus-type": "unrelated", "word": "WINDOW", "color": "yellow", "correct_response": "y", "trial_id": "stroop-trial-1-unrelated-16", "trial_type": "html-keyboard-response", "trial_index": 164, "time_elapsed": 326374, "internal_node_id": "0.0-6.0-69.0"}}, {"uniqueid": "w10196801:a81702813", "current_trial": 165, "dateTime": 1664555442641, "trialdata": {"rt": 785, "stimulus": "<p id='stroop-text' class='stroop-green'>CHAIR</p>", "response": "g", "stimulus-type": "unrelated", "word": "CHAIR", "color": "green", "correct_response": "g", "trial_id": "stroop-trial-1-unrelated-26", "trial_type": "html-keyboard-response", "trial_index": 165, "time_elapsed": 327661, "internal_node_id": "0.0-6.0-70.0"}}, {"uniqueid": "w10196801:a81702813", "current_trial": 166, "dateTime": 1664555443788, "trialdata": {"rt": 644, "stimulus": "<p id='stroop-text' class='stroop-red'>BLUE</p>", "response": "r", "stimulus-type": "incongruent", "word": "blue", "color": "red", "correct_response": "r", "trial_id": "stroop-trial-1-incongruent-15", "trial_type": "html-keyboard-response", "trial_index": 166, "time_elapsed": 328808, "internal_node_id": "0.0-6.0-71.0"}}, {"uniqueid": "w10196801:a81702813", "current_trial": 167, "dateTime": 1664555444884, "trialdata": {"rt": 593, "stimulus": "<p id='stroop-text' class='stroop-blue'>BLUE</p>", "response": "b", "stimulus-type": "congruent", "word": "blue", "color": "blue", "correct_response": "b", "trial_id": "stroop-trial-1-congruent-10", "trial_type": "html-keyboard-response", "trial_index": 167, "time_elapsed": 329904, "internal_node_id": "0.0-6.0-72.0"}}, {"uniqueid": "w10196801:a81702813", "current_trial": 168, "dateTime": 1664555446088, "trialdata": {"rt": 702, "stimulus": "<p id='stroop-text' class='stroop-red'>YELLOW</p>", "response": "r", "stimulus-type": "incongruent", "word": "yellow", "color": "red", "correct_response": "r", "trial_id": "stroop-trial-1-incongruent-9", "trial_type": "html-keyboard-response", "trial_index": 168, "time_elapsed": 331109, "internal_node_id": "0.0-6.0-73.0"}}, {"uniqueid": "w10196801:a81702813", "current_trial": 169, "dateTime": 1664555447273, "trialdata": {"rt": 683, "stimulus": "<p id='stroop-text' class='stroop-blue'>RED</p>", "response": "b", "stimulus-type": "incongruent", "word": "red", "color": "blue", "correct_response": "b", "trial_id": "stroop-trial-1-incongruent-16", "trial_type": "html-keyboard-response", "trial_index": 169, "time_elapsed": 332294, "internal_node_id": "0.0-6.0-74.0"}}, {"uniqueid": "w10196801:a81702813", "current_trial": 170, "dateTime": 1664555449161, "trialdata": {"rt": 1386, "stimulus": "<p id='stroop-text' class='stroop-green'>YELLOW</p>", "response": "g", "stimulus-type": "incongruent", "word": "yellow", "color": "green", "correct_response": "g", "trial_id": "stroop-trial-1-incongruent-21", "trial_type": "html-keyboard-response", "trial_index": 170, "time_elapsed": 334182, "internal_node_id": "0.0-6.0-75.0"}}, {"uniqueid": "w10196801:a81702813", "current_trial": 171, "dateTime": 1664555450422, "trialdata": {"rt": 759, "stimulus": "<p id='stroop-text' class='stroop-yellow'>RED</p>", "response": "y", "stimulus-type": "incongruent", "word": "red", "color": "yellow", "correct_response": "y", "trial_id": "stroop-trial-1-incongruent-3", "trial_type": "html-keyboard-response", "trial_index": 171, "time_elapsed": 335443, "internal_node_id": "0.0-6.0-76.0"}}, {"uniqueid": "w10196801:a81702813", "current_trial": 172, "dateTime": 1664555451619, "trialdata": {"rt": 694, "stimulus": "<p id='stroop-text' class='stroop-green'>BOAT</p>", "response": "g", "stimulus-type": "unrelated", "word": "BOAT", "color": "green", "correct_response": "g", "trial_id": "stroop-trial-1-unrelated-2", "trial_type": "html-keyboard-response", "trial_index": 172, "time_elapsed": 336640, "internal_node_id": "0.0-6.0-77.0"}}, {"uniqueid": "w10196801:a81702813", "current_trial": 173, "dateTime": 1664555452715, "trialdata": {"rt": 593, "stimulus": "<p id='stroop-text' class='stroop-yellow'>YELLOW</p>", "response": "y", "stimulus-type": "congruent", "word": "yellow", "color": "yellow", "correct_response": "y", "trial_id": "stroop-trial-1-congruent-11", "trial_type": "html-keyboard-response", "trial_index": 173, "time_elapsed": 337736, "internal_node_id": "0.0-6.0-78.0"}}, {"uniqueid": "w10196801:a81702813", "current_trial": 174, "dateTime": 1664555454242, "trialdata": {"rt": 1024, "stimulus": "<p id='stroop-text' class='stroop-green'>YELLOW</p>", "response": "y", "stimulus-type": "incongruent", "word": "yellow", "color": "green", "correct_response": "g", "trial_id": "stroop-trial-1-incongruent-7", "trial_type": "html-keyboard-response", "trial_index": 174, "time_elapsed": 339263, "internal_node_id": "0.0-6.0-79.0"}}, {"uniqueid": "w10196801:a81702813", "current_trial": 175, "dateTime": 1664555455508, "trialdata": {"rt": 762, "stimulus": "<p id='stroop-text' class='stroop-yellow'>BLUE</p>", "response": "y", "stimulus-type": "incongruent", "word": "blue", "color": "yellow", "correct_response": "y", "trial_id": "stroop-trial-1-incongruent-30", "trial_type": "html-keyboard-response", "trial_index": 175, "time_elapsed": 340528, "internal_node_id": "0.0-6.0-80.0"}}, {"uniqueid": "w10196801:a81702813", "current_trial": 176, "dateTime": 1664555456646, "trialdata": {"rt": 636, "stimulus": "<p id='stroop-text' class='stroop-blue'>WINDOW</p>", "response": "b", "stimulus-type": "unrelated", "word": "WINDOW", "color": "blue", "correct_response": "b", "trial_id": "stroop-trial-1-unrelated-1", "trial_type": "html-keyboard-response", "trial_index": 176, "time_elapsed": 341667, "internal_node_id": "0.0-6.0-81.0"}}, {"uniqueid": "w10196801:a81702813", "current_trial": 177, "dateTime": 1664555458808, "trialdata": {"rt": 1659, "stimulus": "<p id='stroop-text' class='stroop-yellow'>BLUE</p>", "response": "y", "stimulus-type": "incongruent", "word": "blue", "color": "yellow", "correct_response": "y", "trial_id": "stroop-trial-1-incongruent-19", "trial_type": "html-keyboard-response", "trial_index": 177, "time_elapsed": 343829, "internal_node_id": "0.0-6.0-82.0"}}, {"uniqueid": "w10196801:a81702813", "current_trial": 178, "dateTime": 1664555459982, "trialdata": {"rt": 670, "stimulus": "<p id='stroop-text' class='stroop-blue'>BLUE</p>", "response": "b", "stimulus-type": "congruent", "word": "blue", "color": "blue", "correct_response": "b", "trial_id": "stroop-trial-1-congruent-8", "trial_type": "html-keyboard-response", "trial_index": 178, "time_elapsed": 345003, "internal_node_id": "0.0-6.0-83.0"}}, {"uniqueid": "w10196801:a81702813", "current_trial": 179, "dateTime": 1664555460959, "trialdata": {"rt": 474, "stimulus": "<p id='stroop-text' class='stroop-blue'>STONE</p>", "response": "b", "stimulus-type": "unrelated", "word": "STONE", "color": "blue", "correct_response": "b", "trial_id": "stroop-trial-1-unrelated-19", "trial_type": "html-keyboard-response", "trial_index": 179, "time_elapsed": 345979, "internal_node_id": "0.0-6.0-84.0"}}, {"uniqueid": "w10196801:a81702813", "current_trial": 180, "dateTime": 1664555462099, "trialdata": {"rt": 638, "stimulus": "<p id='stroop-text' class='stroop-green'>BRIDGE</p>", "response": "g", "stimulus-type": "unrelated", "word": "BRIDGE", "color": "green", "correct_response": "g", "trial_id": "stroop-trial-1-unrelated-28", "trial_type": "html-keyboard-response", "trial_index": 180, "time_elapsed": 347120, "internal_node_id": "0.0-6.0-85.0"}}, {"uniqueid": "w10196801:a81702813", "current_trial": 181, "dateTime": 1664555463566, "trialdata": {"rt": 964, "stimulus": "<p id='stroop-text' class='stroop-yellow'>YELLOW</p>", "response": "y", "stimulus-type": "congruent", "word": "yellow", "color": "yellow", "correct_response": "y", "trial_id": "stroop-trial-1-congruent-9", "trial_type": "html-keyboard-response", "trial_index": 181, "time_elapsed": 348586, "internal_node_id": "0.0-6.0-86.0"}}, {"uniqueid": "w10196801:a81702813", "current_trial": 182, "dateTime": 1664555464968, "trialdata": {"rt": 899, "stimulus": "<p id='stroop-text' class='stroop-green'>GREEN</p>", "response": "g", "stimulus-type": "congruent", "word": "green", "color": "green", "correct_response": "g", "trial_id": "stroop-trial-1-congruent-15", "trial_type": "html-keyboard-response", "trial_index": 182, "time_elapsed": 349988, "internal_node_id": "0.0-6.0-87.0"}}, {"uniqueid": "w10196801:a81702813", "current_trial": 183, "dateTime": 1664555465930, "trialdata": {"rt": 459, "stimulus": "<p id='stroop-text' class='stroop-yellow'>WINDOW</p>", "response": "y", "stimulus-type": "unrelated", "word": "WINDOW", "color": "yellow", "correct_response": "y", "trial_id": "stroop-trial-1-unrelated-12", "trial_type": "html-keyboard-response", "trial_index": 183, "time_elapsed": 350951, "internal_node_id": "0.0-6.0-88.0"}}, {"uniqueid": "w10196801:a81702813", "current_trial": 184, "dateTime": 1664555466888, "trialdata": {"rt": 456, "stimulus": "<p id='stroop-text' class='stroop-green'>GREEN</p>", "response": "y", "stimulus-type": "congruent", "word": "green", "color": "green", "correct_response": "g", "trial_id": "stroop-trial-1-congruent-18", "trial_type": "html-keyboard-response", "trial_index": 184, "time_elapsed": 351909, "internal_node_id": "0.0-6.0-89.0"}}, {"uniqueid": "w10196801:a81702813", "current_trial": 185, "dateTime": 1664555469154, "trialdata": {"rt": 1763, "stimulus": "  <h1> End of block! </h1>\n\n  You have reached the end of the block 2/5. If you need a short break, feel free to take one now before moving on.\n\n  <br><br>\n  In the next block, you will complete another 90 rounds of this game.\n\n  <br><br>\n  <div style='text-align: center;'>Press <code>space</code> to begin.</div>\n  <br><br>\n<div style='text-align: center;'>(If the experiment doesn't continue, try clicking on the text and then pressing <code>space</code>.)</div>", "response": " ", "trial_id": "stroop_1_ready_3", "trial_type": "html-keyboard-response", "trial_index": 185, "time_elapsed": 354175, "internal_node_id": "0.0-7.0"}}, {"uniqueid": "w10196801:a81702813", "current_trial": 186, "dateTime": 1664555469741, "trialdata": {"rt": 585, "stimulus": "<p id='stroop-text' class='stroop-blue'>BLUE</p>", "response": "b", "stimulus-type": "congruent", "word": "blue", "color": "blue", "correct_response": "b", "trial_id": "stroop-trial-1-congruent-6", "trial_type": "html-keyboard-response", "trial_index": 186, "time_elapsed": 354762, "internal_node_id": "0.0-8.0-0.0"}}, {"uniqueid": "w10196801:a81702813", "current_trial": 187, "dateTime": 1664555470796, "trialdata": {"rt": 552, "stimulus": "<p id='stroop-text' class='stroop-red'>STONE</p>", "response": "r", "stimulus-type": "unrelated", "word": "STONE", "color": "red", "correct_response": "r", "trial_id": "stroop-trial-1-unrelated-14", "trial_type": "html-keyboard-response", "trial_index": 187, "time_elapsed": 355817, "internal_node_id": "0.0-8.0-1.0"}}, {"uniqueid": "w10196801:a81702813", "current_trial": 188, "dateTime": 1664555471815, "trialdata": {"rt": 515, "stimulus": "<p id='stroop-text' class='stroop-blue'>BLUE</p>", "response": "b", "stimulus-type": "congruent", "word": "blue", "color": "blue", "correct_response": "b", "trial_id": "stroop-trial-1-congruent-3", "trial_type": "html-keyboard-response", "trial_index": 188, "time_elapsed": 356836, "internal_node_id": "0.0-8.0-2.0"}}, {"uniqueid": "w10196801:a81702813", "current_trial": 189, "dateTime": 1664555472923, "trialdata": {"rt": 604, "stimulus": "<p id='stroop-text' class='stroop-red'>RED</p>", "response": "r", "stimulus-type": "congruent", "word": "red", "color": "red", "correct_response": "r", "trial_id": "stroop-trial-1-congruent-14", "trial_type": "html-keyboard-response", "trial_index": 189, "time_elapsed": 357944, "internal_node_id": "0.0-8.0-3.0"}}, {"uniqueid": "w10196801:a81702813", "current_trial": 190, "dateTime": 1664555474092, "trialdata": {"rt": 664, "stimulus": "<p id='stroop-text' class='stroop-yellow'>BRIDGE</p>", "response": "y", "stimulus-type": "unrelated", "word": "BRIDGE", "color": "yellow", "correct_response": "y", "trial_id": "stroop-trial-1-unrelated-6", "trial_type": "html-keyboard-response", "trial_index": 190, "time_elapsed": 359113, "internal_node_id": "0.0-8.0-4.0"}}, {"uniqueid": "w10196801:a81702813", "current_trial": 191, "dateTime": 1664555475224, "trialdata": {"rt": 629, "stimulus": "<p id='stroop-text' class='stroop-blue'>GREEN</p>", "response": "b", "stimulus-type": "incongruent", "word": "green", "color": "blue", "correct_response": "b", "trial_id": "stroop-trial-1-incongruent-14", "trial_type": "html-keyboard-response", "trial_index": 191, "time_elapsed": 360245, "internal_node_id": "0.0-8.0-5.0"}}, {"uniqueid": "w10196801:a81702813", "current_trial": 192, "dateTime": 1664555476511, "trialdata": {"rt": 785, "stimulus": "<p id='stroop-text' class='stroop-red'>YELLOW</p>", "response": "r", "stimulus-type": "incongruent", "word": "yellow", "color": "red", "correct_response": "r", "trial_id": "stroop-trial-1-incongruent-18", "trial_type": "html-keyboard-response", "trial_index": 192, "time_elapsed": 361532, "internal_node_id": "0.0-8.0-6.0"}}, {"uniqueid": "w10196801:a81702813", "current_trial": 193, "dateTime": 1664555477448, "trialdata": {"rt": 433, "stimulus": "<p id='stroop-text' class='stroop-red'>CHAIR</p>", "response": "r", "stimulus-type": "unrelated", "word": "CHAIR", "color": "red", "correct_response": "r", "trial_id": "stroop-trial-1-unrelated-21", "trial_type": "html-keyboard-response", "trial_index": 193, "time_elapsed": 362469, "internal_node_id": "0.0-8.0-7.0"}}, {"uniqueid": "w10196801:a81702813", "current_trial": 194, "dateTime": 1664555478360, "trialdata": {"rt": 409, "stimulus": "<p id='stroop-text' class='stroop-red'>BRAIN</p>", "response": "r", "stimulus-type": "unrelated", "word": "BRAIN", "color": "red", "correct_response": "r", "trial_id": "stroop-trial-1-unrelated-1", "trial_type": "html-keyboard-response", "trial_index": 194, "time_elapsed": 363381, "internal_node_id": "0.0-8.0-8.0"}}, {"uniqueid": "w10196801:a81702813", "current_trial": 195, "dateTime": 1664555479761, "trialdata": {"rt": 898, "stimulus": "<p id='stroop-text' class='stroop-blue'>YELLOW</p>", "response": "b", "stimulus-type": "incongruent", "word": "yellow", "color": "blue", "correct_response": "b", "trial_id": "stroop-trial-1-incongruent-20", "trial_type": "html-keyboard-response", "trial_index": 195, "time_elapsed": 364782, "internal_node_id": "0.0-8.0-9.0"}}, {"uniqueid": "w10196801:a81702813", "current_trial": 196, "dateTime": 1664555480727, "trialdata": {"rt": 463, "stimulus": "<p id='stroop-text' class='stroop-blue'>FORK</p>", "response": "b", "stimulus-type": "unrelated", "word": "FORK", "color": "blue", "correct_response": "b", "trial_id": "stroop-trial-1-unrelated-18", "trial_type": "html-keyboard-response", "trial_index": 196, "time_elapsed": 365747, "internal_node_id": "0.0-8.0-10.0"}}, {"uniqueid": "w10196801:a81702813", "current_trial": 197, "dateTime": 1664555482063, "trialdata": {"rt": 832, "stimulus": "<p id='stroop-text' class='stroop-yellow'>YELLOW</p>", "response": "y", "stimulus-type": "congruent", "word": "yellow", "color": "yellow", "correct_response": "y", "trial_id": "stroop-trial-1-congruent-26", "trial_type": "html-keyboard-response", "trial_index": 197, "time_elapsed": 367083, "internal_node_id": "0.0-8.0-11.0"}}, {"uniqueid": "w10196801:a81702813", "current_trial": 198, "dateTime": 1664555483581, "trialdata": {"rt": 1008, "stimulus": "<p id='stroop-text' class='stroop-green'>DOG</p>", "response": "g", "stimulus-type": "unrelated", "word": "DOG", "color": "green", "correct_response": "g", "trial_id": "stroop-trial-1-unrelated-19", "trial_type": "html-keyboard-response", "trial_index": 198, "time_elapsed": 368602, "internal_node_id": "0.0-8.0-12.0"}}, {"uniqueid": "w10196801:a81702813", "current_trial": 199, "dateTime": 1664555484763, "trialdata": {"rt": 679, "stimulus": "<p id='stroop-text' class='stroop-blue'>BLUE</p>", "response": "b", "stimulus-type": "congruent", "word": "blue", "color": "blue", "correct_response": "b", "trial_id": "stroop-trial-1-congruent-4", "trial_type": "html-keyboard-response", "trial_index": 199, "time_elapsed": 369784, "internal_node_id": "0.0-8.0-13.0"}}, {"uniqueid": "w10196801:a81702813", "current_trial": 200, "dateTime": 1664555485944, "trialdata": {"rt": 677, "stimulus": "<p id='stroop-text' class='stroop-red'>RED</p>", "response": "r", "stimulus-type": "congruent", "word": "red", "color": "red", "correct_response": "r", "trial_id": "stroop-trial-1-congruent-15", "trial_type": "html-keyboard-response", "trial_index": 200, "time_elapsed": 370965, "internal_node_id": "0.0-8.0-14.0"}}, {"uniqueid": "w10196801:a81702813", "current_trial": 201, "dateTime": 1664555486930, "trialdata": {"rt": 480, "stimulus": "<p id='stroop-text' class='stroop-green'>RED</p>", "response": "r", "stimulus-type": "incongruent", "word": "red", "color": "green", "correct_response": "g", "trial_id": "stroop-trial-1-incongruent-19", "trial_type": "html-keyboard-response", "trial_index": 201, "time_elapsed": 371950, "internal_node_id": "0.0-8.0-15.0"}}, {"uniqueid": "w10196801:a81702813", "current_trial": 202, "dateTime": 1664555488026, "trialdata": {"rt": 594, "stimulus": "<p id='stroop-text' class='stroop-yellow'>YELLOW</p>", "response": "y", "stimulus-type": "congruent", "word": "yellow", "color": "yellow", "correct_response": "y", "trial_id": "stroop-trial-1-congruent-12", "trial_type": "html-keyboard-response", "trial_index": 202, "time_elapsed": 373047, "internal_node_id": "0.0-8.0-16.0"}}, {"uniqueid": "w10196801:a81702813", "current_trial": 203, "dateTime": 1664555489252, "trialdata": {"rt": 722, "stimulus": "<p id='stroop-text' class='stroop-green'>WINDOW</p>", "response": "g", "stimulus-type": "unrelated", "word": "WINDOW", "color": "green", "correct_response": "g", "trial_id": "stroop-trial-1-unrelated-8", "trial_type": "html-keyboard-response", "trial_index": 203, "time_elapsed": 374273, "internal_node_id": "0.0-8.0-17.0"}}, {"uniqueid": "w10196801:a81702813", "current_trial": 204, "dateTime": 1664555490545, "trialdata": {"rt": 791, "stimulus": "<p id='stroop-text' class='stroop-red'>BLUE</p>", "response": "r", "stimulus-type": "incongruent", "word": "blue", "color": "red", "correct_response": "r", "trial_id": "stroop-trial-1-incongruent-23", "trial_type": "html-keyboard-response", "trial_index": 204, "time_elapsed": 375566, "internal_node_id": "0.0-8.0-18.0"}}, {"uniqueid": "w10196801:a81702813", "current_trial": 205, "dateTime": 1664555491627, "trialdata": {"rt": 578, "stimulus": "<p id='stroop-text' class='stroop-blue'>GREEN</p>", "response": "b", "stimulus-type": "incongruent", "word": "green", "color": "blue", "correct_response": "b", "trial_id": "stroop-trial-1-incongruent-26", "trial_type": "html-keyboard-response", "trial_index": 205, "time_elapsed": 376647, "internal_node_id": "0.0-8.0-19.0"}}, {"uniqueid": "w10196801:a81702813", "current_trial": 206, "dateTime": 1664555493368, "trialdata": {"rt": 1238, "stimulus": "<p id='stroop-text' class='stroop-yellow'>YELLOW</p>", "response": "y", "stimulus-type": "congruent", "word": "yellow", "color": "yellow", "correct_response": "y", "trial_id": "stroop-trial-1-congruent-25", "trial_type": "html-keyboard-response", "trial_index": 206, "time_elapsed": 378389, "internal_node_id": "0.0-8.0-20.0"}}, {"uniqueid": "w10196801:a81702813", "current_trial": 207, "dateTime": 1664555495232, "trialdata": {"rt": 1361, "stimulus": "<p id='stroop-text' class='stroop-red'>CHAIR</p>", "response": "r", "stimulus-type": "unrelated", "word": "CHAIR", "color": "red", "correct_response": "r", "trial_id": "stroop-trial-1-unrelated-26", "trial_type": "html-keyboard-response", "trial_index": 207, "time_elapsed": 380253, "internal_node_id": "0.0-8.0-21.0"}}, {"uniqueid": "w10196801:a81702813", "current_trial": 208, "dateTime": 1664555496356, "trialdata": {"rt": 621, "stimulus": "<p id='stroop-text' class='stroop-blue'>CHAIR</p>", "response": "b", "stimulus-type": "unrelated", "word": "CHAIR", "color": "blue", "correct_response": "b", "trial_id": "stroop-trial-1-unrelated-2", "trial_type": "html-keyboard-response", "trial_index": 208, "time_elapsed": 381377, "internal_node_id": "0.0-8.0-22.0"}}, {"uniqueid": "w10196801:a81702813", "current_trial": 209, "dateTime": 1664555497383, "trialdata": {"rt": 523, "stimulus": "<p id='stroop-text' class='stroop-red'>RED</p>", "response": "r", "stimulus-type": "congruent", "word": "red", "color": "red", "correct_response": "r", "trial_id": "stroop-trial-1-congruent-17", "trial_type": "html-keyboard-response", "trial_index": 209, "time_elapsed": 382403, "internal_node_id": "0.0-8.0-23.0"}}, {"uniqueid": "w10196801:a81702813", "current_trial": 210, "dateTime": 1664555499012, "trialdata": {"rt": 1126, "stimulus": "<p id='stroop-text' class='stroop-yellow'>GREEN</p>", "response": "y", "stimulus-type": "incongruent", "word": "green", "color": "yellow", "correct_response": "y", "trial_id": "stroop-trial-1-incongruent-3", "trial_type": "html-keyboard-response", "trial_index": 210, "time_elapsed": 384032, "internal_node_id": "0.0-8.0-24.0"}}, {"uniqueid": "w10196801:a81702813", "current_trial": 211, "dateTime": 1664555500322, "trialdata": {"rt": 808, "stimulus": "<p id='stroop-text' class='stroop-red'>BLUE</p>", "response": "r", "stimulus-type": "incongruent", "word": "blue", "color": "red", "correct_response": "r", "trial_id": "stroop-trial-1-incongruent-5", "trial_type": "html-keyboard-response", "trial_index": 211, "time_elapsed": 385343, "internal_node_id": "0.0-8.0-25.0"}}, {"uniqueid": "w10196801:a81702813", "current_trial": 212, "dateTime": 1664555501946, "trialdata": {"rt": 1122, "stimulus": "<p id='stroop-text' class='stroop-yellow'>BOAT</p>", "response": "y", "stimulus-type": "unrelated", "word": "BOAT", "color": "yellow", "correct_response": "y", "trial_id": "stroop-trial-1-unrelated-29", "trial_type": "html-keyboard-response", "trial_index": 212, "time_elapsed": 386967, "internal_node_id": "0.0-8.0-26.0"}}, {"uniqueid": "w10196801:a81702813", "current_trial": 213, "dateTime": 1664555503030, "trialdata": {"rt": 580, "stimulus": "<p id='stroop-text' class='stroop-yellow'>YELLOW</p>", "response": "y", "stimulus-type": "congruent", "word": "yellow", "color": "yellow", "correct_response": "y", "trial_id": "stroop-trial-1-congruent-16", "trial_type": "html-keyboard-response", "trial_index": 213, "time_elapsed": 388051, "internal_node_id": "0.0-8.0-27.0"}}, {"uniqueid": "w10196801:a81702813", "current_trial": 214, "dateTime": 1664555504070, "trialdata": {"rt": 537, "stimulus": "<p id='stroop-text' class='stroop-blue'>SHIP</p>", "response": "b", "stimulus-type": "unrelated", "word": "SHIP", "color": "blue", "correct_response": "b", "trial_id": "stroop-trial-1-unrelated-25", "trial_type": "html-keyboard-response", "trial_index": 214, "time_elapsed": 389091, "internal_node_id": "0.0-8.0-28.0"}}, {"uniqueid": "w10196801:a81702813", "current_trial": 215, "dateTime": 1664555505172, "trialdata": {"rt": 599, "stimulus": "<p id='stroop-text' class='stroop-yellow'>YELLOW</p>", "response": "y", "stimulus-type": "congruent", "word": "yellow", "color": "yellow", "correct_response": "y", "trial_id": "stroop-trial-1-congruent-20", "trial_type": "html-keyboard-response", "trial_index": 215, "time_elapsed": 390193, "internal_node_id": "0.0-8.0-29.0"}}, {"uniqueid": "w10196801:a81702813", "current_trial": 216, "dateTime": 1664555506155, "trialdata": {"rt": 480, "stimulus": "<p id='stroop-text' class='stroop-blue'>STONE</p>", "response": "b", "stimulus-type": "unrelated", "word": "STONE", "color": "blue", "correct_response": "b", "trial_id": "stroop-trial-1-unrelated-7", "trial_type": "html-keyboard-response", "trial_index": 216, "time_elapsed": 391175, "internal_node_id": "0.0-8.0-30.0"}}, {"uniqueid": "w10196801:a81702813", "current_trial": 217, "dateTime": 1664555507014, "trialdata": {"rt": 357, "stimulus": "<p id='stroop-text' class='stroop-green'>YELLOW</p>", "response": "g", "stimulus-type": "incongruent", "word": "yellow", "color": "green", "correct_response": "g", "trial_id": "stroop-trial-1-incongruent-8", "trial_type": "html-keyboard-response", "trial_index": 217, "time_elapsed": 392034, "internal_node_id": "0.0-8.0-31.0"}}, {"uniqueid": "w10196801:a81702813", "current_trial": 218, "dateTime": 1664555507941, "trialdata": {"rt": 425, "stimulus": "<p id='stroop-text' class='stroop-red'>CHAIR</p>", "response": "r", "stimulus-type": "unrelated", "word": "CHAIR", "color": "red", "correct_response": "r", "trial_id": "stroop-trial-1-unrelated-13", "trial_type": "html-keyboard-response", "trial_index": 218, "time_elapsed": 392961, "internal_node_id": "0.0-8.0-32.0"}}, {"uniqueid": "w10196801:a81702813", "current_trial": 219, "dateTime": 1664555508982, "trialdata": {"rt": 539, "stimulus": "<p id='stroop-text' class='stroop-red'>BRIDGE</p>", "response": "r", "stimulus-type": "unrelated", "word": "BRIDGE", "color": "red", "correct_response": "r", "trial_id": "stroop-trial-1-unrelated-27", "trial_type": "html-keyboard-response", "trial_index": 219, "time_elapsed": 394003, "internal_node_id": "0.0-8.0-33.0"}}, {"uniqueid": "w10196801:a81702813", "current_trial": 220, "dateTime": 1664555509904, "trialdata": {"rt": 420, "stimulus": "<p id='stroop-text' class='stroop-red'>GREEN</p>", "response": "r", "stimulus-type": "incongruent", "word": "green", "color": "red", "correct_response": "r", "trial_id": "stroop-trial-1-incongruent-12", "trial_type": "html-keyboard-response", "trial_index": 220, "time_elapsed": 394925, "internal_node_id": "0.0-8.0-34.0"}}, {"uniqueid": "w10196801:a81702813", "current_trial": 221, "dateTime": 1664555510905, "trialdata": {"rt": 498, "stimulus": "<p id='stroop-text' class='stroop-blue'>YELLOW</p>", "response": "b", "stimulus-type": "incongruent", "word": "yellow", "color": "blue", "correct_response": "b", "trial_id": "stroop-trial-1-incongruent-11", "trial_type": "html-keyboard-response", "trial_index": 221, "time_elapsed": 395926, "internal_node_id": "0.0-8.0-35.0"}}, {"uniqueid": "w10196801:a81702813", "current_trial": 222, "dateTime": 1664555512009, "trialdata": {"rt": 601, "stimulus": "<p id='stroop-text' class='stroop-blue'>RED</p>", "response": "b", "stimulus-type": "incongruent", "word": "red", "color": "blue", "correct_response": "b", "trial_id": "stroop-trial-1-incongruent-30", "trial_type": "html-keyboard