{"condition": 1, "counterbalance": 0, "assignmentId": "a22893339", "workerId": "w75809247", "hitId": "h77844284", "currenttrial": 143, "bonus": 0, "data": [{"uniqueid": "w75809247:a22893339", "current_trial": 0, "dateTime": 1664463927881, "trialdata": {"success": true, "trial_type": "fullscreen", "trial_index": 0, "time_elapsed": 22210, "internal_node_id": "0.0-0.0"}}, {"uniqueid": "w75809247:a22893339", "current_trial": 1, "dateTime": 1664463962383, "trialdata": {"view_history": [{"page_index": 0, "viewing_time": 34497}], "rt": 34498, "trial_id": "exp_instructions_no_distractor", "trial_type": "instructions", "trial_index": 1, "time_elapsed": 56712, "internal_node_id": "0.0-1.0"}}, {"uniqueid": "w75809247:a22893339", "current_trial": 2, "dateTime": 1664463966183, "trialdata": {"success": true, "trial_type": "fullscreen", "trial_index": 2, "time_elapsed": 60512, "internal_node_id": "0.0-2.0-0.0"}}, {"uniqueid": "w75809247:a22893339", "current_trial": 3, "dateTime": 1664464179375, "trialdata": {"view_history": [{"page_index": 0, "viewing_time": 91838}, {"page_index": 1, "viewing_time": 39304}, {"page_index": 2, "viewing_time": 14072}, {"page_index": 3, "viewing_time": 38488}, {"page_index": 4, "viewing_time": 29488}], "rt": 213190, "trial_id": "mouselab_instructions_1", "trial_type": "instructions", "trial_index": 3, "time_elapsed": 273704, "internal_node_id": "0.0-2.0-1.0"}}, {"uniqueid": "w75809247:a22893339", "current_trial": 4, "dateTime": 1664464216302, "trialdata": {"revealed_states": [], "num_clicks_accrued": [0, 0, 0, 0, 0, 0, 0, 0, 0, 0, 0, 0, 0], "stateRewards": ["", -10, 10, -10, -10, -10, 10, -10, 10, -10, 10, 10, 10], "withholdReward": false, "trial_id": "practice_1", "block": "test", "trialIndex": 0, "score": 12, "costs": 0, "simulationMode": [null, null, null], "rewards": [-10, 10, 10], "path": ["0", "0", "5", "6", "8"], "rt": [15344, 2220, 3575], "actions": ["right", "right", "down"], "actionTimes": [21135, 23851, 27938], "queries": {"click": {"state": {"target": [], "time": []}, "edge": {"target": [], "time": []}}, "mouseover": {"state": {"target": [], "time": []}, "edge": {"target": [], "time": []}}, "mouseout": {"state": {"target": ["5", "0"], "time": [987, 2569]}, "edge": {"target": [], "time": []}}}, "displayed_time": "28.45", "trialTime": 36602, "trial_type": "mouselab-mdp", "trial_index": 4, "time_elapsed": 310630, "internal_node_id": "0.0-2.0-2.0-0.0"}}, {"uniqueid": "w75809247:a22893339", "current_trial": 5, "dateTime": 1664464239268, "trialdata": {"revealed_states": [], "num_clicks_accrued": [0, 0, 0, 0, 0, 0, 0, 0, 0, 0, 0, 0, 0], "stateRewards": ["", -10, 10, -10, -10, 10, 10, -10, 10, 10, -10, 10, 10], "withholdReward": false, "trial_id": "practice_2", "block": "test", "trialIndex": 1, "score": 11.5, "costs": -0.5, "simulationMode": [null, null, null], "rewards": [10, -10, 10], "path": ["0", "0", "9", "10", "11"], "rt": [11856, 723, 1295], "actions": ["left", "left", "up"], "actionTimes": [14122, 15360, 17165], "queries": {"click": {"state": {"target": ["1", "9"], "time": [5301, 10870]}, "edge": {"target": [], "time": []}}, "mouseover": {"state": {"target": ["1", "0", "9"], "time": [5056, 6506, 8006]}, "edge": {"target": [], "time": []}}, "mouseout": {"state": {"target": ["0", "0", "1", "0", "9", "9"], "time": [1755, 4954, 6089, 7955, 11137, 20384]}, "edge": {"target": [], "time": []}}}, "displayed_time": "17.67", "trialTime": 22919, "trial_type": "mouselab-mdp", "trial_index": 5, "time_elapsed": 333597, "internal_node_id": "0.0-2.0-2.0-1.0"}}, {"uniqueid": "w75809247:a22893339", "current_trial": 6, "dateTime": 1664464320894, "trialdata": {"view_history": [{"page_index": 0, "viewing_time": 39800}, {"page_index": 1, "viewing_time": 31216}, {"page_index": 2, "viewing_time": 10608}], "rt": 81624, "trial_id": "mouselab_instructions_2_scarce", "trial_type": "instructions", "trial_index": 6, "time_elapsed": 415223, "internal_node_id": "0.0-2.0-3.0"}}, {"uniqueid": "w75809247:a22893339", "current_trial": 7, "dateTime": 1664464453207, "trialdata": {"rt": 132309, "response": {"Q0": "$-48 to $48", "Q1": "The cost is always $0.25.", "Q2": "The better I perform the higher my bonus will be.", "Q3": "No, the structure of the web will be different each time.", "Q4": "The values of the nodes walked through from start to finish.", "Q5": "No, the spider might forget to count the money on some rounds."}, "question_order": [0, 1, 2, 3, 4, 5], "correct": {"Q0": "$-48 to $48", "Q1": "The cost is always $0.25.", "Q2": "The better I perform the higher my bonus will be.", "Q3": "No, the amount of cash at each node of the web may be different each time.", "Q4": "The values of the nodes walked through from start to finish.", "Q5": "No, the spider might forget to count the money on some rounds."}, "trial_id": "mouselab_quiz_scarce", "trial_type": "survey-multi-choice", "trial_index": 7, "time_elapsed": 547536, "internal_node_id": "0.0-2.0-4.0"}}, {"uniqueid": "w75809247:a22893339", "current_trial": 8, "dateTime": 1664464467495, "trialdata": {"success": true, "trial_type": "fullscreen", "trial_index": 8, "time_elapsed": 561824, "internal_node_id": "0.0-2.1-0.1"}}, {"uniqueid": "w75809247:a22893339", "current_trial": 9, "dateTime": 1664464603326, "trialdata": {"view_history": [{"page_index": 0, "viewing_time": 72389}, {"page_index": 1, "viewing_time": 13336}, {"page_index": 2, "viewing_time": 22432}, {"page_index": 3, "viewing_time": 3480}, {"page_index": 4, "viewing_time": 24192}], "rt": 135830, "trial_id": "mouselab_instructions_1", "trial_type": "instructions", "trial_index": 9, "time_elapsed": 697655, "internal_node_id": "0.0-2.1-1.1"}}, {"uniqueid": "w75809247:a22893339", "current_trial": 10, "dateTime": 1664464620815, "trialdata": {"revealed_states": [], "num_clicks_accrued": [0, 0, 0, 0, 0, 0, 0, 0, 0, 0, 0, 0, 0], "stateRewards": ["", -10, 10, -10, -10, -10, 10, -10, 10, -10, 10, 10, 10], "withholdReward": false, "trial_id": "practice_1", "block": "test", "trialIndex": 2, "score": -8.5, "costs": -0.5, "simulationMode": [null, null, null], "rewards": [-10, 10, -10], "path": ["0", "0", "5", "6", "7"], "rt": [11126, 305, 512], "actions": ["right", "right", "up"], "actionTimes": [12665, 13485, 14508], "queries": {"click": {"state": {"target": ["5", "6"], "time": [2987, 3802]}, "edge": {"target": [], "time": []}}, "mouseover": {"state": {"target": ["5", "6", "7", "0"], "time": [2816, 3399, 4349, 8748]}, "edge": {"target": [], "time": []}}, "mouseout": {"state": {"target": ["5", "0", "5", "6", "7", "0"], "time": [1067, 1783, 3316, 4299, 5566, 10064]}, "edge": {"target": [], "time": []}}}, "displayed_time": "15.01", "trialTime": 17440, "trial_type": "mouselab-mdp", "trial_index": 10, "time_elapsed": 715144, "internal_node_id": "0.0-2.1-2.1-0.1"}}, {"uniqueid": "w75809247:a22893339", "current_trial": 11, "dateTime": 1664464628991, "trialdata": {"revealed_states": [], "num_clicks_accrued": [0, 0, 0, 0, 0, 0, 0, 0, 0, 0, 0, 0, 0], "stateRewards": ["", -10, 10, -10, -10, 10, 10, -10, 10, 10, -10, 10, 10], "withholdReward": false, "trial_id": "practice_2", "block": "test", "trialIndex": 3, "score": -8, "costs": 0, "simulationMode": [null, null, null], "rewards": [-10, 10, -10], "path": ["0", "0", "1", "2", "4"], "rt": [1283, 268, 480], "actions": ["up", "up", "left"], "actionTimes": [3740, 4497, 5492], "queries": {"click": {"state": {"target": [], "time": []}, "edge": {"target": [], "time": []}}, "mouseover": {"state": {"target": [], "time": []}, "edge": {"target": [], "time": []}}, "mouseout": {"state": {"target": ["0"], "time": [2645]}, "edge": {"target": [], "time": []}}}, "displayed_time": "6.00", "trialTime": 8134, "trial_type": "mouselab-mdp", "trial_index": 11, "time_elapsed": 723319, "internal_node_id": "0.0-2.1-2.1-1.1"}}, {"uniqueid": "w75809247:a22893339", "current_trial": 12, "dateTime": 1664464710254, "trialdata": {"view_history": [{"page_index": 0, "viewing_time": 48381}, {"page_index": 1, "viewing_time": 31280}, {"page_index": 2, "viewing_time": 1600}], "rt": 81261, "trial_id": "mouselab_instructions_2_scarce", "trial_type": "instructions", "trial_index": 12, "time_elapsed": 804583, "internal_node_id": "0.0-2.1-3.1"}}, {"uniqueid": "w75809247:a22893339", "current_trial": 13, "dateTime": 1664464796567, "trialdata": {"rt": 86311, "response": {"Q0": "$-48 to $48", "Q1": "The cost is always $0.25.", "Q2": "The better I perform the higher my bonus will be.", "Q3": "No, the amount of cash at each node of the web may be different each time.", "Q4": "The values of the nodes walked through from start to finish.", "Q5": "No, the spider might forget to count the money on some rounds."}, "question_order": [0, 1, 2, 3, 4, 5], "correct": {"Q0": "$-48 to $48", "Q1": "The cost is always $0.25.", "Q2": "The better I perform the higher my bonus will be.", "Q3": "No, the amount of cash at each node of the web may be different each time.", "Q4": "The values of the nodes walked through from start to finish.", "Q5": "No, the spider might forget to count the money on some rounds."}, "trial_id": "mouselab_quiz_scarce", "trial_type": "survey-multi-choice", "trial_index": 13, "time_elapsed": 890896, "internal_node_id": "0.0-2.1-4.1"}}, {"uniqueid": "w75809247:a22893339", "current_trial": 14, "dateTime": 1664464810294, "trialdata": {"rt": 13720, "stimulus": "\n<h1> Get ready to start the game! </h1>\n\nThank you for reading the instructions. Get ready start with the first of 4 block(s) of this game.\n<br><br>\nIn this first block, you will complete 30 rounds of this game before moving on.\n<br><br>\nRemember, the more money the spider gets, the bigger your bonus will be!\n<br><br>\n<div style='text-align: center;'>Press <code>space</code> to begin.</div>\n\n<br><br>\n(If, at any point, the <code>space</code> key does not take you to the next page, click once on the text and try again.)", "response": " ", "trial_id": "mdp_ready_1", "trial_type": "html-keyboard-response", "trial_index": 14, "time_elapsed": 904623, "internal_node_id": "0.0-4.0-0.0"}}, {"uniqueid": "w75809247:a22893339", "current_trial": 15, "dateTime": 1664464832605, "trialdata": {"revealed_states": [], "num_clicks_accrued": [0, 0, 0, 0, 0, 0, 0, 0, 0, 0, 0, 0, 0], "stateRewards": ["", -4, 8, 24, -48, -4, -8, -24, 24, 2, -4, -48, 24], "withholdReward": true, "trial_id": "mdp_898449441629", "block": "test1", "trialIndex": 4, "score": -45.25, "costs": -0.25, "simulationMode": [null, null, null], "rewards": [2, -4, -48], "path": ["0", "0", "9", "10", "11"], "rt": [7085, 2927, 600], "actions": ["left", "left", "up"], "actionTimes": [9161, 12592, 13681], "queries": {"click": {"state": {"target": ["9"], "time": [3215]}, "edge": {"target": [], "time": []}}, "mouseover": {"state": {"target": ["9", "10", "0"], "time": [2899, 3483, 4837]}, "edge": {"target": [], "time": []}}, "mouseout": {"state": {"target": ["0", "9", "10", "9", "0"], "time": [2283, 3433, 4516, 4649, 16878]}, "edge": {"target": [], "time": []}}}, "displayed_time": "14.20", "trialTime": 22267, "trial_type": "mouselab-mdp", "trial_index": 15, "time_elapsed": 926934, "internal_node_id": "0.0-4.0-1.0-0.0"}}, {"uniqueid": "w75809247:a22893339", "current_trial": 16, "dateTime": 1664464845525, "trialdata": {"revealed_states": [], "num_clicks_accrued": [0, 0, 0, 0, 0, 0, 0, 0, 0, 0, 0, 0, 0], "stateRewards": ["", 4, 8, -24, 48, 4, -8, -48, 48, -4, 8, -24, -48], "withholdReward": false, "trial_id": "mdp_376126356841", "block": "test1", "trialIndex": 5, "score": -7, "costs": 0, "simulationMode": [null, null, null], "rewards": [4, 8, -24], "path": ["0", "0", "1", "2", "3"], "rt": [1130, 213, 301], "actions": ["up", "up", "right"], "actionTimes": [3374, 4097, 4901], "queries": {"click": {"state": {"target": [], "time": []}, "edge": {"target": [], "time": []}}, "mouseover": {"state": {"target": [], "time": []}, "edge": {"target": [], "time": []}}, "mouseout": {"state": {"target": ["0"], "time": [2383]}, "edge": {"target": [], "time": []}}}, "displayed_time": "11.24", "trialTime": 12878, "trial_type": "mouselab-mdp", "trial_index": 16, "time_elapsed": 939854, "internal_node_id": "0.0-4.0-1.0-1.0"}}, {"uniqueid": "w75809247:a22893339", "current_trial": 17, "dateTime": 1664464857940, "trialdata": {"revealed_states": [], "num_clicks_accrued": [0, 0, 0, 0, 0, 0, 0, 0, 0, 0, 0, 0, 0], "stateRewards": ["", 2, 8, -48, -24, 2, -4, -48, 24, 2, -4, -24, -24], "withholdReward": true, "trial_id": "mdp_954659099093", "block": "test1", "trialIndex": 6, "score": -45, "costs": 0, "simulationMode": [null, null, null], "rewards": [2, -4, -48], "path": ["0", "0", "5", "6", "7"], "rt": [1474, 291, 129], "actions": ["right", "right", "up"], "actionTimes": [3281, 4080, 4717], "queries": {"click": {"state": {"target": [], "time": []}, "edge": {"target": [], "time": []}}, "mouseover": {"state": {"target": [], "time": []}, "edge": {"target": [], "time": []}}, "mouseout": {"state": {"target": ["0"], "time": [1938]}, "edge": {"target": [], "time": []}}}, "displayed_time": "9.81", "trialTime": 12368, "trial_type": "mouselab-mdp", "trial_index": 17, "time_elapsed": 952268, "internal_node_id": "0.0-4.0-1.0-2.0"}}, {"uniqueid": "w75809247:a22893339", "current_trial": 18, "dateTime": 1664464870887, "trialdata": {"revealed_states": [], "num_clicks_accrued": [0, 0, 0, 0, 0, 0, 0, 0, 0, 0, 0, 0, 0], "stateRewards": ["", -4, 8, 24, 24, -2, 8, -48, 48, 4, -8, 48, -48], "withholdReward": true, "trial_id": "mdp_295249220524", "block": "test1", "trialIndex": 7, "score": 33, "costs": 0, "simulationMode": [null, null, null], "rewards": [-4, 8, 24], "path": ["0", "0", "1", "2", "3"], "rt": [1514, 268, 387], "actions": ["up", "up", "right"], "actionTimes": [3765, 4521, 5423], "queries": {"click": {"state": {"target": [], "time": []}, "edge": {"target": [], "time": []}}, "mouseover": {"state": {"target": ["0"], "time": [2341]}, "edge": {"target": [], "time": []}}, "mouseout": {"state": {"target": ["0", "0"], "time": [1935, 2385]}, "edge": {"target": [], "time": []}}}, "displayed_time": "9.26", "trialTime": 12901, "trial_type": "mouselab-mdp", "trial_index": 18, "time_elapsed": 965216, "internal_node_id": "0.0-4.0-1.0-3.0"}}, {"uniqueid": "w75809247:a22893339", "current_trial": 19, "dateTime": 1664464887233, "trialdata": {"revealed_states": [], "num_clicks_accrued": [0, 0, 0, 0, 0, 0, 0, 0, 0, 0, 0, 0, 0], "stateRewards": ["", -2, 8, -24, 24, -4, -8, -24, 48, -2, -8, -48, 48], "withholdReward": true, "trial_id": "mdp_238332601315", "block": "test1", "trialIndex": 8, "score": -31, "costs": 0, "simulationMode": [null, null, null], "rewards": [-4, -8, -24], "path": ["0", "0", "5", "6", "7"], "rt": [8440, 251, 276], "actions": ["right", "right", "up"], "actionTimes": [10672, 11415, 12206], "queries": {"click": {"state": {"target": [], "time": []}, "edge": {"target": [], "time": []}}, "mouseover": {"state": {"target": ["5"], "time": [2449]}, "edge": {"target": [], "time": []}}, "mouseout": {"state": {"target": ["0", "5"], "time": [2182, 2499]}, "edge": {"target": [], "time": []}}}, "displayed_time": "12.71", "trialTime": 16297, "trial_type": "mouselab-mdp", "trial_index": 19, "time_elapsed": 981561, "internal_node_id": "0.0-4.0-1.0-4.0"}}, {"uniqueid": "w75809247:a22893339", "current_trial": 20, "dateTime": 1664464901009, "trialdata": {"revealed_states": [], "num_clicks_accrued": [0, 0, 0, 0, 0, 0, 0, 0, 0, 0, 0, 0, 0], "stateRewards": ["", 2, -8, 48, -24, 2, -4, 24, 48, 4, -4, 48, -24], "withholdReward": true, "trial_id": "mdp_656500928756", "block": "test1", "trialIndex": 9, "score": 26.75, "costs": -0.25, "simulationMode": [null, null, null], "rewards": [2, -4, 24], "path": ["0", "0", "5", "6", "7"], "rt": [6057, 819, 797], "actions": ["right", "right", "up"], "actionTimes": [7354, 8689, 10000], "queries": {"click": {"state": {"target": ["5"], "time": [6135]}, "edge": {"target": [], "time": []}}, "mouseover": {"state": {"target": ["5"], "time": [5820]}, "edge": {"target": [], "time": []}}, "mouseout": {"state": {"target": ["5", "0", "5"], "time": [1021, 1455, 6303]}, "edge": {"target": [], "time": []}}}, "displayed_time": "10.50", "trialTime": 13735, "trial_type": "mouselab-mdp", "trial_index": 20, "time_elapsed": 995338, "internal_node_id": "0.0-4.0-1.0-5.0"}}, {"uniqueid": "w75809247:a22893339", "current_trial": 21, "dateTime": 1664464911454, "trialdata": {"revealed_states": [], "num_clicks_accrued": [0, 0, 0, 0, 0, 0, 0, 0, 0, 0, 0, 0, 0], "stateRewards": ["", 4, -8, 24, 48, 2, -4, 48, 48, 4, -8, 48, 48], "withholdReward": true, "trial_id": "mdp_962498334245", "block": "test1", "trialIndex": 10, "score": 49, "costs": 0, "simulationMode": [null, null, null], "rewards": [4, -8, 48], "path": ["0", "0", "9", "10", "12"], "rt": [1454, 448, 379], "actions": ["left", "left", "down"], "actionTimes": [2816, 3781, 4679], "queries": {"click": {"state": {"target": [], "time": []}, "edge": {"target": [], "time": []}}, "mouseover": {"state": {"target": ["0"], "time": [1525]}, "edge": {"target": [], "time": []}}, "mouseout": {"state": {"target": [], "time": []}, "edge": {"target": [], "time": []}}}, "displayed_time": "8.36", "trialTime": 10396, "trial_type": "mouselab-mdp", "trial_index": 21, "time_elapsed": 1005783, "internal_node_id": "0.0-4.0-1.0-6.0"}}, {"uniqueid": "w75809247:a22893339", "current_trial": 22, "dateTime": 1664464924295, "trialdata": {"revealed_states": [], "num_clicks_accrued": [0, 0, 0, 0, 0, 0, 0, 0, 0, 0, 0, 0, 0], "stateRewards": ["", 4, -8, -48, 24, 4, 4, -24, -24, 2, 4, -48, 24], "withholdReward": false, "trial_id": "mdp_626971397185", "block": "test1", "trialIndex": 11, "score": 24.75, "costs": -0.25, "simulationMode": [null, null, null], "rewards": [4, -8, 24], "path": ["0", "0", "1", "2", "4"], "rt": [3259, 328, 382], "actions": ["up", "up", "left"], "actionTimes": [5375, 6216, 7103], "queries": {"click": {"state": {"target": ["1"], "time": [3935]}, "edge": {"target": [], "time": []}}, "mouseover": {"state": {"target": ["0", "0", "1"], "time": [2255, 3338, 3421]}, "edge": {"target": [], "time": []}}, "mouseout": {"state": {"target": ["0", "10", "10", "9", "0", "0"], "time": [1321, 1356, 1605, 1821, 2288, 3354]}, "edge": {"target": [], "time": []}}}, "displayed_time": "10.12", "trialTime": 12796, "trial_type": "mouselab-mdp", "trial_index": 22, "time_elapsed": 1018624, "internal_node_id": "0.0-4.0-1.0-7.0"}}, {"uniqueid": "w75809247:a22893339", "current_trial": 23, "dateTime": 1664464936618, "trialdata": {"revealed_states": [], "num_clicks_accrued": [0, 0, 0, 0, 0, 0, 0, 0, 0, 0, 0, 0, 0], "stateRewards": ["", 4, 4, -24, -48, 2, 4, 24, -48, 2, 4, 24, 24], "withholdReward": false, "trial_id": "mdp_223558518218", "block": "test1", "trialIndex": 12, "score": -35, "costs": 0, "simulationMode": [null, null, null], "rewards": [4, 4, -48], "path": ["0", "0", "1", "2", "4"], "rt": [1298, 476, 913], "actions": ["up", "up", "left"], "actionTimes": [2827, 3811, 5231], "queries": {"click": {"state": {"target": [], "time": []}, "edge": {"target": [], "time": []}}, "mouseover": {"state": {"target": [], "time": []}, "edge": {"target": [], "time": []}}, "mouseout": {"state": {"target": ["1"], "time": [1101]}, "edge": {"target": [], "time": []}}}, "displayed_time": "9.53", "trialTime": 12270, "trial_type": "mouselab-mdp", "trial_index": 23, "time_elapsed": 1030947, "internal_node_id": "0.0-4.0-1.0-8.0"}}, {"uniqueid": "w75809247:a22893339", "current_trial": 24, "dateTime": 1664464947776, "trialdata": {"revealed_states": [], "num_clicks_accrued": [0, 0, 0, 0, 0, 0, 0, 0, 0, 0, 0, 0, 0], "stateRewards": ["", 4, -8, 48, 48, 2, 4, 48, -48, 4, -4, -48, 48], "withholdReward": false, "trial_id": "mdp_519605841135", "block": "test1", "trialIndex": 13, "score": 49, "costs": 0, "simulationMode": [null, null, null], "rewards": [4, -8, 48], "path": ["0", "0", "1", "2", "3"], "rt": [1206, 374, 401], "actions": ["up", "up", "right"], "actionTimes": [2662, 3552, 4463], "queries": {"click": {"state": {"target": [], "time": []}, "edge": {"target": [], "time": []}}, "mouseover": {"state": {"target": [], "time": []}, "edge": {"target": [], "time": []}}, "mouseout": {"state": {"target": ["0"], "time": [1761]}, "edge": {"target": [], "time": []}}}, "displayed_time": "8.46", "trialTime": 11108, "trial_type": "mouselab-mdp", "trial_index": 24, "time_elapsed": 1042105, "internal_node_id": "0.0-4.0-1.0-9.0"}}, {"uniqueid": "w75809247:a22893339", "current_trial": 25, "dateTime": 1664464962506, "trialdata": {"revealed_states": [], "num_clicks_accrued": [0, 0, 0, 0, 0, 0, 0, 0, 0, 0, 0, 0, 0], "stateRewards": ["", -4, 8, -24, -24, 2, 4, 48, 48, -2, 4, 24, -48], "withholdReward": true, "trial_id": "mdp_397308196941", "block": "test1", "trialIndex": 14, "score": 59, "costs": 0, "simulationMode": [null, null, null], "rewards": [2, 4, 48], "path": ["0", "0", "5", "6", "7"], "rt": [4330, 3394, 811], "actions": ["right", "right", "up"], "actionTimes": [5639, 9547, 10846], "queries": {"click": {"state": {"target": [], "time": []}, "edge": {"target": [], "time": []}}, "mouseover": {"state": {"target": ["0"], "time": [1450]}, "edge": {"target": [], "time": []}}, "mouseout": {"state": {"target": ["0", "0"], "time": [1187, 1487]}, "edge": {"target": [], "time": []}}}, "displayed_time": "11.35", "trialTime": 14685, "trial_type": "mouselab-mdp", "trial_index": 25, "time_elapsed": 1056835, "internal_node_id": "0.0-4.0-1.0-10.0"}}, {"uniqueid": "w75809247:a22893339", "current_trial": 26, "dateTime": 1664464973701, "trialdata": {"revealed_states": [], "num_clicks_accrued": [0, 0, 0, 0, 0, 0, 0, 0, 0, 0, 0, 0, 0], "stateRewards": ["", 2, -4, 24, -24, 2, -8, 48, 48, 4, -4, 24, 48], "withholdReward": false, "trial_id": "mdp_947836623875", "block": "test1", "trialIndex": 15, "score": 53, "costs": 0, "simulationMode": [null, null, null], "rewards": [4, -4, 48], "path": ["0", "0", "9", "10", "12"], "rt": [4761, 214, 415], "actions": ["left", "left", "down"], "actionTimes": [6383, 7094, 8013], "queries": {"click": {"state": {"target": [], "time": []}, "edge": {"target": [], "time": []}}, "mouseover": {"state": {"target": [], "time": []}, "edge": {"target": [], "time": []}}, "mouseout": {"state": {"target": ["0"], "time": [1748]}, "edge": {"target": [], "time": []}}}, "displayed_time": "9.62", "trialTime": 11146, "trial_type": "mouselab-mdp", "trial_index": 26, "time_elapsed": 1068030, "internal_node_id": "0.0-4.0-1.0-11.0"}}, {"uniqueid": "w75809247:a22893339", "current_trial": 27, "dateTime": 1664464986980, "trialdata": {"revealed_states": [], "num_clicks_accrued": [0, 0, 0, 0, 0, 0, 0, 0, 0, 0, 0, 0, 0], "stateRewards": ["", -2, -4, -48, 48, -2, -4, 24, 48, -4, -8, -24, 24], "withholdReward": true, "trial_id": "mdp_917590390609", "block": "test1", "trialIndex": 16, "score": -31, "costs": 0, "simulationMode": [null, null, null], "rewards": [-4, -8, -24], "path": ["0", "0", "9", "10", "11"], "rt": [3894, 370, 261], "actions": ["left", "left", "up"], "actionTimes": [5474, 6336, 7109], "queries": {"click": {"state": {"target": [], "time": []}, "edge": {"target": [], "time": []}}, "mouseover": {"state": {"target": [], "time": []}, "edge": {"target": [], "time": []}}, "mouseout": {"state": {"target": ["0"], "time": [1716]}, "edge": {"target": [], "time": []}}}, "displayed_time": "11.58", "trialTime": 13230, "trial_type": "mouselab-mdp", "trial_index": 27, "time_elapsed": 1081309, "internal_node_id": "0.0-4.0-1.0-12.0"}}, {"uniqueid": "w75809247:a22893339", "current_trial": 28, "dateTime": 1664464999514, "trialdata": {"revealed_states": [], "num_clicks_accrued": [0, 0, 0, 0, 0, 0, 0, 0, 0, 0, 0, 0, 0], "stateRewards": ["", -4, -8, 48, -48, 2, -4, 48, -24, 2, -8, -48, -48], "withholdReward": false, "trial_id": "mdp_624553692913", "block": "test1", "trialIndex": 17, "score": -55, "costs": 0, "simulationMode": [null, null, null], "rewards": [-4, -8, -48], "path": ["0", "0", "1", "2", "4"], "rt": [1077, 222, 214], "actions": ["up", "up", "left"], "actionTimes": [3026, 3756, 4481], "queries": {"click": {"state": {"target": [], "time": []}, "edge": {"target": [], "time": []}}, "mouseover": {"state": {"target": ["0"], "time": [2052]}, "edge": {"target": [], "time": []}}, "mouseout": {"state": {"target": ["0", "0"], "time": [1851, 2084]}, "edge": {"target": [], "time": []}}}, "displayed_time": "10.95", "trialTime": 12487, "trial_type": "mouselab-mdp", "trial_index": 28, "time_elapsed": 1093843, "internal_node_id": "0.0-4.0-1.0-13.0"}}, {"uniqueid": "w75809247:a22893339", "current_trial": 29, "dateTime": 1664465011548, "trialdata": {"revealed_states": [], "num_clicks_accrued": [0, 0, 0, 0, 0, 0, 0, 0, 0, 0, 0, 0, 0], "stateRewards": ["", 2, -8, -24, 48, -4, -8, 24, -48, 4, -8, -24, -24], "withholdReward": false, "trial_id": "mdp_928911266656", "block": "test1", "trialIndex": 18, "score": 47, "costs": 0, "simulationMode": [null, null, null], "rewards": [2, -8, 48], "path": ["0", "0", "1", "2", "4"], "rt": [1202, 251, 298], "actions": ["up", "up", "left"], "actionTimes": [2552, 3295, 4109], "queries": {"click": {"state": {"target": [], "time": []}, "edge": {"target": [], "time": []}}, "mouseover": {"state": {"target": [], "time": []}, "edge": {"target": [], "time": []}}, "mouseout": {"state": {"target": ["5", "0"], "time": [1077, 1544]}, "edge": {"target": [], "time": []}}}, "displayed_time": "10.35", "trialTime": 11985, "trial_type": "mouselab-mdp", "trial_index": 29, "time_elapsed": 1105877, "internal_node_id": "0.0-4.0-1.0-14.0"}}, {"uniqueid": "w75809247:a22893339", "current_trial": 30, "dateTime": 1664465030051, "trialdata": {"revealed_states": [], "num_clicks_accrued": [0, 0, 0, 0, 0, 0, 0, 0, 0, 0, 0, 0, 0], "stateRewards": ["", -4, 4, -24, 48, 2, 4, -48, 24, 4, -8, -24, 24], "withholdReward": true, "trial_id": "mdp_740130150937", "block": "test1", "trialIndex": 19, "score": -19, "costs": 0, "simulationMode": [null, null, null], "rewards": [-4, 4, -24], "path": ["0", "0", "1", "2", "3"], "rt": [1123, 363, 8241], "actions": ["up", "up", "right"], "actionTimes": [3193, 4068, 12814], "queries": {"click": {"state": {"target": [], "time": []}, "edge": {"target": [], "time": []}}, "mouseover": {"state": {"target": [], "time": []}, "edge": {"target": [], "time": []}}, "mouseout": {"state": {"target": ["0", "3"], "time": [2222, 5538]}, "edge": {"target": [], "time": []}}}, "displayed_time": "13.30", "trialTime": 18454, "trial_type": "mouselab-mdp", "trial_index": 30, "time_elapsed": 1124380, "internal_node_id": "0.0-4.0-1.0-15.0"}}, {"uniqueid": "w75809247:a22893339", "current_trial": 31, "dateTime": 1664465047400, "trialdata": {"revealed_states": [], "num_clicks_accrued": [0, 0, 0, 0, 0, 0, 0, 0, 0, 0, 0, 0, 0], "stateRewards": ["", 2, -8, -48, 24, 4, 8, 48, -48, 2, -4, 24, 24], "withholdReward": true, "trial_id": "mdp_130475327289", "block": "test1", "trialIndex": 20, "score": 22.25, "costs": -0.75, "simulationMode": [null, null, null], "rewards": [2, -8, 24], "path": ["0", "0", "1", "2", "4"], "rt": [7947, 287, 537], "actions": ["up", "up", "left"], "actionTimes": [9597, 10378, 11427], "queries": {"click": {"state": {"target": ["1", "2", "4"], "time": [3401, 3873, 4992]}, "edge": {"target": [], "time": []}}, "mouseover": {"state": {"target": ["0", "1", "2", "4"], "time": [2892, 2975, 3626, 4408]}, "edge": {"target": [], "time": []}}, "mouseout": {"state": {"target": ["0", "0", "1", "2", "4"], "time": [1803, 2909, 3592, 4058, 5141]}, "edge": {"target": [], "time": []}}}, "displayed_time": "11.94", "trialTime": 17296, "trial_type": "mouselab-mdp", "trial_index": 31, "time_elapsed": 1141729, "internal_node_id": "0.0-4.0-1.0-16.0"}}, {"uniqueid": "w75809247:a22893339", "current_trial": 32, "dateTime": 1664465061976, "trialdata": {"revealed_states": [], "num_clicks_accrued": [0, 0, 0, 0, 0, 0, 0, 0, 0, 0, 0, 0, 0], "stateRewards": ["", 4, 4, 48, -48, -2, -8, -48, -24, 2, 4, -24, -48], "withholdReward": true, "trial_id": "mdp_239929662917", "block": "test1", "trialIndex": 21, "score": 60.5, "costs": -0.5, "simulationMode": [null, null, null], "rewards": [4, 4, 48], "path": ["0", "0", "1", "2", "3"], "rt": [8047, 331, 573], "actions": ["up", "up", "right"], "actionTimes": [9364, 10207, 11316], "queries": {"click": {"state": {"target": ["1", "3"], "time": [5891, 7506]}, "edge": {"target": [], "time": []}}, "mouseover": {"state": {"target": ["0", "1", "2", "3"], "time": [4193, 5611, 6310, 7259]}, "edge": {"target": [], "time": []}}, "mouseout": {"state": {"target": ["0", "0", "1", "2", "3"], "time": [1528, 4343, 6143, 7143, 7709]}, "edge": {"target": [], "time": []}}}, "displayed_time": "11.82", "trialTime": 14530, "trial_type": "mouselab-mdp", "trial_index": 32, "time_elapsed": 1156305, "internal_node_id": "0.0-4.0-1.0-17.0"}}, {"uniqueid": "w75809247:a22893339", "current_trial": 33, "dateTime": 1664465078298, "trialdata": {"revealed_states": [], "num_clicks_accrued": [0, 0, 0, 0, 0, 0, 0, 0, 0, 0, 0, 0, 0], "stateRewards": ["", -4, -8, -48, -48, 4, -8, 48, 48, 2, 8, 48, 24], "withholdReward": true, "trial_id": "mdp_880437222492", "block": "test1", "trialIndex": 22, "score": 62.75, "costs": -0.25, "simulationMode": [null, null, null], "rewards": [2, 8, 48], "path": ["0", "0", "9", "10", "11"], "rt": [10799, 215, 225], "actions": ["left", "left", "up"], "actionTimes": [12378, 13084, 13828], "queries": {"click": {"state": {"target": ["11"], "time": [6275]}, "edge": {"target": [], "time": []}}, "mouseover": {"state": {"target": ["9", "11"], "time": [3937, 4154]}, "edge": {"target": [], "time": []}}, "mouseout": {"state": {"target": ["0", "9", "11"], "time": [2321, 3954, 6487]}, "edge": {"target": [], "time": []}}}, "displayed_time": "14.34", "trialTime": 16267, "trial_type": "mouselab-mdp", "trial_index": 33, "time_elapsed": 1172627, "internal_node_id": "0.0-4.0-1.0-18.0"}}, {"uniqueid": "w75809247:a22893339", "current_trial": 34, "dateTime": 1664465090235, "trialdata": {"revealed_states": [], "num_clicks_accrued": [0, 0, 0, 0, 0, 0, 0, 0, 0, 0, 0, 0, 0], "stateRewards": ["", 4, 4, 48, -48, 4, 4, -48, 24, 2, 8, 24, -48], "withholdReward": true, "trial_id": "mdp_291674656283", "block": "test1", "trialIndex": 23, "score": -35, "costs": 0, "simulationMode": [null, null, null], "rewards": [4, 4, -48], "path": ["0", "0", "5", "6", "7"], "rt": [2916, 251, 146], "actions": ["right", "right", "up"], "actionTimes": [4168, 4922, 5583], "queries": {"click": {"state": {"target": [], "time": []}, "edge": {"target": [], "time": []}}, "mouseover": {"state": {"target": ["0"], "time": [1342]}, "edge": {"target": [], "time": []}}, "mouseout": {"state": {"target": ["10", "9", "0"], "time": [720, 970, 1404]}, "edge": {"target": [], "time": []}}}, "displayed_time": "10.25", "trialTime": 11875, "trial_type": "mouselab-mdp", "trial_index": 34, "time_elapsed": 1184564, "internal_node_id": "0.0-4.0-1.0-19.0"}}, {"uniqueid": "w75809247:a22893339", "current_trial": 35, "dateTime": 1664465115143, "trialdata": {"revealed_states": [], "num_clicks_accrued": [0, 0, 0, 0, 0, 0, 0, 0, 0, 0, 0, 0, 0], "stateRewards": ["", 2, 8, -24, -48, -4, 8, -48, -48, -2, -8, -24, -24], "withholdReward": true, "trial_id": "mdp_978177451072", "block": "test1", "trialIndex": 24, "score": -10.5, "costs": -1.5, "simulationMode": [null, null, null], "rewards": [2, 8, -24], "path": ["0", "0", "1", "2", "3"], "rt": [17441, 1408, 1088], "actions": ["up", "up", "right"], "actionTimes": [18866, 20792, 22388], "queries": {"click": {"state": {"target": ["12", "7", "3", "4", "8", "11"], "time": [3578, 6465, 9921, 12570, 13882, 16025]}, "edge": {"target": [], "time": []}}, "mouseover": {"state": {"target": ["12", "12", "10", "9", "5", "11", "1", "7", "5", "3", "1", "2", "4", "8", "0", "9", "11", "9", "0"], "time": [2589, 3144, 4355, 4655, 4888, 5471, 5871, 6288, 6671, 9787, 11719, 12269, 12386, 13752, 15334, 15385, 15485, 16551, 16801]}, "edge": {"target": [], "time": []}}, "mouseout": {"state": {"target": ["0", "12", "12", "12", "10", "9", "5", "11", "1", "7", "5", "3", "1", "2", "4", "8", "0", "9", "11", "9"], "time": [2039, 2832, 3855, 4272, 4538, 4705, 5255, 5804, 5888, 6604, 9603, 10053, 12169, 12286, 12719, 14085, 15368, 15418, 16318, 16651]}, "edge": {"target": [], "time": []}}}, "displayed_time": "22.90", "trialTime": 24856, "trial_type": "mouselab-mdp", "trial_index": 35, "time_elapsed": 1209472, "internal_node_id": "0.0-4.0-1.0-20.0"}}, {"uniqueid": "w75809247:a22893339", "current_trial": 36, "dateTime": 1664465126256, "trialdata": {"revealed_states": [], "num_clicks_accrued": [0, 0, 0, 0, 0, 0, 0, 0, 0, 0, 0, 0, 0], "stateRewards": ["", 4, 8, 24, 24, 2, -4, 48, -24, -4, 8, -24, 24], "withholdReward": true, "trial_id": "mdp_932292142091", "block": "test1", "trialIndex": 25, "score": 50.75, "costs": -0.25, "simulationMode": [null, null, null], "rewards": [2, -4, 48], "path": ["0", "0", "5", "6", "7"], "rt": [5310, 148, 58], "actions": ["right", "right", "up"], "actionTimes": [6408, 7071, 7648], "queries": {"click": {"state": {"target": ["6"], "time": [4142]}, "edge": {"target": [], "time": []}}, "mouseover": {"state": {"target": ["5", "6", "6"], "time": [1840, 2074, 3474]}, "edge": {"target": [], "time": []}}, "mouseout": {"state": {"target": ["0", "5", "6", "6"], "time": [1790, 1990, 3306, 4773]}, "edge": {"target": [], "time": []}}}, "displayed_time": "10.10", "trialTime": 11062, "trial_type": "mouselab-mdp", "trial_index": 36, "time_elapsed": 1220585, "internal_node_id": "0.0-4.0-1.0-21.0"}}, {"uniqueid": "w75809247:a22893339", "current_trial": 37, "dateTime": 1664465139333, "trialdata": {"revealed_states": [], "num_clicks_accrued": [0, 0, 0, 0, 0, 0, 0, 0, 0, 0, 0, 0, 0], "stateRewards": ["", -2, -4, -24, -48, 2, -8, -24, -24, 4, -8, 48, 48], "withholdReward": false, "trial_id": "mdp_950599994674", "block": "test1", "trialIndex": 26, "score": 49, "costs": 0, "simulationMode": [null, null, null], "rewards": [4, -8, 48], "path": ["0", "0", "9", "10", "12"], "rt": [2831, 152, 266], "actions": ["left", "left", "down"], "actionTimes": [4065, 4727, 5507], "queries": {"click": {"state": {"target": [], "time": []}, "edge": {"target": [], "time": []}}, "mouseover": {"state": {"target": ["0", "5"], "time": [1558, 1641]}, "edge": {"target": [], "time": []}}, "mouseout": {"state": {"target": ["5", "0", "0"], "time": [808, 1108, 1591]}, "edge": {"target": [], "time": []}}}, "displayed_time": "10.23", "trialTime": 13027, "trial_type": "mouselab-mdp", "trial_index": 37, "time_elapsed": 1233662, "internal_node_id": "0.0-4.0-1.0-22.0"}}, {"uniqueid": "w75809247:a22893339", "current_trial": 38, "dateTime": 1664465153025, "trialdata": {"revealed_states": [], "num_clicks_accrued": [0, 0, 0, 0, 0, 0, 0, 0, 0, 0, 0, 0, 0], "stateRewards": ["", -2, -4, 48, -24, -4, -4, -24, -24, -2, 4, -48, -24], "withholdReward": true, "trial_id": "mdp_410467837196", "block": "test1", "trialIndex": 27, "score": -27, "costs": 0, "simulationMode": [null, null, null], "rewards": [-4, -4, -24], "path": ["0", "0", "5", "6", "8"], "rt": [1366, 1016, 1551], "actions": ["right", "right", "down"], "actionTimes": [4544, 6075, 8142], "queries": {"click": {"state": {"target": [], "time": []}, "edge": {"target": [], "time": []}}, "mouseover": {"state": {"target": ["0"], "time": [3310]}, "edge": {"target": [], "time": []}}, "mouseout": {"state": {"target": ["5", "0", "0"], "time": [942, 1225, 3342]}, "edge": {"target": [], "time": []}}}, "displayed_time": "12.18", "trialTime": 13640, "trial_type": "mouselab-mdp", "trial_index": 38, "time_elapsed": 1247354, "internal_node_id": "0.0-4.0-1.0-23.0"}}, {"uniqueid": "w75809247:a22893339", "current_trial": 39, "dateTime": 1664465164551, "trialdata": {"revealed_states": [], "num_clicks_accrued": [0, 0, 0, 0, 0, 0, 0, 0, 0, 0, 0, 0, 0], "stateRewards": ["", 4, 4, -48, -48, 4, 4, -24, -24, -4, 8, -48, 24], "withholdReward": true, "trial_id": "mdp_669785455541", "block": "test1", "trialIndex": 28, "score": -39, "costs": 0, "simulationMode": [null, null, null], "rewards": [-4, 8, -48], "path": ["0", "0", "9", "10", "11"], "rt": [3611, 224, 146], "actions": ["left", "left", "up"], "actionTimes": [4783, 5500, 6154], "queries": {"click": {"state": {"target": [], "time": []}, "edge": {"target": [], "time": []}}, "mouseover": {"state": {"target": [], "time": []}, "edge": {"target": [], "time": []}}, "mouseout": {"state": {"target": ["0"], "time": [2025]}, "edge": {"target": [], "time": []}}}, "displayed_time": "10.17", "trialTime": 11471, "trial_type": "mouselab-mdp", "trial_index": 39, "time_elapsed": 1258880, "internal_node_id": "0.0-4.0-1.0-24.0"}}, {"uniqueid": "w75809247:a22893339", "current_trial": 40, "dateTime": 1664465176352, "trialdata": {"revealed_states": [], "num_clicks_accrued": [0, 0, 0, 0, 0, 0, 0, 0, 0, 0, 0, 0, 0], "stateRewards": ["", -4, 8, -24, 24, -2, -8, 24, -24, 4, -4, -48, 48], "withholdReward": true, "trial_id": "mdp_297684722007", "block": "test1", "trialIndex": 29, "score": -29.25, "costs": -0.25, "simulationMode": [null, null, null], "rewards": [-2, -8, -24], "path": ["0", "0", "5", "6", "8"], "rt": [3931, 170, 185], "actions": ["right", "right", "down"], "actionTimes": [4965, 5652, 6350], "queries": {"click": {"state": {"target": ["5"], "time": [3815]}, "edge": {"target": [], "time": []}}, "mouseover": {"state": {"target": ["6", "5"], "time": [1566, 2416]}, "edge": {"target": [], "time": []}}, "mouseout": {"state": {"target": ["0", "6"], "time": [1316, 2332]}, "edge": {"target": [], "time": []}}}, "displayed_time": "10.03", "trialTime": 11749, "trial_type": "mouselab-mdp", "trial_index": 40, "time_elapsed": 1270680, "internal_node_id": "0.0-4.0-1.0-25.0"}}, {"uniqueid": "w75809247:a22893339", "current_trial": 41, "dateTime": 1664465187859, "trialdata": {"revealed_states": [], "num_clicks_accrued": [0, 0, 0, 0, 0, 0, 0, 0, 0, 0, 0, 0, 0], "stateRewards": ["", -2, 8, 48, -24, 2, 4, -48, -24, -4, 8, -48, -48], "withholdReward": true, "trial_id": "mdp_539167561933", "block": "test1", "trialIndex": 30, "score": -13, "costs": 0, "simulationMode": [null, null, null], "rewards": [-2, 8, -24], "path": ["0", "0", "1", "2", "4"], "rt": [1617, 60, 175], "actions": ["up", "up", "left"], "actionTimes": [2747, 3322, 4003], "queries": {"click": {"state": {"target": [], "time": []}, "edge": {"target": [], "time": []}}, "mouseover": {"state": {"target": ["1", "1"], "time": [1561, 2093]}, "edge": {"target": [], "time": []}}, "mouseout": {"state": {"target": ["5", "1"], "time": [894, 1764]}, "edge": {"target": [], "time": []}}}, "displayed_time": "10.13", "trialTime": 11457, "trial_type": "mouselab-mdp", "trial_index": 41, "time_elapsed": 1282188, "internal_node_id": "0.0-4.0-1.0-26.0"}}, {"uniqueid": "w75809247:a22893339", "current_trial": 42, "dateTime": 1664465199331, "trialdata": {"revealed_states": [], "num_clicks_accrued": [0, 0, 0, 0, 0, 0, 0, 0, 0, 0, 0, 0, 0], "stateRewards": ["", 2, -4, -24, -48, -2, 8, -24, 48, -2, 8, 24, -48], "withholdReward": true, "trial_id": "mdp_566582551557", "block": "test1", "trialIndex": 31, "score": -21, "costs": 0, "simulationMode": [null, null, null], "rewards": [2, -4, -24], "path": ["0", "0", "1", "2", "3"], "rt": [918, 136, 343], "actions": ["up", "up", "right"], "actionTimes": [2164, 2818, 3674], "queries": {"click": {"state": {"target": [], "time": []}, "edge": {"target": [], "time": []}}, "mouseover": {"state": {"target": [], "time": []}, "edge": {"target": [], "time": []}}, "mouseout": {"state": {"target": ["1"], "time": [998]}, "edge": {"target": [], "time": []}}}, "displayed_time": "10.25", "trialTime": 11420, "trial_type": "mouselab-mdp", "trial_index": 42, "time_elapsed": 1293660, "internal_node_id": "0.0-4.0-1.0-27.0"}}, {"uniqueid": "w75809247:a22893339", "current_trial": 43, "dateTime": 1664465210362, "trialdata": {"revealed_states": [], "num_clicks_accrued": [0, 0, 0, 0, 0, 0, 0, 0, 0, 0, 0, 0, 0], "stateRewards": ["", -4, -8, -48, 24, -4, -4, -24, -48, 2, -8, -24, -48], "withholdReward": true, "trial_id": "mdp_628181832088", "block": "test1", "trialIndex": 32, "score": -49, "costs": 0, "simulationMode": [null, null, null], "rewards": [2, -8, -48], "path": ["0", "0", "9", "10", "12"], "rt": [1060, 86, 145], "actions": ["left", "left", "down"], "actionTimes": [2493, 3088, 3747], "queries": {"click": {"state": {"target": [], "time": []}, "edge": {"target": [], "time": []}}, "mouseover": {"state": {"target": [], "time": []}, "edge": {"target": [], "time": []}}, "mouseout": {"state": {"target": ["0"], "time": [1235]}, "edge": {"target": [], "time": []}}}, "displayed_time": "9.43", "trialTime": 10975, "trial_type": "mouselab-mdp", "trial_index": 43, "time_elapsed": 1304691, "internal_node_id": "0.0-4.0-1.0-28.0"}}, {"uniqueid": "w75809247:a22893339", "current_trial": 44, "dateTime": 1664465225203, "trialdata": {"revealed_states": [], "num_clicks_accrued": [0, 0, 0, 0, 0, 0, 0, 0, 0, 0, 0, 0, 0], "stateRewards": ["", -2, 4, -24, -24, -2, 4, 48, 24, -4, -8, 24, -48], "withholdReward": true, "trial_id": "mdp_191839460481", "block": "test1", "trialIndex": 33, "score": -17, "costs": 0, "simulationMode": [null, null, null], "rewards": [-2, 4, -24], "path": ["0", "0", "1", "2", "3"], "rt": [1794, 614, 358], "actions": ["up", "up", "right"], "actionTimes": [3462, 4584, 5461], "queries": {"click": {"state": {"target": [], "time": []}, "edge": {"target": [], "time": []}}, "mouseover": {"state": {"target": ["0"], "time": [1820]}, "edge": {"target": [], "time": []}}, "mouseout": {"state": {"target": ["0", "0"], "time": [1503, 1870]}, "edge": {"target": [], "time": []}}}, "displayed_time": "11.67", "trialTime": 14788, "trial_type": "mouselab-mdp", "trial_index": 44, "time_elapsed": 1319532, "internal_node_id": "0.0-4.0-1.0-29.0"}}, {"uniqueid": "w75809247:a22893339", "current_trial": 45, "dateTime": 1664465231366, "trialdata": {"rt": 6160, "stimulus": "<h1> End of block! </h1>\n\nYou have reached the end of the block 1/4. If you need a short break, feel free to take one now before moving on.\n\n<br><br>\nIn the next block, you will complete another 30 rounds of this game.\n\n<br><br>\n<div style='text-align: center;'>Press <code>space</code> to begin.</div>\n<br><br>\n<div style='text-align: center;'>(If the experiment doesn't continue, try clicking on the text and then pressing <code>space</code>.)</div>", "response": " ", "trial_id": "mdp_ready_2", "trial_type": "html-keyboard-response", "trial_index": 45, "time_elapsed": 1325695, "internal_node_id": "0.0-4.0-2.0"}}, {"uniqueid": "w75809247:a22893339", "current_trial": 46, "dateTime": 1664465244384, "trialdata": {"revealed_states": [], "num_clicks_accrued": [0, 0, 0, 0, 0, 0, 0, 0, 0, 0, 0, 0, 0], "stateRewards": ["", 4, -8, 24, 48, 2, -4, 48, 48, 4, -8, 48, 48], "withholdReward": true, "trial_id": "mdp_962498334245", "block": "test2", "trialIndex": 34, "score": 51, "costs": 0, "simulationMode": [null, null, null], "rewards": [2, -4, 48], "path": ["0", "0", "5", "6", "7"], "rt": [1724, 1096, 190], "actions": ["right", "right", "up"], "actionTimes": [4260, 5871, 6565], "queries": {"click": {"state": {"target": [], "time": []}, "edge": {"target": [], "time": []}}, "mouseover": {"state": {"target": [], "time": []}, "edge": {"target": [], "time": []}}, "mouseout": {"state": {"target": ["0"], "time": [2874]}, "edge": {"target": [], "time": []}}}, "displayed_time": "10.54", "trialTime": 12964, "trial_type": "mouselab-mdp", "trial_index": 46, "time_elapsed": 1338713, "internal_node_id": "0.0-4.0-3.0-0.0"}}, {"uniqueid": "w75809247:a22893339", "current_trial": 47, "dateTime": 1664465255988, "trialdata": {"revealed_states": [], "num_clicks_accrued": [0, 0, 0, 0, 0, 0, 0, 0, 0, 0, 0, 0, 0], "stateRewards": ["", -2, -8, -24, -48, 4, -8, 48, 24, 2, 4, -48, -48], "withholdReward": true, "trial_id": "mdp_898082967464", "block": "test2", "trialIndex": 35, "score": -29, "costs": 0, "simulationMode": [null, null, null], "rewards": [-2, -8, -24], "path": ["0", "0", "1", "2", "3"], "rt": [956, 144, 162], "actions": ["up", "up", "right"], "actionTimes": [2398, 3048, 3715], "queries": {"click": {"state": {"target": [], "time": []}, "edge": {"target": [], "time": []}}, "mouseover": {"state": {"target": [], "time": []}, "edge": {"target": [], "time": []}}, "mouseout": {"state": {"target": ["5"], "time": [1036]}, "edge": {"target": [], "time": []}}}, "displayed_time": "10.44", "trialTime": 11551, "trial_type": "mouselab-mdp", "trial_index": 47, "time_elapsed": 1350317, "internal_node_id": "0.0-4.0-3.0-1.0"}}, {"uniqueid": "w75809247:a22893339", "current_trial": 48, "dateTime": 1664465286551, "trialdata": {"revealed_states": [], "num_clicks_accrued": [0, 0, 0, 0, 0, 0, 0, 0, 0, 0, 0, 0, 0], "stateRewards": ["", 2, 8, 48, 24, 2, 8, 48, 48, -2, -4, -24, -48], "withholdReward": true, "trial_id": "mdp_717636349175", "block": "test2", "trialIndex": 36, "score": -49, "costs": 0, "simulationMode": [null, null, null], "rewards": [-2, -4, -48], "path": ["0", "0", "9", "10", "12"], "rt": [1182, 236, 213], "actions": ["left", "left", "down"], "actionTimes": [2962, 3711, 4438], "queries": {"click": {"state": {"target": [], "time": []}, "edge": {"target": [], "time": []}}, "mouseover": {"state": {"target": [], "time": []}, "edge": {"target": [], "time": []}}, "mouseout": {"state": {"target": ["0", "7", "0", "5"], "time": [7156, 7822, 27449, 27532]}, "edge": {"target": [], "time": []}}}, "displayed_time": "10.78", "trialTime": 30506, "trial_type": "mouselab-mdp", "trial_index": 48, "time_elapsed": 1380880, "internal_node_id": "0.0-4.0-3.0-2.0"}}, {"uniqueid": "w75809247:a22893339", "current_trial": 49, "dateTime": 1664465299636, "trialdata": {"revealed_states": [], "num_clicks_accrued": [0, 0, 0, 0, 0, 0, 0, 0, 0, 0, 0, 0, 0], "stateRewards": ["", -2, 8, -24, 24, 2, -8, 48, -24, 2, 8, -24, -24], "withholdReward": true, "trial_id": "mdp_674708270444", "block": "test2", "trialIndex": 37, "score": -13, "costs": 0, "simulationMode": [null, null, null], "rewards": [-2, 8, -24], "path": ["0", "0", "1", "2", "3"], "rt": [1489, 207, 844], "actions": ["up", "up", "right"], "actionTimes": [3198, 3908, 5260], "queries": {"click": {"state": {"target": [], "time": []}, "edge": {"target": [], "time": []}}, "mouseover": {"state": {"target": [], "time": []}, "edge": {"target": [], "time": []}}, "mouseout": {"state": {"target": ["5", "0"], "time": [1484, 1583]}, "edge": {"target": [], "time": []}}}, "displayed_time": "9.71", "trialTime": 13026, "trial_type": "mouselab-mdp", "trial_index": 49, "time_elapsed": 1393965, "internal_node_id": "0.0-4.0-3.0-3.0"}}, {"uniqueid": "w75809247:a22893339", "current_trial": 50, "dateTime": 1664465310943, "trialdata": {"revealed_states": [], "num_clicks_accrued": [0, 0, 0, 0, 0, 0, 0, 0, 0, 0, 0, 0, 0], "stateRewards": ["", -2, 4, 24, 48, 2, 4, -48, -48, 2, 8, 48, -48], "withholdReward": false, "trial_id": "mdp_409609775558", "block": "test2", "trialIndex": 38, "score": 54.5, "costs": -0.5, "simulationMode": [null, null, null], "rewards": [-2, 4, 48], "path": ["0", "0", "1", "2", "4"], "rt": [4168, 295, 1801], "actions": ["up", "up", "left"], "actionTimes": [5093, 5895, 8207], "queries": {"click": {"state": {"target": ["1", "4"], "time": [2263, 3928]}, "edge": {"target": [], "time": []}}, "mouseover": {"state": {"target": ["1", "4", "4"], "time": [2133, 3166, 3566]}, "edge": {"target": [], "time": []}}, "mouseout": {"state": {"target": ["0", "1", "1", "4", "4"], "time": [885, 2583, 2866, 3349, 4165]}, "edge": {"target": [], "time": []}}}, "displayed_time": "8.93", "trialTime": 11254, "trial_type": "mouselab-mdp", "trial_index": 50, "time_elapsed": 1405272, "internal_node_id": "0.0-4.0-3.0-4.0"}}, {"uniqueid": "w75809247:a22893339", "current_trial": 51, "dateTime": 1664465323850, "trialdata": {"revealed_states": [], "num_clicks_accrued": [0, 0, 0, 0, 0, 0, 0, 0, 0, 0, 0, 0, 0], "stateRewards": ["", -2, -4, -24, -24, 4, 8, 24, 24, -2, 8, 48, 48], "withholdReward": true, "trial_id": "mdp_620787912291", "block": "test2", "trialIndex": 39, "score": 40.75, "costs": -0.25, "simulationMode": [null, null, null], "rewards": [4, 8, 24], "path": ["0", "0", "5", "6", "7"], "rt": [7285, 273, 357], "actions": ["right", "right", "up"], "actionTimes": [8655, 9443, 10310], "queries": {"click": {"state": {"target": ["7"], "time": [7252]}, "edge": {"target": [], "time": []}}, "mouseover": {"state": {"target": ["0", "1", "5", "6", "7", "6"], "time": [2471, 2838, 5403, 5520, 6736, 7469]}, "edge": {"target": [], "time": []}}, "mouseout": {"state": {"target": ["1", "0", "0", "1", "5", "6", "7", "6"], "time": [955, 1555, 2538, 5320, 5453, 6636, 7403, 7503]}, "edge": {"target": [], "time": []}}}, "displayed_time": "10.82", "trialTime": 12853, "trial_type": "mouselab-mdp", "trial_index": 51, "time_elapsed": 1418179, "internal_node_id": "0.0-4.0-3.0-5.0"}}, {"uniqueid": "w75809247:a22893339", "current_trial": 52, "dateTime": 1664465335635, "trialdata": {"revealed_states": [], "num_clicks_accrued": [0, 0, 0, 0, 0, 0, 0, 0, 0, 0, 0, 0, 0], "stateRewards": ["", -2, -8, 24, -24, 4, -8, 48, 48, -4, -8, -24, -48], "withholdReward": false, "trial_id": "mdp_286767261523", "block": "test2", "trialIndex": 40, "score": 48.25, "costs": -0.75, "simulationMode": [null, null, null], "rewards": [4, -8, 48], "path": ["0", "0", "5", "6", "7"], "rt": [6553, 193, 91], "actions": ["right", "right", "up"], "actionTimes": [7858, 8566, 9165], "queries": {"click": {"state": {"target": ["9", "11", "7"], "time": [3431, 4334, 6678]}, "edge": {"target": [], "time": []}}, "mouseover": {"state": {"target": ["0", "9", "10", "11", "10", "5", "6", "7", "6"], "time": [2807, 2957, 3957, 4090, 4540, 5706, 5873, 6490, 6906]}, "edge": {"target": [], "time": []}}, "mouseout": {"state": {"target": ["0", "0", "9", "10", "11", "10", "5", "6", "7", "6"], "time": [2008, 2857, 3708, 3990, 4507, 4624, 5790, 6440, 6856, 6956]}, "edge": {"target": [], "time": []}}}, "displayed_time": "10.31", "trialTime": 11728, "trial_type": "mouselab-mdp", "trial_index": 52, "time_elapsed": 1429964, "internal_node_id": "0.0-4.0-3.0-6.0"}}, {"uniqueid": "w75809247:a22893339", "current_trial": 53, "dateTime": 1664465349385, "trialdata": {"revealed_states": [], "num_clicks_accrued": [0, 0, 0, 0, 0, 0, 0, 0, 0, 0, 0, 0, 0], "stateRewards": ["", -4, -8, 48, -24, 4, -8, 48, 48, -2, 4, -48, -24], "withholdReward": true, "trial_id": "mdp_925905402462", "block": "test2", "trialIndex": 41, "score": 40.75, "costs": -0.25, "simulationMode": [null, null, null], "rewards": [-4, -8, 48], "path": ["0", "0", "1", "2", "3"], "rt": [3934, 355, 243], "actions": ["up", "up", "right"], "actionTimes": [5170, 6043, 6798], "queries": {"click": {"state": {"target": ["3"], "time": [4001]}, "edge": {"target": [], "time": []}}, "mouseover": {"state": {"target": ["0", "0", "3"], "time": [1350, 3305, 3754]}, "edge": {"target": [], "time": []}}, "mouseout": {"state": {"target": ["5", "0", "0", "0", "0", "3"], "time": [755, 872, 1055, 1405, 3321, 4138]}, "edge": {"target": [], "time": []}}}, "displayed_time": "11.24", "trialTime": 13697, "trial_type": "mouselab-mdp", "trial_index": 53, "time_elapsed": 1443714, "internal_node_id": "0.0-4.0-3.0-7.0"}}, {"uniqueid": "w75809247:a22893339", "current_trial": 54, "dateTime": 1664465366677, "trialdata": {"revealed_states": [], "num_clicks_accrued": [0, 0, 0, 0, 0, 0, 0, 0, 0, 0, 0, 0, 0], "stateRewards": ["", -4, 8, 24, -24, 4, 8, -24, -48, 2, 4, 24, -24], "withholdReward": true, "trial_id": "mdp_782187007008", "block": "test2", "trialIndex": 42, "score": 33.75, "costs": -1.25, "simulationMode": [null, null, null], "rewards": [2, 4, 24], "path": ["0", "0", "9", "10", "11"], "rt": [11031, 431, 231], "actions": ["left", "left", "up"], "actionTimes": [12460, 13385, 14135], "queries": {"click": {"state": {"target": ["8", "4", "12", "9", "11"], "time": [4152, 5807, 6767, 9479, 11328]}, "edge": {"target": [], "time": []}}, "mouseover": {"state": {"target": ["6", "8", "5", "3", "3", "2", "4", "12", "12", "5", "9", "10", "11", "9", "11"], "time": [3657, 3941, 4673, 4990, 5223, 5356, 5606, 6323, 6623, 7439, 8222, 8272, 8439, 8855, 10971]}, "edge": {"target": [], "time": []}}, "mouseout": {"state": {"target": ["1", "0", "6", "8", "5", "3", "3", "2", "4", "12", "12", "5", "9", "10", "11", "9", "9", "9", "11"], "time": [1041, 1658, 3924, 4590, 4723, 5023, 5290, 5539, 5973, 6375, 7356, 7472, 8239, 8339, 8755, 9672, 10288, 10821, 11571]}, "edge": {"target": [], "time": []}}}, "displayed_time": "14.65", "trialTime": 17196, "trial_type": "mouselab-mdp", "trial_index": 54, "time_elapsed": 1461006, "internal_node_id": "0.0-4.0-3.0-8.0"}}, {"uniqueid": "w75809247:a22893339", "current_trial": 55, "dateTime": 1664465377370, "trialdata": {"revealed_states": [], "num_clicks_accrued": [0, 0, 0, 0, 0, 0, 0, 0, 0, 0, 0, 0, 0], "stateRewards": ["", -4, 8, -24, -24, 4, -8, 48, -24, -4, -8, -24, -48], "withholdReward": true, "trial_id": "mdp_391766721791", "block": "test2", "trialIndex": 43, "score": -15, "costs": 0, "simulationMode": [null, null, null], "rewards": [-4, 8, -24], "path": ["0", "0", "1", "2", "4"], "rt": [1552, 278, 246], "actions": ["up", "up", "left"], "actionTimes": [2939, 3709, 4461], "queries": {"click": {"state": {"target": [], "time": []}, "edge": {"target": [], "time": []}}, "mouseover": {"state": {"target": [], "time": []}, "edge": {"target": [], "time": []}}, "mouseout": {"state": {"target": ["0"], "time": [931]}, "edge": {"target": [], "time": []}}}, "displayed_time": "9.39", "trialTime": 10634, "trial_type": "mouselab-mdp", "trial_index": 55, "time_elapsed": 1471699, "internal_node_id": "0.0-4.0-3.0-9.0"}}, {"uniqueid": "w75809247:a22893339", "current_trial": 56, "dateTime": 1664465388800, "trialdata": {"revealed_states": [], "num_clicks_accrued": [0, 0, 0, 0, 0, 0, 0, 0, 0, 0, 0, 0, 0], "stateRewards": ["", 2, 4, 48, 24, -4, 8, 48, 48, 2, -4, -48, -24], "withholdReward": false, "trial_id": "mdp_822099887466", "block": "test2", "trialIndex": 44, "score": 59, "costs": 0, "simulationMode": [null, null, null], "rewards": [2, 4, 48], "path": ["0", "0", "1", "2", "3"], "rt": [2300, 198, 180], "actions": ["up", "up", "right"], "actionTimes": [3268, 3954, 4651], "queries": {"click": {"state": {"target": [], "time": []}, "edge": {"target": [], "time": []}}, "mouseover": {"state": {"target": [], "time": []}, "edge": {"target": [], "time": []}}, "mouseout": {"state": {"target": ["0"], "time": [2138]}, "edge": {"target": [], "time": []}}}, "displayed_time": "9.97", "trialTime": 11376, "trial_type": "mouselab-mdp", "trial_index": 56, "time_elapsed": 1483129, "internal_node_id": "0.0-4.0-3.0-10.0"}}, {"uniqueid": "w75809247:a22893339", "current_trial": 57, "dateTime": 1664465401447, "trialdata": {"revealed_states": [], "num_clicks_accrued": [0, 0, 0, 0, 0, 0, 0, 0, 0, 0, 0, 0, 0], "stateRewards": ["", 2, -4, 24, 24, 4, -4, -24, 24, -4, -4, 48, 48], "withholdReward": true, "trial_id": "mdp_566306223773", "block": "test2", "trialIndex": 45, "score": 27, "costs": 0, "simulationMode": [null, null, null], "rewards": [2, -4, 24], "path": ["0", "0", "1", "2", "4"], "rt": [1064, 275, 601], "actions": ["up", "up", "left"], "actionTimes": [2773, 3545, 4655], "queries": {"click": {"state": {"target": [], "time": []}, "edge": {"target": [], "time": []}}, "mouseover": {"state": {"target": ["8"], "time": [1920]}, "edge": {"target": [], "time": []}}, "mouseout": {"state": {"target": ["0"], "time": [1870]}, "edge": {"target": [], "time": []}}}, "displayed_time": "10.71", "trialTime": 12592, "trial_type": "mouselab-mdp", "trial_index": 57, "time_elapsed": 1495776, "internal_node_id": "0.0-4.0-3.0-11.0"}}, {"uniqueid": "w75809247:a22893339", "current_trial": 58, "dateTime": 1664465415569, "trialdata": {"revealed_states": [], "num_clicks_accrued": [0, 0, 0, 0, 0, 0, 0, 0, 0, 0, 0, 0, 0], "stateRewards": ["", -4, 8, -24, -24, 2, 4, 48, 48, -2, 4, 24, -48], "withholdReward": true, "trial_id": "mdp_397308196941", "block": "test2", "trialIndex": 46, "score": 59, "costs": 0, "simulationMode": [null, null, null], "rewards": [2, 4, 48], "path": ["0", "0", "5", "6", "8"], "rt": [1127, 170, 201], "actions": ["right", "right", "down"], "actionTimes": [2438, 3120, 3834], "queries": {"click": {"state": {"target": [], "time": []}, "edge": {"target": [], "time": []}}, "mouseover": {"state": {"target": [], "time": []}, "edge": {"target": [], "time": []}}, "mouseout": {"state": {"target": ["8", "0"], "time": [638, 934]}, "edge": {"target": [], "time": []}}}, "displayed_time": "10.31", "trialTime": 14065, "trial_type": "mouselab-mdp", "trial_index": 58, "time_elapsed": 1509898, "internal_node_id": "0.0-4.0-3.0-12.0"}}, {"uniqueid": "w75809247:a22893339", "current_trial": 59, "dateTime": 1664465426414, "trialdata": {"revealed_states": [], "num_clicks_accrued": [0, 0, 0, 0, 0, 0, 0, 0, 0, 0, 0, 0, 0], "stateRewards": ["", 2, 8, 24, 24, 2, -8, -24, -48, 2, 8, -48, 48], "withholdReward": true, "trial_id": "mdp_745175888812", "block": "test2", "trialIndex": 47, "score": 63, "costs": 0, "simulationMode": [null, null, null], "rewards": [2, 8, 48], "path": ["0", "0", "9", "10", "12"], "rt": [1150, 132, 180], "actions": ["left", "left", "down"], "actionTimes": [2069, 2705, 3401], "queries": {"click": {"state": {"target": [], "time": []}, "edge": {"target": [], "time": []}}, "mouseover": {"state": {"target": [], "time": []}, "edge": {"target": [], "time": []}}, "mouseout": {"state": {"target": ["0"], "time": [881]}, "edge": {"target": [], "time": []}}}, "displayed_time": "8.92", "trialTime": 10786, "trial_type": "mouselab-mdp", "trial_index": 59, "time_elapsed": 1520743, "internal_node_id": "0.0-4.0-3.0-13.0"}}, {"uniqueid": "w75809247:a22893339", "current_trial": 60, "dateTime": 1664465436845, "trialdata": {"revealed_states": [], "num_clicks_accrued": [0, 0, 0, 0, 0, 0, 0, 0, 0, 0, 0, 0, 0], "stateRewards": ["", -2, 8, 24, -48, -4, -8, -24, -48, -4, 8, -24, 48], "withholdReward": true, "trial_id": "mdp_464339499860", "block": "test2", "trialIndex": 48, "score": -31, "costs": 0, "simulationMode": [null, null, null], "rewards": [-4, -8, -24], "path": ["0", "0", "5", "6", "7"], "rt": [1197, 25, 1780], "actions": ["right", "right", "up"], "actionTimes": [2271, 2814, 5102], "queries": {"click": {"state": {"target": [], "time": []}, "edge": {"target": [], "time": []}}, "mouseover": {"state": {"target": [], "time": []}, "edge": {"target": [], "time": []}}, "mouseout": {"state": {"target": ["0"], "time": [1035]}, "edge": {"target": [], "time": []}}}, "displayed_time": "9.07", "trialTime": 10371, "trial_type": "mouselab-mdp", "trial_index": 60, "time_elapsed": 1531174, "internal_node_id": "0.0-4.0-3.0-14.0"}}, {"uniqueid": "w75809247:a22893339", "current_trial": 61, "dateTime": 1664465447125, "trialdata": {"revealed_states": [], "num_clicks_accrued": [0, 0, 0, 0, 0, 0, 0, 0, 0, 0, 0, 0, 0], "stateRewards": ["", -2, -4, -24, 48, -4, 8, 48, 48, 2, 8, -48, -24], "withholdReward": true, "trial_id": "mdp_136376573354", "block": "test2", "trialIndex": 49, "score": 57, "costs": 0, "simulationMode": [null, null, null], "rewards": [-4, 8, 48], "path": ["0", "0", "5", "6", "8"], "rt": [1301, 210, 813], "actions": ["right", "right", "down"], "actionTimes": [3074, 3799, 5119], "queries": {"click": {"state": {"target": [], "time": []}, "edge": {"target": [], "time": []}}, "mouseover": {"state": {"target": [], "time": []}, "edge": {"target": [], "time": []}}, "mouseout": {"state": {"target": ["0"], "time": [1734]}, "edge": {"target": [], "time": []}}}, "displayed_time": "8.77", "trialTime": 10222, "trial_type": "mouselab-mdp", "trial_index": 61, "time_elapsed": 1541454, "internal_node_id": "0.0-4.0-3.0-15.0"}}, {"uniqueid": "w75809247:a22893339", "current_trial": 62, "dateTime": 1664465462672, "trialdata": {"revealed_states": [], "num_clicks_accrued": [0, 0, 0, 0, 0, 0, 0, 0, 0, 0, 0, 0, 0], "stateRewards": ["", 4, 4, -48, -24, -2, -4, 48, 24, -4, 4, 24, -48], "withholdReward": true, "trial_id": "mdp_617383046444", "block": "test2", "trialIndex": 50, "score": 22.25, "costs": -0.75, "simulationMode": [null, null, null], "rewards": [-2, -4, 24], "path": ["0", "0", "5", "6", "8"], "rt": [6102, 218, 211], "actions": ["right", "right", "down"], "actionTimes": [11067, 11788, 12515], "queries": {"click": {"state": {"target": ["3", "4", "8"], "time": [7602, 8674, 10043]}, "edge": {"target": [], "time": []}}, "mouseover": {"state": {"target": ["3", "1", "1", "4", "0", "8", "8"], "time": [7171, 7804, 8271, 8471, 9254, 9687, 9920]}, "edge": {"target": [], "time": []}}, "mouseout": {"state": {"target": ["0", "3", "1", "1", "4", "0", "8"], "time": [4927, 7737, 7854, 8337, 8821, 9287, 9737]}, "edge": {"target": [], "time": []}}}, "displayed_time": "13.96", "trialTime": 15490, "trial_type": "mouselab-mdp", "trial_index": 62, "time_elapsed": 1557001, "internal_node_id": "0.0-4.0-3.0-16.0"}}, {"uniqueid": "w75809247:a22893339", "current_trial": 63, "dateTime": 1664465475177, "trialdata": {"revealed_states": [], "num_clicks_accrued": [0, 0, 0, 0, 0, 0, 0, 0, 0, 0, 0, 0, 0], "stateRewards": ["", 2, 4, 24, 48, -2, 8, 24, -24, -4, -4, 48, 48], "withholdReward": false, "trial_id": "mdp_753439303214", "block": "test2", "trialIndex": 51, "score": 45, "costs": 0, "simulationMode": [null, null, null], "rewards": [-4, -4, 48], "path": ["0", "0", "9", "10", "12"], "rt": [892, 228, 222], "actions": ["left", "left", "down"], "actionTimes": [2513, 3245, 3973], "queries": {"click": {"state": {"target": [], "time": []}, "edge": {"target": [], "time": []}}, "mouseover": {"state": {"target": [], "time": []}, "edge": {"target": [], "time": []}}, "mouseout": {"state": {"target": ["8", "0"], "time": [1217, 1817]}, "edge": {"target": [], "time": []}}}, "displayed_time": "10.62", "trialTime": 12444, "trial_type": "mouselab-mdp", "trial_index": 63, "time_elapsed": 1569506, "internal_node_id": "0.0-4.0-3.0-17.0"}}, {"uniqueid": "w75809247:a22893339", "current_trial": 64, "dateTime": 1664465486834, "trialdata": {"revealed_states": [], "num_clicks_accrued": [0, 0, 0, 0, 0, 0, 0, 0, 0, 0, 0, 0, 0], "stateRewards": ["", 4, 8, 48, 48, 4, 4, -24, -48, 4, 8, -48, -48], "withholdReward": true, "trial_id": "mdp_984548726931", "block": "test2", "trialIndex": 52, "score": -11, "costs": 0, "simulationMode": [null, null, null], "rewards": [4, 4, -24], "path": ["0", "0", "5", "6", "7"], "rt": [870, 205, 328], "actions": ["right", "right", "up"], "actionTimes": [2017, 2716, 3555], "queries": {"click": {"state": {"target": [], "time": []}, "edge": {"target": [], "time": []}}, "mouseover": {"state": {"target": ["0"], "time": [1228]}, "edge": {"target": [], "time": []}}, "mouseout": {"state": {"target": ["0", "0"], "time": [994, 1294]}, "edge": {"target": [], "time": []}}}, "displayed_time": "10.15", "trialTime": 11598, "trial_type": "mouselab-mdp", "trial_index": 64, "time_elapsed": 1581163, "internal_node_id": "0.0-4.0-3.0-18.0"}}, {"uniqueid": "w75809247:a22893339", "current_trial": 65, "dateTime": 1664465499798, "trialdata": {"revealed_states": [], "num_clicks_accrued": [0, 0, 0, 0, 0, 0, 0, 0, 0, 0, 0, 0, 0], "stateRewards": ["", 2, 8, -48, 24, -2, 4, 48, 48, -2, -8, 48, 24], "withholdReward": true, "trial_id": "mdp_157355418411", "block": "test2", "trialIndex": 53, "score": 19, "costs": 0, "simulationMode": [null, null, null], "rewards": [-2, -8, 24], "path": ["0", "0", "9", "10", "12"], "rt": [1251, 301, 313], "actions": ["left", "left", "down"], "actionTimes": [2469, 3284, 4112], "queries": {"click": {"state": {"target": [], "time": []}, "edge": {"target": [], "time": []}}, "mouseover": {"state": {"target": [], "time": []}, "edge": {"target": [], "time": []}}, "mouseout": {"state": {"target": ["0"], "time": [1399]}, "edge": {"target": [], "time": []}}}, "displayed_time": "9.22", "trialTime": 12904, "trial_type": "mouselab-mdp", "trial_index": 65, "time_elapsed": 1594126, "internal_node_id": "0.0-4.0-3.0-19.0"}}, {"uniqueid": "w75809247:a22893339", "current_trial": 66, "dateTime": 1664465511046, "trialdata": {"revealed_states": [], "num_clicks_accrued": [0, 0, 0, 0, 0, 0, 0, 0, 0, 0, 0, 0, 0], "stateRewards": ["", -2, -8, 24, -48, -4, 8, -48, -24, 4, 8, -24, 24], "withholdReward": false, "trial_id": "mdp_940444641142", "block": "test2", "trialIndex": 54, "score": -53, "costs": 0, "simulationMode": [null, null, null], "rewards": [-2, -8, -48], "path": ["0", "0", "1", "2", "4"], "rt": [1313, 249, 221], "actions": ["up", "up", "left"], "actionTimes": [3007, 3760, 4498], "queries": {"click": {"state": {"target": [], "time": []}, "edge": {"target": [], "time": []}}, "mouseover": {"state": {"target": [], "time": []}, "edge": {"target": [], "time": []}}, "mouseout": {"state": {"target": ["9", "0"], "time": [1027, 1827]}, "edge": {"target": [], "time": []}}}, "displayed_time": "9.70", "trialTime": 11185, "trial_type": "mouselab-mdp", "trial_index": 66, "time_elapsed": 1605375, "internal_node_id": "0.0-4.0-3.0-20.0"}}, {"uniqueid": "w75809247:a22893339", "current_trial": 67, "dateTime": 1664465521560, "trialdata": {"revealed_states": [], "num_clicks_accrued": [0, 0, 0, 0, 0, 0, 0, 0, 0, 0, 0, 0, 0], "stateRewards": ["", 4, 4, 48, -48, 4, 4, -48, 24, 2, 8, 24, -48], "withholdReward": false, "trial_id": "mdp_291674656283", "block": "test2", "trialIndex": 55, "score": 60.75, "costs": -0.25, "simulationMode": [null, null, null], "rewards": [4, 4, 48], "path": ["0", "0", "1", "2", "3"], "rt": [2888, 88, 181], "actions": ["up", "up", "right"], "actionTimes": [4106, 4708, 5401], "queries": {"click": {"state": {"target": ["3"], "time": [3104]}, "edge": {"target": [], "time": []}}, "mouseover": {"state": {"target": ["1", "4", "1", "3"], "time": [1854, 2104, 2654, 2937]}, "edge": {"target": [], "time": []}}, "mouseout": {"state": {"target": ["0", "1", "4", "1", "3"], "time": [1820, 1904, 2454, 2703, 3370]}, "edge": {"target": [], "time": []}}}, "displayed_time": "9.22", "trialTime": 10447, "trial_type": "mouselab-mdp", "trial_index": 67, "time_elapsed": 1615889, "internal_node_id": "0.0-4.0-3.0-21.0"}}, {"uniqueid": "w75809247:a22893339", "current_trial": 68, "dateTime": 1664465532886, "trialdata": {"revealed_states": [], "num_clicks_accrued": [0, 0, 0, 0, 0, 0, 0, 0, 0, 0, 0, 0, 0], "stateRewards": ["", -4, 4, -24, 24, 2, 4, -24, 48, -4, 8, -48, 48], "withholdReward": true, "trial_id": "mdp_422109108860", "block": "test2", "trialIndex": 56, "score": 59, "costs": 0, "simulationMode": [null, null, null], "rewards": [2, 4, 48], "path": ["0", "0", "5", "6", "8"], "rt": [1072, 191, 190], "actions": ["right", "right", "down"], "actionTimes": [2735, 3445, 4143], "queries": {"click": {"state": {"target": [], "time": []}, "edge": {"target": [], "time": []}}, "mouseover": {"state": {"target": [], "time": []}, "edge": {"target": [], "time": []}}, "mouseout": {"state": {"target": ["1", "0"], "time": [1269, 1836]}, "edge": {"target": [], "time": []}}}, "displayed_time": "9.66", "trialTime": 11258, "trial_type": "mouselab-mdp", "trial_index": 68, "time_elapsed": 1627214, "internal_node_id": "0.0-4.0-3.0-22.0"}}, {"uniqueid": "w75809247:a22893339", "current_trial": 69, "dateTime": 1664465544466, "trialdata": {"revealed_states": [], "num_clicks_accrued": [0, 0, 0, 0, 0, 0, 0, 0, 0, 0, 0, 0, 0], "stateRewards": ["", -4, -8, -48, 48, -2, -8, -48, -24, 4, 8, 24, -48], "withholdReward": true, "trial_id": "mdp_509977295685", "block": "test2", "trialIndex": 57, "score": -53, "costs": 0, "simulationMode": [null, null, null], "rewards": [-2, -8, -48], "path": ["0", "0", "5", "6", "7"], "rt": [1119, 265, 225], "actions": ["right", "right", "up"], "actionTimes": [2302, 3080, 3823], "queries": {"click": {"state": {"target": [], "time": []}, "edge": {"target": [], "time": []}}, "mouseover": {"state": {"target": [], "time": []}, "edge": {"target": [], "time": []}}, "mouseout": {"state": {"target": ["0"], "time": [1348]}, "edge": {"target": [], "time": []}}}, "displayed_time": "10.19", "trialTime": 11521, "trial_type": "mouselab-mdp", "trial_index": 69, "time_elapsed": 1638795, "internal_node_id": "0.0-4.0-3.0-23.0"}}, {"uniqueid": "w75809247:a22893339", "current_trial": 70, "dateTime": 1664465556317, "trialdata": {"revealed_states": [], "num_clicks_accrued": [0, 0, 0, 0, 0, 0, 0, 0, 0, 0, 0, 0, 0], "stateRewards": ["", -2, -4, 48, 48, 2, 4, -48, 24, 4, -8, 24, -24], "withholdReward": false, "trial_id": "mdp_628613319495", "block": "test2", "trialIndex": 58, "score": 34.5, "costs": -0.5, "simulationMode": [null, null, null], "rewards": [2, 4, 24], "path": ["0", "0", "5", "6", "8"], "rt": [3617, 169, 115], "actions": ["right", "right", "down"], "actionTimes": [5082, 5762, 6377], "queries": {"click": {"state": {"target": ["7", "8"], "time": [2488, 3880]}, "edge": {"target": [], "time": []}}, "mouseover": {"state": {"target": ["8", "6", "7", "6", "8"], "time": [1877, 2044, 2144, 2711, 3077]}, "edge": {"target": [], "time": []}}, "mouseout": {"state": {"target": ["0", "8", "6", "7", "6", "8"], "time": [1661, 2011, 2094, 2677, 2810, 4093]}, "edge": {"target": [], "time": []}}}, "displayed_time": "10.46", "trialTime": 11789, "trial_type": "mouselab-mdp", "trial_index": 70, "time_elapsed": 1650646, "internal_node_id": "0.0-4.0-3.0-24.0"}}, {"uniqueid": "w75809247:a22893339", "current_trial": 71, "dateTime": 1664465568032, "trialdata": {"revealed_states": [], "num_clicks_accrued": [0, 0, 0, 0, 0, 0, 0, 0, 0, 0, 0, 0, 0], "stateRewards": ["", 2, 4, -48, -24, -4, 4, -24, 24, -2, -8, -24, 24], "withholdReward": true, "trial_id": "mdp_640720803523", "block": "test2", "trialIndex": 59, "score": 18.75, "costs": -0.25, "simulationMode": [null, null, null], "rewards": [-2, -8, 24], "path": ["0", "0", "9", "10", "12"], "rt": [2573, 198, 175], "actions": ["left", "left", "down"], "actionTimes": [3853, 4556, 5249], "queries": {"click": {"state": {"target": ["12"], "time": [2343]}, "edge": {"target": [], "time": []}}, "mouseover": {"state": {"target": ["12"], "time": [1741]}, "edge": {"target": [], "time": []}}, "mouseout": {"state": {"target": ["0", "12"], "time": [1424, 2507]}, "edge": {"target": [], "time": []}}}, "displayed_time": "10.28", "trialTime": 11654, "trial_type": "mouselab-mdp", "trial_index": 71, "time_elapsed": 1662360, "internal_node_id": "0.0-4.0-3.0-25.0"}}, {"uniqueid": "w75809247:a22893339", "current_trial": 72, "dateTime": 1664465579773, "trialdata": {"revealed_states": [], "num_clicks_accrued": [0, 0, 0, 0, 0, 0, 0, 0, 0, 0, 0, 0, 0], "stateRewards": ["", -2, 4, -24, -48, -4, 8, -24, 48, 4, 4, -48, 24], "withholdReward": true, "trial_id": "mdp_341117665701", "block": "test2", "trialIndex": 60, "score": 56.25, "costs": -0.75, "simulationMode": [null, null, null], "rewards": [-4, 8, 48], "path": ["0", "0", "5", "6", "8"], "rt": [5984, 145, 102], "actions": ["right", "right", "down"], "actionTimes": [7391, 8042, 8648], "queries": {"click": {"state": {"target": ["3", "11", "8"], "time": [2317, 4252, 6396]}, "edge": {"target": [], "time": []}}, "mouseover": {"state": {"target": ["3", "11", "10", "9", "1", "5", "8"], "time": [2097, 4130, 4413, 5663, 5829, 5963, 6029]}, "edge": {"target": [], "time": []}}, "mouseout": {"state": {"target": ["0", "3", "11", "10", "9", "1", "5", "8"], "time": [1597, 2480, 4380, 4463, 5714, 5896, 5996, 6579]}, "edge": {"target": [], "time": []}}}, "displayed_time": "10.41", "trialTime": 11673, "trial_type": "mouselab-mdp", "trial_index": 72, "time_elapsed": 1674102, "internal_node_id": "0.0-4.0-3.0-26.0"}}, {"uniqueid": "w75809247:a22893339", "current_trial": 73, "dateTime": 1664465590020, "trialdata": {"revealed_states": [], "num_clicks_accrued": [0, 0, 0, 0, 0, 0, 0, 0, 0, 0, 0, 0, 0], "stateRewards": ["", 2, 8, -24, -48, 2, 4, -24, 48, 2, -8, 48, -24], "withholdReward": true, "trial_id": "mdp_791659307216", "block": "test2", "trialIndex": 61, "score": -13, "costs": 0, "simulationMode": [null, null, null], "rewards": [2, 4, -24], "path": ["0", "0", "5", "6", "7"], "rt": [1345, 247, 89], "actions": ["right", "right", "up"], "actionTimes": [2391, 3153, 3778], "queries": {"click": {"state": {"target": [], "time": []}, "edge": {"target": [], "time": []}}, "mouseover": {"state": {"target": [], "time": []}, "edge": {"target": [], "time": []}}, "mouseout": {"state": {"target": ["0"], "time": [1222]}, "edge": {"target": [], "time": []}}}, "displayed_time": "9.05", "trialTime": 10181, "trial_type": "mouselab-mdp", "trial_index": 73, "time_elapsed": 1684349, "internal_node_id": "0.0-4.0-3.0-27.0"}}, {"uniqueid": "w75809247:a22893339", "current_trial": 74, "dateTime": 1664465602513, "trialdata": {"revealed_states": [], "num_clicks_accrued": [0, 0, 0, 0, 0, 0, 0, 0, 0, 0, 0, 0, 0], "stateRewards": ["", -4, 8, 24, -24, -2, 4, -24, 48, -2, 8, -48, -24], "withholdReward": false, "trial_id": "mdp_799359103169", "block": "test2", "trialIndex": 62, "score": 32.5, "costs": -0.5, "simulationMode": [null, null, null], "rewards": [-4, 8, 24], "path": ["0", "0", "1", "2", "3"], "rt": [3629, 71, 178], "actions": ["up", "up", "right"], "actionTimes": [4970, 5547, 6236], "queries": {"click": {"state": {"target": ["7", "3"], "time": [1959, 3903]}, "edge": {"target": [], "time": []}}, "mouseover": {"state": {"target": ["5", "7", "6", "5", "3"], "time": [1676, 1726, 2159, 3625, 3725]}, "edge": {"target": [], "time": []}}, "mouseout": {"state": {"target": ["0", "5", "7", "6", "5", "3"], "time": [1492, 1692, 2125, 2192, 3658, 4058]}, "edge": {"target": [], "time": []}}}, "displayed_time": "10.34", "trialTime": 12432, "trial_type": "mouselab-mdp", "trial_index": 74, "time_elapsed": 1696842, "internal_node_id": "0.0-4.0-3.0-28.0"}}, {"uniqueid": "w75809247:a22893339", "current_trial": 75, "dateTime": 1664465617016, "trialdata": {"revealed_states": [], "num_clicks_accrued": [0, 0, 0, 0, 0, 0, 0, 0, 0, 0, 0, 0, 0], "stateRewards": ["", -4, -4, -48, 48, -4, -8, -24, -48, -2, 8, 48, 24], "withholdReward": true, "trial_id": "mdp_365393526663", "block": "test2", "trialIndex": 63, "score": -31.25, "costs": -0.25, "simulationMode": [null, null, null], "rewards": [-4, -8, -24], "path": ["0", "0", "5", "6", "7"], "rt": [6095, 3325, 192], "actions": ["right", "right", "up"], "actionTimes": [7582, 11415, 12115], "queries": {"click": {"state": {"target": ["8"], "time": [5086]}, "edge": {"target": [], "time": []}}, "mouseover": {"state": {"target": ["8"], "time": [4873]}, "edge": {"target": [], "time": []}}, "mouseout": {"state": {"target": ["5", "0", "8"], "time": [1141, 1608, 5173]}, "edge": {"target": [], "time": []}}}, "displayed_time": "12.62", "trialTime": 14438, "trial_type": "mouselab-mdp", "trial_index": 75, "time_elapsed": 1711345, "internal_node_id": "0.0-4.0-3.0-29.0"}}, {"uniqueid": "w75809247:a22893339", "current_trial": 76, "dateTime": 1664465619516, "trialdata": {"rt": 2496, "stimulus": "<h1> End of block! </h1>\n\nYou have reached the end of the block 2/4. If you need a short break, feel free to take one now before moving on.\n\n<br><br>\nIn the next block, you will complete another 30 rounds of this game.\n\n<br><br>\n<div style='text-align: center;'>Press <code>space</code> to begin.</div>\n<br><br>\n<div style='text-align: center;'>(If the experiment doesn't continue, try clicking on the text and then pressing <code>space</code>.)</div>", "response": " ", "trial_id": "mdp_ready_3", "trial_type": "html-keyboard-response", "trial_index": 76, "time_elapsed": 1713845, "internal_node_id": "0.0-4.0-4.0"}}, {"uniqueid": "w75809247:a22893339", "current_trial": 77, "dateTime": 1664465631918, "trialdata": {"revealed_states": [], "num_clicks_accrued": [0, 0, 0, 0, 0, 0, 0, 0, 0, 0, 0, 0, 0], "stateRewards": ["", -2, -4, -24, -48, -4, -8, -48, 24, -4, -8, -24, -48], "withholdReward": true, "trial_id": "mdp_475782454549", "block": "test3", "trialIndex": 64, "score": 16.25, "costs": -0.75, "simulationMode": [null, null, null], "rewards": [-4, -8, 24], "path": ["0", "0", "5", "6", "8"], "rt": [6733, 53, 92], "actions": ["right", "right", "down"], "actionTimes": [8733, 9299, 9905], "queries": {"click": {"state": {"target": ["4", "12", "8"], "time": [4370, 5770, 7602]}, "edge": {"target": [], "time": []}}, "mouseover": {"state": {"target": ["0", "1", "4", "9", "12", "6", "6", "8"], "time": [3914, 3997, 4130, 5063, 5480, 6896, 7362, 7429]}, "edge": {"target": [], "time": []}}, "mouseout": {"state": {"target": ["0", "0", "1", "4", "9", "12", "6", "6", "8"], "time": [2098, 3947, 4030, 4513, 5080, 5896, 7096, 7396, 7829]}, "edge": {"target": [], "time": []}}}, "displayed_time": "11.00", "trialTime": 12336, "trial_type": "mouselab-mdp", "trial_index": 77, "time_elapsed": 1726247, "internal_node_id": "0.0-4.0-5.0-0.0"}}, {"uniqueid": "w75809247:a22893339", "current_trial": 78, "dateTime": 1664465642847, "trialdata": {"revealed_states": [], "num_clicks_accrued": [0, 0, 0, 0, 0, 0, 0, 0, 0, 0, 0, 0, 0], "stateRewards": ["", -2, -8, -24, 24, -2, -8, -48, 24, -2, -8, 24, 24], "withholdReward": false, "trial_id": "mdp_336617436097", "block": "test3", "trialIndex": 65, "score": -53, "costs": 0, "simulationMode": [null, null, null], "rewards": [-2, -8, -48], "path": ["0", "0", "5", "6", "7"], "rt": [775, 150, 53], "actions": ["right", "right", "up"], "actionTimes": [2408, 3070, 3640], "queries": {"click": {"state": {"target": [], "time": []}, "edge": {"target": [], "time": []}}, "mouseover": {"state": {"target": [], "time": []}, "edge": {"target": [], "time": []}}, "mouseout": {"state": {"target": ["0"], "time": [1770]}, "edge": {"target": [], "time": []}}}, "displayed_time": "9.63", "trialTime": 10858, "trial_type": "mouselab-mdp", "trial_index": 78, "time_elapsed": 1737176, "internal_node_id": "0.0-4.0-5.0-1.0"}}, {"uniqueid": "w75809247:a22893339", "current_trial": 79, "dateTime": 1664465654227, "trialdata": {"revealed_states": [], "num_clicks_accrued": [0, 0, 0, 0, 0, 0, 0, 0, 0, 0, 0, 0, 0], "stateRewards": ["", 2, -8, 48, -24, 2, 8, 24, -24, 4, -4, -48, -48], "withholdReward": true, "trial_id": "mdp_130946197263", "block": "test3", "trialIndex": 66, "score": 47, "costs": 0, "simulationMode": [null, null, null], "rewards": [2, -8, 48], "path": ["0", "0", "1", "2", "3"], "rt": [1219, 200, 242], "actions": ["up", "up", "right"], "actionTimes": [2246, 2961, 3719], "queries": {"click": {"state": {"target": [], "time": []}, "edge": {"target": [], "time": []}}, "mouseover": {"state": {"target": [], "time": []}, "edge": {"target": [], "time": []}}, "mouseout": {"state": {"target": ["0"], "time": [1128]}, "edge": {"target": [], "time": []}}}, "displayed_time": "10.03", "trialTime": 11315, "trial_type": "mouselab-mdp", "trial_index": 79, "time_elapsed": 1748555, "internal_node_id": "0.0-4.0-5.0-2.0"}}, {"uniqueid": "w75809247:a22893339", "current_trial": 80, "dateTime": 1664465663632, "trialdata": {"revealed_states": [], "num_clicks_accrued": [0, 0, 0, 0, 0, 0, 0, 0, 0, 0, 0, 0, 0], "stateRewards": ["", 2, -4, 48, -48, 2, 4, -24, 24, -4, -8, 24, -48], "withholdReward": true, "trial_id": "mdp_238810765895", "block": "test3", "trialIndex": 67, "score": -45, "costs": 0, "simulationMode": [null, null, null], "rewards": [2, -4, -48], "path": ["0", "0", "1", "2", "4"], "rt": [2425, 288, 388], "actions": ["up", "up", "left"], "actionTimes": [3566, 4365, 5265], "queries": {"click": {"state": {"target": [], "time": []}, "edge": {"target": [], "time": []}}, "mouseover": {"state": {"target": [], "time": []}, "edge": {"target": [], "time": []}}, "mouseout": {"state": {"target": ["0"], "time": [1344]}, "edge": {"target": [], "time": []}}}, "displayed_time": "8.14", "trialTime": 9341, "trial_type": "mouselab-mdp", "trial_index": 80, "time_elapsed": 1757961, "internal_node_id": "0.0-4.0-5.0-3.0"}}, {"uniqueid": "w75809247:a22893339", "current_trial": 81, "dateTime": 1664465674731, "trialdata": {"revealed_states": [], "num_clicks_accrued": [0, 0, 0, 0, 0, 0, 0, 0, 0, 0, 0, 0, 0], "stateRewards": ["", -2, -8, -24, -24, 4, -4, -48, 48, 2, 8, 48, -48], "withholdReward": true, "trial_id": "mdp_498095124548", "block": "test3", "trialIndex": 68, "score": -29, "costs": 0, "simulationMode": [null, null, null], "rewards": [-2, -8, -24], "path": ["0", "0", "1", "2", "4"], "rt": [2623, 207, 309], "actions": ["up", "up", "left"], "actionTimes": [4466, 5189, 6007], "queries": {"click": {"state": {"target": [], "time": []}, "edge": {"target": [], "time": []}}, "mouseover": {"state": {"target": [], "time": []}, "edge": {"target": [], "time": []}}, "mouseout": {"state": {"target": [], "time": []}, "edge": {"target": [], "time": []}}}, "displayed_time": "9.85", "trialTime": 11030, "trial_type": "mouselab-mdp", "trial_index": 81, "time_elapsed": 1769059, "internal_node_id": "0.0-4.0-5.0-4.0"}}, {"uniqueid": "w75809247:a22893339", "current_trial": 82, "dateTime": 1664465686310, "trialdata": {"revealed_states": [], "num_clicks_accrued": [0, 0, 0, 0, 0, 0, 0, 0, 0, 0, 0, 0, 0], "stateRewards": ["", -4, 8, -48, -48, -2, -8, -24, -48, 2, -4, -48, 24], "withholdReward": false, "trial_id": "mdp_743906784415", "block": "test3", "trialIndex": 69, "score": -53, "costs": 0, "simulationMode": [null, null, null], "rewards": [-2, -8, -48], "path": ["0", "0", "5", "6", "8"], "rt": [980, 159, 1106], "actions": ["right", "right", "down"], "actionTimes": [1955, 2628, 4242], "queries": {"click": {"state": {"target": [], "time": []}, "edge": {"target": [], "time": []}}, "mouseover": {"state": {"target": ["0"], "time": [1084]}, "edge": {"target": [], "time": []}}, "mouseout": {"state": {"target": ["0"], "time": [834]}, "edge": {"target": [], "time": []}}}, "displayed_time": "9.98", "trialTime": 11516, "trial_type": "mouselab-mdp", "trial_index": 82, "time_elapsed": 1780639, "internal_node_id": "0.0-4.0-5.0-5.0"}}, {"uniqueid": "w75809247:a22893339", "current_trial": 83, "dateTime": 1664465724817, "trialdata": {"revealed_states": [], "num_clicks_accrued": [0, 0, 0, 0, 0, 0, 0, 0, 0, 0, 0, 0, 0], "stateRewards": ["", -4, 4, -24, 24, -2, -4, 48, 24, 2, 8, -48, 24], "withholdReward": true, "trial_id": "mdp_150340189492", "block": "test3", "trialIndex": 70, "score": 38.5, "costs": -0.5, "simulationMode": [null, null, null], "rewards": [2, 8, 24], "path": ["0", "0", "9", "10", "12"], "rt": [2922, 318, 177], "actions": ["left", "left", "down"], "actionTimes": [3895, 4720, 5412], "queries": {"click": {"state": {"target": ["11", "12"], "time": [1707, 2708]}, "edge": {"target": [], "time": []}}, "mouseover": {"state": {"target": ["9", "11", "12", "12"], "time": [1418, 1518, 2234, 2584]}, "edge": {"target": [], "time": []}}, "mouseout": {"state": {"target": ["0", "9", "11", "12", "12", "8"], "time": [1202, 1452, 1901, 2284, 2985, 7066]}, "edge": {"target": [], "time": []}}}, "displayed_time": "35.98", "trialTime": 38444, "trial_type": "mouselab-mdp", "trial_index": 83, "time_elapsed": 1819146, "internal_node_id": "0.0-4.0-5.0-6.0"}}, {"uniqueid": "w75809247:a22893339", "current_trial": 84, "dateTime": 1664465735634, "trialdata": {"revealed_states": [], "num_clicks_accrued": [0, 0, 0, 0, 0, 0, 0, 0, 0, 0, 0, 0, 0], "stateRewards": ["", 2, 8, 24, -48, 4, 8, 24, 48, 2, -8, -24, 24], "withholdReward": true, "trial_id": "mdp_939899431582", "block": "test3", "trialIndex": 71, "score": 38.75, "costs": -0.25, "simulationMode": [null, null, null], "rewards": [2, 8, 24], "path": ["0", "0", "1", "2", "3"], "rt": [3406, 142, 60], "actions": ["up", "up", "right"], "actionTimes": [4537, 5184, 5751], "queries": {"click": {"state": {"target": ["3"], "time": [3730]}, "edge": {"target": [], "time": []}}, "mouseover": {"state": {"target": ["0", "0", "3"], "time": [1242, 3291, 3608]}, "edge": {"target": [], "time": []}}, "mouseout": {"state": {"target": ["0", "0", "0", "3"], "time": [925, 1308, 3308, 7552]}, "edge": {"target": [], "time": []}}}, "displayed_time": "9.13", "trialTime": 10748, "trial_type": "mouselab-mdp", "trial_index": 84, "time_elapsed": 1829963, "internal_node_id": "0.0-4.0-5.0-7.0"}}, {"uniqueid": "w75809247:a22893339", "current_trial": 85, "dateTime": 1664465745960, "trialdata": {"revealed_states": [], "num_clicks_accrued": [0, 0, 0, 0, 0, 0, 0, 0, 0, 0, 0, 0, 0], "stateRewards": ["", 2, 4, -48, 48, -4, 8, -48, -24, -4, -4, 48, 48], "withholdReward": true, "trial_id": "mdp_613582696541", "block": "test3", "trialIndex": 72, "score": 58.5, "costs": -0.5, "simulationMode": [null, null, null], "rewards": [2, 4, 48], "path": ["0", "0", "1", "2", "4"], "rt": [4456, 102, 61], "actions": ["up", "up", "left"], "actionTimes": [5612, 6225, 6801], "queries": {"click": {"state": {"target": ["7", "4"], "time": [3340, 4652]}, "edge": {"target": [], "time": []}}, "mouseover": {"state": {"target": ["5", "7", "5", "2", "2", "4"], "time": [3025, 3157, 3823, 4090, 4426, 4507]}, "edge": {"target": [], "time": []}}, "mouseout": {"state": {"target": ["3", "1", "0", "5", "7", "5", "2", "2", "4"], "time": [757, 857, 2924, 3040, 3690, 4040, 4157, 4473, 4990]}, "edge": {"target": [], "time": []}}}, "displayed_time": "9.16", "trialTime": 10260, "trial_type": "mouselab-mdp", "trial_index": 85, "time_elapsed": 1840289, "internal_node_id": "0.0-4.0-5.0-8.0"}}, {"uniqueid": "w75809247:a22893339", "current_trial": 86, "dateTime": 1664465830661, "trialdata": {"revealed_states": [], "num_clicks_accrued": [0, 0, 0, 0, 0, 0, 0, 0, 0, 0, 0, 0, 0], "stateRewards": ["", -4, 4, 24, 24, 4, -8, 48, -48, -2, -8, 24, 24], "withholdReward": false, "trial_id": "mdp_395264223239", "block": "test3", "trialIndex": 73, "score": 28.75, "costs": -0.25, "simulationMode": [null, null, null], "rewards": [-4, 4, 24], "path": ["0", "0", "1", "2", "4"], "rt": [1661, 130, 86], "actions": ["up", "up", "left"], "actionTimes": [2681, 3328, 3917], "queries": {"click": {"state": {"target": ["4"], "time": [1584]}, "edge": {"target": [], "time": []}}, "mouseover": {"state": {"target": ["4"], "time": [1431]}, "edge": {"target": [], "time": []}}, "mouseout": {"state": {"target": ["0", "4", "0", "9", "12"], "time": [1198, 1831, 9611, 9678, 9711]}, "edge": {"target": [], "time": []}}}, "displayed_time": "10.02", "trialTime": 84637, "trial_type": "mouselab-mdp", "trial_index": 86, "time_elapsed": 1924989, "internal_node_id": "0.0-4.0-5.0-9.0"}}, {"uniqueid": "w75809247:a22893339", "current_trial": 87, "dateTime": 1664465845259, "trialdata": {"revealed_states": [], "num_clicks_accrued": [0, 0, 0, 0, 0, 0, 0, 0, 0, 0, 0, 0, 0], "stateRewards": ["", 2, 4, 48, 48, 4, -8, 24, -48, -4, -8, -24, -48], "withholdReward": false, "trial_id": "mdp_343818007251", "block": "test3", "trialIndex": 74, "score": 59, "costs": 0, "simulationMode": [null, null, null], "rewards": [2, 4, 48], "path": ["0", "0", "1", "2", "3"], "rt": [1237, 1814, 606], "actions": ["up", "up", "right"], "actionTimes": [2922, 5243, 6369], "queries": {"click": {"state": {"target": [], "time": []}, "edge": {"target": [], "time": []}}, "mouseover": {"state": {"target": ["0"], "time": [1796]}, "edge": {"target": [], "time": []}}, "mouseout": {"state": {"target": ["5", "0"], "time": [1479, 1829]}, "edge": {"target": [], "time": []}}}, "displayed_time": "10.69", "trialTime": 14530, "trial_type": "mouselab-mdp", "trial_index": 87, "time_elapsed": 1939588, "internal_node_id": "0.0-4.0-5.0-10.0"}}, {"uniqueid": "w75809247:a22893339", "current_trial": 88, "dateTime": 1664465855205, "trialdata": {"revealed_states": [], "num_clicks_accrued": [0, 0, 0, 0, 0, 0, 0, 0, 0, 0, 0, 0, 0], "stateRewards": ["", -4, 4, -24, 48, 2, 4, -48, 24, 4, -8, -24, 24], "withholdReward": true, "trial_id": "mdp_740130150937", "block": "test3", "trialIndex": 75, "score": 24.5, "costs": -0.5, "simulationMode": [null, null, null], "rewards": [4, -8, 24], "path": ["0", "0", "9", "10", "12"], "rt": [5418, 86, 20], "actions": ["left", "left", "down"], "actionTimes": [6437, 7030, 7564], "queries": {"click": {"state": {"target": ["11", "12"], "time": [4475, 5411]}, "edge": {"target": [], "time": []}}, "mouseover": {"state": {"target": ["2", "4", "11", "9", "12"], "time": [3911, 4078, 4278, 5061, 5311]}, "edge": {"target": [], "time": []}}, "mouseout": {"state": {"target": ["0", "2", "4", "11", "9", "12"], "time": [1145, 3978, 4161, 4694, 5111, 5627]}, "edge": {"target": [], "time": []}}}, "displayed_time": "9.02", "trialTime": 9880, "trial_type": "mouselab-mdp", "trial_index": 88, "time_elapsed": 1949534, "internal_node_id": "0.0-4.0-5.0-11.0"}}, {"uniqueid": "w75809247:a22893339", "current_trial": 89, "dateTime": 1664465865431, "trialdata": {"revealed_states": [], "num_clicks_accrued": [0, 0, 0, 0, 0, 0, 0, 0, 0, 0, 0, 0, 0], "stateRewards": ["", 4, -8, -24, 24, 2, -4, 24, 24, 2, -4, 48, 48], "withholdReward": true, "trial_id": "mdp_457607480918", "block": "test3", "trialIndex": 76, "score": 26.75, "costs": -0.25, "simulationMode": [null, null, null], "rewards": [2, -4, 24], "path": ["0", "0", "5", "6", "7"], "rt": [1685, 170, 137], "actions": ["right", "right", "up"], "actionTimes": [2780, 3465, 4115], "queries": {"click": {"state": {"target": ["7"], "time": [1879]}, "edge": {"target": [], "time": []}}, "mouseover": {"state": {"target": ["6", "7"], "time": [1511, 1778]}, "edge": {"target": [], "time": []}}, "mouseout": {"state": {"target": ["0", "6", "7"], "time": [1312, 1561, 2095]}, "edge": {"target": [], "time": []}}}, "displayed_time": "9.10", "trialTime": 10159, "trial_type": "mouselab-mdp", "trial_index": 89, "time_elapsed": 1959760, "internal_node_id": "0.0-4.0-5.0-12.0"}}, {"uniqueid": "w75809247:a22893339", "current_trial": 90, "dateTime": 1664465875582, "trialdata": {"revealed_states": [], "num_clicks_accrued": [0, 0, 0, 0, 0, 0, 0, 0, 0, 0, 0, 0, 0], "stateRewards": ["", -4, 8, -24, 48, 2, -8, 24, 48, 2, -8, -24, -48], "withholdReward": true, "trial_id": "mdp_493778446445", "block": "test3", "trialIndex": 77, "score": 46.5, "costs": -0.5, "simulationMode": [null, null, null], "rewards": [2, -8, 48], "path": ["0", "0", "5", "6", "8"], "rt": [3018, 101, 50], "actions": ["right", "right", "down"], "actionTimes": [4079, 4685, 5250], "queries": {"click": {"state": {"target": ["3", "8"], "time": [1935, 3096]}, "edge": {"target": [], "time": []}}, "mouseover": {"state": {"target": ["5", "3", "7", "8"], "time": [1534, 1801, 2700, 2867]}, "edge": {"target": [], "time": []}}, "mouseout": {"state": {"target": ["5", "0", "5", "3", "7"], "time": [667, 1351, 1601, 2567, 2734]}, "edge": {"target": [], "time": []}}}, "displayed_time": "9.06", "trialTime": 10086, "trial_type": "mouselab-mdp", "trial_index": 90, "time_elapsed": 1969911, "internal_node_id": "0.0-4.0-5.0-13.0"}}, {"uniqueid": "w75809247:a22893339", "current_trial": 91, "dateTime": 1664465885267, "trialdata": {"revealed_states": [], "num_clicks_accrued": [0, 0, 0, 0, 0, 0, 0, 0, 0, 0, 0, 0, 0], "stateRewards": ["", -4, -8, 48, 48, -4, 4, 48, -24, 4, 8, -24, -48], "withholdReward": true, "trial_id": "mdp_142906093415", "block": "test3", "trialIndex": 78, "score": 52.5, "costs": -0.5, "simulationMode": [null, null, null], "rewards": [-4, 4, 48], "path": ["0", "0", "5", "6", "7"], "rt": [2408, 200, 791], "actions": ["right", "right", "up"], "actionTimes": [3455, 4162, 5470], "queries": {"click": {"state": {"target": ["8", "7"], "time": [1671, 2479]}, "edge": {"target": [], "time": []}}, "mouseover": {"state": {"target": ["8", "7"], "time": [1395, 2262]}, "edge": {"target": [], "time": []}}, "mouseout": {"state": {"target": ["8", "0", "8", "7"], "time": [645, 1195, 1978, 2645]}, "edge": {"target": [], "time": []}}}, "displayed_time": "8.05", "trialTime": 9619, "trial_type": "mouselab-mdp", "trial_index": 91, "time_elapsed": 1979596, "internal_node_id": "0.0-4.0-5.0-14.0"}}, {"uniqueid": "w75809247:a22893339", "current_trial": 92, "dateTime": 1664465897571, "trialdata": {"revealed_states": [], "num_clicks_accrued": [0, 0, 0, 0, 0, 0, 0, 0, 0, 0, 0, 0, 0], "stateRewards": ["", -4, 8, 24, 24, 2, 4, -48, 24, -2, -4, -24, -24], "withholdReward": false, "trial_id": "mdp_752328329546", "block": "test3", "trialIndex": 79, "score": 32.5, "costs": -0.5, "simulationMode": [null, null, null], "rewards": [-4, 8, 24], "path": ["0", "0", "1", "2", "3"], "rt": [2965, 47, 75], "actions": ["up", "up", "right"], "actionTimes": [4105, 4668, 5246], "queries": {"click": {"state": {"target": ["7", "3"], "time": [2033, 3217]}, "edge": {"target": [], "time": []}}, "mouseover": {"state": {"target": ["5", "6", "7", "3"], "time": [1405, 1505, 1788, 3121]}, "edge": {"target": [], "time": []}}, "mouseout": {"state": {"target": ["5", "0", "5", "6", "7", "3"], "time": [772, 1388, 1438, 1606, 2971, 11518]}, "edge": {"target": [], "time": []}}}, "displayed_time": "10.14", "trialTime": 12236, "trial_type": "mouselab-mdp", "trial_index": 92, "time_elapsed": 1991900, "internal_node_id": "0.0-4.0-5.0-15.0"}}, {"uniqueid": "w75809247:a22893339", "current_trial": 93, "dateTime": 1664465908810, "trialdata": {"revealed_states": [], "num_clicks_accrued": [0, 0, 0, 0, 0, 0, 0, 0, 0, 0, 0, 0, 0], "stateRewards": ["", -4, -8, 48, 24, 4, -8, 24, -48, -2, -8, 24, -48], "withholdReward": true, "trial_id": "mdp_952038635544", "block": "test3", "trialIndex": 80, "score": 16.75, "costs": -0.25, "simulationMode": [null, null, null], "rewards": [-4, -8, 24], "path": ["0", "0", "1", "2", "4"], "rt": [1933, 181, 93], "actions": ["up", "up", "left"], "actionTimes": [3029, 3726, 4337], "queries": {"click": {"state": {"target": ["4"], "time": [1910]}, "edge": {"target": [], "time": []}}, "mouseover": {"state": {"target": ["1", "4", "1"], "time": [1528, 1778, 2394]}, "edge": {"target": [], "time": []}}, "mouseout": {"state": {"target": ["0", "1", "4"], "time": [1484, 1561, 2194]}, "edge": {"target": [], "time": []}}}, "displayed_time": "10.10", "trialTime": 11169, "trial_type": "mouselab-mdp", "trial_index": 93, "time_elapsed": 2003139, "internal_node_id": "0.0-4.0-5.0-16.0"}}, {"uniqueid": "w75809247:a22893339", "current_trial": 94, "dateTime": 1664465935701, "trialdata": {"revealed_states": [], "num_clicks_accrued": [0, 0, 0, 0, 0, 0, 0, 0, 0, 0, 0, 0, 0], "stateRewards": ["", 4, -8, 24, 48, 2, 4, 48, 48, 2, 8, -48, -48], "withholdReward": true, "trial_id": "mdp_783704746330", "block": "test3", "trialIndex": 81, "score": 24.75, "costs": -0.25, "simulationMode": [null, null, null], "rewards": [4, -8, 24], "path": ["0", "0", "1", "2", "3"], "rt": [2044, 1519, 7], "actions": ["up", "up", "right"], "actionTimes": [19807, 21835, 22355], "queries": {"click": {"state": {"target": ["3"], "time": [18795]}, "edge": {"target": [], "time": []}}, "mouseover": {"state": {"target": ["3"], "time": [18582]}, "edge": {"target": [], "time": []}}, "mouseout": {"state": {"target": ["1", "0", "3"], "time": [17360, 18482, 19132]}, "edge": {"target": [], "time": []}}}, "displayed_time": "25.76", "trialTime": 26824, "trial_type": "mouselab-mdp", "trial_index": 94, "time_elapsed": 2030030, "internal_node_id": "0.0-4.0-5.0-17.0"}}, {"uniqueid": "w75809247:a22893339", "current_trial": 95, "dateTime": 1664465946647, "trialdata": {"revealed_states": [], "num_clicks_accrued": [0, 0, 0, 0, 0, 0, 0, 0, 0, 0, 0, 0, 0], "stateRewards": ["", 4, 4, -48, -48, 4, 4, -24, -24, -4, 8, -48, 24], "withholdReward": true, "trial_id": "mdp_669785455541", "block": "test3", "trialIndex": 82, "score": 32.5, "costs": -0.5, "simulationMode": [null, null, null], "rewards": [-4, 8, 24], "path": ["0", "0", "9", "10", "12"], "rt": [2703, 82, 93], "actions": ["left", "left", "down"], "actionTimes": [3717, 4304, 4916], "queries": {"click": {"state": {"target": ["11", "12"], "time": [1753, 2912]}, "edge": {"target": [], "time": []}}, "mouseover": {"state": {"target": ["10", "11", "10", "12", "12"], "time": [1372, 1622, 2272, 2339, 2599]}, "edge": {"target": [], "time": []}}, "mouseout": {"state": {"target": ["0", "10", "11", "10", "12", "12"], "time": [1326, 1389, 2239, 2305, 2486, 6137]}, "edge": {"target": [], "time": []}}}, "displayed_time": "10.02", "trialTime": 10880, "trial_type": "mouselab-mdp", "trial_index": 95, "time_elapsed": 2040976, "internal_node_id": "0.0-4.0-5.0-18.0"}}, {"uniqueid": "w75809247:a22893339", "current_trial": 96, "dateTime": 1664465958213, "trialdata": {"revealed_states": [], "num_clicks_accrued": [0, 0, 0, 0, 0, 0, 0, 0, 0, 0, 0, 0, 0], "stateRewards": ["", 4, 8, -24, 48, 4, -8, -48, 48, -4, 8, -24, -48], "withholdReward": true, "trial_id": "mdp_376126356841", "block": "test3", "trialIndex": 83, "score": 64.25, "costs": -0.75, "simulationMode": [null, null, null], "rewards": [4, 8, 48], "path": ["0", "0", "1", "2", "4"], "rt": [5524, 30, 225], "actions": ["up", "up", "left"], "actionTimes": [6570, 7107, 7835], "queries": {"click": {"state": {"target": ["7", "3", "4"], "time": [1808, 3625, 5601]}, "edge": {"target": [], "time": []}}, "mouseover": {"state": {"target": ["6", "7", "6", "8", "5", "3", "3", "1", "4"], "time": [1544, 1677, 2244, 2427, 2677, 3144, 3477, 4848, 5460]}, "edge": {"target": [], "time": []}}, "mouseout": {"state": {"target": ["0", "6", "7", "6", "8", "5", "3", "3", "1", "4", "1", "0"], "time": [1194, 1577, 2060, 2410, 2660, 2694, 3211, 3860, 5393, 5843, 8909, 8992]}, "edge": {"target": [], "time": []}}}, "displayed_time": "10.05", "trialTime": 11455, "trial_type": "mouselab-mdp", "trial_index": 96, "time_elapsed": 2052542, "internal_node_id": "0.0-4.0-5.0-19.0"}}, {"uniqueid": "w75809247:a22893339", "current_trial": 97, "dateTime": 1664465969245, "trialdata": {"revealed_states": [], "num_clicks_accrued": [0, 0, 0, 0, 0, 0, 0, 0, 0, 0, 0, 0, 0], "stateRewards": ["", -2, 4, 24, 48, 2, 4, -48, -48, 2, 8, 48, -48], "withholdReward": true, "trial_id": "mdp_409609775558", "block": "test3", "trialIndex": 84, "score": -37.25, "costs": -0.25, "simulationMode": [null, null, null], "rewards": [2, 4, -48], "path": ["0", "0", "5", "6", "7"], "rt": [3566, 281, 91], "actions": ["right", "right", "up"], "actionTimes": [4529, 5315, 5924], "queries": {"click": {"state": {"target": ["8"], "time": [3733]}, "edge": {"target": [], "time": []}}, "mouseover": {"state": {"target": ["5", "8"], "time": [3366, 3416]}, "edge": {"target": [], "time": []}}, "mouseout": {"state": {"target": ["0", "5", "8"], "time": [3333, 3383, 6998]}, "edge": {"target": [], "time": []}}}, "displayed_time": "9.96", "trialTime": 10963, "trial_type": "mouselab-mdp", "trial_index": 97, "time_elapsed": 2063574, "internal_node_id": "0.0-4.0-5.0-20.0"}}, {"uniqueid": "w75809247:a22893339", "current_trial": 98, "dateTime": 1664465980309, "trialdata": {"revealed_states": [], "num_clicks_accrued": [0, 0, 0, 0, 0, 0, 0, 0, 0, 0, 0, 0, 0], "stateRewards": ["", 2, 4, -48, 24, -4, -4, -24, 24, 2, -4, 24, -24], "withholdReward": true, "trial_id": "mdp_163600331068", "block": "test3", "trialIndex": 85, "score": 34.5, "costs": -0.5, "simulationMode": [null, null, null], "rewards": [2, 4, 24], "path": ["0", "0", "1", "2", "4"], "rt": [3534, 163, 158], "actions": ["up", "up", "left"], "actionTimes": [4499, 5178, 5841], "queries": {"click": {"state": {"target": ["3", "4"], "time": [2518, 3679]}, "edge": {"target": [], "time": []}}, "mouseover": {"state": {"target": ["0", "3", "3", "2", "4"], "time": [2065, 2132, 2432, 3431, 3515]}, "edge": {"target": [], "time": []}}, "mouseout": {"state": {"target": ["0", "0", "3", "3", "2", "4"], "time": [1165, 2082, 2148, 2682, 3481, 3814]}, "edge": {"target": [], "time": []}}}, "displayed_time": "9.97", "trialTime": 10996, "trial_type": "mouselab-mdp", "trial_index": 98, "time_elapsed": 2074638, "internal_node_id": "0.0-4.0-5.0-21.0"}}, {"uniqueid": "w75809247:a22893339", "current_trial": 99, "dateTime": 1664465990360, "trialdata": {"revealed_states": [], "num_clicks_accrued": [0, 0, 0, 0, 0, 0, 0, 0, 0, 0, 0, 0, 0], "stateRewards": ["", 2, -8, 24, 24, 2, 4, -48, -48, 4, 4, -24, 48], "withholdReward": true, "trial_id": "mdp_985707010949", "block": "test3", "trialIndex": 86, "score": 60.5, "costs": -0.5, "simulationMode": [null, null, null], "rewards": [4, 4, 48], "path": ["0", "0", "9", "10", "12"], "rt": [4093, 71, 100], "actions": ["left", "left", "down"], "actionTimes": [4988, 5569, 6180], "queries": {"click": {"state": {"target": ["11", "12"], "time": [3031, 3975]}, "edge": {"target": [], "time": []}}, "mouseover": {"state": {"target": ["0", "5", "6", "7", "1", "11", "12"], "time": [1069, 1148, 1248, 1531, 2697, 2980, 3713]}, "edge": {"target": [], "time": []}}, "mouseout": {"state": {"target": ["0", "0", "5", "