{"condition": 1, "counterbalance": 0, "assignmentId": "a49154686", "workerId": "w65505896", "hitId": "h23210577", "currenttrial": 137, "bonus": 0, "data": [{"uniqueid": "w65505896:a49154686", "current_trial": 0, "dateTime": 1664367933773, "trialdata": {"success": true, "trial_type": "fullscreen", "trial_index": 0, "time_elapsed": 2767, "internal_node_id": "0.0-0.0"}}, {"uniqueid": "w65505896:a49154686", "current_trial": 1, "dateTime": 1664367943033, "trialdata": {"view_history": [{"page_index": 0, "viewing_time": 9254}], "rt": 9256, "trial_id": "exp_instructions_no_distractor", "trial_type": "instructions", "trial_index": 1, "time_elapsed": 12028, "internal_node_id": "0.0-1.0"}}, {"uniqueid": "w65505896:a49154686", "current_trial": 2, "dateTime": 1664367947206, "trialdata": {"success": true, "trial_type": "fullscreen", "trial_index": 2, "time_elapsed": 16201, "internal_node_id": "0.0-2.0-0.0"}}, {"uniqueid": "w65505896:a49154686", "current_trial": 3, "dateTime": 1664368524529, "trialdata": {"view_history": [{"page_index": 0, "viewing_time": 30295}, {"page_index": 1, "viewing_time": 767}, {"page_index": 0, "viewing_time": 2465}, {"page_index": 1, "viewing_time": 19934}, {"page_index": 2, "viewing_time": 8444}, {"page_index": 3, "viewing_time": 502376}, {"page_index": 4, "viewing_time": 13036}], "rt": 577318, "trial_id": "mouselab_instructions_1", "trial_type": "instructions", "trial_index": 3, "time_elapsed": 593523, "internal_node_id": "0.0-2.0-1.0"}}, {"uniqueid": "w65505896:a49154686", "current_trial": 4, "dateTime": 1664368554619, "trialdata": {"revealed_states": [], "num_clicks_accrued": [0, 0, 0, 0, 0, 0, 0, 0, 0, 0, 0, 0, 0], "stateRewards": ["", 10, 10, -10, 10, 10, -10, 10, 10, -10, 10, -10, -10], "withholdReward": false, "trial_id": "practice_1", "block": "test", "trialIndex": 0, "score": 31, "costs": -1, "simulationMode": [null, null, null], "rewards": [10, 10, 10], "path": ["0", "0", "1", "2", "4"], "rt": [17696, 384, 306], "actions": ["up", "up", "left"], "actionTimes": [21863, 22742, 23556], "queries": {"click": {"state": {"target": ["1", "2", "3", "4"], "time": [15033, 18675, 19777, 20895]}, "edge": {"target": [], "time": []}}, "mouseover": {"state": {"target": ["1", "0", "2", "3", "4", "7"], "time": [14776, 16255, 18205, 19418, 20705, 21288]}, "edge": {"target": [], "time": []}}, "mouseout": {"state": {"target": ["0", "1", "0", "2", "3", "2", "4"], "time": [14393, 16229, 16271, 19381, 20470, 20572, 21188]}, "edge": {"target": [], "time": []}}}, "displayed_time": "24.06", "trialTime": 29748, "trial_type": "mouselab-mdp", "trial_index": 4, "time_elapsed": 623613, "internal_node_id": "0.0-2.0-2.0-0.0"}}, {"uniqueid": "w65505896:a49154686", "current_trial": 5, "dateTime": 1664368573855, "trialdata": {"revealed_states": [], "num_clicks_accrued": [0, 0, 0, 0, 0, 0, 0, 0, 0, 0, 0, 0, 0], "stateRewards": ["", -10, 10, 10, -10, 10, 10, -10, 10, -10, 10, 10, 10], "withholdReward": false, "trial_id": "practice_2", "block": "test", "trialIndex": 1, "score": 30.75, "costs": -1.25, "simulationMode": [null, null, null], "rewards": [10, 10, 10], "path": ["0", "0", "5", "6", "8"], "rt": [14138, 375, 277], "actions": ["right", "right", "down"], "actionTimes": [15828, 16714, 17486], "queries": {"click": {"state": {"target": ["5", "6", "8", "1", "9"], "time": [4002, 5234, 6218, 10499, 12186]}, "edge": {"target": [], "time": []}}, "mouseover": {"state": {"target": ["5", "6", "8", "1", "9"], "time": [3633, 4912, 5951, 10325, 12096]}, "edge": {"target": [], "time": []}}, "mouseout": {"state": {"target": ["7", "5", "6", "8", "5", "1", "9"], "time": [923, 4629, 5934, 10025, 10126, 11237, 12701]}, "edge": {"target": [], "time": []}}}, "displayed_time": "18.00", "trialTime": 19194, "trial_type": "mouselab-mdp", "trial_index": 5, "time_elapsed": 642850, "internal_node_id": "0.0-2.0-2.0-1.0"}}, {"uniqueid": "w65505896:a49154686", "current_trial": 6, "dateTime": 1664368610201, "trialdata": {"view_history": [{"page_index": 0, "viewing_time": 18820}, {"page_index": 1, "viewing_time": 9937}, {"page_index": 2, "viewing_time": 7579}], "rt": 36337, "trial_id": "mouselab_instructions_2_scarce", "trial_type": "instructions", "trial_index": 6, "time_elapsed": 679195, "internal_node_id": "0.0-2.0-3.0"}}, {"uniqueid": "w65505896:a49154686", "current_trial": 7, "dateTime": 1664368642003, "trialdata": {"rt": 31791, "response": {"Q0": "$-48 to $48", "Q1": "The cost is always $0.25.", "Q2": "The better I perform the higher my bonus will be.", "Q3": "No, the amount of cash at each node of the web may be different each time.", "Q4": "The values of the nodes walked through from start to finish.", "Q5": "No, the spider might forget to count the money on some rounds."}, "question_order": [0, 1, 2, 3, 4, 5], "correct": {"Q0": "$-48 to $48", "Q1": "The cost is always $0.25.", "Q2": "The better I perform the higher my bonus will be.", "Q3": "No, the amount of cash at each node of the web may be different each time.", "Q4": "The values of the nodes walked through from start to finish.", "Q5": "No, the spider might forget to count the money on some rounds."}, "trial_id": "mouselab_quiz_scarce", "trial_type": "survey-multi-choice", "trial_index": 7, "time_elapsed": 710998, "internal_node_id": "0.0-2.0-4.0"}}, {"uniqueid": "w65505896:a49154686", "current_trial": 8, "dateTime": 1664368652203, "trialdata": {"rt": 10179, "stimulus": "\n<h1> Get ready to start the game! </h1>\n\nThank you for reading the instructions. Get ready start with the first of 4 block(s) of this game.\n<br><br>\nIn this first block, you will complete 30 rounds of this game before moving on.\n<br><br>\nRemember, the more money the spider gets, the bigger your bonus will be!\n<br><br>\n<div style='text-align: center;'>Press <code>space</code> to begin.</div>\n\n<br><br>\n(If, at any point, the <code>space</code> key does not take you to the next page, click once on the text and try again.)", "response": " ", "trial_id": "mdp_ready_1", "trial_type": "html-keyboard-response", "trial_index": 8, "time_elapsed": 721198, "internal_node_id": "0.0-4.0-0.0"}}, {"uniqueid": "w65505896:a49154686", "current_trial": 9, "dateTime": 1664368680865, "trialdata": {"revealed_states": [], "num_clicks_accrued": [0, 0, 0, 0, 0, 0, 0, 0, 0, 0, 0, 0, 0], "stateRewards": ["", -2, -4, -48, -48, 4, 8, 24, -48, 4, -8, 24, 24], "withholdReward": true, "trial_id": "mdp_749799219195", "block": "test1", "trialIndex": 2, "score": 24, "costs": -1, "simulationMode": [null, null, null], "rewards": [4, -8, 24], "path": ["0", "0", "9", "10", "11"], "rt": [12515, 8097, 1577], "actions": ["left", "left", "up"], "actionTimes": [15116, 23724, 25810], "queries": {"click": {"state": {"target": ["5", "6", "7", "9"], "time": [4693, 7425, 8807, 10476]}, "edge": {"target": [], "time": []}}, "mouseover": {"state": {"target": ["5", "6", "7", "9"], "time": [4539, 7174, 8055, 10217]}, "edge": {"target": [], "time": []}}, "mouseout": {"state": {"target": ["0", "5", "6", "7", "5", "9", "0", "0", "10", "11"], "time": [4439, 6907, 7975, 9294, 9360, 18111, 18482, 19483, 20377, 20505]}, "edge": {"target": [], "time": []}}}, "displayed_time": "26.33", "trialTime": 28619, "trial_type": "mouselab-mdp", "trial_index": 9, "time_elapsed": 749859, "internal_node_id": "0.0-4.0-1.0-0.0"}}, {"uniqueid": "w65505896:a49154686", "current_trial": 10, "dateTime": 1664368699233, "trialdata": {"revealed_states": [], "num_clicks_accrued": [0, 0, 0, 0, 0, 0, 0, 0, 0, 0, 0, 0, 0], "stateRewards": ["", 4, -8, 48, 24, 4, -4, 48, 48, -4, 8, -48, 24], "withholdReward": true, "trial_id": "mdp_303828806348", "block": "test1", "trialIndex": 3, "score": 31, "costs": -2, "simulationMode": [null, null, null], "rewards": [-4, 8, 24], "path": ["0", "0", "9", "10", "12"], "rt": [13442, 235, 166], "actions": ["left", "left", "down"], "actionTimes": [14886, 15632, 16309], "queries": {"click": {"state": {"target": ["5", "6", "1", "2", "9", "10", "11", "12"], "time": [2917, 3980, 5904, 6602, 8127, 8691, 11725, 13363]}, "edge": {"target": [], "time": []}}, "mouseover": {"state": {"target": ["5", "6", "6", "8", "1", "2", "9", "9", "10", "11", "12"], "time": [2074, 3292, 3559, 4534, 5432, 6369, 7201, 7721, 8535, 11203, 12475]}, "edge": {"target": [], "time": []}}, "mouseout": {"state": {"target": ["5", "6", "6", "8", "5", "1", "2", "9", "9", "10", "11", "10", "12"], "time": [3275, 3330, 4484, 4950, 5051, 6303, 7150, 7254, 8469, 11002, 12356, 12450, 13708]}, "edge": {"target": [], "time": []}}}, "displayed_time": "16.81", "trialTime": 18332, "trial_type": "mouselab-mdp", "trial_index": 10, "time_elapsed": 768228, "internal_node_id": "0.0-4.0-1.0-1.0"}}, {"uniqueid": "w65505896:a49154686", "current_trial": 11, "dateTime": 1664368717670, "trialdata": {"revealed_states": [], "num_clicks_accrued": [0, 0, 0, 0, 0, 0, 0, 0, 0, 0, 0, 0, 0], "stateRewards": ["", -2, -4, 48, -24, -4, -4, -24, -24, -2, 4, -48, -24], "withholdReward": true, "trial_id": "mdp_410467837196", "block": "test1", "trialIndex": 4, "score": 44.75, "costs": -2.25, "simulationMode": [null, null, null], "rewards": [-2, -4, 48], "path": ["0", "0", "1", "2", "3"], "rt": [13592, 276, 173], "actions": ["up", "up", "right"], "actionTimes": [15208, 15978, 16646], "queries": {"click": {"state": {"target": ["5", "2", "6", "10", "11", "12", "8", "7", "3"], "time": [2848, 5348, 6428, 7290, 9461, 10505, 11853, 12462, 13497]}, "edge": {"target": [], "time": []}}, "mouseover": {"state": {"target": ["5", "6", "1", "2", "6", "9", "10", "9", "11", "12", "0", "8", "7", "1", "3"], "time": [2335, 3259, 3923, 4951, 6212, 7018, 7117, 8109, 9179, 10014, 10878, 11596, 12228, 12912, 13295]}, "edge": {"target": [], "time": []}}, "mouseout": {"state": {"target": ["0", "5", "6", "1", "2", "6", "5", "9", "10", "9", "11", "10", "12", "0", "5", "6", "8", "6", "7", "1", "3", "2", "2", "5"], "time": [2269, 3209, 3624, 4752, 5882, 6844, 6868, 7051, 7761, 9147, 9845, 9913, 10827, 11113, 11296, 11567, 12161, 12211, 12728, 13245, 13728, 14132, 14180, 17843]}, "edge": {"target": [], "time": []}}}, "displayed_time": "17.14", "trialTime": 18389, "trial_type": "mouselab-mdp", "trial_index": 11, "time_elapsed": 786665, "internal_node_id": "0.0-4.0-1.0-2.0"}}, {"uniqueid": "w65505896:a49154686", "current_trial": 12, "dateTime": 1664368728372, "trialdata": {"revealed_states": [], "num_clicks_accrued": [0, 0, 0, 0, 0, 0, 0, 0, 0, 0, 0, 0, 0], "stateRewards": ["", 4, -4, 48, -48, 2, 8, -48, 24, -2, -4, -24, 48], "withholdReward": false, "trial_id": "mdp_937564992306", "block": "test1", "trialIndex": 5, "score": 52.75, "costs": -0.25, "simulationMode": [null, null, null], "rewards": [4, -4, 48], "path": ["0", "0", "1", "2", "3"], "rt": [4172, 1407, 699], "actions": ["up", "up", "right"], "actionTimes": [5872, 7788, 8980], "queries": {"click": {"state": {"target": ["3"], "time": [3578]}, "edge": {"target": [], "time": []}}, "mouseover": {"state": {"target": ["2", "3", "1"], "time": [3220, 3302, 5291]}, "edge": {"target": [], "time": []}}, "mouseout": {"state": {"target": ["0", "2", "3"], "time": [1360, 3273, 4261]}, "edge": {"target": [], "time": []}}}, "displayed_time": "9.49", "trialTime": 10647, "trial_type": "mouselab-mdp", "trial_index": 12, "time_elapsed": 797367, "internal_node_id": "0.0-4.0-1.0-3.0"}}, {"uniqueid": "w65505896:a49154686", "current_trial": 13, "dateTime": 1664368740428, "trialdata": {"revealed_states": [], "num_clicks_accrued": [0, 0, 0, 0, 0, 0, 0, 0, 0, 0, 0, 0, 0], "stateRewards": ["", -2, 8, 48, -24, 2, 4, -48, -24, -4, 8, -48, -48], "withholdReward": true, "trial_id": "mdp_539167561933", "block": "test1", "trialIndex": 6, "score": 57.5, "costs": -1.5, "simulationMode": [null, null, null], "rewards": [-2, 8, 48], "path": ["0", "0", "1", "2", "3"], "rt": [5945, 677, 354], "actions": ["up", "up", "right"], "actionTimes": [7278, 8462, 9310], "queries": {"click": {"state": {"target": ["4", "7", "12", "8", "11", "3"], "time": [2276, 3341, 4276, 4967, 5965, 6627]}, "edge": {"target": [], "time": []}}, "mouseover": {"state": {"target": ["4", "7", "7", "5", "0", "12", "8", "6", "2", "11", "3"], "time": [2050, 2817, 3050, 3820, 3839, 4087, 4603, 5236, 5353, 5754, 6471]}, "edge": {"target": [], "time": []}}, "mouseout": {"state": {"target": ["1", "1", "0", "4", "7", "7", "5", "0", "12", "8", "6", "7", "2", "11"], "time": [null, 754, 1782, 2749, 2850, 3786, 3837, 3853, 4537, 5219, 5270, 5303, 5625, 6171]}, "edge": {"target": [], "time": []}}}, "displayed_time": "10.34", "trialTime": 11980, "trial_type": "mouselab-mdp", "trial_index": 13, "time_elapsed": 809422, "internal_node_id": "0.0-4.0-1.0-4.0"}}, {"uniqueid": "w65505896:a49154686", "current_trial": 14, "dateTime": 1664368752477, "trialdata": {"revealed_states": [], "num_clicks_accrued": [0, 0, 0, 0, 0, 0, 0, 0, 0, 0, 0, 0, 0], "stateRewards": ["", 4, -8, 24, 48, 2, 4, 48, 48, 2, 8, -48, -48], "withholdReward": true, "trial_id": "mdp_783704746330", "block": "test1", "trialIndex": 7, "score": 58.5, "costs": -0.5, "simulationMode": [null, null, null], "rewards": [2, 4, 48], "path": ["0", "0", "5", "6", "7"], "rt": [3553, 614, 408], "actions": ["right", "right", "up"], "actionTimes": [4993, 6118, 7037], "queries": {"click": {"state": {"target": ["3", "7"], "time": [2302, 3767]}, "edge": {"target": [], "time": []}}, "mouseover": {"state": {"target": ["3", "7", "5"], "time": [2068, 3153, 4387]}, "edge": {"target": [], "time": []}}, "mouseout": {"state": {"target": ["3", "1", "0", "0", "3", "7", "5"], "time": [637, 667, 716, 1746, 3070, 4337, 4420]}, "edge": {"target": [], "time": []}}}, "displayed_time": "11.45", "trialTime": 11984, "trial_type": "mouselab-mdp", "trial_index": 14, "time_elapsed": 821472, "internal_node_id": "0.0-4.0-1.0-5.0"}}, {"uniqueid": "w65505896:a49154686", "current_trial": 15, "dateTime": 1664368768115, "trialdata": {"revealed_states": [], "num_clicks_accrued": [0, 0, 0, 0, 0, 0, 0, 0, 0, 0, 0, 0, 0], "stateRewards": ["", 2, -4, -48, 24, -4, 4, 24, 24, 2, -8, -24, -48], "withholdReward": true, "trial_id": "mdp_807654778305", "block": "test1", "trialIndex": 8, "score": 27.5, "costs": -1.5, "simulationMode": [null, null, null], "rewards": [-4, 4, 24], "path": ["0", "0", "5", "6", "7"], "rt": [10245, 515, 695], "actions": ["right", "right", "up"], "actionTimes": [11370, 12396, 13597], "queries": {"click": {"state": {"target": ["7", "11", "4", "3", "8", "12"], "time": [2192, 3627, 4304, 5415, 6176, 7112]}, "edge": {"target": [], "time": []}}, "mouseover": {"state": {"target": ["7", "7", "1", "11", "11", "4", "3", "6", "8", "12"], "time": [1622, 1989, 2591, 2623, 2854, 4012, 5160, 5827, 5894, 6973]}, "edge": {"target": [], "time": []}}, "mouseout": {"state": {"target": ["7", "7", "1", "11", "11", "4", "3", "6", "8", "12"], "time": [1640, 2573, 2606, 2690, 3968, 4642, 5752, 5844, 6629, 7406]}, "edge": {"target": [], "time": []}}}, "displayed_time": "14.09", "trialTime": 15600, "trial_type": "mouselab-mdp", "trial_index": 15, "time_elapsed": 837109, "internal_node_id": "0.0-4.0-1.0-6.0"}}, {"uniqueid": "w65505896:a49154686", "current_trial": 16, "dateTime": 1664368778317, "trialdata": {"revealed_states": [], "num_clicks_accrued": [0, 0, 0, 0, 0, 0, 0, 0, 0, 0, 0, 0, 0], "stateRewards": ["", -2, 8, 48, -48, 4, -8, 24, 24, 4, 4, -48, -24], "withholdReward": true, "trial_id": "mdp_746937869927", "block": "test1", "trialIndex": 9, "score": 58, "costs": -1, "simulationMode": [null, null, null], "rewards": [-2, 8, 48], "path": ["0", "0", "1", "2", "3"], "rt": [5133, 452, 238], "actions": ["up", "up", "right"], "actionTimes": [6332, 7295, 8042], "queries": {"click": {"state": {"target": ["7", "12", "8", "3"], "time": [2239, 3331, 4306, 5421]}, "edge": {"target": [], "time": []}}, "mouseover": {"state": {"target": ["5", "7", "1", "9", "12", "8", "8", "6", "3"], "time": [1695, 1978, 2793, 2893, 3176, 3747, 4098, 4721, 5091]}, "edge": {"target": [], "time": []}}, "mouseout": {"state": {"target": ["0", "5", "7", "1", "9", "12", "8", "8", "6", "7", "3"], "time": [1674, 1713, 2752, 2826, 2943, 3699, 3764, 4704, 4738, 4755, 5976]}, "edge": {"target": [], "time": []}}}, "displayed_time": "9.21", "trialTime": 10157, "trial_type": "mouselab-mdp", "trial_index": 16, "time_elapsed": 847312, "internal_node_id": "0.0-4.0-1.0-7.0"}}, {"uniqueid": "w65505896:a49154686", "current_trial": 17, "dateTime": 1664368787993, "trialdata": {"revealed_states": [], "num_clicks_accrued": [0, 0, 0, 0, 0, 0, 0, 0, 0, 0, 0, 0, 0], "stateRewards": ["", -2, 8, 48, 48, 2, 4, -48, 24, -4, -8, 48, 24], "withholdReward": true, "trial_id": "mdp_572910394648", "block": "test1", "trialIndex": 10, "score": 58.75, "costs": -0.25, "simulationMode": [null, null, null], "rewards": [-2, 8, 48], "path": ["0", "0", "1", "2", "3"], "rt": [1539, 402, 270], "actions": ["up", "up", "right"], "actionTimes": [2561, 3474, 4254], "queries": {"click": {"state": {"target": ["3"], "time": [1642]}, "edge": {"target": [], "time": []}}, "mouseover": {"state": {"target": ["0", "3", "1"], "time": [1029, 1498, 2209]}, "edge": {"target": [], "time": []}}, "mouseout": {"state": {"target": ["0", "3", "1"], "time": [1273, 2134, 2245]}, "edge": {"target": [], "time": []}}}, "displayed_time": "9.03", "trialTime": 9637, "trial_type": "mouselab-mdp", "trial_index": 17, "time_elapsed": 856988, "internal_node_id": "0.0-4.0-1.0-8.0"}}, {"uniqueid": "w65505896:a49154686", "current_trial": 18, "dateTime": 1664368802389, "trialdata": {"revealed_states": [], "num_clicks_accrued": [0, 0, 0, 0, 0, 0, 0, 0, 0, 0, 0, 0, 0], "stateRewards": ["", -4, -4, -24, 24, -4, 4, -24, 48, -2, 4, 48, -48], "withholdReward": true, "trial_id": "mdp_774757609669", "block": "test1", "trialIndex": 11, "score": 54.5, "costs": -0.5, "simulationMode": [null, null, null], "rewards": [-2, 4, 48], "path": ["0", "0", "9", "10", "11"], "rt": [3283, 539, 322], "actions": ["left", "left", "up"], "actionTimes": [4281, 5314, 6127], "queries": {"click": {"state": {"target": ["3", "11"], "time": [1666, 2579]}, "edge": {"target": [], "time": []}}, "mouseover": {"state": {"target": ["3", "11", "9"], "time": [1439, 2363, 3088]}, "edge": {"target": [], "time": []}}, "mouseout": {"state": {"target": ["0", "3", "11", "9"], "time": [1324, 2141, 2920, 3136]}, "edge": {"target": [], "time": []}}}, "displayed_time": "8.01", "trialTime": 14326, "trial_type": "mouselab-mdp", "trial_index": 18, "time_elapsed": 871383, "internal_node_id": "0.0-4.0-1.0-9.0"}}, {"uniqueid": "w65505896:a49154686", "current_trial": 19, "dateTime": 1664368838503, "trialdata": {"revealed_states": [], "num_clicks_accrued": [0, 0, 0, 0, 0, 0, 0, 0, 0, 0, 0, 0, 0], "stateRewards": ["", -4, -4, 24, -48, -2, 8, -24, -48, -4, 4, 24, -48], "withholdReward": false, "trial_id": "mdp_934626330092", "block": "test1", "trialIndex": 12, "score": 27.5, "costs": -1.5, "simulationMode": [null, null, null], "rewards": [-4, 4, 24], "path": ["0", "0", "9", "10", "11"], "rt": [18392, 204, 587], "actions": ["left", "left", "up"], "actionTimes": [23253, 23965, 25062], "queries": {"click": {"state": {"target": ["3", "11", "8", "7", "12", "4"], "time": [7754, 10089, 11376, 12323, 13422, 14538]}, "edge": {"target": [], "time": []}}, "mouseover": {"state": {"target": ["3", "2", "11", "5", "6", "8", "6", "7", "0", "12", "4"], "time": [7509, 9486, 9821, 10547, 10564, 10971, 11758, 12073, 12773, 13182, 14152]}, "edge": {"target": [], "time": []}}, "mouseout": {"state": {"target": ["0", "3", "2", "11", "5", "6", "8", "6", "7", "0", "12"], "time": [4514, 9472, 9503, 10515, 10563, 10582, 11750, 11867, 12756, 12791, 13850]}, "edge": {"target": [], "time": []}}}, "displayed_time": "25.57", "trialTime": 36074, "trial_type": "mouselab-mdp", "trial_index": 19, "time_elapsed": 907498, "internal_node_id": "0.0-4.0-1.0-10.0"}}, {"uniqueid": "w65505896:a49154686", "current_trial": 20, "dateTime": 1664368851600, "trialdata": {"revealed_states": [], "num_clicks_accrued": [0, 0, 0, 0, 0, 0, 0, 0, 0, 0, 0, 0, 0], "stateRewards": ["", 4, -4, 24, 48, 4, 8, -24, -24, -2, 4, 48, 48], "withholdReward": true, "trial_id": "mdp_624998450453", "block": "test1", "trialIndex": 13, "score": 54.5, "costs": -0.5, "simulationMode": [null, null, null], "rewards": [-2, 4, 48], "path": ["0", "0", "9", "10", "11"], "rt": [4686, 760, 1742], "actions": ["left", "left", "up"], "actionTimes": [6538, 7810, 10059], "queries": {"click": {"state": {"target": ["3", "11"], "time": [3915, 4956]}, "edge": {"target": [], "time": []}}, "mouseover": {"state": {"target": ["1", "3", "3", "2", "4", "11", "9"], "time": [2911, 3194, 3628, 4342, 4393, 4659, 5539]}, "edge": {"target": [], "time": []}}, "mouseout": {"state": {"target": ["4", "1", "3", "3", "2", "4", "11", "9"], "time": [1299, 3011, 3244, 4328, 4360, 4409, 5322, 12669]}, "edge": {"target": [], "time": []}}}, "displayed_time": "10.86", "trialTime": 13033, "trial_type": "mouselab-mdp", "trial_index": 20, "time_elapsed": 920595, "internal_node_id": "0.0-4.0-1.0-11.0"}}, {"uniqueid": "w65505896:a49154686", "current_trial": 21, "dateTime": 1664368868202, "trialdata": {"revealed_states": [], "num_clicks_accrued": [0, 0, 0, 0, 0, 0, 0, 0, 0, 0, 0, 0, 0], "stateRewards": ["", 2, 8, 24, -48, 4, 8, 24, 24, 4, -8, 48, 48], "withholdReward": false, "trial_id": "mdp_646103824875", "block": "test1", "trialIndex": 14, "score": 48.75, "costs": -0.25, "simulationMode": [null, null, null], "rewards": [4, -8, 48], "path": ["0", "0", "9", "10", "11"], "rt": [2102, 348, 203], "actions": ["left", "left", "up"], "actionTimes": [8887, 9743, 10454], "queries": {"click": {"state": {"target": ["11"], "time": [7719]}, "edge": {"target": [], "time": []}}, "mouseover": {"state": {"target": ["11", "5"], "time": [7238, 8256]}, "edge": {"target": [], "time": []}}, "mouseout": {"state": {"target": ["1", "11"], "time": [2522, 8086]}, "edge": {"target": [], "time": []}}}, "displayed_time": "15.79", "trialTime": 16527, "trial_type": "mouselab-mdp", "trial_index": 21, "time_elapsed": 937197, "internal_node_id": "0.0-4.0-1.0-12.0"}}, {"uniqueid": "w65505896:a49154686", "current_trial": 22, "dateTime": 1664368877132, "trialdata": {"revealed_states": [], "num_clicks_accrued": [0, 0, 0, 0, 0, 0, 0, 0, 0, 0, 0, 0, 0], "stateRewards": ["", 2, 8, 48, -48, -2, -4, -24, 24, 4, -4, 48, -48], "withholdReward": true, "trial_id": "mdp_105734044587", "block": "test1", "trialIndex": 15, "score": 52.5, "costs": -0.5, "simulationMode": [null, null, null], "rewards": [4, -4, 48], "path": ["0", "0", "9", "10", "11"], "rt": [3143, 553, 498], "actions": ["left", "left", "up"], "actionTimes": [4276, 5323, 6333], "queries": {"click": {"state": {"target": ["7", "11"], "time": [2074, 3045]}, "edge": {"target": [], "time": []}}, "mouseover": {"state": {"target": ["7", "1", "11"], "time": [1866, 2466, 2516]}, "edge": {"target": [], "time": []}}, "mouseout": {"state": {"target": ["5", "0", "7", "1"], "time": [738, 1493, 2450, 2484]}, "edge": {"target": [], "time": []}}}, "displayed_time": "8.14", "trialTime": 8858, "trial_type": "mouselab-mdp", "trial_index": 22, "time_elapsed": 946127, "internal_node_id": "0.0-4.0-1.0-13.0"}}, {"uniqueid": "w65505896:a49154686", "current_trial": 23, "dateTime": 1664368887632, "trialdata": {"revealed_states": [], "num_clicks_accrued": [0, 0, 0, 0, 0, 0, 0, 0, 0, 0, 0, 0, 0], "stateRewards": ["", 4, 4, 24, -24, -4, -8, 48, -24, 4, 4, 48, 24], "withholdReward": true, "trial_id": "mdp_822446942217", "block": "test1", "trialIndex": 16, "score": 60.75, "costs": -0.25, "simulationMode": [null, null, null], "rewards": [4, 4, 48], "path": ["0", "0", "9", "10", "11"], "rt": [2016, 475, 814], "actions": ["left", "left", "up"], "actionTimes": [3302, 4283, 5591], "queries": {"click": {"state": {"target": ["11"], "time": [2074]}, "edge": {"target": [], "time": []}}, "mouseover": {"state": {"target": ["9", "11"], "time": [1709, 1910]}, "edge": {"target": [], "time": []}}, "mouseout": {"state": {"target": ["11", "0", "9"], "time": [682, 1686, 1727]}, "edge": {"target": [], "time": []}}}, "displayed_time": "9.29", "trialTime": 10447, "trial_type": "mouselab-mdp", "trial_index": 23, "time_elapsed": 956627, "internal_node_id": "0.0-4.0-1.0-14.0"}}, {"uniqueid": "w65505896:a49154686", "current_trial": 24, "dateTime": 1664368900067, "trialdata": {"revealed_states": [], "num_clicks_accrued": [0, 0, 0, 0, 0, 0, 0, 0, 0, 0, 0, 0, 0], "stateRewards": ["", -2, 8, 48, 24, 2, -8, -24, -48, -4, 8, -48, 24], "withholdReward": true, "trial_id": "mdp_224053025943", "block": "test1", "trialIndex": 17, "score": 57.5, "costs": -1.5, "simulationMode": [null, null, null], "rewards": [-2, 8, 48], "path": ["0", "0", "1", "2", "3"], "rt": [6892, 593, 726], "actions": ["up", "up", "right"], "actionTimes": [8536, 9639, 10861], "queries": {"click": {"state": {"target": ["4", "11", "7", "8", "12", "3"], "time": [2739, 3668, 4785, 5580, 6819, 7671]}, "edge": {"target": [], "time": []}}, "mouseover": {"state": {"target": ["1", "4", "11", "1", "7", "7", "6", "8", "12", "12", "9", "1", "3"], "time": [2326, 2594, 3500, 4097, 4363, 4651, 5239, 5306, 5971, 6733, 7183, 7300, 7467]}, "edge": {"target": [], "time": []}}, "mouseout": {"state": {"target": ["11", "0", "0", "1", "4", "11", "1", "7", "7", "6", "8", "12", "12", "9", "1", "3", "0"], "time": [639, 840, 1305, 2359, 3365, 4044, 4113, 4413, 5222, 5272, 5922, 5991, 7166, 7216, 7400, 11973, 12039]}, "edge": {"target": [], "time": []}}}, "displayed_time": "11.39", "trialTime": 12370, "trial_type": "mouselab-mdp", "trial_index": 24, "time_elapsed": 969062, "internal_node_id": "0.0-4.0-1.0-15.0"}}, {"uniqueid": "w65505896:a49154686", "current_trial": 25, "dateTime": 1664368917598, "trialdata": {"revealed_states": [], "num_clicks_accrued": [0, 0, 0, 0, 0, 0, 0, 0, 0, 0, 0, 0, 0], "stateRewards": ["", 4, -8, 24, 48, -2, -4, -48, 24, 2, 4, -48, -24], "withholdReward": true, "trial_id": "mdp_749974461966", "block": "test1", "trialIndex": 18, "score": 48.5, "costs": -0.5, "simulationMode": [null, null, null], "rewards": [4, -8, 48], "path": ["0", "0", "1", "2", "4"], "rt": [2791, 649, 507], "actions": ["up", "up", "left"], "actionTimes": [9764, 10917, 11935], "queries": {"click": {"state": {"target": ["3", "4"], "time": [7679, 8680]}, "edge": {"target": [], "time": []}}, "mouseover": {"state": {"target": ["3", "2", "4", "0"], "time": [7628, 8286, 8553, 9279]}, "edge": {"target": [], "time": []}}, "mouseout": {"state": {"target": ["0", "3", "2", "4"], "time": [7329, 8252, 8353, 9156]}, "edge": {"target": [], "time": []}}}, "displayed_time": "16.98", "trialTime": 17480, "trial_type": "mouselab-mdp", "trial_index": 25, "time_elapsed": 986592, "internal_node_id": "0.0-4.0-1.0-16.0"}}, {"uniqueid": "w65505896:a49154686", "current_trial": 26, "dateTime": 1664368928472, "trialdata": {"revealed_states": [], "num_clicks_accrued": [0, 0, 0, 0, 0, 0, 0, 0, 0, 0, 0, 0, 0], "stateRewards": ["", 4, 4, 48, -24, 2, -4, 48, 24, -4, -4, -48, 24], "withholdReward": true, "trial_id": "mdp_496003763005", "block": "test1", "trialIndex": 19, "score": 60.5, "costs": -0.5, "simulationMode": [null, null, null], "rewards": [4, 4, 48], "path": ["0", "0", "1", "2", "3"], "rt": [2991, 730, 804], "actions": ["up", "up", "right"], "actionTimes": [3853, 5093, 6405], "queries": {"click": {"state": {"target": ["4", "3"], "time": [1567, 2573]}, "edge": {"target": [], "time": []}}, "mouseover": {"state": {"target": ["4", "2", "3", "5"], "time": [1415, 2115, 2414, 3080]}, "edge": {"target": [], "time": []}}, "mouseout": {"state": {"target": ["0", "4", "2", "3", "5"], "time": [1165, 2099, 2232, 3029, 3129]}, "edge": {"target": [], "time": []}}}, "displayed_time": "9.88", "trialTime": 10808, "trial_type": "mouselab-mdp", "trial_index": 26, "time_elapsed": 997467, "internal_node_id": "0.0-4.0-1.0-17.0"}}, {"uniqueid": "w65505896:a49154686", "current_trial": 27, "dateTime": 1664368941742, "trialdata": {"revealed_states": [], "num_clicks_accrued": [0, 0, 0, 0, 0, 0, 0, 0, 0, 0, 0, 0, 0], "stateRewards": ["", 2, 4, -24, -24, 4, 8, -48, 48, 2, 4, -24, -48], "withholdReward": false, "trial_id": "mdp_565165082781", "block": "test1", "trialIndex": 20, "score": 63.5, "costs": -1.5, "simulationMode": [null, null, null], "rewards": [4, 8, 48], "path": ["0", "0", "5", "6", "8"], "rt": [6122, 379, 441], "actions": ["right", "right", "down"], "actionTimes": [7991, 8861, 9812], "queries": {"click": {"state": {"target": ["3", "7", "11", "4", "12", "8"], "time": [2672, 3680, 4615, 5402, 6358, 7084]}, "edge": {"target": [], "time": []}}, "mouseover": {"state": {"target": ["3", "7", "1", "11", "4", "10", "12", "12", "8"], "time": [2489, 3422, 4124, 4424, 5119, 5830, 5880, 6197, 6830]}, "edge": {"target": [], "time": []}}, "mouseout": {"state": {"target": ["0", "3", "7", "1", "11", "4", "10", "12", "12"], "time": [1739, 3155, 4081, 4141, 5110, 5763, 5847, 6029, 6697]}, "edge": {"target": [], "time": []}}}, "displayed_time": "10.88", "trialTime": 13206, "trial_type": "mouselab-mdp", "trial_index": 27, "time_elapsed": 1010737, "internal_node_id": "0.0-4.0-1.0-18.0"}}, {"uniqueid": "w65505896:a49154686", "current_trial": 28, "dateTime": 1664368952524, "trialdata": {"revealed_states": [], "num_clicks_accrued": [0, 0, 0, 0, 0, 0, 0, 0, 0, 0, 0, 0, 0], "stateRewards": ["", 2, 8, -48, -24, 2, -4, -48, 24, 2, -4, -24, -24], "withholdReward": false, "trial_id": "mdp_954659099093", "block": "test1", "trialIndex": 21, "score": 25.5, "costs": -1.5, "simulationMode": [null, null, null], "rewards": [2, -4, 24], "path": ["0", "0", "5", "6", "8"], "rt": [6062, 528, 516], "actions": ["right", "right", "down"], "actionTimes": [7192, 8235, 9259], "queries": {"click": {"state": {"target": ["8", "7", "3", "4", "11", "12"], "time": [1890, 2733, 3446, 4603, 5238, 6197]}, "edge": {"target": [], "time": []}}, "mouseover": {"state": {"target": ["8", "6", "7", "3", "2", "4", "11", "10", "12", "12"], "time": [1813, 2373, 2523, 3195, 3785, 4517, 5018, 5556, 5606, 6074]}, "edge": {"target": [], "time": []}}, "mouseout": {"state": {"target": ["8", "0", "8", "6", "7", "3", "2", "4", "11", "10", "12"], "time": [719, 819, 2365, 2424, 3146, 3767, 3817, 4970, 5534, 5571, 5841]}, "edge": {"target": [], "time": []}}}, "displayed_time": "9.77", "trialTime": 10713, "trial_type": "mouselab-mdp", "trial_index": 28, "time_elapsed": 1021519, "internal_node_id": "0.0-4.0-1.0-19.0"}}, {"uniqueid": "w65505896:a49154686", "current_trial": 29, "dateTime": 1664368961220, "trialdata": {"revealed_states": [], "num_clicks_accrued": [0, 0, 0, 0, 0, 0, 0, 0, 0, 0, 0, 0, 0], "stateRewards": ["", 2, 4, 48, -48, 2, -4, 48, 24, -2, -8, -24, 48], "withholdReward": true, "trial_id": "mdp_962424406744", "block": "test1", "trialIndex": 22, "score": 58.25, "costs": -0.75, "simulationMode": [null, null, null], "rewards": [2, 4, 48], "path": ["0", "0", "1", "2", "3"], "rt": [3234, 671, 436], "actions": ["up", "up", "right"], "actionTimes": [4425, 5586, 6533], "queries": {"click": {"state": {"target": ["8", "4", "3"], "time": [1853, 2763, 3562]}, "edge": {"target": [], "time": []}}, "mouseover": {"state": {"target": ["8", "5", "4", "2", "3", "7"], "time": [1730, 2236, 2719, 3237, 3385, 4049]}, "edge": {"target": [], "time": []}}, "mouseout": {"state": {"target": ["12", "9", "0", "8", "5", "4", "2", "3", "7"], "time": [663, 880, 1480, 2219, 2253, 3202, 3302, 3995, 7539]}, "edge": {"target": [], "time": []}}}, "displayed_time": "8.20", "trialTime": 8640, "trial_type": "mouselab-mdp", "trial_index": 29, "time_elapsed": 1030215, "internal_node_id": "0.0-4.0-1.0-20.0"}}, {"uniqueid": "w65505896:a49154686", "current_trial": 30, "dateTime": 1664368971763, "trialdata": {"revealed_states": [], "num_clicks_accrued": [0, 0, 0, 0, 0, 0, 0, 0, 0, 0, 0, 0, 0], "stateRewards": ["", 2, 4, -48, -48, 4, 4, -48, -48, -2, -8, 48, -24], "withholdReward": true, "trial_id": "mdp_175327338412", "block": "test1", "trialIndex": 23, "score": 42.5, "costs": -0.5, "simulationMode": [null, null, null], "rewards": [-2, -8, 48], "path": ["0", "0", "9", "10", "11"], "rt": [2351, 478, 844], "actions": ["left", "left", "up"], "actionTimes": [3956, 4928, 6282], "queries": {"click": {"state": {"target": ["3", "11"], "time": [2294, 2996]}, "edge": {"target": [], "time": []}}, "mouseover": {"state": {"target": ["3", "2", "11", "9"], "time": [2092, 2648, 2748, 3415]}, "edge": {"target": [], "time": []}}, "mouseout": {"state": {"target": ["0", "3", "2", "11", "9"], "time": [1923, 2615, 2665, 3404, 3431]}, "edge": {"target": [], "time": []}}}, "displayed_time": "9.61", "trialTime": 10499, "trial_type": "mouselab-mdp", "trial_index": 30, "time_elapsed": 1040758, "internal_node_id": "0.0-4.0-1.0-21.0"}}, {"uniqueid": "w65505896:a49154686", "current_trial": 31, "dateTime": 1664368980831, "trialdata": {"revealed_states": [], "num_clicks_accrued": [0, 0, 0, 0, 0, 0, 0, 0, 0, 0, 0, 0, 0], "stateRewards": ["", -2, 4, -48, 24, -4, 8, 48, 24, -2, 4, -48, -24], "withholdReward": true, "trial_id": "mdp_740882974347", "block": "test1", "trialIndex": 24, "score": 56.5, "costs": -0.5, "simulationMode": [null, null, null], "rewards": [-4, 8, 48], "path": ["0", "0", "5", "6", "7"], "rt": [2216, 406, 459], "actions": ["right", "right", "up"], "actionTimes": [3437, 4352, 5322], "queries": {"click": {"state": {"target": ["11", "7"], "time": [1850, 2643]}, "edge": {"target": [], "time": []}}, "mouseover": {"state": {"target": ["11", "6", "7", "6", "8"], "time": [1750, 2289, 2422, 3021, 3071]}, "edge": {"target": [], "time": []}}, "mouseout": {"state": {"target": ["0", "11", "6", "7", "6", "8"], "time": [1083, 2189, 2372, 2989, 3054, 8422]}, "edge": {"target": [], "time": []}}}, "displayed_time": "8.23", "trialTime": 9012, "trial_type": "mouselab-mdp", "trial_index": 31, "time_elapsed": 1049826, "internal_node_id": "0.0-4.0-1.0-22.0"}}, {"uniqueid": "w65505896:a49154686", "current_trial": 32, "dateTime": 1664368995625, "trialdata": {"revealed_states": [], "num_clicks_accrued": [0, 0, 0, 0, 0, 0, 0, 0, 0, 0, 0, 0, 0], "stateRewards": ["", 2, -4, 48, -48, -2, 8, -48, 24, -2, -8, 48, 48], "withholdReward": false, "trial_id": "mdp_949326095747", "block": "test1", "trialIndex": 25, "score": 42.25, "costs": -0.75, "simulationMode": [null, null, null], "rewards": [-2, -8, 48], "path": ["0", "0", "9", "10", "11"], "rt": [2975, 287, 427], "actions": ["left", "left", "up"], "actionTimes": [4019, 4817, 5754], "queries": {"click": {"state": {"target": ["7", "8", "11"], "time": [1580, 2330, 3114]}, "edge": {"target": [], "time": []}}, "mouseover": {"state": {"target": ["7", "6", "8", "9", "11"], "time": [1308, 1991, 2091, 2742, 2975]}, "edge": {"target": [], "time": []}}, "mouseout": {"state": {"target": ["0", "7", "7", "6", "8", "9", "11", "9"], "time": [1248, 1644, 1959, 2025, 2675, 2759, 3596, 7276]}, "edge": {"target": [], "time": []}}}, "displayed_time": "11.06", "trialTime": 14725, "trial_type": "mouselab-mdp", "trial_index": 32, "time_elapsed": 1064620, "internal_node_id": "0.0-4.0-1.0-23.0"}}, {"uniqueid": "w65505896:a49154686", "current_trial": 33, "dateTime": 1664369006220, "trialdata": {"revealed_states": [], "num_clicks_accrued": [0, 0, 0, 0, 0, 0, 0, 0, 0, 0, 0, 0, 0], "stateRewards": ["", -4, 8, -24, -24, 4, -8, 48, -24, -4, -8, -24, -48], "withholdReward": false, "trial_id": "mdp_391766721791", "block": "test1", "trialIndex": 26, "score": 48.5, "costs": -0.5, "simulationMode": [null, null, null], "rewards": [4, -8, 48], "path": ["0", "0", "5", "6", "7"], "rt": [2401, 655, 417], "actions": ["right", "right", "up"], "actionTimes": [4094, 5242, 6170], "queries": {"click": {"state": {"target": ["11", "7"], "time": [2446, 3285]}, "edge": {"target": [], "time": []}}, "mouseover": {"state": {"target": ["11", "11", "1", "7"], "time": [1959, 2310, 2816, 3165]}, "edge": {"target": [], "time": []}}, "mouseout": {"state": {"target": ["2", "1", "11", "11", "1", "7", "6"], "time": [1260, 1360, 1992, 2801, 2832, 8996, 9023]}, "edge": {"target": [], "time": []}}}, "displayed_time": "9.70", "trialTime": 10541, "trial_type": "mouselab-mdp", "trial_index": 33, "time_elapsed": 1075214, "internal_node_id": "0.0-4.0-1.0-24.0"}}, {"uniqueid": "w65505896:a49154686", "current_trial": 34, "dateTime": 1664369022571, "trialdata": {"revealed_states": [], "num_clicks_accrued": [0, 0, 0, 0, 0, 0, 0, 0, 0, 0, 0, 0, 0], "stateRewards": ["", 2, 8, -24, -48, -4, 8, -48, -48, -2, -8, -24, -24], "withholdReward": true, "trial_id": "mdp_978177451072", "block": "test1", "trialIndex": 27, "score": -10.5, "costs": -1.5, "simulationMode": [null, null, null], "rewards": [2, 8, -24], "path": ["0", "0", "1", "2", "3"], "rt": [10875, 517, 876], "actions": ["up", "up", "right"], "actionTimes": [12009, 13052, 14436], "queries": {"click": {"state": {"target": ["7", "3", "4", "11", "12", "8"], "time": [2320, 3020, 3690, 4305, 4948, 5645]}, "edge": {"target": [], "time": []}}, "mouseover": {"state": {"target": ["7", "7", "3", "2", "4", "11", "10", "12", "8"], "time": [1513, 2233, 2826, 3343, 3660, 4059, 4672, 4738, 5303]}, "edge": {"target": [], "time": []}}, "mouseout": {"state": {"target": ["0", "7", "7", "3", "2", "4", "11", "10", "12", "8"], "time": [1404, 1679, 2710, 3326, 3376, 4009, 4651, 4705, 5239, 6731]}, "edge": {"target": [], "time": []}}}, "displayed_time": "14.93", "trialTime": 16281, "trial_type": "mouselab-mdp", "trial_index": 34, "time_elapsed": 1091566, "internal_node_id": "0.0-4.0-1.0-25.0"}}, {"uniqueid": "w65505896:a49154686", "current_trial": 35, "dateTime": 1664369034880, "trialdata": {"revealed_states": [], "num_clicks_accrued": [0, 0, 0, 0, 0, 0, 0, 0, 0, 0, 0, 0, 0], "stateRewards": ["", 2, -4, 24, 24, 2, 4, 24, 24, -4, 8, 24, 48], "withholdReward": true, "trial_id": "mdp_268430387178", "block": "test1", "trialIndex": 28, "score": 55.75, "costs": -1.25, "simulationMode": [null, null, null], "rewards": [-4, 8, 48], "path": ["0", "0", "9", "10", "12"], "rt": [4875, 498, 334], "actions": ["left", "left", "down"], "actionTimes": [6599, 7605, 8450], "queries": {"click": {"state": {"target": ["4", "3", "8", "11", "12"], "time": [2361, 3043, 3969, 4947, 5473]}, "edge": {"target": [], "time": []}}, "mouseover": {"state": {"target": ["4", "2", "3", "6", "8", "8", "9", "11", "10", "12", "0", "5", "7"], "time": [2179, 2726, 2776, 3426, 3476, 3892, 4420, 4820, 5252, 5320, 5754, 5773, 6021]}, "edge": {"target": [], "time": []}}, "mouseout": {"state": {"target": ["0", "4", "2", "3", "6", "8", "8", "9", "11", "10", "12", "0", "5", "7", "6"], "time": [2017, 2709, 2759, 3376, 3459, 3659, 4397, 4438, 5220, 5287, 5737, 5770, 5787, 9448, 9484]}, "edge": {"target": [], "time": []}}}, "displayed_time": "11.73", "trialTime": 12222, "trial_type": "mouselab-mdp", "trial_index": 35, "time_elapsed": 1103874, "internal_node_id": "0.0-4.0-1.0-26.0"}}, {"uniqueid": "w65505896:a49154686", "current_trial": 36, "dateTime": 1664369043843, "trialdata": {"revealed_states": [], "num_clicks_accrued": [0, 0, 0, 0, 0, 0, 0, 0, 0, 0, 0, 0, 0], "stateRewards": ["", 2, 8, -48, 24, -4, 8, 48, -24, 2, 8, 24, 24], "withholdReward": true, "trial_id": "mdp_175372499314", "block": "test1", "trialIndex": 29, "score": 56.5, "costs": -0.5, "simulationMode": [null, null, null], "rewards": [-4, 8, 48], "path": ["0", "0", "5", "6", "7"], "rt": [2405, 580, 373], "actions": ["right", "right", "up"], "actionTimes": [3864, 4951, 5834], "queries": {"click": {"state": {"target": ["12", "7"], "time": [2055, 2958]}, "edge": {"target": [], "time": []}}, "mouseover": {"state": {"target": ["12", "7", "7"], "time": [1857, 2524, 2807]}, "edge": {"target": [], "time": []}}, "mouseout": {"state": {"target": ["0", "12", "7", "7", "5"], "time": [1707, 2424, 2540, 3496, 7756]}, "edge": {"target": [], "time": []}}}, "displayed_time": "8.46", "trialTime": 8918, "trial_type": "mouselab-mdp", "trial_index": 36, "time_elapsed": 1112838, "internal_node_id": "0.0-4.0-1.0-27.0"}}, {"uniqueid": "w65505896:a49154686", "current_trial": 37, "dateTime": 1664369055252, "trialdata": {"revealed_states": [], "num_clicks_accrued": [0, 0, 0, 0, 0, 0, 0, 0, 0, 0, 0, 0, 0], "stateRewards": ["", 2, 8, 24, -48, 4, 8, 24, 48, 2, -8, -24, 24], "withholdReward": false, "trial_id": "mdp_939899431582", "block": "test1", "trialIndex": 30, "score": 63.5, "costs": -1.5, "simulationMode": [null, null, null], "rewards": [4, 8, 48], "path": ["0", "0", "5", "6", "8"], "rt": [5433, 683, 592], "actions": ["right", "right", "down"], "actionTimes": [7203, 8395, 9498], "queries": {"click": {"state": {"target": ["7", "11", "12", "3", "4", "8"], "time": [2370, 3120, 3839, 4869, 5711, 6605]}, "edge": {"target": [], "time": []}}, "mouseover": {"state": {"target": ["7", "11", "10", "12", "0", "3", "2", "4", "8", "8"], "time": [2081, 3031, 3517, 3568, 4328, 4680, 5312, 5578, 6093, 6406]}, "edge": {"target": [], "time": []}}, "mouseout": {"state": {"target": ["0", "7", "11", "10", "12", "0", "3", "2", "4", "8", "8"], "time": [1580, 2715, 3501, 3551, 4279, 4345, 5295, 5329, 6031, 6110, 10478]}, "edge": {"target": [], "time": []}}}, "displayed_time": "10.78", "trialTime": 11341, "trial_type": "mouselab-mdp", "trial_index": 37, "time_elapsed": 1124247, "internal_node_id": "0.0-4.0-1.0-28.0"}}, {"uniqueid": "w65505896:a49154686", "current_trial": 38, "dateTime": 1664369066985, "trialdata": {"revealed_states": [], "num_clicks_accrued": [0, 0, 0, 0, 0, 0, 0, 0, 0, 0, 0, 0, 0], "stateRewards": ["", 2, -8, -24, 48, -4, -8, 24, -48, 4, -8, -24, -24], "withholdReward": true, "trial_id": "mdp_928911266656", "block": "test1", "trialIndex": 31, "score": 46, "costs": -1, "simulationMode": [null, null, null], "rewards": [2, -8, 48], "path": ["0", "0", "1", "2", "4"], "rt": [3853, 571, 392], "actions": ["up", "up", "left"], "actionTimes": [5079, 6160, 7098], "queries": {"click": {"state": {"target": ["8", "7", "3", "4"], "time": [1782, 2723, 3604, 4270]}, "edge": {"target": [], "time": []}}, "mouseover": {"state": {"target": ["8", "6", "7", "3", "2", "4"], "time": [1571, 2294, 2587, 3415, 3995, 4242]}, "edge": {"target": [], "time": []}}, "mouseout": {"state": {"target": ["0", "8", "6", "7", "3", "2", "4"], "time": [1495, 2291, 2439, 3245, 3993, 4008, 4697]}, "edge": {"target": [], "time": []}}}, "displayed_time": "11.23", "trialTime": 11686, "trial_type": "mouselab-mdp", "trial_index": 38, "time_elapsed": 1135979, "internal_node_id": "0.0-4.0-1.0-29.0"}}, {"uniqueid": "w65505896:a49154686", "current_trial": 39, "dateTime": 1664369088965, "trialdata": {"rt": 21975, "stimulus": "<h1> End of block! </h1>\n\nYou have reached the end of the block 1/4. If you need a short break, feel free to take one now before moving on.\n\n<br><br>\nIn the next block, you will complete another 30 rounds of this game.\n\n<br><br>\n<div style='text-align: center;'>Press <code>space</code> to begin.</div>\n<br><br>\n<div style='text-align: center;'>(If the experiment doesn't continue, try clicking on the text and then pressing <code>space</code>.)</div>", "response": " ", "trial_id": "mdp_ready_2", "trial_type": "html-keyboard-response", "trial_index": 39, "time_elapsed": 1157960, "internal_node_id": "0.0-4.0-2.0"}}, {"uniqueid": "w65505896:a49154686", "current_trial": 40, "dateTime": 1664369100223, "trialdata": {"revealed_states": [], "num_clicks_accrued": [0, 0, 0, 0, 0, 0, 0, 0, 0, 0, 0, 0, 0], "stateRewards": ["", -2, 8, -48, 48, 4, -8, -48, 48, 4, -4, -24, 48], "withholdReward": true, "trial_id": "mdp_144739116828", "block": "test2", "trialIndex": 32, "score": 58.75, "costs": -0.25, "simulationMode": [null, null, null], "rewards": [-2, 8, 48], "path": ["0", "0", "1", "2", "4"], "rt": [1902, 114, 248], "actions": ["up", "up", "left"], "actionTimes": [3308, 3933, 4700], "queries": {"click": {"state": {"target": ["4"], "time": [2239]}, "edge": {"target": [], "time": []}}, "mouseover": {"state": {"target": ["4"], "time": [2096]}, "edge": {"target": [], "time": []}}, "mouseout": {"state": {"target": ["4"], "time": [2833]}, "edge": {"target": [], "time": []}}}, "displayed_time": "10.41", "trialTime": 11208, "trial_type": "mouselab-mdp", "trial_index": 40, "time_elapsed": 1169218, "internal_node_id": "0.0-4.0-3.0-0.0"}}, {"uniqueid": "w65505896:a49154686", "current_trial": 41, "dateTime": 1664369110645, "trialdata": {"revealed_states": [], "num_clicks_accrued": [0, 0, 0, 0, 0, 0, 0, 0, 0, 0, 0, 0, 0], "stateRewards": ["", -4, -4, 48, 24, -4, -4, -24, -48, -4, 4, 48, -24], "withholdReward": false, "trial_id": "mdp_896503755738", "block": "test2", "trialIndex": 33, "score": 52.75, "costs": -0.25, "simulationMode": [null, null, null], "rewards": [-4, 4, 48], "path": ["0", "0", "9", "10", "11"], "rt": [1647, 244, 278], "actions": ["left", "left", "up"], "actionTimes": [3016, 3773, 4556], "queries": {"click": {"state": {"target": ["11"], "time": [2046]}, "edge": {"target": [], "time": []}}, "mouseover": {"state": {"target": ["9", "11", "9", "0"], "time": [1637, 1670, 2528, 2549]}, "edge": {"target": [], "time": []}}, "mouseout": {"state": {"target": ["0", "9", "11", "9", "0"], "time": [1623, 1653, 2519, 2546, 2560]}, "edge": {"target": [], "time": []}}}, "displayed_time": "9.37", "trialTime": 10351, "trial_type": "mouselab-mdp", "trial_index": 41, "time_elapsed": 1179639, "internal_node_id": "0.0-4.0-3.0-1.0"}}, {"uniqueid": "w65505896:a49154686", "current_trial": 42, "dateTime": 1664369123313, "trialdata": {"revealed_states": [], "num_clicks_accrued": [0, 0, 0, 0, 0, 0, 0, 0, 0, 0, 0, 0, 0], "stateRewards": ["", 2, 4, -48, -48, 2, 4, 48, -24, -2, 8, 48, -48], "withholdReward": false, "trial_id": "mdp_258528916140", "block": "test2", "trialIndex": 34, "score": 58.75, "costs": -0.25, "simulationMode": [null, null, null], "rewards": [-2, 8, 48], "path": ["0", "0", "9", "10", "11"], "rt": [1688, 473, 349], "actions": ["left", "left", "up"], "actionTimes": [3249, 4233, 5093], "queries": {"click": {"state": {"target": ["11"], "time": [2393]}, "edge": {"target": [], "time": []}}, "mouseover": {"state": {"target": ["11", "11", "5"], "time": [1863, 2147, 2817]}, "edge": {"target": [], "time": []}}, "mouseout": {"state": {"target": ["11", "11", "5"], "time": [1897, 2768, 2850]}, "edge": {"target": [], "time": []}}}, "displayed_time": "11.56", "trialTime": 12599, "trial_type": "mouselab-mdp", "trial_index": 42, "time_elapsed": 1192308, "internal_node_id": "0.0-4.0-3.0-2.0"}}, {"uniqueid": "w65505896:a49154686", "current_trial": 43, "dateTime": 1664369135341, "trialdata": {"revealed_states": [], "num_clicks_accrued": [0, 0, 0, 0, 0, 0, 0, 0, 0, 0, 0, 0, 0], "stateRewards": ["", 4, -8, -24, 24, 2, -4, 24, 24, 2, -4, 48, 48], "withholdReward": true, "trial_id": "mdp_457607480918", "block": "test2", "trialIndex": 35, "score": 50.25, "costs": -0.75, "simulationMode": [null, null, null], "rewards": [2, -4, 48], "path": ["0", "0", "9", "10", "11"], "rt": [3725, 488, 483], "actions": ["left", "left", "up"], "actionTimes": [4970, 5969, 6961], "queries": {"click": {"state": {"target": ["7", "4", "11"], "time": [2081, 3193, 3996]}, "edge": {"target": [], "time": []}}, "mouseover": {"state": {"target": ["7", "1", "4", "11"], "time": [1647, 2699, 2965, 3669]}, "edge": {"target": [], "time": []}}, "mouseout": {"state": {"target": ["0", "7", "1", "4", "11"], "time": [953, 2675, 2715, 3609, 10325]}, "edge": {"target": [], "time": []}}}, "displayed_time": "11.25", "trialTime": 11965, "trial_type": "mouselab-mdp", "trial_index": 43, "time_elapsed": 1204335, "internal_node_id": "0.0-4.0-3.0-3.0"}}, {"uniqueid": "w65505896:a49154686", "current_trial": 44, "dateTime": 1664369147352, "trialdata": {"revealed_states": [], "num_clicks_accrued": [0, 0, 0, 0, 0, 0, 0, 0, 0, 0, 0, 0, 0], "stateRewards": ["", 2, -4, -48, 24, 4, 4, 48, -48, -2, -4, -24, -48], "withholdReward": true, "trial_id": "mdp_858916930936", "block": "test2", "trialIndex": 36, "score": 60.5, "costs": -0.5, "simulationMode": [null, null, null], "rewards": [4, 4, 48], "path": ["0", "0", "5", "6", "7"], "rt": [4759, 641, 436], "actions": ["right", "right", "up"], "actionTimes": [5823, 6975, 7918], "queries": {"click": {"state": {"target": ["8", "7"], "time": [3974, 4867]}, "edge": {"target": [], "time": []}}, "mouseover": {"state": {"target": ["8", "8", "6", "7", "3", "2"], "time": [2564, 3767, 4464, 4498, 5315, 5449]}, "edge": {"target": [], "time": []}}, "mouseout": {"state": {"target": ["0", "8", "8", "6", "7", "3", "2", "9"], "time": [1337, 2614, 4449, 4481, 5283, 5365, 11343, 11393]}, "edge": {"target": [], "time": []}}}, "displayed_time": "11.07", "trialTime": 11934, "trial_type": "mouselab-mdp", "trial_index": 44, "time_elapsed": 1216347, "internal_node_id": "0.0-4.0-3.0-4.0"}}, {"uniqueid": "w65505896:a49154686", "current_trial": 45, "dateTime": 1664369157350, "trialdata": {"revealed_states": [], "num_clicks_accrued": [0, 0, 0, 0, 0, 0, 0, 0, 0, 0, 0, 0, 0], "stateRewards": ["", -2, -4, -48, -48, -2, -8, 48, -48, 4, -8, -48, 24], "withholdReward": false, "trial_id": "mdp_468495641521", "block": "test2", "trialIndex": 37, "score": 42.75, "costs": -0.25, "simulationMode": [null, null, null], "rewards": [-2, -8, 48], "path": ["0", "0", "5", "6", "7"], "rt": [1997, 871, 609], "actions": ["right", "right", "up"], "actionTimes": [3151, 4512, 5628], "queries": {"click": {"state": {"target": ["7"], "time": [2241]}, "edge": {"target": [], "time": []}}, "mouseover": {"state": {"target": ["5", "7"], "time": [1511, 1676]}, "edge": {"target": [], "time": []}}, "mouseout": {"state": {"target": ["0", "5", "7"], "time": [1478, 1529, 9428]}, "edge": {"target": [], "time": []}}}, "displayed_time": "9.16", "trialTime": 9920, "trial_type": "mouselab-mdp", "trial_index": 45, "time_elapsed": 1226345, "internal_node_id": "0.0-4.0-3.0-5.0"}}, {"uniqueid": "w65505896:a49154686", "current_trial": 46, "dateTime": 1664369168050, "trialdata": {"revealed_states": [], "num_clicks_accrued": [0, 0, 0, 0, 0, 0, 0, 0, 0, 0, 0, 0, 0], "stateRewards": ["", 2, 4, 48, 48, -2, 4, 48, -24, -4, 8, -48, 48], "withholdReward": true, "trial_id": "mdp_407586865939", "block": "test2", "trialIndex": 38, "score": 54.75, "costs": -0.25, "simulationMode": [null, null, null], "rewards": [-2, 4, 48], "path": ["0", "0", "5", "6", "7"], "rt": [1644, 382, 436], "actions": ["right", "right", "up"], "actionTimes": [2715, 3608, 4554], "queries": {"click": {"state": {"target": ["7"], "time": [1934]}, "edge": {"target": [], "time": []}}, "mouseover": {"state": {"target": ["7"], "time": [1679]}, "edge": {"target": [], "time": []}}, "mouseout": {"state": {"target": ["0", "7", "5"], "time": [846, 9447, 9480]}, "edge": {"target": [], "time": []}}}, "displayed_time": "10.07", "trialTime": 10618, "trial_type": "mouselab-mdp", "trial_index": 46, "time_elapsed": 1237045, "internal_node_id": "0.0-4.0-3.0-6.0"}}, {"uniqueid": "w65505896:a49154686", "current_trial": 47, "dateTime": 1664369179700, "trialdata": {"revealed_states": [], "num_clicks_accrued": [0, 0, 0, 0, 0, 0, 0, 0, 0, 0, 0, 0, 0], "stateRewards": ["", -4, -4, -24, -24, -2, 4, 48, -24, -2, -4, -24, 48], "withholdReward": true, "trial_id": "mdp_855903341564", "block": "test2", "trialIndex": 39, "score": 54.75, "costs": -0.25, "simulationMode": [null, null, null], "rewards": [-2, 4, 48], "path": ["0", "0", "5", "6", "7"], "rt": [1757, 359, 499], "actions": ["right", "right", "up"], "actionTimes": [2837, 3707, 4734], "queries": {"click": {"state": {"target": ["7"], "time": [2072]}, "edge": {"target": [], "time": []}}, "mouseover": {"state": {"target": ["7"], "time": [1811]}, "edge": {"target": [], "time": []}}, "mouseout": {"state": {"target": ["0", "7", "5"], "time": [1427, 6650, 6672]}, "edge": {"target": [], "time": []}}}, "displayed_time": "11.09", "trialTime": 11571, "trial_type": "mouselab-mdp", "trial_index": 47, "time_elapsed": 1248695, "internal_node_id": "0.0-4.0-3.0-7.0"}}, {"uniqueid": "w65505896:a49154686", "current_trial": 48, "dateTime": 1664369191642, "trialdata": {"revealed_states": [], "num_clicks_accrued": [0, 0, 0, 0, 0, 0, 0, 0, 0, 0, 0, 0, 0], "stateRewards": ["", 4, 4, 24, -48, 2, -8, -24, -48, 4, 8, 48, 48], "withholdReward": true, "trial_id": "mdp_592471239511", "block": "test2", "trialIndex": 40, "score": 64.5, "costs": -0.5, "simulationMode": [null, null, null], "rewards": [4, 8, 48], "path": ["0", "0", "9", "10", "11"], "rt": [2895, 395, 415], "actions": ["left", "left", "up"], "actionTimes": [4058, 4947, 5872], "queries": {"click": {"state": {"target": ["7", "11"], "time": [2045, 3139]}, "edge": {"target": [], "time": []}}, "mouseover": {"state": {"target": ["7", "1", "11"], "time": [1833, 2596, 2930]}, "edge": {"target": [], "time": []}}, "mouseout": {"state": {"target": ["0", "7", "1", "11"], "time": [778, 2578, 2612, 3616]}, "edge": {"target": [], "time": []}}}, "displayed_time": "11.17", "trialTime": 11874, "trial_type": "mouselab-mdp", "trial_index": 48, "time_elapsed": 1260637, "internal_node_id": "0.0-4.0-3.0-8.0"}}, {"uniqueid": "w65505896:a49154686", "current_trial": 49, "dateTime": 1664369201637, "trialdata": {"revealed_states": [], "num_clicks_accrued": [0, 0, 0, 0, 0, 0, 0, 0, 0, 0, 0, 0, 0], "stateRewards": ["", -2, 4, 24, 48, 2, 4, -48, -48, 2, 8, 48, -48], "withholdReward": true, "trial_id": "mdp_409609775558", "block": "test2", "trialIndex": 41, "score": 62.75, "costs": -0.25, "simulationMode": [null, null, null], "rewards": [2, 8, 48], "path": ["0", "0", "9", "10", "11"], "rt": [1524, 417, 374], "actions": ["left", "left", "up"], "actionTimes": [2822, 3747, 4631], "queries": {"click": {"state": {"target": ["11"], "time": [2074]}, "edge": {"target": [], "time": []}}, "mouseover": {"state": {"target": ["11"], "time": [1710]}, "edge": {"target": [], "time": []}}, "mouseout": {"state": {"target": ["0", "11"], "time": [1602, 9666]}, "edge": {"target": [], "time": []}}}, "displayed_time": "9.31", "trialTime": 9921, "trial_type": "mouselab-mdp", "trial_index": 49, "time_elapsed": 1270632, "internal_node_id": "0.0-4.0-3.0-9.0"}}, {"uniqueid": "w65505896:a49154686", "current_trial": 50, "dateTime": 1664369213671, "trialdata": {"revealed_states": [], "num_clicks_accrued": [0, 0, 0, 0, 0, 0, 0, 0, 0, 0, 0, 0, 0], "stateRewards": ["", 2, 4, -24, -48, 4, -4, 24, 48, -4, -4, -24, 48], "withholdReward": true, "trial_id": "mdp_181958792175", "block": "test2", "trialIndex": 42, "score": 43.75, "costs": -1.25, "simulationMode": [null, null, null], "rewards": [-4, -4, 48], "path": ["0", "0", "9", "10", "12"], "rt": [7614, 513, 302], "actions": ["left", "left", "down"], "actionTimes": [8817, 9823, 10635], "queries": {"click": {"state": {"target": ["11", "7", "3", "4", "12"], "time": [2597, 3617, 5380, 6863, 7946]}, "edge": {"target": [], "time": []}}, "mouseover": {"state": {"target": ["11", "1", "7", "3", "3", "5", "1", "4", "12", "12", "8"], "time": [2334, 3113, 3397, 4240, 5114, 6213, 6365, 6615, 7343, 7692, 8374]}, "edge": {"target": [], "time": []}}, "mouseout": {"state": {"target": ["0", "11", "1", "7", "3", "3", "5", "1", "4", "12", "12", "8"], "time": [1507, 3076, 3131, 4191, 4525, 5863, 6230, 6465, 7289, 7427, 8318, 8390]}, "edge": {"target": [], "time": []}}}, "displayed_time": "11.15", "trialTime": 11952, "trial_type": "mouselab-mdp", "trial_index": 50, "time_elapsed": 1282665, "internal_node_id": "0.0-4.0-3.0-10.0"}}, {"uniqueid": "w65505896:a49154686", "current_trial": 51, "dateTime": 1664369223851, "trialdata": {"revealed_states": [], "num_clicks_accrued": [0, 0, 0, 0, 0, 0, 0, 0, 0, 0, 0, 0, 0], "stateRewards": ["", -4, 8, -24, -24, 2, 4, 48, 48, -2, 4, 24, -48], "withholdReward": true, "trial_id": "mdp_397308196941", "block": "test2", "trialIndex": 43, "score": 58.5, "costs": -0.5, "simulationMode": [null, null, null], "rewards": [2, 4, 48], "path": ["0", "0", "5", "6", "7"], "rt": [2519, 432, 454], "actions": ["right", "right", "up"], "actionTimes": [3966, 4909, 5874], "queries": {"click": {"state": {"target": ["12", "7"], "time": [2241, 3265]}, "edge": {"target": [], "time": []}}, "mouseover": {"state": {"target": ["12", "0", "7", "7"], "time": [2079, 2636, 2669, 3002]}, "edge": {"target": [], "time": []}}, "mouseout": {"state": {"target": ["0", "12", "0", "7", "7"], "time": [1711, 2621, 2653, 2701, 9808]}, "edge": {"target": [], "time": []}}}, "displayed_time": "9.46", "trialTime": 10096, "trial_type": "mouselab-mdp", "trial_index": 51, "time_elapsed": 1292846, "internal_node_id": "0.0-4.0-3.0-11.0"}}, {"uniqueid": "w65505896:a49154686", "current_trial": 52, "dateTime": 1664369236473, "trialdata": {"revealed_states": [], "num_clicks_accrued": [0, 0, 0, 0, 0, 0, 0, 0, 0, 0, 0, 0, 0], "stateRewards": ["", 2, 4, 48, 24, -2, -8, 24, 24, -2, 4, -48, 24], "withholdReward": true, "trial_id": "mdp_130849500124", "block": "test2", "trialIndex": 44, "score": 58.25, "costs": -0.75, "simulationMode": [null, null, null], "rewards": [2, 4, 48], "path": ["0", "0", "1", "2", "3"], "rt": [4860, 419, 331], "actions": ["up", "up", "right"], "actionTimes": [6326, 7239, 8079], "queries": {"click": {"state": {"target": ["7", "8", "3"], "time": [3144, 4398, 5462]}, "edge": {"target": [], "time": []}}, "mouseover": {"state": {"target": ["5", "7", "6", "8", "3", "2", "4"], "time": [1819, 2101, 3863, 4132, 5229, 5831, 5881]}, "edge": {"target": [], "time": []}}, "mouseout": {"state": {"target": ["0", "0", "5", "7", "6", "8", "3", "2", "4"], "time": [855, 1774, 1835, 3837, 3880, 4779, 5816, 5848, 10314]}, "edge": {"target": [], "time": []}}}, "displayed_time": "11.47", "trialTime": 12545, "trial_type": "mouselab-mdp", "trial_index": 52, "time_elapsed": 1305468, "internal_node_id": "0.0-4.0-3.0-12.0"}}, {"uniqueid": "w65505896:a49154686", "current_trial": 53, "dateTime": 1664369248458, "trialdata": {"revealed_states": [], "num_clicks_accrued": [0, 0, 0, 0, 0, 0, 0, 0, 0, 0, 0, 0, 0], "stateRewards": ["", -4, -4, -24, 24, 4, 4, -24, -24, -4, 4, 24, 24], "withholdReward": true, "trial_id": "mdp_787781487383", "block": "test2", "trialIndex": 45, "score": 19.5, "costs": -1.5, "simulationMode": [null, null, null], "rewards": [-4, -4, 24], "path": ["0", "0", "1", "2", "4"], "rt": [7166, 214, 130], "actions": ["up", "up", "left"], "actionTimes": [8779, 9503, 10144], "queries": {"click": {"state": {"target": ["4", "3", "7", "8", "12", "11"], "time": [2298, 3205, 3874, 4661, 5528, 6146]}, "edge": {"target": [], "time": []}}, "mouseover": {"state": {"target": ["4", "2", "3", "7", "6", "8", "12", "10", "11"], "time": [2189, 2763, 3049, 3630, 4256, 4537, 5455, 5904, 5937]}, "edge": {"target": [], "time": []}}, "mouseout": {"state": {"target": ["0", "4", "2", "3", "7", "6", "8", "12", "10", "11"], "time": [1841, 2730, 2796, 3541, 4239, 4422, 4939, 5873, 5920, 11582]}, "edge": {"target": [], "time": []}}}, "displayed_time": "10.66", "trialTime": 11910, "trial_type": "mouselab-mdp", "trial_index": 53, "time_elapsed": 1317453, "internal_node_id": "0.0-4.0-3.0-13.0"}}, {"uniqueid": "w65505896:a49154686", "current_trial": 54, "dateTime": 1664369258428, "trialdata": {"revealed_states": [], "num_clicks_accrued": [0, 0, 0, 0, 0, 0, 0, 0, 0, 0, 0, 0, 0], "stateRewards": ["", 2, -8, 48, -24, 2, 8, 24, -24, 4, -4, -48, -48], "withholdReward": true, "trial_id": "mdp_130946197263", "block": "test2", "trialIndex": 46, "score": 46.5, "costs": -0.5, "simulationMode": [null, null, null], "rewards": [2, -8, 48], "path": ["0", "0", "1", "2", "3"], "rt": [2195, 350, 175], "actions": ["up", "up", "right"], "actionTimes": [3306, 4164, 4846], "queries": {"click": {"state": {"target": ["4", "3"], "time": [1737, 2496]}, "edge": {"target": [], "time": []}}, "mouseover": {"state": {"target": ["4", "2", "3", "7"], "time": [1451, 2090, 2374, 3039]}, "edge": {"target": [], "time": []}}, "mouseout": {"state": {"target": ["0", "4", "2", "3", "7", "5"], "time": [946, 2073, 2273, 2806, 9296, 9348]}, "edge": {"target": [], "time": []}}}, "displayed_time": "9.12", "trialTime": 9920, "trial_type": "mouselab-mdp", "trial_index": 54, "time_elapsed": 1327422, "internal_node_id": "0.0-4.0-3.0-14.0"}}, {"uniqueid": "w65505896:a49154686", "current_trial": 55, "dateTime": 1664369269343, "trialdata": {"revealed_states": [], "num_clicks_accrued": [0, 0, 0, 0, 0, 0, 0, 0, 0, 0, 0, 0, 0], "stateRewards": ["", 4, 4, 48, -24, 2, -4, 48, 24, -4, -4, -48, 24], "withholdReward": true, "trial_id": "mdp_496003763005", "block": "test2", "trialIndex": 47, "score": 60.75, "costs": -0.25, "simulationMode": [null, null, null], "rewards": [4, 4, 48], "path": ["0", "0", "1", "2", "3"], "rt": [1882, 282, 287], "actions": ["up", "up", "right"], "actionTimes": [3079, 3868, 4667], "queries": {"click": {"state": {"target": ["3"], "time": [2086]}, "edge": {"target": [], "time": []}}, "mouseover": {"state": {"target": ["3", "5"], "time": [1857, 2577]}, "edge": {"target": [], "time": []}}, "mouseout": {"state": {"target": ["0", "3", "5"], "time": [1494, 2494, 2610]}, "edge": {"target": [], "time": []}}}, "displayed_time": "10.21", "trialTime": 10838, "trial_type": "mouselab-mdp", "trial_index": 55, "time_elapsed": 1338337, "internal_node_id": "0.0-4.0-3.0-15.0"}}, {"uniqueid": "w65505896:a49154686", "current_trial": 56, "dateTime": 1664369280820, "trialdata": {"revealed_states": [], "num_clicks_accrued": [0, 0, 0, 0, 0, 0, 0, 0, 0, 0, 0, 0, 0], "stateRewards": ["", 4, 4, 48, -48, -2, -8, -48, -24, 2, 4, -24, -48], "withholdReward": false, "trial_id": "mdp_239929662917", "block": "test2", "trialIndex": 48, "score": 60, "costs": -1, "simulationMode": [null, null, null], "rewards": [4, 4, 48], "path": ["0", "0", "1", "2", "3"], "rt": [5167, 270, 302], "actions": ["up", "up", "right"], "actionTimes": [6137, 6917, 7727], "queries": {"click": {"state": {"target": ["11", "7", "8", "3"], "time": [1771, 2767, 3748, 5263]}, "edge": {"target": [], "time": []}}, "mouseover": {"state": {"target": ["11", "7", "6", "8", "3", "10"], "time": [1470, 2485, 3203, 3253, 5024, 5715]}, "edge": {"target": [], "time": []}}, "mouseout": {"state": {"target": ["0", "11", "7", "6", "8", "3", "10"], "time": [603, 2144, 3186, 3238, 4181, 5654, 5732]}, "edge": {"target": [], "time": []}}}, "displayed_time": "9.98", "trialTime": 11395, "trial_type": "mouselab-mdp", "trial_index": 56, "time_elapsed": 1349814, "internal_node_id": "0.0-4.0-3.0-16.0"}}, {"uniqueid": "w65505896:a49154686", "current_trial": 57, "dateTime": 1664369291963, "trialdata": {"revealed_states": [], "num_clicks_accrued": [0, 0, 0, 0, 0, 0, 0, 0, 0, 0, 0, 0, 0], "stateRewards": ["", -4, 8, -48, -48, -2, -8, -24, -48, 2, -4, -48, 24], "withholdReward": true, "trial_id": "mdp_743906784415", "block": "test2", "trialIndex": 49, "score": 25.5, "costs": -1.5, "simulationMode": [null, null, null], "rewards": [2, -4, 24], "path": ["0", "0", "9", "10", "12"], "rt": [6729, 255, 350], "actions": ["left", "left", "down"], "actionTimes": [7973, 8719, 9580], "queries": {"click": {"state": {"target": ["4", "11", "12", "7", "3", "8"], "time": [2336, 3279, 4205, 5142, 6138, 7172]}, "edge": {"target": [], "time": []}}, "mouseover": {"state": {"target": ["1", "2", "4", "11", "10", "12", "0", "7", "7", "3", "6", "8"], "time": [1570, 1636, 2036, 2966, 3631, 3665, 4581, 4630, 4968, 5898, 6510, 6543]}, "edge": {"target": [], "time": []}}, "mouseout": {"state": {"target": ["0", "1", "2", "4", "11", "10", "12", "0", "7", "7", "3", "6", "8"], "time": [1547, 1603, 1770, 2799, 3616, 3648, 4565, 4597, 4682, 5682, 6483, 6527, 10816]}, "edge": {"target": [], "time": []}}}, "displayed_time": "10.09", "trialTime": 11064, "trial_type": "mouselab-mdp", "trial_index": 57, "time_elapsed": 1360958, "internal_node_id": "0.0-4.0-3.0-17.0"}}, {"uniqueid": "w65505896:a49154686", "current_trial": 58, "dateTime": 1664369301484, "trialdata": {"revealed_states": [], "num_clicks_accrued": [0, 0, 0, 0, 0, 0, 0, 0, 0, 0, 0, 0, 0], "stateRewards": ["", -2, 8, -48, 48, -4, -8, 24, 24, -2, -4, 48, -48], "withholdReward": false, "trial_id": "mdp_867247318592", "block": "test2", "trialIndex": 50, "score": 46.5, "costs": -0.5, "simulationMode": [null, null, null], "rewards": [-2, -4, 48], "path": ["0", "0", "9", "10", "11"], "rt": [2479, 195, 366], "actions": ["left", "left", "up"], "actionTimes": [4130, 4836, 5711], "queries": {"click": {"state": {"target": ["12", "11"], "time": [2442, 3243]}, "edge": {"target": [], "time": []}}, "mouseover": {"state": {"target": ["12", "10", "11", "1"], "time": [2247, 2856, 2914, 3744]}, "edge": {"target": [], "time": []}}, "mouseout": {"state": {"target": ["0", "12", "10", "11", "1", "5"], "time": [1929, 2847, 2898, 3680, 3777, 8418]}, "edge": {"target": [], "time": []}}}, "displayed_time": "8.65", "trialTime": 9439, "trial_type": "mouselab-mdp", "trial_index": 58, "time_elapsed": 1370479, "internal_node_id": "0.0-4.0-3.0-18.0"}}, {"uniqueid": "w65505896:a49154686", "current_trial": 59, "dateTime": 1664369312478, "trialdata": {"revealed_states": [], "num_clicks_accrued": [0, 0, 0, 0, 0, 0, 0, 0, 0, 0, 0, 0, 0], "stateRewards": ["", -4, -4, 24, -48, 2, 4, -24, -48, -2, -8, -24, 24], "withholdReward": true, "trial_id": "mdp_565569130486", "block": "test2", "trialIndex": 51, "score": 19.5, "costs": -1.5, "simulationMode": [null, null, null], "rewards": [-4, -4, 24], "path": ["0", "0", "1", "2", "3"], "rt": [6567, 224, 263], "actions": ["up", "up", "right"], "actionTimes": [7780, 8513, 9269], "queries": {"click": {"state": {"target": ["11", "3", "7", "8", "4", "12"], "time": [2006, 3044, 3995, 4855, 5707, 6646]}, "edge": {"target": [], "time": []}}, "mouseover": {"state": {"target": ["11", "2", "3", "7", "6", "8", "4", "12"], "time": [1681, 2567, 2765, 3632, 4431, 4509, 5354, 6437]}, "edge": {"target": [], "time": []}}, "mouseout": {"state": {"target": ["0", "11", "2", "3", "7", "6", "8", "4", "12"], "time": [1490, 2399, 2615, 3565, 4420, 4461, 5210, 6021, 10678]}, "edge": {"target": [], "time": []}}}, "displayed_time": "9.78", "trialTime": 10927, "trial_type": "mouselab-mdp", "trial_index": 59, "time_elapsed": 1381472, "internal_node_id": "0.0-4.0-3.0-19.0"}}, {"uniqueid": "w65505896:a49154686", "current_trial": 60, "dateTime": 1664369323781, "trialdata": {"revealed_states": [], "num_clicks_accrued": [0, 0, 0, 0, 0, 0, 0, 0, 0, 0, 0, 0, 0], "stateRewards": ["", 4, -8, 48, 48, 2, 4, 48, -48, 4, -4, -48, 48], "withholdReward": true, "trial_id": "mdp_519605841135", "block": "test2", "trialIndex": 52, "score": 48.75, "costs": -0.25, "simulationMode": [null, null, null], "rewards": [4, -8, 48], "path": ["0", "0", "1", "2", "4"], "rt": [1762, 375, 218], "actions": ["up", "up", "left"], "actionTimes": [3353, 4222, 4932], "queries": {"click": {"state": {"target": ["4"], "time": [2410]}, "edge": {"target": [], "time": []}}, "mouseover": {"state": {"target": ["4", "2"], "time": [2165, 2765]}, "edge": {"target": [], "time": []}}, "mouseout": {"state": {"target": ["4", "2"], "time": [2763, 2791]}, "edge": {"target": [], "time": []}}}, "displayed_time": "10.60", "trialTime": 11225, "trial_type": "mouselab-mdp", "trial_index": 60, "time_elapsed": 1392776, "internal_node_id": "0.0-4.0-3.0-20.0"}}, {"uniqueid": "w65505896:a49154686", "current_trial": 61, "dateTime": 1664369335024, "trialdata": {"revealed_states": [], "num_clicks_accrued": [0, 0, 0, 0, 0, 0, 0, 0, 0, 0, 0, 0, 0], "stateRewards": ["", -4, 4, 24, 24, 4, -8, 48, -48, -2, -8, 24, 24], "withholdReward": false, "trial_id": "mdp_395264223239", "block": "test2", "trialIndex": 53, "score": 48.25, "costs": -0.75, "simulationMode": [null, null, null], "rewards": [4, -8, 48], "path": ["0", "0", "5", "6", "7"], "rt": [4217, 352, 378], "actions": ["right", "right", "up"], "actionTimes": [5668, 6528, 7414], "queries": {"click": {"state": {"target": ["4", "11", "7"], "time": [2282, 3161, 4035]}, "edge": {"target": [], "time": []}}, "mouseover": {"state": {"target": ["4", "11", "1", "7", "6"], "time": [2008, 2908, 3522, 3773, 4431]}, "edge": {"target": [], "time": []}}, "mouseout": {"state": {"target": ["0", "4", "11", "1", "7", "6"], "time": [1725, 2717, 3490, 3539, 4406, 4463]}, "edge": {"target": [], "time": []}}}, "displayed_time": "9.45", "trialTime": 11172, "trial_type": "mouselab-mdp", "trial_index": 61, "time_elapsed": 1404019, "internal_node_id": "0.0-4.0-3.0-21.0"}}, {"uniqueid": "w65505896:a49154686", "current_trial": 62, "dateTime": 1664369344020, "trialdata": {"revealed_states": [], "num_clicks_accrued": [0, 0, 0, 0, 0, 0, 0, 0, 0, 0, 0, 0, 0], "stateRewards": ["", -2, -8, 48, 24, 2, 4, 24, -24, -2, -4, 48, -48], "withholdReward": true, "trial_id": "mdp_411152402386", "block": "test2", "trialIndex": 54, "score": 46, "costs": -1, "simulationMode": [null, null, null], "rewards": [-2, -4, 48], "path": ["0", "0", "9", "10", "11"], "rt": [4396, 319, 629], "actions": ["left", "left", "up"], "actionTimes": [5491, 6309, 7447], "queries": {"click": {"state": {"target": ["7", "8", "12", "11"], "time": [1888, 2825, 3743, 4530]}, "edge": {"target": [], "time": []}}, "mouseover": {"state": {"target": ["7", "6", "8", "12", "10", "11", "4"], "time": [1639, 2254, 2568, 3521, 4068, 4234, 4903]}, "edge": {"target": [], "time": []}}, "mouseout": {"state": {"target": ["0", "7", "6", "8", "12", "10", "11"], "time": [1323, 2237, 2321, 3154, 4053, 4102, 4860]}, "edge": {"target": [], "time": []}}}, "displayed_time": "8.10", "trialTime": 8920, "trial_type": "mouselab-mdp", "trial_index": 62, "time_elapsed": 1413015, "internal_node_id": "0.0-4.0-3.0-22.0"}}, {"uniqueid": "w65505896:a49154686", "current_trial": 63, "dateTime": 1664369353255, "trialdata": {"revealed_states": [], "num_clicks_accrued": [0, 0, 0, 0, 0, 0, 0, 0, 0, 0, 0, 0, 0], "stateRewards": ["", 2, 8, -48, 24, -4, 8, 48, -24, 2, 8, 24, 24], "withholdReward": false, "trial_id": "mdp_175372499314", "block": "test2", "trialIndex": 55, "score": 56.5, "costs": -0.5, "simulationMode": [null, null, null], "rewards": [-4, 8, 48], "path": ["0", "0", "5", "6", "7"], "rt": [3438, 388, 365], "actions": ["right", "right", "up"], "actionTimes": [4637, 5535, 6410], "queries": {"click": {"state": {"target": ["11", "7"], "time": [1926, 2821]}, "edge": {"target": [], "time": []}}, "mouseover": {"state": {"target": ["9", "11", "1", "7", "3"], "time": [1469, 1685, 2277, 2393, 3235]}, "edge": {"target": [], "time": []}}, "mouseout": {"state": {"target": ["4", "0", "9", "11", "1", "7", "3", "5"], "time": [558, 1448, 1502, 2248, 2292, 3203, 8444, 8592]}, "edge": {"target": [], "time": []}}}, "displayed_time": "8.21", "trialTime": 9158, "trial_type": "mouselab-mdp", "trial_index": 63, "time_elapsed": 1422250, "internal_node_id": "0.0-4.0-3.0-23.0"}}, {"uniqueid": "w65505896:a49154686", "current_trial": 64, "dateTime": 1664369365729, "trialdata": {"revealed_states": [], "num_clicks_accrued": [0, 0, 0, 0, 0, 0, 0, 0, 0, 0, 0, 0, 0], "stateRewards": ["", -4, 4, -48, -48, -4, 8, -24, 24, 2, -4, 48, 48], "withholdReward": true, "trial_id": "mdp_821566905048", "block": "test2", "trialIndex": 56, "score": 50, "costs": -1, "simulationMode": [null, null, null], "rewards": [2, -4, 48], "path": ["0", "0", "9", "10", "11"], "rt": [4223, 379, 644], "actions": ["left", "left", "up"], "actionTimes": [6285, 7173, 8323], "queries": {"click": {"state": {"target": ["7", "3", "4", "11"], "time": [2927, 3804, 4653, 5429]}, "edge": {"target": [], "time": []}}, "mouseover": {"state": {"target": ["7", "3", "3", "2", "4", "11", "10"], "time": [2702, 3326, 3559, 4161, 4427, 5012, 5851]}, "edge": {"target": [], "time": []}}, "mouseout": {"state": {"target": ["0", "7", "3", "3", "2", "4", "11", "10"], "time": [2382, 3293, 3342, 4146, 4194, 4981, 5839, 5868]}, "edge": {"target": [], "time": []}}}, "displayed_time": "9.07", "trialTime": 12377, "trial_type": "mouselab-mdp", "trial_index": 64, "time_elapsed": 1434724, "internal_node_id": "0.0-4.0-3.0-24.0"}}, {"uniqueid": "w65505896:a49154686", "current_trial": 65, "dateTime": 1664369377121, "trialdata": {"revealed_states": [], "num_clicks_accrued": [0, 0, 0, 0, 0, 0, 0, 0, 0, 0, 0, 0, 0], "stateRewards": ["", -4, 8, 24, -24, 4, 8, -24, -48, 2, 4, 24, -24], "withholdReward": true, "trial_id": "mdp_782187007008", "block": "test2", "trialIndex": 57, "score": 33.5, "costs": -1.5, "simulationMode": [null, null, null], "rewards": [2, 4, 24], "path": ["0", "0", "9", "10", "11"], "rt": [7184, 356, 255], "actions": ["left", "left", "up"], "actionTimes": [8494, 9357, 10119], "queries": {"click": {"state": {"target": ["11", "8", "7", "3", "4", "12"], "time": [2104, 3819, 4842, 5589, 6502, 7437]}, "edge": {"target": [], "time": []}}, "mouseover": {"state": {"target": ["9", "11", "0", "8", "6", "7", "7", "3", "2", "4", "10", "12", "12"], "time": [1614, 1714, 2615, 3569, 4147, 4179, 4590, 5260, 5962, 6309, 6862, 6879, 7162]}, "edge": {"target": [], "time": []}}, "mouseout": {"state": {"target": ["9", "11", "0", "8", "6", "7", "7", "3", "2", "4", "10", "12"], "time": [1630, 2465, 2881, 4126, 4163, 4195, 5231, 5938, 5978, 6829, 6878, 6944]}, "edge": {"target": [], "time": []}}}, "displayed_time": "10.63", "trialTime": 11307, "trial_type": "mouselab-mdp", "trial_index": 65, "time_elapsed": 1446115, "internal_node_id": "0.0-4.0-3.0-25.0"}}, {"uniqueid": "w65505896:a49154686", "current_trial": 66, "dateTime": 1664369388496, "trialdata": {"revealed_states": [], "num_clicks_accrued": [0, 0, 0, 0, 0, 0, 0, 0, 0, 0, 0, 0, 0], "stateRewards": ["", -2, 4, -48, 24, -4, 8, 48, 24, -2, 4, -48, -24], "withholdReward": false, "trial_id": "mdp_740882974347", "block": "test2", "trialIndex": 58, "score": 56.75, "costs": -0.25, "simulationMode": [null, null, null], "rewards": [-4, 8, 48], "path": ["0", "0", "5", "6", "7"], "rt": [1769, 455, 197], "actions": ["right", "right", "up"], "actionTimes": [3387, 4352, 5058], "queries": {"click": {"state": {"target": ["7"], "time": [2545]}, "edge": {"target": [], "time": []}}, "mouseover": {"state": {"target": ["7", "1"], "time": [2200, 3052]}, "edge": {"target": [], "time": []}}, "mouseout": {"state": {"target": ["12", "9", "7", "1", "0"], "time": [580, 613, 2939, 11033, 11050]}, "edge": {"target": [], "time": []}}}, "displayed_time": "10.62", "trialTime": 11305, "trial_type": "mouselab-mdp", "trial_index": 66, "time_elapsed": 1457491, "internal_node_id": "0.0-4.0-3.0-26.0"}}, {"uniqueid": "w65505896:a49154686", "current_trial": 67, "dateTime": 1664369399169, "trialdata": {"revealed_states": [], "num_clicks_accrued": [0, 0, 0, 0, 0, 0, 0, 0, 0, 0, 0, 0, 0], "stateRewards": ["", 4, 4, 24, -24, -4, -8, 48, -24, 4, 4, 48, 24], "withholdReward": true, "trial_id": "mdp_822446942217", "block": "test2", "trialIndex": 59, "score": 40.75, "costs": -0.25, "simulationMode": [null, null, null], "rewards": [-4, -8, 48], "path": ["0", "0", "5", "6", "7"], "rt": [1803, 322, 277], "actions": ["right", "right", "up"], "actionTimes": [2854, 3686, 4471], "queries": {"click": {"state": {"target": ["7"], "time": [1818]}, "edge": {"target": [], "time": []}}, "mouseover": {"state": {"target": ["7"], "time": [1647]}, "edge": {"target": [], "time": []}}, "mouseout": {"state": {"target": ["0", "7"], "time": [806, 2277]}, "edge": {"target": [], "time": []}}}, "displayed_time": "10.05", "trialTime": 10557, "trial_type": "mouselab-mdp", "trial_index": 67, "time_elapsed": 1468164, "internal_node_id": "0.0-4.0-3.0-27.0"}}, {"uniqueid": "w65505896:a49154686", "current_trial": 68, "dateTime": 1664369408370, "trialdata": {"revealed_states": [], "num_clicks_accrued": [0, 0, 0, 0, 0, 0, 0, 0, 0, 0, 0, 0, 0], "stateRewards": ["", -2, 8, 48, -24, 2, 4, -48, -24, -4, 8, -48, -48], "withholdReward": true, "trial_id": "mdp_539167561933", "block": "test2", "trialIndex": 60, "score": 58.25, "costs": -0.75, "simulationMode": [null, null, null], "rewards": [-2, 8, 48], "path": ["0", "0", "1", "2", "3"], "rt": [3484, 500, 356], "actions": ["up", "up", "right"], "actionTimes": [4982, 5992, 6858], "queries": {"click": {"state": {"target": ["11", "4", "3"], "time": [2398, 3240, 4210]}, "edge": {"target": [], "time": []}}, "mouseover": {"state": {"target": ["9", "11", "11", "4", "2", "3"], "time": [1874, 1893, 2176, 2976, 3752, 3952]}, "edge": {"target": [], "time": []}}, "mouseout": {"state": {"target": ["5", "0", "9", "11", "11", "4", "2"], "time": [802, 1872, 1883, 1926, 2858, 3718, 3785]}, "edge": {"target": [], "time": []}}}, "displayed_time": "8.50", "trialTime": 9122, "trial_type": "mouselab-mdp", "trial_index": 68, "time_elapsed": 1477365, "internal_node_id": "0.0-4.0-3.0-28.0"}}, {"uniqueid": "w65505896:a49154686", "current_trial": 69, "dateTime": 1664369422945, "trialdata": {"revealed_states": [], "num_clicks_accrued": [0, 0, 0, 0, 0, 0, 0, 0, 0, 0, 0, 0, 0], "stateRewards": ["", 2, -4, 24, 24, 2, 4, 24, 24, -4, 8, 24, 48], "withholdReward": true, "trial_id": "mdp_268430387178", "block": "test2", "trialIndex": 61, "score": 56.75, "costs": -0.25, "simulationMode": [null, null, null], "rewards": [-4, 8, 48], "path": ["0", "0", "9", "10", "12"], "rt": [1553, 257, 318], "actions": ["left", "left", "down"], "actionTimes": [6155, 6924, 7734], "queries": {"click": {"state": {"target": ["12"], "time": [5380]}, "edge": {"target": [], "time": []}}, "mouseover": {"state": {"target": ["12"], "time": [5191]}, "edge": {"target": [], "time": []}}, "mouseout": {"state": {"target": ["3", "1", "0"], "time": [3928, 3982, 4874]}, "edge": {"target": [], "time": []}}}, "displayed_time": "12.61", "trialTime": 14488, "trial_type": "mouselab-mdp", "trial_index": 69, "time_elapsed": 1491939, "internal_node_id": "0.0-4.0-3.0-29.0"}}, {"uniqueid": "w65505896:a49154686", "current_trial": 70, "dateTime": 1664369430814, "trialdata": {"rt": 7862, "stimulus": "<h1> End of block! </h1>\n\nYou have reached the end of the block 2/4. If you need a short break, feel free to take one now before moving on.\n\n<br><br>\nIn the next block, you will complete another 30 rounds of this game.\n\n<br><br>\n<div style='text-align: center;'>Press <code>space</code> to begin.</div>\n<br><br>\n<div style='text-align: center;'>(If the experiment doesn't continue, try clicking on the text and then pressing <code>space</code>.)</div>", "response": " ", "trial_id": "mdp_ready_3", "trial_type": "html-keyboard-response", "trial_index": 70, "time_elapsed": 1499808, "internal_node_id": "0.0-4.0-4.0"}}, {"uniqueid": "w65505896:a49154686", "current_trial": 71, "dateTime": 1664369443380, "trialdata": {"revealed_states": [], "num_clicks_accrued": [0, 0, 0, 0, 0, 0, 0, 0, 0, 0, 0, 0, 0], "stateRewards": ["", 2, 8, -48, 24, -4, 8, 48, -24, 2, 8, 24, 24], "withholdReward": true, "trial_id": "mdp_175372499314", "block": "test3", "trialIndex": 62, "score": 56.5, "costs": -0.5, "simulationMode": [null, null, null], "rewards": [-4, 8, 48], "path": ["0", "0", "5", "6", "7"], "rt": [2760, 532, 1339], "actions": ["right", "right", "up"], "actionTimes": [4059, 5102, 6950], "queries": {"click": {"state": {"target": ["11", "7"], "time": [2100, 3280]}, "edge": {"target": [], "time": []}}, "mouseover": {"state": {"target": ["11", "1", "7"], "time": [1905, 2753, 3069]}, "edge": {"target": [], "time": []}}, "mouseout": {"state": {"target": ["12", "0", "11", "1"], "time": [765, 1607, 2721, 2786]}, "edge": {"target": [], "time": []}}}, "displayed_time": "11.31", "trialTime": 12510, "trial_type": "mouselab-mdp", "trial_index": 71, "time_elapsed": 1512375, "internal_node_id": "0.0-4.0-5.0-0.0"}}, {"uniqueid": "w65505896:a49154686", "current_trial": 72, "dateTime": 1664369465584, "trialdata": {"revealed_states": [], "num_clicks_accrued": [0, 0, 0, 0, 0, 0, 0, 0, 0, 0, 0, 0, 0], "stateRewards": ["", -2, 4, 24, 48, 2, 4, -48, -48, -2, 8, 48, -24], "withholdReward": true, "trial_id": "mdp_305701202606", "block": "test3", "trialIndex": 63, "score": 58.75, "costs": -0.25, "simulationMode": [null, null, null], "rewards": [-2, 8, 48], "path": ["0", "0", "9", "10", "11"], "rt": [4998, 413, 255], "actions": ["left", "left", "up"], "actionTimes": [16634, 17559, 18323], "queries": {"click": {"state": {"target": ["11"], "time": [15700]}, "edge": {"target": [], "time": []}}, "mouseover": {"state": {"target": ["11", "9"], "time": [15495, 16177]}, "edge": {"target": [], "time": []}}, "mouseout": {"state": {"target": ["7", "5", "0", "11", "9"], "time": [7553, 7639, 15177, 16146, 16210]}, "edge": {"target": [], "time": []}}}, "displayed_time": "21.64", "trialTime": 22144, "trial_type": "mouselab-mdp", "trial_index": 72, "time_elapsed": 1534579, "internal_node_id": "0.0-4.0-5.0-1.0"}}, {"uniqueid": "w65505896:a49154686", "current_trial": 73, "dateTime": 1664369476153, "trialdata": {"revealed_states": [], "num_clicks_accrued": [0, 0, 0, 0, 0, 0, 0, 0, 0, 0, 0, 0, 0], "stateRewards": ["", 4, 4, -48, -48, 4, 4, -24, -24, -4, 8, -48, 24], "withholdReward": true, "trial_id": "mdp_669785455541", "block": "test3", "trialIndex": 64, "score": 31.5, "costs": -1.5, "simulationMode": [null, null, null], "rewards": [-4, 8, 24], "path": ["0", "0", "9", "10", "12"], "rt": [6355, 355, 286], "actions": ["left", "left", "down"], "actionTimes": [7397, 8260, 9053], "queries": {"click": {"state": {"target": ["11", "7", "8", "3", "4", "12"], "time": [1806, 2709, 3516, 4546, 6039, 6897]}, "edge": {"target": [], "time": []}}, "mouseover": {"state": {"target": ["9", "11", "1", "7", "6", "8", "2", "3", "2", "4", "4", "10", "12"], "time": [1347, 1396, 2233, 2548, 3160, 3193, 3991, 4291, 4933, 5251, 5782, 6411, 6494]}, "edge": {"target": [], "time": []}}, "mouseout": {"state": {"target": ["0", "9", "11", "1", "7", "6", "8", "2", "3", "2", "4", "4", "10", "12", "12"], "time": [1334, 1363, 2194, 2248, 3135, 3177, 3942, 4008, 4916, 4967, 5368, 6371, 6427, 10106, 10142]}, "edge": {"target": [], "time": []}}}, "displayed_time": "9.56", "trialTime": 10486, "trial_type": "mouselab-mdp", "trial_index": 73, "time_elapsed": 1545147, "internal_node_id": "0.0-4.0-5.0-2.0"}}, {"uniqueid": "w65505896:a49154686", "current_trial": 74, "dateTime": 1664369486295, "trialdata": {"revealed_states": [], "num_clicks_accrued": [0, 0, 0, 0, 0, 0, 0, 0, 0, 0, 0, 0, 0], "stateRewards": ["", 2, 4, -48, 48, -4, 8, -48, -24, -4, -4, 48, 48], "withholdReward": true, "trial_id": "mdp_613582696541", "block": "test3", "trialIndex": 65, "score": 58, "costs": -1, "simulationMode": [null, null, null], "rewards": [2, 4, 48], "path": ["0", "0", "1", "2", "4"], "rt": [4281, 279, 233], "actions": ["up", "up", "left"], "actionTimes": [5494, 6283, 7024], "queries": {"click": {"state": {"target": ["8", "3", "7", "4"], "time": [1974, 2910, 3672, 4669]}, "edge": {"target": [], "time": []}}, "mouseover": {"state": {"target": ["8", "6", "3", "7", "4", "4"], "time": [1634, 2350, 2681, 3366, 4089, 4412]}, "edge": {"target": [], "time": []}}, "mouseout": {"state": {"target": ["0", "8", "6", "3", "7", "4", "4"], "time": [1563, 2341, 2365, 3314, 4052, 4105, 5059]}, "edge": {"target": [], "time": []}}}, "displayed_time": "9.22", "trialTime": 10060, "trial_type": "mouselab-mdp", "trial_index": 74, "time_elapsed": 1555289, "internal_node_id": "0.0-4.0-5.0-3.0"}}, {"uniqueid": "w65505896:a49154686", "current_trial": 75, "dateTime": 1664369497265, "trialdata": {"revealed_states": [], "num_clicks_accrued": [0, 0, 0, 0, 0, 0, 0, 0, 0, 0, 0, 0, 0], "stateRewards": ["", 4, 8, 48, 48, 4, 4, -24, -48, 4, 8, -48, -48], "withholdReward": true, "trial_id": "mdp_984548726931", "block": "test3", "trialIndex": 66, "score": 64.75, "costs": -0.25, "simulationMode": [null, null, null], "rewards": [4, 8, 48], "path": ["0", "0", "1", "2", "4"], "rt": [1968, 213, 278], "actions": ["up", "up", "left"], "actionTimes": [3434, 4140, 4929], "queries": {"click": {"state": {"target": ["4"], "time": [2553]}, "edge": {"target": [], "time": []}}, "mouseover": {"state": {"target": ["4", "11", "9"], "time": [2147, 2904, 3089]}, "edge": {"target": [], "time": []}}, "mouseout": {"state": {"target": ["9", "4", "11", "9"], "time": [1110, 2837, 2954, 3106]}, "edge": {"target": [], "time": []}}}, "displayed_time": "10.47", "trialTime": 10888, "trial_type": "mouselab-mdp", "trial_index": 75, "time_elapsed": 1566260, "internal_node_id": "0.0-4.0-5.0-4.0"}}, {"uniqueid": "w65505896:a49154686", "current_trial": 76, "dateTime": 1664369508804, "trialdata": {"revealed_states": [], "num_clicks_accrued": [0, 0, 0, 0, 0, 0, 0, 0, 0, 0, 0, 0, 0], "stateRewards": ["", 2, -4, -48, -48, -2, -4, -24, -48, -2, 8, 24, 24], "withholdReward": true, "trial_id": "mdp_656069446729", "block": "test3", "trialIndex": 67, "score": 33.5, "costs": -1.5, "simulationMode": [null, null, null], "rewards": [-2, 8, 24], "path": ["0", "0", "9", "10", "12"], "rt": [7653, 107, 361], "actions": ["left", "left", "down"], "actionTimes": [8712, 9328, 10183], "queries": {"click": {"state": {"target": ["4", "11", "12", "7", "3", "8"], "time": [1864, 2692, 3475, 5940, 6883, 7903]}, "edge": {"target": [], "time": []}}, "mouseover": {"state": {"target": ["4", "11", "10", "12", "8", "6", "7", "3", "6", "8"], "time": [1662, 2231, 3062, 3110, 5201, 5256, 5681, 6650, 7246, 7296]}, "edge": {"target": [], "time": []}}, "mouseout": {"state": {"target": ["0", "4", "11", "10", "12", "8", "6", "7", "3", "6", "8"], "time": [748, 2197, 3050, 3094, 3889, 5239, 5306, 6419, 7222, 7279, 11047]}, "edge": {"target": [], "time": []}}}, "displayed_time": "10.69", "trialTime": 11484, "trial_type": "mouselab-mdp", "trial_index": 76, "time_elapsed": 1577798, "internal_node_id": "0.0-4.0-5.0-5.0"}}, {"uniqueid": "w65505896:a49154686", "current_trial": 77, "dateTime": 1664369519499, "trialdata": {"revealed_states": [], "num_clicks_accrued": [0, 0, 0, 0, 0, 0, 0, 0, 0, 0, 0, 0, 0], "stateRewards": ["", 4, 4, 48, -48, -2, 4, 48, -48, -4, 4, -24, -24], "withholdReward": true, "trial_id": "mdp_753324812898", "block": "test3", "trialIndex": 68, "score": 54.5, "costs": -0.5, "simulationMode": [null, null, null], "rewards": [-2, 4, 48], "path": ["0", "0", "5", "6", "7"], "rt": [2717, 249, 275], "actions": ["right", "right", "up"], "actionTimes": [4830, 5588, 6369], "queries": {"click": {"state": {"target": ["4", "7"], "time": [2961, 3961]}, "edge": {"target": [], "time": []}}, "mouseover": {"state": {"target": ["4", "1", "7", "6"], "time": [2687, 3431, 3713, 4397]}, "edge": {"target": [], "time": []}}, "mouseout": {"state": {"target": ["0", "4", "1", "7", "6"], "time": [2368, 3414, 3447, 4368, 4449]}, "edge": {"target": [], "time": []}}}, "displayed_time": "10.11", "trialTime": 10609, "trial_type": "mouselab-mdp", "trial_index": 77, "time_elapsed": 1588493, "internal_node_id": "0.0-4.0-5.0-6.0"}}, {"uniqueid": "w65505896:a49154686", "current_trial": 78, "dateTime": 1664369530826, "trialdata": {"revealed_states": [], "num_clicks_accrued": [0, 0, 0, 0, 0, 0, 0, 0, 0, 0, 0, 0, 0], "stateRewards": ["", -2, 8, -24, 48, -4, 4, -48, 24, 4, -8, 48, -24], "withholdReward": true, "trial_id": "mdp_425320427962", "block": "test3", "trialIndex": 69, "score": 48.75, "costs": -0.25, "simulationMode": [null, null, null], "rewards": [4, -8, 48], "path": ["0", "0", "9", "10", "11"], "rt": [2558, 218, 282], "actions": ["left", "left", "up"], "actionTimes": [5039, 5749, 6539], "queries": {"click": {"state": {"target": ["11"], "time": [3307]}, "edge": {"target": [], "time": []}}, "mouseover": {"state": {"target": ["11", "1", "5"], "time": [2942, 3763, 3847]}, "edge": {"target": [], "time": []}}, "mouseout": {"state": {"target": ["0", "11", "1", "5"], "time": [2207, 3693, 3797, 9943]}, "edge": {"target": [], "time": []}}}, "displayed_time": "10.48", "trialTime": 11247, "trial_type": "mouselab-mdp", "trial_index": 78, "time_elapsed": 1599821, "internal_node_id": "0.0-4.0-5.0-7.0"}}, {"uniqueid": "w65505896:a49154686", "current_trial": 79, "dateTime": 1664369541522, "trialdata": {"revealed_states": [], "num_clicks_accrued": [0, 0, 0, 0, 0, 0, 0, 0, 0, 0, 0, 0, 0], "stateRewards": ["", -2, 8, -48, -24, -2, 8, 48, -48, -4, 8, 24, 48], "withholdReward": true, "trial_id": "mdp_160707003673", "block": "test3", "trialIndex": 70, "score": 58.75, "costs": -0.25, "simulationMode": [null, null, null], "rewards": [-2, 8, 48], "path": ["0", "0", "5", "6", "7"], "rt": [1576, 391, 302], "actions": ["right", "right", "up"], "actionTimes": [3680, 4581, 5377], "queries": {"click": {"state": {"target": ["7"], "time": [2856]}, "edge": {"target": [], "time": []}}, "mouseover": {"state": {"target": ["5", "7", "6"], "time": [2380, 2528, 3209]}, "edge": {"target": [], "time": []}}, "mouseout": {"state": {"target": ["0", "5", "7", "6"], "time": [2378, 2411, 3181, 3242]}, "edge": {"target": [], "time": []}}}, "displayed_time": "10.11", "trialTime": 10609, "trial_type": "mouselab-mdp", "trial_index": 79, "time_elapsed": 1610517, "internal_node_id": "0.0-4.0-5.0-8.0"}}, {"uniqueid": "w65505896:a49154686", "current_trial": 80, "dateTime": 1664369552338, "trialdata": {"revealed_states": [], "num_clicks_accrued": [0, 0, 0, 0, 0, 0, 0, 0, 0, 0, 0, 0, 0], "stateRewards": ["", 4, 4, -24, -48, -4, 4, -48, 24, 4, -8, -48, 48], "withholdReward": true, "trial_id": "mdp_566768794366", "block": "test3", "trialIndex": 71, "score": 48.5, "costs": -0.5, "simulationMode": [null, null, null], "rewards": [4, -8, 48], "path": ["0", "0", "9", "10", "12"], "rt": [2681, 348, 352], "actions": ["left", "left", "down"], "actionTimes": [3881, 4739, 5594], "queries": {"click": {"state": {"target": ["8", "12"], "time": [2017, 3031]}, "edge": {"target": [], "time": []}}, "mouseover": {"state": {"target": ["0", "8", "12", "10", "11"], "time": [1441, 1739, 2785, 3391, 3508]}, "edge": {"target": [], "time": []}}, "mouseout": {"state": {"target": ["0", "0", "8", "12", "10"], "time": [995, 1456, 2360, 3375, 3442]}, "edge": {"target": [], "time": []}}}, "displayed_time": "10.20", "trialTime": 10736, "trial_type": "mouselab-mdp", "trial_index": 80, "time_elapsed": 1621333, "internal_node_id": "0.0-4.0-5.0-9.0"}}, {"uniqueid": "w65505896:a49154686", "current_trial": 81, "dateTime": 1664369562271, "trialdata": {"revealed_states": [], "num_clicks_accrued": [0, 0, 0, 0, 0, 0, 0, 0, 0, 0, 0, 0, 0], "stateRewards": ["", 4, 4, 48, -48, 4, 4, -48, 24, 2, 8, 24, -48], "withholdReward": false, "trial_id": "mdp_291674656283", "block": "test3", "trialIndex": 72, "score": 60.5, "costs": -0.5, "simulationMode": [null, null, null], "rewards": [4, 4, 48], "path": ["0", "0", "1", "2", "3"], "rt": [2296, 234, 491], "actions": ["up", "up", "right"], "actionTimes": [3485, 4227, 5228], "queries": {"click": {"state": {"target": ["4", "3"], "time": [1952, 2721]}, "edge": {"target": [], "time": []}}, "mouseover": {"state": {"target": ["1", "2", "4", "2", "3", "7"], "time": [1472, 1634, 1733, 2311, 2361, 3100]}, "edge": {"target": [], "time": []}}, "mouseout": {"state": {"target": ["11", "1", "2", "4", "2", "3"], "time": [572, 1534, 1667, 2294, 2327, 3065]}, "edge": {"target": [], "time": []}}}, "displayed_time": "8.19", "trialTime": 9850, "trial_type": "mouselab-mdp", "trial_index": 81, "time_elapsed": 1631266, "internal_node_id": "0.0-4.0-5.0-10.0"}}, {"uniqueid": "w65505896:a49154686", "current_trial": 82, "dateTime": 1664369571997, "trialdata": {"revealed_states": [], "num_clicks_accrued": [0, 0, 0, 0, 0, 0, 0, 0, 0, 0, 0, 0, 0], "stateRewards": ["", -2, -4, 48, 48, 2, 4, -48, 24, 4, -8, 24, -24], "withholdReward": true, "trial_id": "mdp_628613319495", "block": "test3", "trialIndex": 73, "score": 46.5, "costs": -0.5, "simulationMode": [null, null, null], "rewards": [-2, -4, 48], "path": ["0", "0", "1", "2", "4"], "rt": [2966, 955, 384], "actions": ["up", "up", "left"], "actionTimes": [4170, 5627, 6522], "queries": {"click": {"state": {"target": ["7", "4"], "time": [2408, 3378]}, "edge": {"target": [], "time": []}}, "mouseover": {"state": {"target": ["0", "5", "7", "1", "4"], "time": [1828, 1927, 2112, 2759, 3125]}, "edge": {"target": [], "time": []}}, "mouseout": {"state": {"target": ["7", "0", "0", "5", "7", "1", "4"], "time": [598, 1689, 1911, 2012, 2722, 2775, 3698]}, "edge": {"target": [], "time": []}}}, "displayed_time": "9.21", "trialTime": 9667, "trial_type": "mouselab-mdp", "trial_index": 82, "time_elapsed": 1640991, "internal_node_id": "0.0-4.0-5.0-11.0"}}, {"uniqueid": "w65505896:a49154686", "current_trial": 83, "dateTime": 1664369583495, "trialdata": {"revealed_states": [], "num_clicks_accrued": [0, 0, 0, 0, 0, 0, 0, 0, 0, 0, 0, 0, 0], "stateRewards": ["", -2, 4, 48, -24, 2, 8, 24, 48, 2, 4, -24, -48], "withholdReward": false, "trial_id": "mdp_892412058587", "block": "test3", "trialIndex": 74, "score": 62.25, "costs": -0.75, "simulationMode": [null, null, null], "rewards": [2, 8, 48], "path": ["0", "0", "5", "6", "8"], "rt": [3496, 182, 178], "actions": ["right", "right", "down"], "actionTimes": [6123, 6814, 7505], "queries": {"click": {"state": {"target": ["11", "12", "8"], "time": [3293, 4033, 5033]}, "edge": {"target": [], "time": []}}, "mouseover": {"state": {"target": ["11", "10", "12", "8", "6", "7"], "time": [2945, 3629, 3696, 4779, 5368, 5402]}, "edge": {"target": [], "time": []}}, "mouseout": {"state": {"target": ["0", "11", "10", "12", "8", "6", "7"], "time": [2878, 3612, 3662, 4447, 5351, 5385, 10151]}, "edge": {"target": [], "time": []}}}, "displayed_time": "10.63", "trialTime": 11412, "trial_type": "mouselab-mdp", "trial_index": 83, "time_elapsed": 1652490, "internal_node_id": "0.0-4.0-5.0-12.0"}}, {"uniqueid": "w65505896:a49154686", "current_trial": 84, "dateTime": 1664369594669, "trialdata": {"revealed_states": [], "num_clicks_accrued": [0, 0, 0, 0, 0, 0, 0, 0, 0, 0, 0, 0, 0], "stateRewards": ["", 2, 4, -48, -48, 2, 4, 48, -24, -2, 8, 48, -48], "withholdReward": true, "trial_id": "mdp_258528916140", "block": "test3", "trialIndex": 75, "score": 58.75, "costs": -0.25, "simulationMode": [null, null, null], "rewards": [2, 4, 48], "path": ["0", "0", "5", "6", "7"], "rt": [1606, 222, 112], "actions": ["right", "right", "up"], "actionTimes": [3235, 3968, 4592], "queries": {"click": {"state": {"target": ["7"], "time": [2440]}, "edge": {"target": [], "time": []}}, "mouseover": {"state": {"target": ["8", "6", "7"], "time": [1970, 2072, 2204]}, "edge": {"target": [], "time": []}}, "mouseout": {"state": {"target": ["0", "8", "6"], "time": [1897, 2055, 2121]}, "edge": {"target": [], "time": []}}}, "displayed_time": "10.64", "trialTime": 11116, "trial_type": "mouselab-mdp", "trial_index": 84, "time_elapsed": 1663664, "internal_node_id": "0.0-4.0-5.0-13.0"}}, {"uniqueid": "w65505896:a49154686", "current_trial": 85, "dateTime": 1664369605789, "trialdata": {"revealed_states": [], "num_clicks_accrued": [0, 0, 0, 0, 0, 0, 0, 0, 0, 0, 0, 0, 0], "stateRewards": ["", 2, -4, -24, -24, -2, -8, -48, 24, -4, -8, 24, 24], "withholdReward": true, "trial_id": "mdp_521351546461", "block": "test3", "trialIndex": 76, "score": 15.5, "costs": -1.5, "simulationMode": [null, null, null], "rewards": [-4, -8, 24], "path": ["0", "0", "9", "10", "11"], "rt": [6401, 49, 32], "actions": ["left", "left", "up"], "actionTimes": [7484, 8043, 8590], "queries": {"click": {"state": {"target": ["11", "4", "7", "8", "3", "12"], "time": [1786, 2872, 3789, 4619, 5622, 6586]}, "edge": {"target": [], "time": []}}, "mouseover": {"state": {"target": ["11", "4", "7", "6", "8", "1", "2", "3", "12"], "time": [1573, 2640, 3616, 4194, 4277, 5105, 5155, 5338, 6250]}, "edge": {"target": [], "time": []}}, "mouseout": {"state": {"target": ["7", "0", "11", "4", "7", "6", "8", "1", "2", "3", "12"], "time": [517, 1331, 2439, 3292, 4186, 4228, 5074, 5122, 5238, 5959, 10783]}, "edge": {"target": [], "time": []}}}, "displayed_time": "10.10", "trialTime": 11041, "trial_type": "mouselab-mdp", "trial_index": 85, "time_elapsed": 1674784, "internal_node_id": "0.0-4.0-5.0-14.0"}}, {"uniqueid": "w65505896:a49154686", "current_trial": 86, "dateTime": 1664369616423, "trialdata": {"revealed_states": [], "num_clicks_accrued": [0, 0, 0, 0, 0, 0, 0, 0, 0, 0, 0, 0, 0], "stateRewards": ["", 4, -4, 48, -48, -2, -8, -24, 48, -2, 4, 24, -24], "withholdReward": false, "trial_id": "mdp_507290896735", "block": "test3", "trialIndex": 77, "score": 51.75, "costs": -1.25, "simulationMode": [null, null, null], "rewards": [4, -4, 48], "path": ["0", "0", "1", "2", "3"], "rt": [5647, 231, 228], "actions": ["up", "up", "right"], "actionTimes": [6978, 7719, 8457], "queries": {"click": {"state": {"target": ["7", "11", "12", "4", "3"], "time": [2458, 3411, 4397, 5284, 6176]}, "edge": {"target": [], "time": []}}, "mouseover": {"state": {"target": ["7", "1", "11", "10", "12", "4", "2", "3"], "time": [2077, 2877, 3213, 3960, 4027, 5039, 5776, 5860]}, "edge": {"target": [], "time": []}}, "mouseout": {"state": {"target": ["0", "7", "1", "11", "10", "12", "4", "2", "3"], "time": [776, 2840, 2892, 3945, 3993, 4733, 5766, 5810, 6515]}, "edge": {"target": [], "time": []}}}, "displayed_time": "9.33", "trialTime": 10545, "trial_type": "mouselab-mdp", "trial_index": 86, "time_elapsed": 1685418, "internal_node_id": "0.0-4.0-5.0-15.0"}}, {"uniqueid": "w65505896:a49154686", "current_trial": 87, "dateTime": 1664369628395, "trialdata": {"revealed_states": [], "num_clicks_accrued": [0, 0, 0, 0, 0, 0, 0, 0, 0, 0, 0, 0, 0], "stateRewards": ["", -4, 4, -24, 48, 2, 4, -48, 24, 4, -8, -24, 24], "withholdReward": true, "trial_id": "mdp_740130150937", "block": "test3", "trialIndex": 78, "score": 51.75, "costs": -1.25, "simulationMode": [null, null, null], "rewards": [-4, 4, 48], "path": ["0", "0", "1", "2", "4"], "rt": [5994, 423, 302], "actions": ["up", "up", "left"], "actionTimes": [7187, 8120, 8932], "queries": {"click": {"state": {"target": ["3", "8", "7", "11", "4"], "time": [1954, 2890, 4387, 5150, 5965]}, "edge": {"target": [], "time": []}}, "mouseover": {"state": {"target": ["3", "6", "8", "6", "7", "7", "11", "4"], "time": [1611, 2470, 2520, 3403, 3436, 4158, 4789, 5659]}, "edge": {"target": [], "time": []}}, "mouseout": {"state": {"target": ["0", "3", "6", "8", "6", "7", "7", "11", "4", "9"], "time": [952, 2417, 2487, 3377, 3419, 3485, 4727, 5592, 6334, 10982]}, "edge": {"target": [], "time": []}}}, "displayed_time": "11.19", "trialTime": 11906, "trial_type": "mouselab-mdp", "trial_index": 87, "time_elapsed": 1697390, "internal_node_id": "0.0-4.0-5.0-16.0"}}, {"uniqueid": "w65505896:a49154686", "current_trial": 88, "dateTime": 1664369640737, "trialdata": {"revealed_states": [], "num_clicks_accrued": [0, 0, 0, 0, 0, 0, 0, 0, 0, 0, 0, 0, 0], "stateRewards": ["", 2, -8, -24, 48, 4, -8, -24, -24, 2, 8, -24, 24], "withholdReward": true, "trial_id": "mdp_480787552818", "block": "test3", "trialIndex": 79, "score": 45.5, "costs": -1.5, "simulationMode": [null, null, null], "rewards": [2, -8, 48], "path": ["0", "0", "1", "2", "4"], "rt": [6587, 450, 511], "actions": ["up", "up", "left"], "actionTimes": [8449, 9406, 10430], "queries": {"click": {"state": {"target": ["11", "12", "8", "3", "7", "4"], "time": [2734, 3669, 5251, 6147, 7017, 7872]}, "edge": {"target": [], "time": []}}, "mouseover": {"state": {"target": ["9", "11", "10", "12", "8", "8", "3", "7", "2", "4"], "time": [2228, 2527, 3202, 3252, 4419, 5021, 5670, 6766, 7444, 7478]}, "edge": {"target": [], "time": []}}, "mouseout": {"state": {"target": ["0", "9", "11", "10", "12", "8", "8", "3", "7", "2"], "time": [2217, 2259, 3194, 3219, 4052, 4488, 5620, 6604, 7401, 7461]}, "edge": {"target": [], "time": []}}}, "displayed_time": "11.87", "trialTime": 12264, "trial_type": "mouselab-mdp", "trial_index": 88, "time_elapsed": 1709732, "internal_node_id": "0.0-4.0-5.0-17.0"}}, {"uniqueid": "w65505896:a49154686", "current_trial": 89, "dateTime": 1664369649518, "trialdata": {"revealed_states": [], "num_clicks_accrued": [0, 0, 0, 0, 0, 0, 0, 0, 0, 0, 0, 0, 0], "stateRewards": ["", -2, 4, -24, -48, -4, 8, -24, 48, 4, 4, -48, 24], "withholdReward": true, "trial_id": "mdp_341117665701", "block": "test3", "trialIndex": 80, "score": 56.25, "costs": -0.75, "simulationMode": [null, null, null], "rewards": [-4, 8, 48], "path": ["0", "0", "5", "6", "8"], "rt": [3282, 424, 597], "actions": ["right", "right", "down"], "actionTimes": [4499, 5416, 6505], "queries": {"click": {"state": {"target": ["3", "11", "8"], "time": [2054, 2873, 3626]}, "edge": {"target": [], "time": []}}, "mouseover": {"state": {"target": ["3", "2", "11", "5", "8", "6", "7"], "time": [1752, 2418, 2756, 3255, 3589, 3905, 3988]}, "edge": {"target": [], "time": []}}, "mouseout": {"state": {"target": ["4", "3", "2", "11", "5", "8", "6", "7"], "time": [638, 2405, 2430, 3189, 330