{"condition": 1, "counterbalance": 0, "assignmentId": "a34577893", "workerId": "w81517528", "hitId": "h42505100", "currenttrial": 143, "bonus": 0, "data": [{"uniqueid": "w81517528:a34577893", "current_trial": 0, "dateTime": 1664873395525, "trialdata": {"success": true, "trial_type": "fullscreen", "trial_index": 0, "time_elapsed": 22877, "internal_node_id": "0.0-0.0"}}, {"uniqueid": "w81517528:a34577893", "current_trial": 1, "dateTime": 1664873417845, "trialdata": {"view_history": [{"page_index": 0, "viewing_time": 22295}], "rt": 22297, "trial_id": "exp_instructions_no_distractor", "trial_type": "instructions", "trial_index": 1, "time_elapsed": 45200, "internal_node_id": "0.0-1.0"}}, {"uniqueid": "w81517528:a34577893", "current_trial": 2, "dateTime": 1664873421348, "trialdata": {"success": true, "trial_type": "fullscreen", "trial_index": 2, "time_elapsed": 48702, "internal_node_id": "0.0-2.0-0.0"}}, {"uniqueid": "w81517528:a34577893", "current_trial": 3, "dateTime": 1664873561402, "trialdata": {"view_history": [{"page_index": 0, "viewing_time": 73932}, {"page_index": 1, "viewing_time": 28818}, {"page_index": 2, "viewing_time": 1839}, {"page_index": 1, "viewing_time": 2925}, {"page_index": 2, "viewing_time": 11650}, {"page_index": 3, "viewing_time": 4532}, {"page_index": 4, "viewing_time": 16352}], "rt": 140048, "trial_id": "mouselab_instructions_1", "trial_type": "instructions", "trial_index": 3, "time_elapsed": 188757, "internal_node_id": "0.0-2.0-1.0"}}, {"uniqueid": "w81517528:a34577893", "current_trial": 4, "dateTime": 1664873596435, "trialdata": {"revealed_states": [], "num_clicks_accrued": [0, 0, 0, 0, 0, 0, 0, 0, 0, 0, 0, 0, 0], "stateRewards": ["", 10, 10, -10, -10, 10, 10, -10, -10, -10, -10, -10, -10], "withholdReward": false, "trial_id": "practice_1", "block": "test", "trialIndex": 0, "score": 11, "costs": -1, "simulationMode": [null, null, null], "rewards": [10, 10, -10], "path": ["0", "0", "1", "2", "4"], "rt": [15485, 1683, 1278], "actions": ["up", "up", "left"], "actionTimes": [21013, 23197, 24980], "queries": {"click": {"state": {"target": ["9", "1", "5", "2"], "time": [12671, 14621, 16643, 18596]}, "edge": {"target": [], "time": []}}, "mouseover": {"state": {"target": ["9", "1", "5", "2", "7", "6"], "time": [8684, 14265, 15783, 18278, 19206, 19557]}, "edge": {"target": [], "time": []}}, "mouseout": {"state": {"target": ["3", "3", "3", "0", "9", "1", "5", "1", "1", "2", "7", "6", "5", "0", "1", "4"], "time": [432, 815, 4046, 7389, 14030, 15367, 17277, 17488, 17743, 19126, 19414, 20089, 20192, 31808, 31871, 31938]}, "edge": {"target": [], "time": []}}}, "displayed_time": "25.49", "trialTime": 34139, "trial_type": "mouselab-mdp", "trial_index": 4, "time_elapsed": 223788, "internal_node_id": "0.0-2.0-2.0-0.0"}}, {"uniqueid": "w81517528:a34577893", "current_trial": 5, "dateTime": 1664873622180, "trialdata": {"revealed_states": [], "num_clicks_accrued": [0, 0, 0, 0, 0, 0, 0, 0, 0, 0, 0, 0, 0], "stateRewards": ["", 10, -10, -10, 10, 10, -10, 10, -10, 10, -10, -10, 10], "withholdReward": false, "trial_id": "practice_2", "block": "test", "trialIndex": 1, "score": 9.5, "costs": -2.5, "simulationMode": [null, null, null], "rewards": [10, -10, 10], "path": ["0", "0", "9", "10", "12"], "rt": [17950, 2593, 80], "actions": ["left", "left", "down"], "actionTimes": [20214, 23310, 23905], "queries": {"click": {"state": {"target": ["9", "10", "5", "6", "2", "8", "12", "11", "1", "7"], "time": [3622, 4986, 6752, 7689, 8999, 11080, 12179, 14018, 15516, 17874]}, "edge": {"target": [], "time": []}}, "mouseover": {"state": {"target": ["0", "9", "0", "10", "11", "5", "5", "6", "1", "2", "1", "8", "12", "11", "1", "7", "7", "7", "0"], "time": [3171, 3268, 4388, 4655, 5746, 6093, 6330, 7328, 8303, 8718, 9716, 10605, 11942, 13330, 14635, 16067, 17290, 17607, 18510]}, "edge": {"target": [], "time": []}}, "mouseout": {"state": {"target": ["4", "0", "0", "0", "9", "0", "9", "10", "11", "5", "5", "6", "1", "2", "1", "9", "8", "12", "10", "9", "9", "11", "1", "7", "1", "1", "5", "7", "7", "0", "12", "10"], "time": [900, 1161, 1901, 3186, 4306, 4521, 4626, 5676, 5945, 6179, 7247, 8217, 8402, 9679, 9734, 9868, 11548, 12611, 12691, 12995, 13247, 14483, 16004, 16439, 16638, 17003, 17173, 17373, 18443, 18529, 18790, 19007]}, "edge": {"target": [], "time": []}}}, "displayed_time": "24.41", "trialTime": 25554, "trial_type": "mouselab-mdp", "trial_index": 5, "time_elapsed": 249534, "internal_node_id": "0.0-2.0-2.0-1.0"}}, {"uniqueid": "w81517528:a34577893", "current_trial": 6, "dateTime": 1664873666133, "trialdata": {"view_history": [{"page_index": 0, "viewing_time": 16493}, {"page_index": 1, "viewing_time": 2772}, {"page_index": 0, "viewing_time": 1675}, {"page_index": 1, "viewing_time": 14326}, {"page_index": 2, "viewing_time": 8675}], "rt": 43941, "trial_id": "mouselab_instructions_2_scarce", "trial_type": "instructions", "trial_index": 6, "time_elapsed": 293488, "internal_node_id": "0.0-2.0-3.0"}}, {"uniqueid": "w81517528:a34577893", "current_trial": 7, "dateTime": 1664873702167, "trialdata": {"rt": 35978, "response": {"Q0": "$-10 to $10", "Q1": "The cost is always $0.25.", "Q2": "The better I perform the higher my bonus will be.", "Q3": "No, the amount of cash at each node of the web may be different each time.", "Q4": "The values of the nodes walked through from start to finish.", "Q5": "No, the spider might forget to count the money on some rounds."}, "question_order": [0, 1, 2, 3, 4, 5], "correct": {"Q0": "$-48 to $48", "Q1": "The cost is always $0.25.", "Q2": "The better I perform the higher my bonus will be.", "Q3": "No, the amount of cash at each node of the web may be different each time.", "Q4": "The values of the nodes walked through from start to finish.", "Q5": "No, the spider might forget to count the money on some rounds."}, "trial_id": "mouselab_quiz_scarce", "trial_type": "survey-multi-choice", "trial_index": 7, "time_elapsed": 329522, "internal_node_id": "0.0-2.0-4.0"}}, {"uniqueid": "w81517528:a34577893", "current_trial": 8, "dateTime": 1664873712539, "trialdata": {"success": true, "trial_type": "fullscreen", "trial_index": 8, "time_elapsed": 339894, "internal_node_id": "0.0-2.1-0.1"}}, {"uniqueid": "w81517528:a34577893", "current_trial": 9, "dateTime": 1664873736845, "trialdata": {"view_history": [{"page_index": 0, "viewing_time": 13118}, {"page_index": 1, "viewing_time": 4016}, {"page_index": 2, "viewing_time": 1695}, {"page_index": 3, "viewing_time": 2946}, {"page_index": 4, "viewing_time": 2526}], "rt": 24302, "trial_id": "mouselab_instructions_1", "trial_type": "instructions", "trial_index": 9, "time_elapsed": 364200, "internal_node_id": "0.0-2.1-1.1"}}, {"uniqueid": "w81517528:a34577893", "current_trial": 10, "dateTime": 1664873751752, "trialdata": {"revealed_states": [], "num_clicks_accrued": [0, 0, 0, 0, 0, 0, 0, 0, 0, 0, 0, 0, 0], "stateRewards": ["", 10, 10, -10, -10, 10, 10, -10, -10, -10, -10, -10, -10], "withholdReward": false, "trial_id": "practice_1", "block": "test", "trialIndex": 2, "score": 11, "costs": -1, "simulationMode": [null, null, null], "rewards": [10, 10, -10], "path": ["0", "0", "1", "2", "4"], "rt": [9861, 103, 47], "actions": ["up", "up", "left"], "actionTimes": [12373, 12978, 13525], "queries": {"click": {"state": {"target": ["1", "2", "4", "3"], "time": [6450, 7163, 9057, 9652]}, "edge": {"target": [], "time": []}}, "mouseover": {"state": {"target": ["1", "2", "3", "4", "3"], "time": [6035, 6943, 8563, 8911, 9412]}, "edge": {"target": [], "time": []}}, "mouseout": {"state": {"target": ["0", "1", "2", "1", "1", "3", "2", "4", "2", "3", "1", "1", "1"], "time": [5851, 6855, 7427, 7541, 8379, 8730, 8814, 9261, 9363, 9918, 10018, 10282, 11836]}, "edge": {"target": [], "time": []}}}, "displayed_time": "14.04", "trialTime": 14768, "trial_type": "mouselab-mdp", "trial_index": 10, "time_elapsed": 379106, "internal_node_id": "0.0-2.1-2.1-0.1"}}, {"uniqueid": "w81517528:a34577893", "current_trial": 11, "dateTime": 1664873760422, "trialdata": {"revealed_states": [], "num_clicks_accrued": [0, 0, 0, 0, 0, 0, 0, 0, 0, 0, 0, 0, 0], "stateRewards": ["", 10, -10, -10, 10, 10, -10, 10, -10, 10, -10, -10, 10], "withholdReward": false, "trial_id": "practice_2", "block": "test", "trialIndex": 3, "score": 11, "costs": -1, "simulationMode": [null, null, null], "rewards": [10, -10, 10], "path": ["0", "0", "9", "10", "12"], "rt": [4349, 50, 320], "actions": ["left", "left", "down"], "actionTimes": [5789, 6335, 7172], "queries": {"click": {"state": {"target": ["9", "10", "11", "12"], "time": [1940, 2868, 4166, 4932]}, "edge": {"target": [], "time": []}}, "mouseover": {"state": {"target": ["0", "9", "0", "0", "10", "0", "5", "5", "11", "12"], "time": [1657, 1789, 2238, 2438, 2638, 3272, 3307, 3743, 4151, 4760]}, "edge": {"target": [], "time": []}}, "mouseout": {"state": {"target": ["0", "9", "0", "0", "9", "10", "9", "0", "5", "5", "11", "10", "12"], "time": [1687, 2153, 2321, 2505, 2572, 3157, 3242, 3290, 3357, 3791, 4546, 4726, 5265]}, "edge": {"target": [], "time": []}}}, "displayed_time": "7.67", "trialTime": 8511, "trial_type": "mouselab-mdp", "trial_index": 11, "time_elapsed": 387777, "internal_node_id": "0.0-2.1-2.1-1.1"}}, {"uniqueid": "w81517528:a34577893", "current_trial": 12, "dateTime": 1664873792249, "trialdata": {"view_history": [{"page_index": 0, "viewing_time": 27247}, {"page_index": 1, "viewing_time": 3360}, {"page_index": 2, "viewing_time": 1210}], "rt": 31818, "trial_id": "mouselab_instructions_2_scarce", "trial_type": "instructions", "trial_index": 12, "time_elapsed": 419604, "internal_node_id": "0.0-2.1-3.1"}}, {"uniqueid": "w81517528:a34577893", "current_trial": 13, "dateTime": 1664873814276, "trialdata": {"rt": 22018, "response": {"Q0": "$-48 to $48", "Q1": "The cost is always $0.25.", "Q2": "The better I perform the higher my bonus will be.", "Q3": "No, the amount of cash at each node of the web may be different each time.", "Q4": "The values of the nodes walked through from start to finish.", "Q5": "No, the spider might forget to count the money on some rounds."}, "question_order": [0, 1, 2, 3, 4, 5], "correct": {"Q0": "$-48 to $48", "Q1": "The cost is always $0.25.", "Q2": "The better I perform the higher my bonus will be.", "Q3": "No, the amount of cash at each node of the web may be different each time.", "Q4": "The values of the nodes walked through from start to finish.", "Q5": "No, the spider might forget to count the money on some rounds."}, "trial_id": "mouselab_quiz_scarce", "trial_type": "survey-multi-choice", "trial_index": 13, "time_elapsed": 441631, "internal_node_id": "0.0-2.1-4.1"}}, {"uniqueid": "w81517528:a34577893", "current_trial": 14, "dateTime": 1664873827274, "trialdata": {"rt": 12978, "stimulus": "\n<h1> Get ready to start the game! </h1>\n\nThank you for reading the instructions. Get ready start with the first of 4 block(s) of this game.\n<br><br>\nIn this first block, you will complete 30 rounds of this game before moving on.\n<br><br>\nRemember, the more money the spider gets, the bigger your bonus will be!\n<br><br>\n<div style='text-align: center;'>Press <code>space</code> to begin.</div>\n\n<br><br>\n(If, at any point, the <code>space</code> key does not take you to the next page, click once on the text and try again.)", "response": " ", "trial_id": "mdp_ready_1", "trial_type": "html-keyboard-response", "trial_index": 14, "time_elapsed": 454629, "internal_node_id": "0.0-4.0-0.0"}}, {"uniqueid": "w81517528:a34577893", "current_trial": 15, "dateTime": 1664873872184, "trialdata": {"revealed_states": [], "num_clicks_accrued": [0, 0, 0, 0, 0, 0, 0, 0, 0, 0, 0, 0, 0], "stateRewards": ["", -2, -4, -24, 48, -4, 8, 48, 48, 2, 8, -48, -24], "withholdReward": true, "trial_id": "mdp_136376573354", "block": "test1", "trialIndex": 4, "score": 55, "costs": -2, "simulationMode": [null, null, null], "rewards": [-4, 8, 48], "path": ["0", "0", "5", "6", "7"], "rt": [8653, 5, 34], "actions": ["right", "right", "up"], "actionTimes": [11122, 11635, 12182], "queries": {"click": {"state": {"target": ["9", "10", "11", "12", "7", "8", "6", "5"], "time": [3429, 4621, 5145, 5964, 7667, 8550, 9470, 10139]}, "edge": {"target": [], "time": []}}, "mouseover": {"state": {"target": ["9", "0", "10", "11", "12", "0", "5", "6", "7", "6", "8", "6", "5"], "time": [3225, 3756, 4374, 4991, 5839, 6517, 6635, 7402, 7515, 7920, 8173, 9103, 9826]}, "edge": {"target": [], "time": []}}, "mouseout": {"state": {"target": ["0", "9", "0", "9", "10", "11", "10", "12", "9", "0", "5", "6", "7", "6", "8", "6"], "time": [3141, 3705, 3893, 4328, 4908, 5463, 5648, 6298, 6446, 6584, 6818, 7416, 7840, 8071, 8872, 9757]}, "edge": {"target": [], "time": []}}}, "displayed_time": "12.68", "trialTime": 44764, "trial_type": "mouselab-mdp", "trial_index": 15, "time_elapsed": 499538, "internal_node_id": "0.0-4.0-1.0-0.0"}}, {"uniqueid": "w81517528:a34577893", "current_trial": 16, "dateTime": 1664873896392, "trialdata": {"revealed_states": [], "num_clicks_accrued": [0, 0, 0, 0, 0, 0, 0, 0, 0, 0, 0, 0, 0], "stateRewards": ["", -2, -4, -48, -48, 4, 8, 24, -48, 4, -8, 24, 24], "withholdReward": true, "trial_id": "mdp_749799219195", "block": "test1", "trialIndex": 5, "score": 40, "costs": -1, "simulationMode": [null, null, null], "rewards": [4, 8, 24], "path": ["0", "0", "5", "6", "7"], "rt": [15047, 49, 67], "actions": ["right", "right", "up"], "actionTimes": [18401, 18956, 19541], "queries": {"click": {"state": {"target": ["5", "7", "8", "6"], "time": [7355, 8508, 9553, 10352]}, "edge": {"target": [], "time": []}}, "mouseover": {"state": {"target": ["5", "6", "7", "6", "8", "6", "1", "2", "1", "2", "3"], "time": [6405, 7976, 8278, 9045, 9198, 10037, 10966, 11402, 11584, 11653, 12354]}, "edge": {"target": [], "time": []}}, "mouseout": {"state": {"target": ["5", "0", "5", "6", "7", "6", "8", "6", "1", "2", "1", "2", "3", "5", "0"], "time": [1473, 6247, 7922, 8231, 9015, 9132, 10018, 10757, 11000, 11453, 11601, 12291, 12487, 15606, 23628]}, "edge": {"target": [], "time": []}}}, "displayed_time": "20.04", "trialTime": 23885, "trial_type": "mouselab-mdp", "trial_index": 16, "time_elapsed": 523747, "internal_node_id": "0.0-4.0-1.0-1.0"}}, {"uniqueid": "w81517528:a34577893", "current_trial": 17, "dateTime": 1664873921275, "trialdata": {"revealed_states": [], "num_clicks_accrued": [0, 0, 0, 0, 0, 0, 0, 0, 0, 0, 0, 0, 0], "stateRewards": ["", -4, -8, 48, -24, 4, -8, 48, 48, -2, 4, -48, -24], "withholdReward": true, "trial_id": "mdp_925905402462", "block": "test1", "trialIndex": 6, "score": 47.75, "costs": -1.25, "simulationMode": [null, null, null], "rewards": [4, -8, 48], "path": ["0", "0", "5", "6", "7"], "rt": [7891, 13078, 120], "actions": ["right", "right", "up"], "actionTimes": [9086, 22671, 23298], "queries": {"click": {"state": {"target": ["11", "12", "7", "6", "5"], "time": [2087, 3356, 4493, 5834, 7514]}, "edge": {"target": [], "time": []}}, "mouseover": {"state": {"target": ["11", "10", "12", "5", "7", "6", "5"], "time": [1789, 2604, 2771, 3958, 4208, 5360, 7250]}, "edge": {"target": [], "time": []}}, "mouseout": {"state": {"target": ["9", "1", "11", "10", "12", "5", "7", "6", "5", "7"], "time": [447, 681, 2573, 2671, 3801, 3991, 5264, 7235, 8021, 21842]}, "edge": {"target": [], "time": []}}}, "displayed_time": "23.79", "trialTime": 24631, "trial_type": "mouselab-mdp", "trial_index": 17, "time_elapsed": 548629, "internal_node_id": "0.0-4.0-1.0-2.0"}}, {"uniqueid": "w81517528:a34577893", "current_trial": 18, "dateTime": 1664873942177, "trialdata": {"revealed_states": [], "num_clicks_accrued": [0, 0, 0, 0, 0, 0, 0, 0, 0, 0, 0, 0, 0], "stateRewards": ["", -2, -4, -48, 48, -2, -4, 24, 48, -4, -8, -24, 24], "withholdReward": true, "trial_id": "mdp_917590390609", "block": "test1", "trialIndex": 7, "score": 45.5, "costs": -1.5, "simulationMode": [null, null, null], "rewards": [-2, -4, 48], "path": ["0", "0", "1", "2", "4"], "rt": [16184, 111, 107], "actions": ["up", "up", "left"], "actionTimes": [18274, 18897, 19509], "queries": {"click": {"state": {"target": ["3", "4", "2", "1", "11", "12"], "time": [3548, 4601, 5774, 6544, 7680, 8517]}, "edge": {"target": [], "time": []}}, "mouseover": {"state": {"target": ["3", "2", "4", "11", "2", "1", "11", "11", "10", "12", "6", "7"], "time": [3243, 4067, 4212, 5117, 5501, 6337, 6985, 7339, 8036, 8222, 9494, 9541]}, "edge": {"target": [], "time": []}}, "mouseout": {"state": {"target": ["6", "5", "0", "3", "2", "4", "11", "4", "2", "1", "11", "11", "10", "12", "6", "7"], "time": [1354, 1506, 1673, 4048, 4111, 5067, 5301, 5452, 6236, 6941, 7019, 8019, 8089, 8894, 9523, 9945]}, "edge": {"target": [], "time": []}}}, "displayed_time": "20.01", "trialTime": 20742, "trial_type": "mouselab-mdp", "trial_index": 18, "time_elapsed": 569532, "internal_node_id": "0.0-4.0-1.0-3.0"}}, {"uniqueid": "w81517528:a34577893", "current_trial": 19, "dateTime": 1664873959240, "trialdata": {"revealed_states": [], "num_clicks_accrued": [0, 0, 0, 0, 0, 0, 0, 0, 0, 0, 0, 0, 0], "stateRewards": ["", -4, -8, 48, -48, 2, -4, 48, -24, 2, -8, -48, -48], "withholdReward": false, "trial_id": "mdp_624553692913", "block": "test1", "trialIndex": 8, "score": 50, "costs": -1, "simulationMode": [null, null, null], "rewards": [2, -4, 48], "path": ["0", "0", "5", "6", "7"], "rt": [12350, 26, 2], "actions": ["right", "right", "up"], "actionTimes": [13894, 14421, 14930], "queries": {"click": {"state": {"target": ["11", "7", "6", "5"], "time": [3417, 4657, 5734, 6668]}, "edge": {"target": [], "time": []}}, "mouseover": {"state": {"target": ["9", "11", "7", "6", "6", "5"], "time": [2677, 2929, 4416, 5186, 5483, 6388]}, "edge": {"target": [], "time": []}}, "mouseout": {"state": {"target": ["1", "9", "11", "7", "6", "6", "5"], "time": [871, 2797, 4018, 5152, 5304, 6188, 7406]}, "edge": {"target": [], "time": []}}}, "displayed_time": "15.44", "trialTime": 16887, "trial_type": "mouselab-mdp", "trial_index": 19, "time_elapsed": 586595, "internal_node_id": "0.0-4.0-1.0-4.0"}}, {"uniqueid": "w81517528:a34577893", "current_trial": 20, "dateTime": 1664873988434, "trialdata": {"revealed_states": [], "num_clicks_accrued": [0, 0, 0, 0, 0, 0, 0, 0, 0, 0, 0, 0, 0], "stateRewards": ["", -2, -4, -24, -48, -4, -8, -48, 24, -4, -8, -24, -48], "withholdReward": true, "trial_id": "mdp_475782454549", "block": "test1", "trialIndex": 9, "score": 14, "costs": -3, "simulationMode": [null, null, null], "rewards": [-4, -8, 24], "path": ["0", "0", "5", "6", "8"], "rt": [12728, 96, 6699], "actions": ["right", "right", "down"], "actionTimes": [18942, 19542, 26746], "queries": {"click": {"state": {"target": ["7", "8", "12", "11", "4", "3", "1", "9", "5", "6", "2", "10"], "time": [7051, 7994, 9771, 10569, 11367, 12163, 12877, 13989, 14898, 15574, 16733, 17649]}, "edge": {"target": [], "time": []}}, "mouseover": {"state": {"target": ["7", "6", "8", "5", "0", "12", "10", "11", "4", "2", "3", "1", "9", "9", "0", "5", "6", "2", "10", "10"], "time": [6815, 7587, 7746, 8602, 9253, 9537, 10205, 10285, 11105, 11777, 11940, 12646, 13314, 13748, 14419, 14634, 15315, 16454, 17158, 17409]}, "edge": {"target": [], "time": []}}, "mouseout": {"state": {"target": ["8", "5", "8", "5", "7", "6", "7", "6", "8", "0", "7", "6", "8", "5", "0", "12", "10", "11", "4", "2", "3", "1", "9", "9", "0", "5", "6", "5", "1", "2", "10", "10", "9"], "time": [3777, 4087, 4303, 4404, 4455, 4740, 4957, 5039, 5729, 5893, 7566, 7646, 8501, 9221, 9267, 10172, 10253, 10942, 11743, 11822, 12611, 13280, 13333, 14349, 14547, 15269, 16025, 16050, 16154, 17084, 17191, 18097, 18156]}, "edge": {"target": [], "time": []}}}, "displayed_time": "27.25", "trialTime": 29028, "trial_type": "mouselab-mdp", "trial_index": 20, "time_elapsed": 615788, "internal_node_id": "0.0-4.0-1.0-5.0"}}, {"uniqueid": "w81517528:a34577893", "current_trial": 21, "dateTime": 1664874005445, "trialdata": {"revealed_states": [], "num_clicks_accrued": [0, 0, 0, 0, 0, 0, 0, 0, 0, 0, 0, 0, 0], "stateRewards": ["", 2, 8, 48, 24, -4, 4, -48, 24, 2, 8, 48, 48], "withholdReward": false, "trial_id": "mdp_367344599162", "block": "test1", "trialIndex": 10, "score": 62, "costs": -1, "simulationMode": [null, null, null], "rewards": [2, 8, 48], "path": ["0", "0", "9", "10", "12"], "rt": [12024, 92, 389], "actions": ["left", "left", "down"], "actionTimes": [14057, 14650, 15533], "queries": {"click": {"state": {"target": ["8", "12", "10", "9"], "time": [2848, 4585, 6129, 6887]}, "edge": {"target": [], "time": []}}, "mouseover": {"state": {"target": ["5", "8", "12", "10", "11", "10", "9"], "time": [2341, 2695, 4233, 4964, 5204, 5853, 6689]}, "edge": {"target": [], "time": []}}, "mouseout": {"state": {"target": ["0", "5", "8", "12", "10", "11", "10"], "time": [2296, 2692, 3251, 4932, 5085, 5790, 6538]}, "edge": {"target": [], "time": []}}}, "displayed_time": "16.03", "trialTime": 16840, "trial_type": "mouselab-mdp", "trial_index": 21, "time_elapsed": 632799, "internal_node_id": "0.0-4.0-1.0-6.0"}}, {"uniqueid": "w81517528:a34577893", "current_trial": 22, "dateTime": 1664874032900, "trialdata": {"revealed_states": [], "num_clicks_accrued": [0, 0, 0, 0, 0, 0, 0, 0, 0, 0, 0, 0, 0], "stateRewards": ["", -2, 8, 48, -48, 4, -8, 24, 24, 4, 4, -48, -24], "withholdReward": false, "trial_id": "mdp_746937869927", "block": "test1", "trialIndex": 11, "score": 56.5, "costs": -2.5, "simulationMode": [null, null, null], "rewards": [-2, 8, 48], "path": ["0", "0", "1", "2", "3"], "rt": [10853, 7494, 39], "actions": ["up", "up", "right"], "actionTimes": [15761, 23764, 24311], "queries": {"click": {"state": {"target": ["5", "6", "8", "12", "7", "11", "4", "3", "2", "1"], "time": [5979, 7200, 7913, 9042, 9948, 11008, 12059, 12896, 14283, 15131]}, "edge": {"target": [], "time": []}}, "mouseover": {"state": {"target": ["5", "6", "8", "12", "9", "1", "7", "1", "11", "4", "4", "2", "3", "1", "1", "2", "1"], "time": [5705, 6514, 7631, 8850, 9465, 9517, 9667, 10433, 10551, 11553, 11791, 12479, 12623, 13575, 13786, 14059, 14849]}, "edge": {"target": [], "time": []}}, "mouseout": {"state": {"target": ["9", "0", "5", "6", "8", "12", "9", "1", "7", "1", "11", "4", "4", "2", "3", "1", "1", "2", "1"], "time": [580, 4578, 6411, 7549, 8323, 9423, 9483, 9565, 10388, 10468, 11446, 11604, 12458, 12556, 13445, 13679, 13926, 14678, 17349]}, "edge": {"target": [], "time": []}}}, "displayed_time": "24.81", "trialTime": 27275, "trial_type": "mouselab-mdp", "trial_index": 22, "time_elapsed": 660255, "internal_node_id": "0.0-4.0-1.0-7.0"}}, {"uniqueid": "w81517528:a34577893", "current_trial": 23, "dateTime": 1664874055822, "trialdata": {"revealed_states": [], "num_clicks_accrued": [0, 0, 0, 0, 0, 0, 0, 0, 0, 0, 0, 0, 0], "stateRewards": ["", 2, -4, -48, 24, 4, 4, 48, -48, -2, -4, -24, -48], "withholdReward": true, "trial_id": "mdp_858916930936", "block": "test1", "trialIndex": 12, "score": 59, "costs": -2, "simulationMode": [null, null, null], "rewards": [4, 4, 48], "path": ["0", "0", "5", "6", "7"], "rt": [17488, 2, 2], "actions": ["right", "right", "up"], "actionTimes": [20416, 20932, 21449], "queries": {"click": {"state": {"target": ["3", "4", "11", "12", "8", "7", "5", "6"], "time": [4341, 5151, 6323, 7327, 8221, 8920, 11466, 12118]}, "edge": {"target": [], "time": []}}, "mouseover": {"state": {"target": ["3", "2", "4", "11", "10", "12", "8", "6", "7", "1", "5", "5", "0", "5", "6"], "time": [4053, 4789, 4859, 5742, 6678, 6995, 7997, 8600, 8663, 9548, 9768, 10840, 10921, 11192, 11857]}, "edge": {"target": [], "time": []}}, "mouseout": {"state": {"target": ["2", "0", "3", "2", "4", "11", "10", "12", "8", "6", "7", "1", "5", "5", "0", "5"], "time": [507, 2495, 4755, 4823, 5644, 6648, 6740, 7671, 8570, 8629, 9501, 9566, 9849, 10867, 11070, 11808]}, "edge": {"target": [], "time": []}}}, "displayed_time": "21.96", "trialTime": 22744, "trial_type": "mouselab-mdp", "trial_index": 23, "time_elapsed": 683176, "internal_node_id": "0.0-4.0-1.0-8.0"}}, {"uniqueid": "w81517528:a34577893", "current_trial": 24, "dateTime": 1664874072545, "trialdata": {"revealed_states": [], "num_clicks_accrued": [0, 0, 0, 0, 0, 0, 0, 0, 0, 0, 0, 0, 0], "stateRewards": ["", 2, 8, -48, -24, 2, -4, -48, 24, 2, -4, -24, -24], "withholdReward": true, "trial_id": "mdp_954659099093", "block": "test1", "trialIndex": 13, "score": 24.75, "costs": -2.25, "simulationMode": [null, null, null], "rewards": [2, -4, 24], "path": ["0", "0", "5", "6", "8"], "rt": [11945, 52, 338], "actions": ["right", "right", "down"], "actionTimes": [13781, 14342, 15195], "queries": {"click": {"state": {"target": ["9", "11", "12", "7", "8", "3", "4", "6", "5"], "time": [3868, 4787, 5536, 6542, 7529, 8546, 9302, 10891, 12668]}, "edge": {"target": [], "time": []}}, "mouseover": {"state": {"target": ["9", "11", "10", "12", "0", "5", "6", "7", "6", "8", "5", "3", "2", "4", "2", "1", "6", "5"], "time": [3500, 4580, 5131, 5197, 6019, 6057, 6116, 6266, 6969, 7256, 7941, 8324, 8957, 9126, 9810, 9893, 10280, 12365]}, "edge": {"target": [], "time": []}}, "mouseout": {"state": {"target": ["6", "5", "0", "9", "11", "10", "12", "0", "5", "6", "7", "6", "8", "5", "3", "2", "4", "2", "1", "6"], "time": [1092, 1186, 3329, 4398, 5099, 5164, 5935, 6038, 6083, 6199, 6938, 7207, 7917, 7954, 8930, 9025, 9778, 9843, 9992, 11583]}, "edge": {"target": [], "time": []}}}, "displayed_time": "15.70", "trialTime": 16554, "trial_type": "mouselab-mdp", "trial_index": 24, "time_elapsed": 699900, "internal_node_id": "0.0-4.0-1.0-9.0"}}, {"uniqueid": "w81517528:a34577893", "current_trial": 25, "dateTime": 1664874086801, "trialdata": {"revealed_states": [], "num_clicks_accrued": [0, 0, 0, 0, 0, 0, 0, 0, 0, 0, 0, 0, 0], "stateRewards": ["", 2, 4, 24, 48, -2, 8, 24, -24, -4, -4, 48, 48], "withholdReward": false, "trial_id": "mdp_753439303214", "block": "test1", "trialIndex": 14, "score": 57.25, "costs": -1.75, "simulationMode": [null, null, null], "rewards": [2, 4, 48], "path": ["0", "0", "1", "2", "4"], "rt": [7716, 156, 63], "actions": ["up", "up", "left"], "actionTimes": [11586, 12247, 12809], "queries": {"click": {"state": {"target": ["11", "10", "9", "12", "4", "1", "2"], "time": [5091, 6095, 6504, 7176, 8185, 9382, 9902]}, "edge": {"target": [], "time": []}}, "mouseover": {"state": {"target": ["9", "10", "11", "4", "2", "10", "9", "12", "4", "4", "2", "2", "1", "2"], "time": [4406, 4886, 4920, 5371, 5421, 5875, 6355, 6757, 7514, 7864, 8444, 9117, 9283, 9631]}, "edge": {"target": [], "time": []}}, "mouseout": {"state": {"target": ["5", "0", "9", "10", "11", "4", "2", "11", "10", "9", "12", "4", "4", "2", "2", "1", "2", "1", "4", "2"], "time": [3123, 3433, 4469, 4904, 5302, 5387, 5574, 5755, 6256, 6707, 7412, 7537, 8394, 8583, 9150, 9580, 10182, 10282, 10503, 10689]}, "edge": {"target": [], "time": []}}}, "displayed_time": "13.31", "trialTime": 14090, "trial_type": "mouselab-mdp", "trial_index": 25, "time_elapsed": 714156, "internal_node_id": "0.0-4.0-1.0-10.0"}}, {"uniqueid": "w81517528:a34577893", "current_trial": 26, "dateTime": 1664874098951, "trialdata": {"revealed_states": [], "num_clicks_accrued": [0, 0, 0, 0, 0, 0, 0, 0, 0, 0, 0, 0, 0], "stateRewards": ["", -4, -8, -48, 48, -2, -8, -48, -24, 4, 8, 24, -48], "withholdReward": true, "trial_id": "mdp_509977295685", "block": "test1", "trialIndex": 15, "score": 39.25, "costs": -1.75, "simulationMode": [null, null, null], "rewards": [-4, -8, 48], "path": ["0", "0", "1", "2", "4"], "rt": [7100, 37, 47], "actions": ["up", "up", "left"], "actionTimes": [9803, 10335, 10879], "queries": {"click": {"state": {"target": ["4", "1", "2", "11", "12", "8", "7"], "time": [3277, 4352, 4847, 5722, 6235, 7321, 7832]}, "edge": {"target": [], "time": []}}, "mouseover": {"state": {"target": ["4", "9", "1", "2", "11", "11", "10", "12", "0", "5", "6", "8", "6", "7", "5", "9"], "time": [3113, 4044, 4162, 4733, 5332, 5535, 5883, 6034, 6568, 6618, 6701, 7153, 7453, 7487, 8058, 8857]}, "edge": {"target": [], "time": []}}, "mouseout": {"state": {"target": ["10", "10", "9", "0", "4", "9", "1", "2", "11", "11", "10", "12", "0", "5", "6", "8", "6", "7", "5", "1", "2", "9"], "time": [1454, 2223, 2275, 3007, 3460, 4077, 4612, 4997, 5347, 5835, 5951, 6483, 6601, 6668, 7072, 7402, 7471, 8025, 8090, 8459, 8540, 8940]}, "edge": {"target": [], "time": []}}}, "displayed_time": "11.40", "trialTime": 11983, "trial_type": "mouselab-mdp", "trial_index": 26, "time_elapsed": 726306, "internal_node_id": "0.0-4.0-1.0-11.0"}}, {"uniqueid": "w81517528:a34577893", "current_trial": 27, "dateTime": 1664874110776, "trialdata": {"revealed_states": [], "num_clicks_accrued": [0, 0, 0, 0, 0, 0, 0, 0, 0, 0, 0, 0, 0], "stateRewards": ["", 4, -4, 24, 48, 4, 8, -24, -24, -2, 4, 48, 48], "withholdReward": true, "trial_id": "mdp_624998450453", "block": "test1", "trialIndex": 16, "score": 52.25, "costs": -0.75, "simulationMode": [null, null, null], "rewards": [4, -4, 48], "path": ["0", "0", "1", "2", "4"], "rt": [3466, 5, 352], "actions": ["up", "up", "left"], "actionTimes": [4691, 5203, 6069], "queries": {"click": {"state": {"target": ["4", "1", "2"], "time": [1797, 2910, 4074]}, "edge": {"target": [], "time": []}}, "mouseover": {"state": {"target": ["4", "2", "3", "1", "2"], "time": [1735, 2186, 2561, 2737, 3455]}, "edge": {"target": [], "time": []}}, "mouseout": {"state": {"target": ["2", "1", "0", "0", "4", "2", "3", "1", "2", "1", "0"], "time": [617, 683, 835, 1052, 2102, 2436, 2670, 3238, 8019, 8102, 8169]}, "edge": {"target": [], "time": []}}}, "displayed_time": "10.23", "trialTime": 11656, "trial_type": "mouselab-mdp", "trial_index": 27, "time_elapsed": 738130, "internal_node_id": "0.0-4.0-1.0-12.0"}}, {"uniqueid": "w81517528:a34577893", "current_trial": 28, "dateTime": 1664874122840, "trialdata": {"revealed_states": [], "num_clicks_accrued": [0, 0, 0, 0, 0, 0, 0, 0, 0, 0, 0, 0, 0], "stateRewards": ["", -4, 8, 24, -24, 4, -8, -24, -24, -2, 8, -48, 24], "withholdReward": true, "trial_id": "mdp_240302100183", "block": "test1", "trialIndex": 17, "score": 33, "costs": -2, "simulationMode": [null, null, null], "rewards": [-2, 8, 24], "path": ["0", "0", "9", "10", "12"], "rt": [7438, 120, 180], "actions": ["left", "left", "down"], "actionTimes": [8443, 9063, 9742], "queries": {"click": {"state": {"target": ["12", "4", "8", "7", "11", "3", "10", "9"], "time": [1783, 2475, 3404, 3833, 4377, 5512, 6971, 7609]}, "edge": {"target": [], "time": []}}, "mouseover": {"state": {"target": ["9", "12", "4", "2", "3", "6", "8", "6", "7", "1", "11", "10", "10", "3", "3", "1", "9", "10", "10", "9"], "time": [1536, 1778, 2325, 2673, 2758, 3074, 3279, 3593, 3661, 4027, 4244, 4628, 4916, 5067, 5342, 5918, 6165, 6249, 6436, 7269]}, "edge": {"target": [], "time": []}}, "mouseout": {"state": {"target": ["0", "9", "12", "4", "2", "3", "6", "8", "6", "7", "1", "11", "10", "10", "3", "3", "1", "9", "10", "10"], "time": [737, 1569, 1910, 2625, 2707, 2824, 3192, 3542, 3626, 3976, 4077, 4596, 4678, 4963, 5113, 5819, 5939, 6199, 6300, 7167]}, "edge": {"target": [], "time": []}}}, "displayed_time": "10.24", "trialTime": 11877, "trial_type": "mouselab-mdp", "trial_index": 28, "time_elapsed": 750195, "internal_node_id": "0.0-4.0-1.0-13.0"}}, {"uniqueid": "w81517528:a34577893", "current_trial": 29, "dateTime": 1664874138681, "trialdata": {"revealed_states": [], "num_clicks_accrued": [0, 0, 0, 0, 0, 0, 0, 0, 0, 0, 0, 0, 0], "stateRewards": ["", 4, -4, 48, -48, 2, 8, -48, 24, -2, -4, -24, 48], "withholdReward": true, "trial_id": "mdp_937564992306", "block": "test1", "trialIndex": 18, "score": 44.75, "costs": -2.25, "simulationMode": [null, null, null], "rewards": [-2, -4, 48], "path": ["0", "0", "9", "10", "12"], "rt": [11705, 43, 9], "actions": ["left", "left", "down"], "actionTimes": [12647, 13210, 13735], "queries": {"click": {"state": {"target": ["4", "12", "10", "9", "8", "7", "3", "2", "1"], "time": [2685, 3341, 4438, 5113, 6559, 7229, 7865, 9380, 9751]}, "edge": {"target": [], "time": []}}, "mouseover": {"state": {"target": ["1", "10", "12", "10", "4", "4", "10", "12", "0", "5", "0", "10", "9", "11", "2", "5", "8", "7", "1", "2", "3", "1", "2", "1"], "time": [1425, 1813, 2050, 2296, 2361, 2518, 2946, 3147, 3615, 3681, 3898, 4267, 4784, 5620, 5954, 6224, 6455, 6993, 7508, 7608, 7779, 8945, 9266, 9578]}, "edge": {"target": [], "time": []}}, "mouseout": {"state": {"target": ["9", "0", "1", "10", "12", "10", "4", "4", "10", "12", "0", "5", "0", "10", "9", "10", "11", "2", "5", "8", "7", "1", "2", "3", "10", "9", "1", "2", "1", "10", "12"], "time": [625, 1297, 1664, 1831, 2268, 2330, 2411, 2846, 3013, 3514, 3648, 3881, 3932, 4683, 5423, 5570, 5807, 6022, 6243, 6772, 7424, 7557, 7695, 8008, 8166, 8914, 9062, 9494, 9984, 10184, 10735]}, "edge": {"target": [], "time": []}}}, "displayed_time": "14.24", "trialTime": 15676, "trial_type": "mouselab-mdp", "trial_index": 29, "time_elapsed": 766036, "internal_node_id": "0.0-4.0-1.0-14.0"}}, {"uniqueid": "w81517528:a34577893", "current_trial": 30, "dateTime": 1664874148985, "trialdata": {"revealed_states": [], "num_clicks_accrued": [0, 0, 0, 0, 0, 0, 0, 0, 0, 0, 0, 0, 0], "stateRewards": ["", -2, 8, 24, -48, -4, -8, -24, -48, -4, 8, -24, 48], "withholdReward": false, "trial_id": "mdp_464339499860", "block": "test1", "trialIndex": 19, "score": 55, "costs": -2, "simulationMode": [null, null, null], "rewards": [-4, 8, 48], "path": ["0", "0", "9", "10", "12"], "rt": [6063, 394, 21], "actions": ["left", "left", "down"], "actionTimes": [7247, 8148, 8679], "queries": {"click": {"state": {"target": ["8", "7", "3", "4", "12", "11", "9", "10"], "time": [2571, 3194, 3858, 4432, 5107, 5465, 6232, 6654]}, "edge": {"target": [], "time": []}}, "mouseover": {"state": {"target": ["1", "6", "8", "6", "7", "1", "2", "3", "2", "4", "10", "12", "10", "11", "10", "10", "9", "10"], "time": [1755, 2168, 2438, 2788, 2991, 3388, 3542, 3660, 3990, 4123, 4781, 4996, 5260, 5294, 5661, 5983, 6129, 6484]}, "edge": {"target": [], "time": []}}, "mouseout": {"state": {"target": ["1", "6", "8", "6", "7", "1", "2", "3", "2", "4", "10", "12", "10", "11", "10", "12", "10", "9"], "time": [1852, 2340, 2771, 2837, 3291, 3438, 3573, 3960, 4040, 4642, 4863, 5226, 5277, 5627, 5695, 5900, 6063, 6397]}, "edge": {"target": [], "time": []}}}, "displayed_time": "9.20", "trialTime": 10132, "trial_type": "mouselab-mdp", "trial_index": 30, "time_elapsed": 776340, "internal_node_id": "0.0-4.0-1.0-15.0"}}, {"uniqueid": "w81517528:a34577893", "current_trial": 31, "dateTime": 1664874163540, "trialdata": {"revealed_states": [], "num_clicks_accrued": [0, 0, 0, 0, 0, 0, 0, 0, 0, 0, 0, 0, 0], "stateRewards": ["", 2, -4, 48, -48, -2, 8, -48, 24, -2, -8, 48, 48], "withholdReward": true, "trial_id": "mdp_949326095747", "block": "test1", "trialIndex": 20, "score": 48.5, "costs": -2.5, "simulationMode": [null, null, null], "rewards": [2, -4, 48], "path": ["0", "0", "1", "2", "3"], "rt": [10833, 114, 96], "actions": ["up", "up", "right"], "actionTimes": [12104, 12722, 13322], "queries": {"click": {"state": {"target": ["4", "12", "10", "9", "3", "1", "2", "8", "7", "11"], "time": [1767, 3216, 4119, 4474, 5398, 6414, 7152, 8253, 9048, 9749]}, "edge": {"target": [], "time": []}}, "mouseover": {"state": {"target": ["1", "4", "9", "10", "12", "10", "9", "11", "3", "6", "5", "1", "5", "2", "6", "8", "6", "7", "11"], "time": [1393, 1698, 2128, 2934, 2998, 3819, 4371, 4974, 5190, 5874, 6159, 6240, 6674, 6975, 7912, 8027, 8495, 8677, 9650]}, "edge": {"target": [], "time": []}}, "mouseout": {"state": {"target": ["10", "4", "1", "1", "4", "9", "10", "12", "10", "9", "11", "3", "6", "5", "1", "5", "1", "2", "1", "6", "8", "6", "7", "1", "11", "2", "2", "11", "4"], "time": [669, 792, 994, 1411, 1995, 2145, 2964, 3519, 4283, 4805, 5039, 5559, 5895, 6209, 6593, 6894, 6941, 7341, 7409, 7946, 8461, 8527, 9281, 9433, 9898, 10102, 10387, 10453, 10671]}, "edge": {"target": [], "time": []}}}, "displayed_time": "13.83", "trialTime": 14386, "trial_type": "mouselab-mdp", "trial_index": 31, "time_elapsed": 790894, "internal_node_id": "0.0-4.0-1.0-16.0"}}, {"uniqueid": "w81517528:a34577893", "current_trial": 32, "dateTime": 1664874174657, "trialdata": {"revealed_states": [], "num_clicks_accrued": [0, 0, 0, 0, 0, 0, 0, 0, 0, 0, 0, 0, 0], "stateRewards": ["", 4, 4, -48, -24, -2, -4, 48, 24, -4, 4, 24, -48], "withholdReward": true, "trial_id": "mdp_617383046444", "block": "test1", "trialIndex": 21, "score": 45, "costs": -2, "simulationMode": [null, null, null], "rewards": [-2, -4, 48], "path": ["0", "0", "5", "6", "7"], "rt": [7157, 3, 25], "actions": ["right", "right", "up"], "actionTimes": [8769, 9268, 9806], "queries": {"click": {"state": {"target": ["12", "3", "11", "4", "8", "7", "5", "6"], "time": [2573, 3274, 4580, 5032, 5812, 6211, 7599, 8035]}, "edge": {"target": [], "time": []}}, "mouseover": {"state": {"target": ["9", "12", "10", "2", "3", "2", "4", "1", "11", "4", "1", "5", "8", "6", "7", "5", "0", "9", "1", "5", "6"], "time": [2260, 2414, 2777, 3033, 3112, 3429, 3496, 4135, 4435, 4821, 5288, 5434, 5622, 5925, 5985, 6521, 6604, 6687, 6770, 7042, 7927]}, "edge": {"target": [], "time": []}}, "mouseout": {"state": {"target": ["0", "9", "12", "10", "2", "3", "2", "4", "1", "11", "4", "1", "5", "8", "6", "7", "5", "0", "9", "1", "5", "6", "5"], "time": [1372, 2328, 2760, 2794, 3083, 3396, 3479, 3580, 4319, 4766, 5204, 5309, 5469, 5908, 5970, 6441, 6555, 6627, 6737, 6804, 7806, 8191, 8261]}, "edge": {"target": [], "time": []}}}, "displayed_time": "10.31", "trialTime": 10947, "trial_type": "mouselab-mdp", "trial_index": 32, "time_elapsed": 802011, "internal_node_id": "0.0-4.0-1.0-17.0"}}, {"uniqueid": "w81517528:a34577893", "current_trial": 33, "dateTime": 1664874186883, "trialdata": {"revealed_states": [], "num_clicks_accrued": [0, 0, 0, 0, 0, 0, 0, 0, 0, 0, 0, 0, 0], "stateRewards": ["", -2, -4, 48, -24, -4, -4, -24, -24, -2, 4, -48, -24], "withholdReward": true, "trial_id": "mdp_410467837196", "block": "test1", "trialIndex": 22, "score": 45, "costs": -2, "simulationMode": [null, null, null], "rewards": [-2, -4, 48], "path": ["0", "0", "1", "2", "3"], "rt": [7996, 24, 345], "actions": ["up", "up", "right"], "actionTimes": [9230, 9748, 10602], "queries": {"click": {"state": {"target": ["12", "7", "11", "8", "3", "4", "2", "1"], "time": [2709, 3902, 5143, 6011, 6722, 7334, 7800, 8554]}, "edge": {"target": [], "time": []}}, "mouseover": {"state": {"target": ["10", "10", "12", "9", "7", "1", "11", "11", "5", "8", "5", "3", "2", "4", "2", "1"], "time": [1832, 2268, 2588, 2986, 3654, 4382, 4540, 4766, 5580, 5981, 6380, 6532, 6930, 7113, 7597, 8149]}, "edge": {"target": [], "time": []}}, "mouseout": {"state": {"target": ["0", "10", "10", "12", "9", "7", "1", "11", "11", "5", "8", "5", "3", "2", "4", "2", "1"], "time": [1015, 1901, 2301, 2936, 3003, 4354, 4405, 4727, 5325, 5644, 6265, 6412, 6879, 7013, 7531, 8032, 8767]}, "edge": {"target": [], "time": []}}}, "displayed_time": "11.11", "trialTime": 12055, "trial_type": "mouselab-mdp", "trial_index": 33, "time_elapsed": 814238, "internal_node_id": "0.0-4.0-1.0-18.0"}}, {"uniqueid": "w81517528:a34577893", "current_trial": 34, "dateTime": 1664874198381, "trialdata": {"revealed_states": [], "num_clicks_accrued": [0, 0, 0, 0, 0, 0, 0, 0, 0, 0, 0, 0, 0], "stateRewards": ["", -2, 4, -48, 24, -4, 8, 48, 24, -2, 4, -48, -24], "withholdReward": true, "trial_id": "mdp_740882974347", "block": "test1", "trialIndex": 23, "score": 55.5, "costs": -1.5, "simulationMode": [null, null, null], "rewards": [-4, 8, 48], "path": ["0", "0", "5", "6", "7"], "rt": [4771, 482, 210], "actions": ["right", "right", "up"], "actionTimes": [5981, 6963, 7676], "queries": {"click": {"state": {"target": ["11", "12", "3", "4", "7", "8"], "time": [2180, 2686, 3260, 3830, 4419, 5009]}, "edge": {"target": [], "time": []}}, "mouseover": {"state": {"target": ["11", "10", "12", "0", "3", "2", "4", "2", "7", "6", "8", "6"], "time": [2119, 2400, 2450, 2917, 3139, 3394, 3735, 3970, 4120, 4571, 4672, 5328]}, "edge": {"target": [], "time": []}}, "mouseout": {"state": {"target": ["0", "11", "10", "12", "0", "3", "2", "4", "2", "7", "6", "8", "6", "7"], "time": [1599, 2349, 2434, 2834, 2934, 3370, 3453, 3937, 4020, 4522, 4622, 5278, 5410, 5527]}, "edge": {"target": [], "time": []}}}, "displayed_time": "10.21", "trialTime": 11337, "trial_type": "mouselab-mdp", "trial_index": 34, "time_elapsed": 825736, "internal_node_id": "0.0-4.0-1.0-19.0"}}, {"uniqueid": "w81517528:a34577893", "current_trial": 35, "dateTime": 1664874209266, "trialdata": {"revealed_states": [], "num_clicks_accrued": [0, 0, 0, 0, 0, 0, 0, 0, 0, 0, 0, 0, 0], "stateRewards": ["", -2, -8, 24, -24, 4, -8, 48, 48, -4, -8, -24, -48], "withholdReward": false, "trial_id": "mdp_286767261523", "block": "test1", "trialIndex": 24, "score": 47.75, "costs": -1.25, "simulationMode": [null, null, null], "rewards": [4, -8, 48], "path": ["0", "0", "5", "6", "7"], "rt": [4490, 20, 48], "actions": ["right", "right", "up"], "actionTimes": [6525, 7060, 7616], "queries": {"click": {"state": {"target": ["12", "11", "3", "4", "7"], "time": [2848, 3393, 3998, 4480, 5117]}, "edge": {"target": [], "time": []}}, "mouseover": {"state": {"target": ["9", "12", "10", "11", "3", "2", "4", "7", "6", "8", "6"], "time": [2573, 2688, 3092, 3155, 3893, 4140, 4257, 4946, 5310, 5560, 5994]}, "edge": {"target": [], "time": []}}, "mouseout": {"state": {"target": ["0", "0", "0", "1", "0", "0", "9", "12", "10", "11", "3", "2", "4", "7", "6", "8"], "time": [597, 1006, 1285, 1485, 1516, 2459, 2604, 3058, 3106, 3539, 4097, 4190, 4691, 5260, 5410, 5952]}, "edge": {"target": [], "time": []}}}, "displayed_time": "10.04", "trialTime": 10696, "trial_type": "mouselab-mdp", "trial_index": 35, "time_elapsed": 836621, "internal_node_id": "0.0-4.0-1.0-20.0"}}, {"uniqueid": "w81517528:a34577893", "current_trial": 36, "dateTime": 1664874221630, "trialdata": {"revealed_states": [], "num_clicks_accrued": [0, 0, 0, 0, 0, 0, 0, 0, 0, 0, 0, 0, 0], "stateRewards": ["", -2, 8, 48, 48, 2, 4, -48, 24, -4, -8, 48, 24], "withholdReward": false, "trial_id": "mdp_572910394648", "block": "test1", "trialIndex": 25, "score": 40.75, "costs": -0.25, "simulationMode": [null, null, null], "rewards": [-4, -8, 48], "path": ["0", "0", "9", "10", "11"], "rt": [2407, 34, 60], "actions": ["left", "left", "up"], "actionTimes": [4921, 5451, 6012], "queries": {"click": {"state": {"target": ["11"], "time": [3478]}, "edge": {"target": [], "time": []}}, "mouseover": {"state": {"target": ["11"], "time": [3209]}, "edge": {"target": [], "time": []}}, "mouseout": {"state": {"target": ["6", "5", "9", "11", "11"], "time": [669, 716, 2020, 3641, 4129]}, "edge": {"target": [], "time": []}}}, "displayed_time": "10.52", "trialTime": 12202, "trial_type": "mouselab-mdp", "trial_index": 36, "time_elapsed": 848985, "internal_node_id": "0.0-4.0-1.0-21.0"}}, {"uniqueid": "w81517528:a34577893", "current_trial": 37, "dateTime": 1664874234767, "trialdata": {"revealed_states": [], "num_clicks_accrued": [0, 0, 0, 0, 0, 0, 0, 0, 0, 0, 0, 0, 0], "stateRewards": ["", 4, 8, 48, -48, -4, 8, -24, -24, -4, 8, 48, 48], "withholdReward": true, "trial_id": "mdp_377640328420", "block": "test1", "trialIndex": 26, "score": 56, "costs": -1, "simulationMode": [null, null, null], "rewards": [-4, 8, 48], "path": ["0", "0", "9", "10", "11"], "rt": [5990, 209, 46], "actions": ["left", "left", "up"], "actionTimes": [9190, 9900, 10456], "queries": {"click": {"state": {"target": ["7", "11", "9", "10"], "time": [4395, 5641, 6897, 7765]}, "edge": {"target": [], "time": []}}, "mouseover": {"state": {"target": ["7", "10", "10", "11", "4", "9", "10", "12"], "time": [4094, 4960, 5213, 5276, 6232, 6582, 7448, 8256]}, "edge": {"target": [], "time": []}}, "mouseout": {"state": {"target": ["0", "7", "10", "10", "11", "4", "9", "10", "12"], "time": [2399, 4879, 4993, 5235, 6047, 6366, 7391, 8221, 8336]}, "edge": {"target": [], "time": []}}}, "displayed_time": "12.20", "trialTime": 12955, "trial_type": "mouselab-mdp", "trial_index": 37, "time_elapsed": 862122, "internal_node_id": "0.0-4.0-1.0-22.0"}}, {"uniqueid": "w81517528:a34577893", "current_trial": 38, "dateTime": 1664874245978, "trialdata": {"revealed_states": [], "num_clicks_accrued": [0, 0, 0, 0, 0, 0, 0, 0, 0, 0, 0, 0, 0], "stateRewards": ["", 2, -8, -24, -48, -2, -4, 48, 48, 4, 8, 48, 48], "withholdReward": true, "trial_id": "mdp_347285045422", "block": "test1", "trialIndex": 27, "score": 64.75, "costs": -0.25, "simulationMode": [null, null, null], "rewards": [4, 8, 48], "path": ["0", "0", "9", "10", "11"], "rt": [2576, 56, 351], "actions": ["left", "left", "up"], "actionTimes": [3834, 4386, 5249], "queries": {"click": {"state": {"target": ["11"], "time": [2174]}, "edge": {"target": [], "time": []}}, "mouseover": {"state": {"target": ["11", "10", "12", "9"], "time": [1909, 2590, 2728, 2861]}, "edge": {"target": [], "time": []}}, "mouseout": {"state": {"target": ["12", "0", "11", "10", "12"], "time": [586, 884, 2533, 2677, 2774]}, "edge": {"target": [], "time": []}}}, "displayed_time": "10.26", "trialTime": 11003, "trial_type": "mouselab-mdp", "trial_index": 38, "time_elapsed": 873333, "internal_node_id": "0.0-4.0-1.0-23.0"}}, {"uniqueid": "w81517528:a34577893", "current_trial": 39, "dateTime": 1664874257675, "trialdata": {"revealed_states": [], "num_clicks_accrued": [0, 0, 0, 0, 0, 0, 0, 0, 0, 0, 0, 0, 0], "stateRewards": ["", -4, 4, -48, -48, -4, 8, -24, 24, 2, -4, 48, 48], "withholdReward": true, "trial_id": "mdp_821566905048", "block": "test1", "trialIndex": 28, "score": 50.25, "costs": -0.75, "simulationMode": [null, null, null], "rewards": [2, -4, 48], "path": ["0", "0", "9", "10", "11"], "rt": [7013, 88, 111], "actions": ["left", "left", "up"], "actionTimes": [8162, 8756, 9365], "queries": {"click": {"state": {"target": ["11", "9", "10"], "time": [2495, 5574, 7182]}, "edge": {"target": [], "time": []}}, "mouseover": {"state": {"target": ["11", "4", "2", "1", "9", "10"], "time": [2302, 3002, 3102, 3186, 5359, 6060]}, "edge": {"target": [], "time": []}}, "mouseout": {"state": {"target": ["9", "11", "4", "2", "1", "9", "10"], "time": [480, 2916, 3068, 3136, 3256, 5999, 9902]}, "edge": {"target": [], "time": []}}}, "displayed_time": "9.87", "trialTime": 11515, "trial_type": "mouselab-mdp", "trial_index": 39, "time_elapsed": 885030, "internal_node_id": "0.0-4.0-1.0-24.0"}}, {"uniqueid": "w81517528:a34577893", "current_trial": 40, "dateTime": 1664874269669, "trialdata": {"revealed_states": [], "num_clicks_accrued": [0, 0, 0, 0, 0, 0, 0, 0, 0, 0, 0, 0, 0], "stateRewards": ["", 2, 4, -24, -24, 4, 8, -48, 48, 2, 4, -24, -48], "withholdReward": true, "trial_id": "mdp_565165082781", "block": "test1", "trialIndex": 29, "score": 64, "costs": -1, "simulationMode": [null, null, null], "rewards": [4, 8, 48], "path": ["0", "0", "5", "6", "8"], "rt": [6350, 36, 222], "actions": ["right", "right", "down"], "actionTimes": [8431, 8974, 9696], "queries": {"click": {"state": {"target": ["11", "12", "7", "8"], "time": [3491, 4312, 6054, 7007]}, "edge": {"target": [], "time": []}}, "mouseover": {"state": {"target": ["0", "9", "10", "11", "10", "12", "9", "7", "7", "6", "8", "6"], "time": [2440, 2476, 2553, 2824, 3932, 4024, 4693, 4757, 5713, 6496, 6646, 7936]}, "edge": {"target": [], "time": []}}, "mouseout": {"state": {"target": ["0", "0", "9", "10", "11", "10", "12", "9", "7", "7", "6", "8"], "time": [1762, 2463, 2519, 2670, 3910, 3973, 4662, 4711, 4792, 6466, 6567, 7417]}, "edge": {"target": [], "time": []}}}, "displayed_time": "11.08", "trialTime": 11815, "trial_type": "mouselab-mdp", "trial_index": 40, "time_elapsed": 897023, "internal_node_id": "0.0-4.0-1.0-25.0"}}, {"uniqueid": "w81517528:a34577893", "current_trial": 41, "dateTime": 1664874281478, "trialdata": {"revealed_states": [], "num_clicks_accrued": [0, 0, 0, 0, 0, 0, 0, 0, 0, 0, 0, 0, 0], "stateRewards": ["", 2, -8, 24, 24, 2, 4, -48, -48, 4, 4, -24, 48], "withholdReward": true, "trial_id": "mdp_985707010949", "block": "test1", "trialIndex": 30, "score": 60.5, "costs": -0.5, "simulationMode": [null, null, null], "rewards": [4, 4, 48], "path": ["0", "0", "9", "10", "12"], "rt": [3268, 574, 190], "actions": ["left", "left", "down"], "actionTimes": [4727, 5803, 6495], "queries": {"click": {"state": {"target": ["11", "12"], "time": [2418, 3134]}, "edge": {"target": [], "time": []}}, "mouseover": {"state": {"target": ["9", "11", "10", "12", "5", "6", "5", "9", "10"], "time": [1808, 1866, 2802, 2886, 3541, 3674, 3773, 3805, 3838]}, "edge": {"target": [], "time": []}}, "mouseout": {"state": {"target": ["6", "5", "0", "9", "11", "10", "12", "5", "6", "5", "9", "10"], "time": [504, 579, 1787, 1821, 2773, 2851, 3457, 3588, 3754, 3789, 3822, 3855]}, "edge": {"target": [], "time": []}}}, "displayed_time": "8.46", "trialTime": 11627, "trial_type": "mouselab-mdp", "trial_index": 41, "time_elapsed": 908833, "internal_node_id": "0.0-4.0-1.0-26.0"}}, {"uniqueid": "w81517528:a34577893", "current_trial": 42, "dateTime": 1664874293542, "trialdata": {"revealed_states": [], "num_clicks_accrued": [0, 0, 0, 0, 0, 0, 0, 0, 0, 0, 0, 0, 0], "stateRewards": ["", 4, 8, 24, 24, 2, -4, 48, -24, -4, 8, -24, 24], "withholdReward": true, "trial_id": "mdp_932292142091", "block": "test1", "trialIndex": 31, "score": 49.5, "costs": -1.5, "simulationMode": [null, null, null], "rewards": [2, -4, 48], "path": ["0", "0", "5", "6", "7"], "rt": [6582, 55, 139], "actions": ["right", "right", "up"], "actionTimes": [8321, 8875, 9527], "queries": {"click": {"state": {"target": ["12", "11", "4", "3", "8", "7"], "time": [2679, 3442, 4036, 5159, 6282, 6983]}, "edge": {"target": [], "time": []}}, "mouseover": {"state": {"target": ["9", "12", "10", "11", "4", "3", "6", "8", "6", "7"], "time": [2372, 2451, 3090, 3152, 3804, 4624, 5677, 6014, 6673, 6750]}, "edge": {"target": [], "time": []}}, "mouseout": {"state": {"target": ["11", "9", "12", "10", "11", "4", "3", "6", "8", "6", "7"], "time": [698, 2394, 3067, 3119, 3759, 4376, 5581, 5747, 6649, 6698, 7417]}, "edge": {"target": [], "time": []}}}, "displayed_time": "10.74", "trialTime": 11827, "trial_type": "mouselab-mdp", "trial_index": 42, "time_elapsed": 920896, "internal_node_id": "0.0-4.0-1.0-27.0"}}, {"uniqueid": "w81517528:a34577893", "current_trial": 43, "dateTime": 1664874307502, "trialdata": {"revealed_states": [], "num_clicks_accrued": [0, 0, 0, 0, 0, 0, 0, 0, 0, 0, 0, 0, 0], "stateRewards": ["", 2, -4, 48, 24, 2, 8, 24, 24, -2, 4, 24, 24], "withholdReward": true, "trial_id": "mdp_813974524300", "block": "test1", "trialIndex": 32, "score": 49.5, "costs": -1.5, "simulationMode": [null, null, null], "rewards": [2, -4, 48], "path": ["0", "0", "1", "2", "3"], "rt": [8658, 53, 305], "actions": ["up", "up", "right"], "actionTimes": [11109, 11660, 12479], "queries": {"click": {"state": {"target": ["7", "12", "4", "8", "11", "3"], "time": [3542, 5173, 6339, 7638, 8775, 9705]}, "edge": {"target": [], "time": []}}, "mouseover": {"state": {"target": ["7", "1", "11", "10", "12", "10", "4", "4", "2", "6", "8", "11", "3"], "time": [3267, 4069, 4389, 4453, 4639, 5607, 5639, 6056, 6798, 6875, 7447, 8549, 9534]}, "edge": {"target": [], "time": []}}, "mouseout": {"state": {"target": ["8", "5", "0", "7", "1", "11", "10", "12", "10", "4", "4", "2", "6", "8", "11", "4", "3", "3"], "time": [1029, 1312, 2925, 4017, 4085, 4420, 4540, 5584, 5623, 5655, 6769, 6825, 6893, 8064, 9124, 9180, 10212, 13293]}, "edge": {"target": [], "time": []}}}, "displayed_time": "12.98", "trialTime": 13769, "trial_type": "mouselab-mdp", "trial_index": 43, "time_elapsed": 934857, "internal_node_id": "0.0-4.0-1.0-28.0"}}, {"uniqueid": "w81517528:a34577893", "current_trial": 44, "dateTime": 1664874320718, "trialdata": {"revealed_states": [], "num_clicks_accrued": [0, 0, 0, 0, 0, 0, 0, 0, 0, 0, 0, 0, 0], "stateRewards": ["", -2, 8, -48, 48, -4, -8, 24, 24, -2, -4, 48, -48], "withholdReward": false, "trial_id": "mdp_867247318592", "block": "test1", "trialIndex": 33, "score": 58.5, "costs": -0.5, "simulationMode": [null, null, null], "rewards": [-2, 8, 48], "path": ["0", "0", "1", "2", "4"], "rt": [2677, 117, 324], "actions": ["up", "up", "left"], "actionTimes": [6415, 7038, 7863], "queries": {"click": {"state": {"target": ["3", "4"], "time": [4454, 5350]}, "edge": {"target": [], "time": []}}, "mouseover": {"state": {"target": ["1", "3", "2", "4", "11"], "time": [4078, 4144, 4828, 4896, 5898]}, "edge": {"target": [], "time": []}}, "mouseout": {"state": {"target": ["5", "9", "9", "0", "1", "3", "2", "4"], "time": [886, 1771, 2223, 4048, 4110, 4803, 4846, 5735]}, "edge": {"target": [], "time": []}}}, "displayed_time": "11.74", "trialTime": 13026, "trial_type": "mouselab-mdp", "trial_index": 44, "time_elapsed": 948073, "internal_node_id": "0.0-4.0-1.0-29.0"}}, {"uniqueid": "w81517528:a34577893", "current_trial": 45, "dateTime": 1664874332759, "trialdata": {"rt": 12026, "stimulus": "<h1> End of block! </h1>\n\nYou have reached the end of the block 1/4. If you need a short break, feel free to take one now before moving on.\n\n<br><br>\nIn the next block, you will complete another 30 rounds of this game.\n\n<br><br>\n<div style='text-align: center;'>Press <code>space</code> to begin.</div>\n<br><br>\n<div style='text-align: center;'>(If the experiment doesn't continue, try clicking on the text and then pressing <code>space</code>.)</div>", "response": " ", "trial_id": "mdp_ready_2", "trial_type": "html-keyboard-response", "trial_index": 45, "time_elapsed": 960114, "internal_node_id": "0.0-4.0-2.0"}}, {"uniqueid": "w81517528:a34577893", "current_trial": 46, "dateTime": 1664874345936, "trialdata": {"revealed_states": [], "num_clicks_accrued": [0, 0, 0, 0, 0, 0, 0, 0, 0, 0, 0, 0, 0], "stateRewards": ["", -2, 4, -24, 48, 4, -8, 48, -48, 2, -8, 48, 24], "withholdReward": false, "trial_id": "mdp_501111216502", "block": "test2", "trialIndex": 34, "score": 46.5, "costs": -0.5, "simulationMode": [null, null, null], "rewards": [2, -8, 48], "path": ["0", "0", "9", "10", "11"], "rt": [3277, 54, 268], "actions": ["left", "left", "up"], "actionTimes": [5325, 5885, 6668], "queries": {"click": {"state": {"target": ["12", "11"], "time": [3329, 4164]}, "edge": {"target": [], "time": []}}, "mouseover": {"state": {"target": ["9", "10", "12", "10", "11", "4"], "time": [2787, 2855, 3096, 3760, 3839, 4524]}, "edge": {"target": [], "time": []}}, "mouseout": {"state": {"target": ["5", "0", "0", "9", "10", "12", "10", "11", "4", "11", "10", "12"], "time": [1212, 1282, 2750, 2837, 2873, 3725, 3790, 4478, 4761, 4826, 11542, 11763]}, "edge": {"target": [], "time": []}}}, "displayed_time": "11.05", "trialTime": 12959, "trial_type": "mouselab-mdp", "trial_index": 46, "time_elapsed": 973291, "internal_node_id": "0.0-4.0-3.0-0.0"}}, {"uniqueid": "w81517528:a34577893", "current_trial": 47, "dateTime": 1664874358571, "trialdata": {"revealed_states": [], "num_clicks_accrued": [0, 0, 0, 0, 0, 0, 0, 0, 0, 0, 0, 0, 0], "stateRewards": ["", -4, 4, -24, 24, 2, 4, -24, 48, -4, 8, -48, 48], "withholdReward": true, "trial_id": "mdp_422109108860", "block": "test2", "trialIndex": 35, "score": 56.75, "costs": -0.25, "simulationMode": [null, null, null], "rewards": [-4, 8, 48], "path": ["0", "0", "9", "10", "12"], "rt": [1729, 425, 72], "actions": ["left", "left", "down"], "actionTimes": [3714, 4635, 5217], "queries": {"click": {"state": {"target": ["12"], "time": [2542]}, "edge": {"target": [], "time": []}}, "mouseover": {"state": {"target": ["0", "12"], "time": [2006, 2383]}, "edge": {"target": [], "time": []}}, "mouseout": {"state": {"target": ["12", "10", "0", "12"], "time": [982, 1181, 2018, 2922]}, "edge": {"target": [], "time": []}}}, "displayed_time": "10.99", "trialTime": 12444, "trial_type": "mouselab-mdp", "trial_index": 47, "time_elapsed": 985926, "internal_node_id": "0.0-4.0-3.0-1.0"}}, {"uniqueid": "w81517528:a34577893", "current_trial": 48, "dateTime": 1664874370082, "trialdata": {"revealed_states": [], "num_clicks_accrued": [0, 0, 0, 0, 0, 0, 0, 0, 0, 0, 0, 0, 0], "stateRewards": ["", 2, 4, 48, 24, -2, -8, 24, 24, -2, 4, -48, 24], "withholdReward": true, "trial_id": "mdp_130849500124", "block": "test2", "trialIndex": 36, "score": 57.5, "costs": -1.5, "simulationMode": [null, null, null], "rewards": [2, 4, 48], "path": ["0", "0", "1", "2", "3"], "rt": [5595, 145, 212], "actions": ["up", "up", "right"], "actionTimes": [6985, 7642, 8358], "queries": {"click": {"state": {"target": ["8", "7", "12", "11", "4", "3"], "time": [2168, 2965, 4017, 4741, 5431, 6059]}, "edge": {"target": [], "time": []}}, "mouseover": {"state": {"target": ["5", "8", "6", "7", "2", "10", "12", "10", "11", "4", "2", "3"], "time": [1696, 1864, 2612, 2695, 3414, 3598, 3785, 4399, 4518, 5168, 5736, 5837]}, "edge": {"target": [], "time": []}}, "mouseout": {"state": {"target": ["1", "1", "5", "8", "6", "7", "2", "10", "12", "10", "11", "4", "2"], "time": [642, 929, 1742, 2581, 2646, 3337, 3480, 3681, 4369, 4434, 5072, 5707, 5786]}, "edge": {"target": [], "time": []}}}, "displayed_time": "10.39", "trialTime": 11333, "trial_type": "mouselab-mdp", "trial_index": 48, "time_elapsed": 997437, "internal_node_id": "0.0-4.0-3.0-2.0"}}, {"uniqueid": "w81517528:a34577893", "current_trial": 49, "dateTime": 1664874386207, "trialdata": {"revealed_states": [], "num_clicks_accrued": [0, 0, 0, 0, 0, 0, 0, 0, 0, 0, 0, 0, 0], "stateRewards": ["", -2, -4, 48, 48, 2, 4, -48, 24, 4, -8, 24, -24], "withholdReward": true, "trial_id": "mdp_628613319495", "block": "test2", "trialIndex": 37, "score": 46.75, "costs": -0.25, "simulationMode": [null, null, null], "rewards": [-2, -4, 48], "path": ["0", "0", "1", "2", "4"], "rt": [2292, 97, 17], "actions": ["up", "up", "left"], "actionTimes": [8320, 8920, 9442], "queries": {"click": {"state": {"target": ["4"], "time": [7140]}, "edge": {"target": [], "time": []}}, "mouseover": {"state": {"target": ["2", "3", "2", "4"], "time": [6472, 6549, 6766, 6881]}, "edge": {"target": [], "time": []}}, "mouseout": {"state": {"target": ["3", "1", "1", "2", "3", "2", "4", "4"], "time": [1202, 1417, 4587, 6516, 6732, 6818, 7569, 7770]}, "edge": {"target": [], "time": []}}}, "displayed_time": "14.03", "trialTime": 15938, "trial_type": "mouselab-mdp", "trial_index": 49, "time_elapsed": 1013562, "internal_node_id": "0.0-4.0-3.0-3.0"}}, {"uniqueid": "w81517528:a34577893", "current_trial": 50, "dateTime": 1664874399026, "trialdata": {"revealed_states": [], "num_clicks_accrued": [0, 0, 0, 0, 0, 0, 0, 0, 0, 0, 0, 0, 0], "stateRewards": ["", -2, -8, -24, 48, -2, -8, -48, -48, 2, -8, -48, 24], "withholdReward": false, "trial_id": "mdp_288324580942", "block": "test2", "trialIndex": 38, "score": 41.5, "costs": -1.5, "simulationMode": [null, null, null], "rewards": [-2, -8, 48], "path": ["0", "0", "1", "2", "4"], "rt": [6481, 45, 147], "actions": ["up", "up", "left"], "actionTimes": [9947, 10490, 11140], "queries": {"click": {"state": {"target": ["12", "8", "7", "11", "4", "3"], "time": [5060, 6639, 7647, 8266, 8814, 9137]}, "edge": {"target": [], "time": []}}, "mouseover": {"state": {"target": ["10", "12", "8", "6", "7", "1", "11", "4", "4", "2", "3", "2"], "time": [4660, 4878, 6550, 6920, 7533, 7987, 8084, 8484, 8705, 8986, 9070, 9432]}, "edge": {"target": [], "time": []}}, "mouseout": {"state": {"target": ["2", "1", "10", "12", "8", "6", "7", "1", "11", "4", "4", "2", "3", "2"], "time": [2815, 2847, 4763, 6182, 6901, 6965, 7955, 8005, 8417, 8536, 8935, 9036, 9406, 9453]}, "edge": {"target": [], "time": []}}}, "displayed_time": "11.65", "trialTime": 12631, "trial_type": "mouselab-mdp", "trial_index": 50, "time_elapsed": 1026381, "internal_node_id": "0.0-4.0-3.0-4.0"}}, {"uniqueid": "w81517528:a34577893", "current_trial": 51, "dateTime": 1664874411878, "trialdata": {"revealed_states": [], "num_clicks_accrued": [0, 0, 0, 0, 0, 0, 0, 0, 0, 0, 0, 0, 0], "stateRewards": ["", 4, -4, 48, -48, 2, 8, -48, 24, -2, -4, -24, 48], "withholdReward": true, "trial_id": "mdp_937564992306", "block": "test2", "trialIndex": 39, "score": 46.75, "costs": -0.25, "simulationMode": [null, null, null], "rewards": [-2, -4, 48], "path": ["0", "0", "9", "10", "12"], "rt": [2384, 51, 128], "actions": ["left", "left", "down"], "actionTimes": [5008, 5565, 6210], "queries": {"click": {"state": {"target": ["12"], "time": [4028]}, "edge": {"target": [], "time": []}}, "mouseover": {"state": {"target": ["9", "12", "12", "0"], "time": [3045, 3357, 3860, 4596]}, "edge": {"target": [], "time": []}}, "mouseout": {"state": {"target": ["4", "11", "9", "0", "1", "1", "9", "12", "12", "0"], "time": [200, 1083, 1169, 1369, 1918, 2169, 3104, 3437, 4511, 4618]}, "edge": {"target": [], "time": []}}}, "displayed_time": "11.63", "trialTime": 12569, "trial_type": "mouselab-mdp", "trial_index": 51, "time_elapsed": 1039233, "internal_node_id": "0.0-4.0-3.0-5.0"}}, {"uniqueid": "w81517528:a34577893", "current_trial": 52, "dateTime": 1664874421860, "trialdata": {"revealed_states": [], "num_clicks_accrued": [0, 0, 0, 0, 0, 0, 0, 0, 0, 0, 0, 0, 0], "stateRewards": ["", -2, 8, 24, -48, -2, -4, 24, 48, 2, 8, -48, -48], "withholdReward": true, "trial_id": "mdp_562228697607", "block": "test2", "trialIndex": 40, "score": 46, "costs": -1, "simulationMode": [null, null, null], "rewards": [-2, -4, 48], "path": ["0", "0", "5", "6", "8"], "rt": [4459, 73, 84], "actions": ["right", "right", "down"], "actionTimes": [5520, 6092, 6688], "queries": {"click": {"state": {"target": ["12", "11", "7", "8"], "time": [2054, 2630, 3664, 4222]}, "edge": {"target": [], "time": []}}, "mouseover": {"state": {"target": ["9", "12", "10", "11", "1", "6", "7", "6", "8", "5", "1", "5"], "time": [1682, 2006, 2436, 2492, 2876, 2959, 3547, 3901, 4013, 4690, 4732, 4933]}, "edge": {"target": [], "time": []}}, "mouseout": {"state": {"target": ["0", "9", "12", "10", "11", "1", "6", "7", "6", "8", "5", "1", "5"], "time": [1658, 1705, 2409, 2475, 2829, 2892, 3197, 3867, 3961, 4668, 4707, 4884, 4951]}, "edge": {"target": [], "time": []}}}, "displayed_time": "9.06", "trialTime": 9807, "trial_type": "mouselab-mdp", "trial_index": 52, "time_elapsed": 1049215, "internal_node_id": "0.0-4.0-3.0-6.0"}}, {"uniqueid": "w81517528:a34577893", "current_trial": 53, "dateTime": 1664874432874, "trialdata": {"revealed_states": [], "num_clicks_accrued": [0, 0, 0, 0, 0, 0, 0, 0, 0, 0, 0, 0, 0], "stateRewards": ["", 2, -8, -24, 48, -4, -8, 24, -48, 4, -8, -24, -24], "withholdReward": true, "trial_id": "mdp_928911266656", "block": "test2", "trialIndex": 41, "score": 45.5, "costs": -1.5, "simulationMode": [null, null, null], "rewards": [2, -8, 48], "path": ["0", "0", "1", "2", "4"], "rt": [4220, 135, 151], "actions": ["up", "up", "left"], "actionTimes": [5273, 5913, 6564], "queries": {"click": {"state": {"target": ["12", "11", "7", "8", "3", "4"], "time": [1654, 2162, 2682, 3363, 4042, 4483]}, "edge": {"target": [], "time": []}}, "mouseover": {"state": {"target": ["9", "9", "12", "10", "11", "1", "7", "6", "8", "6", "3", "3", "2", "4"], "time": [1116, 1384, 1601, 1933, 2139, 2415, 2587, 2788, 2884, 3520, 3620, 4020, 4237, 4370]}, "edge": {"target": [], "time": []}}, "mouseout": {"state": {"target": ["9", "9", "9", "12", "10", "11", "1", "7", "6", "8", "6", "3", "3", "2", "4"], "time": [480, 1161, 1431, 1869, 2033, 2300, 2467, 2725, 2850, 3502, 3553, 3702, 4187, 4320, 4923]}, "edge": {"target": [], "time": []}}}, "displayed_time": "10.05", "trialTime": 10821, "trial_type": "mouselab-mdp", "trial_index": 53, "time_elapsed": 1060229, "internal_node_id": "0.0-4.0-3.0-7.0"}}, {"uniqueid": "w81517528:a34577893", "current_trial": 54, "dateTime": 1664874443309, "trialdata": {"revealed_states": [], "num_clicks_accrued": [0, 0, 0, 0, 0, 0, 0, 0, 0, 0, 0, 0, 0], "stateRewards": ["", -4, 4, -48, -48, -2, -8, -48, -24, 4, 8, -24, 24], "withholdReward": true, "trial_id": "mdp_449260894259", "block": "test2", "trialIndex": 42, "score": 39.5, "costs": -1.5, "simulationMode": [null, null, null], "rewards": [4, 8, 24], "path": ["0", "0", "9", "10", "12"], "rt": [5344, 68, 69], "actions": ["left", "left", "down"], "actionTimes": [7349, 7923, 8493], "queries": {"click": {"state": {"target": ["12", "4", "8", "7", "3", "11"], "time": [2477, 3039, 3877, 4799, 5207, 5824]}, "edge": {"target": [], "time": []}}, "mouseover": {"state": {"target": ["9", "12", "10", "11", "4", "2", "8", "6", "7", "3", "2", "11", "10"], "time": [2171, 2372, 2710, 2747, 2839, 3224, 3812, 4093, 4346, 5113, 5429, 5679, 6501]}, "edge": {"target": [], "time": []}}, "mouseout": {"state": {"target": ["0", "9", "12", "10", "11", "4", "2", "8", "6", "7", "3", "2", "11", "10", "12"], "time": [2138, 2238, 2672, 2737, 2760, 3191, 3257, 4010, 4164, 5035, 5380, 5463, 6485, 6549, 6615]}, "edge": {"target": [], "time": []}}}, "displayed_time": "10.01", "trialTime": 10167, "trial_type": "mouselab-mdp", "trial_index": 54, "time_elapsed": 1070664, "internal_node_id": "0.0-4.0-3.0-8.0"}}, {"uniqueid": "w81517528:a34577893", "current_trial": 55, "dateTime": 1664874454171, "trialdata": {"revealed_states": [], "num_clicks_accrued": [0, 0, 0, 0, 0, 0, 0, 0, 0, 0, 0, 0, 0], "stateRewards": ["", 2, -4, -24, 24, 2, 8, 48, 48, 2, -8, 48, -24], "withholdReward": false, "trial_id": "mdp_330392242530", "block": "test2", "trialIndex": 43, "score": 46.25, "costs": -0.75, "simulationMode": [null, null, null], "rewards": [2, -8, 48], "path": ["0", "0", "9", "10", "11"], "rt": [3376, 183, 68], "actions": ["left", "left", "up"], "actionTimes": [4610, 5294, 5864], "queries": {"click": {"state": {"target": ["4", "12", "11"], "time": [2351, 2930, 3358]}, "edge": {"target": [], "time": []}}, "mouseover": {"state": {"target": ["4", "4", "10", "4", "10", "12", "10", "11", "2", "2"], "time": [1480, 1764, 1950, 2203, 2600, 2850, 3101, 3201, 3622, 3995]}, "edge": {"target": [], "time": []}}, "mouseout": {"state": {"target": ["12", "9", "0", "4", "4", "10", "4", "10", "12", "10", "11", "2", "2", "11"], "time": [779, 914, 1350, 1581, 1815, 2082, 2516, 2701, 3084, 3151, 3484, 3708, 4021, 4053]}, "edge": {"target": [], "time": []}}}, "displayed_time": "9.23", "trialTime": 10679, "trial_type": "mouselab-mdp", "trial_index": 55, "time_elapsed": 1081525, "internal_node_id": "0.0-4.0-3.0-9.0"}}, {"uniqueid": "w81517528:a34577893", "current_trial": 56, "dateTime": 1664874467115, "trialdata": {"revealed_states": [], "num_clicks_accrued": [0, 0, 0, 0, 0, 0, 0, 0, 0, 0, 0, 0, 0], "stateRewards": ["", 2, 4, -48, -48, 4, 4, -48, -48, -2, -8, 48, -24], "withholdReward": true, "trial_id": "mdp_175327338412", "block": "test2", "trialIndex": 44, "score": 42.75, "costs": -0.25, "simulationMode": [null, null, null], "rewards": [-2, -8, 48], "path": ["0", "0", "9", "10", "11"], "rt": [1709, 117, 52], "actions": ["left", "left", "up"], "actionTimes": [3533, 4160, 4714], "queries": {"click": {"state": {"target": ["11"], "time": [2428]}, "edge": {"target": [], "time": []}}, "mouseover": {"state": {"target": ["11", "2", "3", "1", "9"], "time": [2317, 2668, 2753, 3021, 3055]}, "edge": {"target": [], "time": []}}, "mouseout": {"state": {"target": ["10", "9", "0", "0", "11", "2", "3", "1", "9", "12"], "time": [1233, 1349, 1432, 2092, 2584, 2702, 3004, 3039, 3073, 12308]}, "edge": {"target": [], "time": []}}}, "displayed_time": "10.82", "trialTime": 12748, "trial_type": "mouselab-mdp", "trial_index": 56, "time_elapsed": 1094469, "internal_node_id": "0.0-4.0-3.0-10.0"}}, {"uniqueid": "w81517528:a34577893", "current_trial": 57, "dateTime": 1664874477953, "trialdata": {"revealed_states": [], "num_clicks_accrued": [0, 0, 0, 0, 0, 0, 0, 0, 0, 0, 0, 0, 0], "stateRewards": ["", 4, -8, -24, 24, 2, -4, 24, 24, 2, -4, 48, 48], "withholdReward": false, "trial_id": "mdp_457607480918", "block": "test2", "trialIndex": 45, "score": 50.75, "costs": -0.25, "simulationMode": [null, null, null], "rewards": [2, -4, 48], "path": ["0", "0", "9", "10", "11"], "rt": [1958, 69, 148], "actions": ["left", "left", "up"], "actionTimes": [2931, 3504, 4153], "queries": {"click": {"state": {"target": ["11"], "time": [1777]}, "edge": {"target": [], "time": []}}, "mouseover": {"state": {"target": ["0", "9", "11", "12"], "time": [1314, 1461, 1579, 2216]}, "edge": {"target": [], "time": []}}, "mouseout": {"state": {"target": ["0", "0", "9", "11"], "time": [491, 1410, 1479, 1962]}, "edge": {"target": [], "time": []}}}, "displayed_time": "9.97", "trialTime": 10665, "trial_type": "mouselab-mdp", "trial_index": 57, "time_elapsed": 1105307, "internal_node_id": "0.0-4.0-3.0-11.0"}}, {"uniqueid": "w81517528:a34577893", "current_trial": 58, "dateTime": 1664874488133, "trialdata": {"revealed_states": [], "num_clicks_accrued": [0, 0, 0, 0, 0, 0, 0, 0, 0, 0, 0, 0, 0], "stateRewards": ["", -2, 8, -48, 48, -4, -8, 24, 24, -2, -4, 48, -48], "withholdReward": false, "trial_id": "mdp_867247318592", "block": "test2", "trialIndex": 46, "score": 46.75, "costs": -0.25, "simulationMode": [null, null, null], "rewards": [-2, -4, 48], "path": ["0", "0", "9", "10", "11"], "rt": [1885, 92, 98], "actions": ["left", "left", "up"], "actionTimes": [3152, 3746, 4356], "queries": {"click": {"state": {"target": ["11"], "time": [1855]}, "edge": {"target": [], "time": []}}, "mouseover": {"state": {"target": ["9", "11", "9", "12"], "time": [1561, 1695, 2164, 2379]}, "edge": {"target": [], "time": []}}, "mouseout": {"state": {"target": ["12", "0", "9", "11", "9", "12"], "time": [640, 1534, 1571, 2111, 2228, 2467]}, "edge": {"target": [], "time": []}}}, "displayed_time": "9.28", "trialTime": 9984, "trial_type": "mouselab-mdp", "trial_index": 58, "time_elapsed": 1115487, "internal_node_id": "0.0-4.0-3.0-12.0"}}, {"uniqueid": "w81517528:a34577893", "current_trial": 59, "dateTime": 1664874499761, "trialdata": {"revealed_states": [], "num_clicks_accrued": [0, 0, 0, 0, 0, 0, 0, 0, 0, 0, 0, 0, 0], "stateRewards": ["", -4, 8, -24, -24, 4, -8, 48, -24, -4, -8, -24, -48], "withholdReward": true, "trial_id": "mdp_391766721791", "block": "test2", "trialIndex": 47, "score": 48.25, "costs": -0.75, "simulationMode": [null, null, null], "rewards": [4, -8, 48], "path": ["0", "0", "5", "6", "7"], "rt": [4994, 95, 128], "actions": ["right", "right", "up"], "actionTimes": [6195, 6790, 7425], "queries": {"click": {"state": {"target": ["11", "12", "7"], "time": [2329, 3819, 4698]}, "edge": {"target": [], "time": []}}, "mouseover": {"state": {"target": ["9", "11", "10", "12", "12", "9", "0", "7", "6", "8"], "time": [1528, 2148, 2764, 2831, 3482, 4269, 4289, 4402, 5070, 5138]}, "edge": {"target": [], "time": []}}, "mouseout": {"state": {"target": ["9", "0", "9", "11", "10", "12", "12", "9", "0", "7", "6", "8"], "time": [707, 1431, 1546, 2737, 2798, 2947, 4237, 4286, 4307, 5046, 5104, 5457]}, "edge": {"target": [], "time": []}}}, "displayed_time": "10.20", "trialTime": 11438, "trial_type": "mouselab-mdp", "trial_index": 59, "time_elapsed": 1127116, "internal_node_id": "0.0-4.0-3.0-13.0"}}, {"uniqueid": "w81517528:a34577893", "current_trial": 60, "dateTime": 1664874515040, "trialdata": {"revealed_states": [], "num_clicks_accrued": [0, 0, 0, 0, 0, 0, 0, 0, 0, 0, 0, 0, 0], "stateRewards": ["", -2, -4, -24, 48, -4, 8, 48, 48, 2, 8, -48, -24], "withholdReward": true, "trial_id": "mdp_136376573354", "block": "test2", "trialIndex": 48, "score": 56.5, "costs": -0.5, "simulationMode": [null, null, null], "rewards": [-4, 8, 48], "path": ["0", "0", "5", "6", "7"], "rt": [3380, 52, 93], "actions": ["right", "right", "up"], "actionTimes": [8745, 9294, 9903], "queries": {"click": {"state": {"target": ["11", "7"], "time": [6704, 7502]}, "edge": {"target": [], "time": []}}, "mouseover": {"state": {"target": ["11", "1", "7", "6", "8", "5", "0"], "time": [6455, 7186, 7252, 7686, 7752, 8146, 8221]}, "edge": {"target": [], "time": []}}, "mouseout": {"state": {"target": ["7", "5", "0", "11", "1", "7", "6", "8", "5", "0"], "time": [4753, 4928, 5148, 7152, 7219, 7653, 7736, 8125, 8187, 8254]}, "edge": {"target": [], "time": []}}}, "displayed_time": "14.37", "trialTime": 15096, "trial_type": "mouselab-mdp", "trial_index": 60, "time_elapsed": 1142395, "internal_node_id": "0.0-4.0-3.0-14.0"}}, {"uniqueid": "w81517528:a34577893", "current_trial": 61, "dateTime": 1664874524963, "trialdata": {"revealed_states": [], "num_clicks_accrued": [0, 0, 0, 0, 0, 0, 0, 0, 0, 0, 0, 0, 0], "stateRewards": ["", -4, -4, -24, -24, -2, 4, 48, -24, -2, -4, -24, 48], "withholdReward": false, "trial_id": "mdp_855903341564", "block": "test2", "trialIndex": 49, "score": 46.5, "costs": -0.5, "simulationMode": [null, null, null], "rewards": [-2, -4, 48], "path": ["0", "0", "9", "10", "12"], "rt": [2301, 6, 7], "actions": ["left", "left", "down"], "actionTimes": [3369, 3887, 4414], "queries": {"click": {"state": {"target": ["11", "12"], "time": [1872, 2318]}, "edge": {"target": [], "time": []}}, "mouseover": {"state": {"target": ["11", "10", "12", "0"], "time": [1537, 2037, 2105, 2522]}, "edge": {"target": [], "time": []}}, "mouseout": {"state": {"target": ["1", "0", "11", "10", "12", "0"], "time": [648, 1373, 2021, 2071, 2471, 2540]}, "edge": {"target": [], "time": []}}}, "displayed_time": "9.07", "trialTime": 9731, "trial_type": "mouselab-mdp", "trial_index": 61, "time_elapsed": 1152318, "internal_node_id": "0.0-4.0-3.0-15.0"}}, {"uniqueid": "w81517528:a34577893", "current_trial": 62, "dateTime": 1664874537789, "trialdata": {"revealed_states": [], "num_clicks_accrued": [0, 0, 0, 0, 0, 0, 0, 0, 0, 0, 0, 0, 0], "stateRewards": ["", 4, -4, 24, 48, 4, 8, -24, -24, -2, 4, 48, 48], "withholdReward": true, "trial_id": "mdp_624998450453", "block": "test2", "trialIndex": 50, "score": 54.75, "costs": -0.25, "simulationMode": [null, null, null], "rewards": [-2, 4, 48], "path": ["0", "0", "9", "10", "12"], "rt": [1905, 165, 50], "actions": ["left", "left", "down"], "actionTimes": [3695, 4364, 4919], "queries": {"click": {"state": {"target": ["12"], "time": [2614]}, "edge": {"target": [], "time": []}}, "mouseover": {"state": {"target": ["0", "0", "9", "12", "10"], "time": [1871, 2161, 2324, 2444, 2892]}, "edge": {"target": [], "time": []}}, "mouseout": {"state": {"target": ["0", "0", "0", "9", "12", "10"], "time": [1187, 1905, 2207, 2358, 2791, 2995]}, "edge": {"target": [], "time": []}}}, "displayed_time": "10.79", "trialTime": 12633, "trial_type": "mouselab-mdp", "trial_index": 62, "time_elapsed": 1165144, "internal_node_id": "0.0-4.0-3.0-16.0"}}, {"uniqueid": "w81517528:a34577893", "current_trial": 63, "dateTime": 1664874551050, "trialdata": {"revealed_states": [], "num_clicks_accrued": [0, 0, 0, 0, 0, 0, 0, 0, 0, 0, 0, 0, 0], "stateRewards": ["", -4, -4, 24, 48, 4, -4, -24, 24, -4, -4, 24, 24], "withholdReward": true, "trial_id": "mdp_357725458160", "block": "test2", "trialIndex": 51, "score": 44, "costs": -1, "simulationMode": [null, null, null], "rewards": [-4, -4, 48], "path": ["0", "0", "1", "2", "4"], "rt": [4357, 53, 110], "actions": ["up", "up", "left"], "actionTimes": [6165, 6720, 7343], "queries": {"click": {"state": {"target": ["12", "7", "8", "4"], "time": [2674, 3897, 4312, 4972]}, "edge": {"target": [], "time": []}}, "mouseover": {"state": {"target": ["0", "0", "9", "12", "10", "11", "10", "0", "7", "6", "8", "5", "1", "2", "4", "2", "3", "1"], "time": [1952, 2255, 2319, 2507, 2907, 3042, 3237, 3509, 3589, 4040, 4140, 4507, 4557, 4625, 4775, 5160, 5361, 5636]}, "edge": {"target": [], "time": []}}, "mouseout": {"state": {"target": ["0", "0", "0", "9", "12", "10", "11", "10", "0", "7", "6", "8", "5", "1", "2", "4", "2", "3", "1"], "time": [1452, 1984, 2276, 2403, 2853, 2954, 3190, 3254, 3540, 4006, 4073, 4457, 4524, 4592, 4691, 5125, 5229, 5614, 5651]}, "edge": {"target": [], "time": []}}}, "displayed_time": "10.81", "trialTime": 13075, "trial_type": "mouselab-mdp", "trial_index": 63, "time_elapsed": 1178405, "internal_node_id": "0.0-4.0-3.0-17.0"}}, {"uniqueid": "w81517528:a34577893", "current_trial": 64, "dateTime": 1664874562787, "trialdata": {"revealed_states": [], "num_clicks_accrued": [0, 0, 0, 0, 0, 0, 0, 0, 0, 0, 0, 0, 0], "stateRewards": ["", 4, -8, 48, -24, -4, 4, 24, 24, -2, -4, 24, 24], "withholdReward": true, "trial_id": "mdp_542168715839", "block": "test2", "trialIndex": 52, "score": 47.75, "costs": -1.25, "simulationMode": [null, null, null], "rewards": [4, -8, 48], "path": ["0", "0", "1", "2", "3"], "rt": [6481, 26, 97], "actions": ["up", "up", "right"], "actionTimes": [8814, 9349, 9968], "queries": {"click": {"state": {"target": ["12", "11", "7", "8", "3"], "time": [3395, 4741, 6078, 6570, 7624]}, "edge": {"target": [], "time": []}}, "mouseover": {"state": {"target": ["9", "10", "12", "10", "11", "1", "7", "8", "3", "3"], "time": [2638, 2767, 2904, 3886, 4041, 5026, 5963, 6532, 6998, 7582]}, "edge": {"target": [], "time": []}}, "mouseout": {"state": {"target": ["0", "9", "10", "12", "10", "11", "1", "7", "8", "3", "3"], "time": [1697, 2716, 2801, 3857, 3970, 4939, 5061, 6242, 6777, 7079, 7779]}, "edge": {"target": [], "time": []}}}, "displayed_time": "10.47", "trialTime": 11558, "trial_type": "mouselab-mdp", "trial_index": 64, "time_elapsed": 1190142, "internal_node_id": "0.0-4.0-3.0-18.0"}}, {"uniqueid": "w81517528:a34577893", "current_trial": 65, "dateTime": 1664874576436, "trialdata": {"revealed_states": [], "num_clicks_accrued": [0, 0, 0, 0, 0, 0, 0, 0, 0, 0, 0, 0, 0], "stateRewards": ["", -2, 4, -24, -48, -4, 8, -24, 48, 4, 4, -48, 24], "withholdReward": true, "trial_id": "mdp_341117665701", "block": "test2", "trialIndex": 53, "score": 55.5, "costs": -1.5, "simulationMode": [null, null, null], "rewards": [-4, 8, 48], "path": ["0", "0", "5", "6", "8"], "rt": [3894, 123, 79], "actions": ["right", "right", "down"], "actionTimes": [7151, 7845, 8431], "queries": {"click": {"state": {"target": ["12", "11", "4", "3", "8", "7"], "time": [4023, 4447, 4811, 5178, 6086, 6448]}, "edge": {"target": [], "time": []}}, "mouseover": {"state": {"target": ["9", "12", "10", "11", "4", "2", "3", "5", "8", "6", "7"], "time": [3721, 3819, 4187, 4254, 4638, 4955, 5143, 5406, 5975, 6276, 6325]}, "edge": {"target": [], "time": []}}, "mouseout": {"state": {"target": ["0", "9", "12", "10", "11", "4", "2", "3", "5", "8", "6"], "time": [3626, 3768, 4170, 4220, 4572, 4908, 5023, 5307, 5927, 6259, 6309]}, "edge": {"target": [], "time": []}}}, "displayed_time": "12.26", "trialTime": 13444, "trial_type": "mouselab-mdp", "trial_index": 65, "time_elapsed": 1203791, "internal_node_id": "0.0-4.0-3.0-19.0"}}, {"uniqueid": "w81517528:a34577893", "current_trial": 66, "dateTime": 1664874587557, "trialdata": {"revealed_states": [], "num_clicks_accrued": [0, 0, 0, 0, 0, 0, 0, 0, 0, 0, 0, 0, 0], "stateRewards": ["", 4, -8, -48, 24, 4, 4, -24, -24, 2, 4, -48, 24], "withholdReward": true, "trial_id": "mdp_626971397185", "block": "test2", "trialIndex": 54, "score": 33.5, "costs": -1.5, "simulationMode": [null, null, null], "rewards": [2, 4, 24], "path": ["0", "0", "9", "10", "12"], "rt": [6126, 146, 36], "actions": ["left", "left", "down"], "actionTimes": [7863, 8520, 9061], "queries": {"click": {"state": {"target": ["12", "11", "3", "4", "7", "8"], "time": [2218, 2750, 3872, 4943, 5946, 6671]}, "edge": {"target": [], "time": []}}, "mouseover": {"state": {"target": ["9", "12", "10", "11", "1", "2", "2", "3", "2", "4", "4", "1", "4", "7", "7", "6", "8"], "time": [1923, 2044, 2372, 2472, 3028, 3106, 3458, 3745, 4009, 4092, 4310, 4681, 4744, 5530, 5720, 6332, 6607]}, "edge": {"target": [], "time": []}}, "mouseout": {"state": {"target": ["7", "1", "9", "12", "10", "11", "1", "2", "2", "3", "2", "4", "4", "1", "4", "7", "7", "6", "8"], "time": [950, 1237, 1938, 2355, 2421, 2906, 3056, 3156, 3524, 3982, 4058, 4237, 4443, 4704, 5211, 5614, 6296, 6435, 7284]}, "edge": {"target": [], "time": []}}}, "displayed_time": "9.74", "trialTime": 10904, "trial_type": "mouselab-mdp", "trial_index": 66, "time_elapsed": 1214912, "internal_node_id": "0.0-4.0-3.0-20.0"}}, {"uniqueid": "w81517528:a34577893", "current_trial": 67, "dateTime": 1664874600288, "trialdata": {"revealed_states": [], "num_clicks_accrued": [0, 0, 0, 0, 0, 0, 0, 0, 0, 0, 0, 0, 0], "stateRewards": ["", 4, 4, 24, -24, -4, -8, 48, -24, 4, 4, 48, 24], "withholdReward": true, "trial_id": "mdp_822446942217", "block": "test2", "trialIndex": 55, "score": 60.5, "costs": -0.5, "simulationMode": [null, null, null], "rewards": [4, 4, 48], "path": ["0", "0", "9", "10", "11"], "rt": [3920, 115, 95], "actions": ["left", "left", "up"], "actionTimes": [6503, 7120, 7722], "queries": {"click": {"state": {"target": ["4", "11"], "time": [3724, 5389]}, "edge": {"target": [], "time": []}}, "mouseover": {"state": {"target": ["4", "11", "11", "11", "10", "12"], "time": [3516, 4211, 4379, 4877, 6000, 6098]}, "edge": {"target": [], "time": []}}, "mouseout": {"state": {"target": ["5", "0", "0", "4", "11", "11", "11", "10"], "time": [1034, 1615, 2692, 4157, 4228, 4712, 5922, 6048]}, "edge": {"target": [], "time": []}}}, "displayed_time": "11.59", "trialTime": 12542, "trial_type": "mouselab-mdp", "trial_index": 67, "time_elapsed": 1227643, "internal_node_id": "0.0-4.0-3.0-21.0"}}, {"uniqueid": "w81517528:a34577893", "current_trial": 68, "dateTime": 1664874612046, "trialdata": {"revealed_states": [], "num_clicks_accrued": [0, 0, 0, 0, 0, 0, 0, 0, 0, 0, 0, 0, 0], "stateRewards": ["", 2, 4, -48, -24, 2, 8, 24, 48, -2, 4, 48, -48], "withholdReward": true, "trial_id": "mdp_551894842204", "block": "test2", "trialIndex": 56, "score": 54.75, "costs": -0.25, "simulationMode": [null, null, null], "rewards": [-2, 4, 48], "path": ["0", "0", "9", "10", "11"], "rt": [1806, 59, 116], "actions": ["left", "left", "up"], "actionTimes": [3216, 3772, 4396], "queries": {"click": {"state": {"target": ["11"], "time": [2145]}, "edge": {"target": [], "time": []}}, "mouseover": {"state": {"target": ["11", "4", "10"], "time": [1923, 2522, 2673]}, "edge": {"target": [], "time": []}}, "mouseout": {"state": {"target": ["12", "0", "11", "4", "10"], "time": [413, 1658, 2455, 2612, 2707]}, "edge": {"target": [], "time": []}}}, "displayed_time": "10.41", "trialTime": 11532, "trial_type": "mouselab-mdp", "trial_index": 68, "time_elapsed": 1239400, "internal_node_id": "0.0-4.0-3.0-22.0"}}, {"uniqueid": "w81517528:a34577893", "current_trial": 69, "dateTime": 1664874623662, "trialdata": {"revealed_states": [], "num_clicks_accrued": [0, 0, 0, 0, 0, 0, 0, 0, 0, 0, 0, 0, 0], "stateRewards": ["", -4, -8, -48, 48, -2, 8, 48, 48, -2, -4, -48, -48], "withholdReward": true, "trial_id": "mdp_752833580638", "block": "test2", "trialIndex": 57, "score": 58.5, "costs": -0.5, "simulationMode": [null, null, null], "rewards": [-2, 8, 48], "path": ["0", "0", "5", "6", "7"], "rt": [2628, 100, 69], "actions": ["right", "right", "up"], "actionTimes": [3904, 4510, 5079], "queries": {"click": {"state": {"target": ["11", "7"], "time": [1883, 2824]}, "edge": {"target": [], "time": []}}, "mouseover": {"state": {"target": ["9", "10", "11", "7", "5"], "time": [1604, 1648, 1799, 2796, 3322]}, "edge": {"target": [], "time": []}}, "mouseout": {"state": {"target": ["12", "0", "0", "9", "10", "11", "7", "5"], "time": [646, 879, 1572, 1619, 1699, 2166, 3238, 3350]}, "edge": {"target": [], "time": []}}}, "displayed_time": "10.28", "trialTime": 11429, "trial_type": "mouselab-mdp", "trial_index": 69, "time_elapsed": 1251016, "internal_node_id": "0.0-4.0-3.0-23.0"}}, {"uniqueid": "w81517528:a34577893", "current_trial": 70, "dateTime": 1664874637612, "trialdata": {"revealed_states": [], "num_clicks_accrued": [0, 0, 0, 0, 0, 0, 0, 0, 0, 0, 0, 0, 0], "stateRewards": ["", -2, 8, 48, 24, 2, -8, -24, -48, -4, 8, -48, 24], "withholdReward": false, "trial_id": "mdp_224053025943", "block": "test2", "trialIndex": 58, "score": 57.5, "costs": -1.5, "simulationMode": [null, null, null], "rewards": [-2, 8, 48], "path": ["0", "0", "1", "2", "3"], "rt": [7056, 106, 85], "actions": ["up", "up", "right"], "actionTimes": [11272, 11881, 12461], "queries": {"click": {"state": {"target": ["11", "12", "7", "8", "4", "3"], "time": [5599, 6161, 7530, 8301, 9038, 9936]}, "edge": {"target": [], "time": []}}, "mouseover": {"state": {"target": ["9", "11", "10", "12", "0", "7", "7", "6", "8", "5", "1", "4", "2", "3", "3", "1"], "time": [4890, 5196, 5891, 5958, 6406, 7175, 7375, 7894, 8170, 8670, 8697, 8853, 9316, 9352, 9800, 10484]}, "edge": {"target": [], "time": []}}, "mouseout": {"state": {"target": ["0", "9", "11", "10", "12", "0", "7", "7", "6", "8", "5", "1", "4", "2", "3", "3", "1", "12"], "time": [4856, 4917, 5857, 5925, 6339, 6423, 7209, 7864, 7927, 8653, 8683, 8713, 9285, 9339, 9414, 10454, 10500, 10621]}, "edge": {"target": [], "time": []}}}, "displayed_time": "12.96", "trialTime": 13747, "trial_type": "mouselab-mdp", "trial_index": 70, "time_elapsed": 1264966, "internal_node_id": "0.0-4.0-3.0-24.0"}}, {"uniqueid": "w81517528:a34577893", "current_trial": 71, "dateTime": 1664874650560, "trialdata": {"revealed_states": [], "num_clicks_accrued": [0, 0, 0, 0, 0, 0, 0, 0, 0, 0, 0, 0, 0], "stateRewards": ["", 2, 4, -24, -24, 4, 8, -48, 48, 2, 4, -24, -48], "withholdReward": true, "trial_id": "mdp_565165082781", "block": "test2", "trialIndex": 59, "score": 63.5, "costs": -1.5, "simulationMode": [null, null, null], "rewards": [4, 8, 48], "path": ["0", "0", "5", "6", "8"], "rt": [4261, 24, 172], "actions": ["right", "right", "down"], "actionTimes": [8411, 8949, 9615], "queries": {"click": {"state": {"target": ["11", "12", "4", "3", "7", "8"], "time": [5113, 5591, 6141, 6606, 7118, 7607]}, "edge": {"target": [], "time": []}}, "mouseover": {"state": {"target": ["9", "10", "11", "10", "12", "10", "4", "2", "3", "7", "6", "8"], "time": [4763, 4863, 4996, 5331, 5413, 5765, 5999, 6333, 6432, 6900, 7459, 7520]}, "edge": {"target": [], "time": []}}, "mouseout": {"state": {"target": ["0", "9", "10", "11", "10", "12", "10", "4", "2", "3", "7", "6", "8"], "time": [4730, 4812, 4896, 5297, 5380, 5731, 5781, 6316, 6399, 6817, 7425, 7503, 7954]}, "edge": {"target": [], "time": []}}}, "displayed_time": "12.15", "trialTime": 12770, "trial_type": "mouselab-mdp", "trial_index": 71, "time_elapsed": 1277915, "internal_node_id": "0.0-4.0-3.0-25.0"}}, {"uniqueid": "w81517528:a34577893", "current_trial": 72, "dateTime": 1664874661518, "trialdata": {"revealed_states": [], "num_clicks_accrued": [0, 0, 0, 0, 0, 0, 0, 0, 0, 0, 0, 0, 0], "stateRewards": ["", -4, 8, -24, 48, 2, -8, 24, 48, 2, -8, -24, -48], "withholdReward": true, "trial_id": "mdp_493778446445", "block": "test2", "trialIndex": 60, "score": 56.5, "costs": -0.5, "simulationMode": [null, null, null], "rewards": [-4, 8, 48], "path": ["0", "0", "1", "2", "4"], "rt": [2595, 78, 158], "actions": ["up", "up", "left"], "actionTimes": [3672, 4247, 4915], "queries": {"click": {"state": {"target": ["12", "4"], "time": [1866, 2646]}, "edge": {"target": [], "time": []}}, "mouseover": {"state": {"target": ["9", "12", "10", "11", "4", "5", "1"], "time": [1340, 1725, 2260, 2360, 2563, 3028, 3138]}, "edge": {"target": [], "time": []}}, "mouseout": {"state": {"target": ["9", "12", "10", "11", "4", "5", "1", "4"], "time": [1391, 2228, 2325, 2408, 2779, 3115, 3154, 3227]}, "edge": {"target": [], "time": []}}}, "displayed_time": "10.08", "trialTime": 10764, "trial_type": "mouselab-mdp", "trial_index": 72, "time_elapsed": 1288872, "internal_node_id": "0.0-4.0-3.0-26.0"}}, {"uniqueid": "w81517528:a34577893", "current_trial": 73, "dateTime": 1664874673090, "trialdata": {"revealed_states": [], "num_clicks_accrued": [0, 0, 0, 0, 0, 0, 0, 0, 0, 0, 0, 0, 0], "stateRewards": ["", -2, 8, 48, -48, 4, -8, 24, 24, 4, 4, -48, -24], "withholdReward": true, "trial_id": "mdp_746937869927", "block": "test2", "trialIndex": 61, "score": 58, "costs": -1, "simulationMode": [null, null, null], "rewards": [-2, 8, 48], "path": ["0", "0", "1", "2", "3"], "rt": [3842, 150, 41], "actions": ["up", "up", "right"], "actionTimes": [4727, 5377, 5916], "queries": {"click": {"state": {"target": ["4", "12", "11", "3"], "time": [1438, 2388, 2814, 3589]}, "edge": {"target": [], "time": []}}, "mouseover": {"state": {"target": ["4", "12", "12", "10", "11", "3", "3"], "time": [1348, 2148, 2358, 2598, 2732, 3119, 3518]}, "edge": {"target": [], "time": []}}, "mouseout": {"state": {"target": ["4", "1", "4", "12", "12", "10", "11", "3", "3"], "time": [376, 611, 1685, 2263, 2514, 2686, 2982, 3168, 3804]}, "edge": {"target": [], "time": []}}}, "displayed_time": "8.89", "trialTime": 11348, "trial_type": "mouselab-mdp", "trial_index": 73, "time_elapsed": 1300445, "internal_node_id": "0.0-4.0-3.0-27.0"}}, {"uniqueid": "w81517528:a34577893", "current_trial": 74, "dateTime": 1664874686441, "trialdata": {"revealed_states": [], "num_clicks_accrued": [0, 0, 0, 0, 0, 0, 0, 0, 0, 0, 0, 0, 0], "stateRewards": ["", 2, -8, -48, 24, 4, 8, 48, -48, 2, -4, 24, 24], "withholdReward": false, "trial_id": "mdp_130475327289", "block": "test2", "trialIndex": 62, "score": 64, "costs": -1, "simulationMode": [null, null, null], "rewards": [4, 8, 48], "path": ["0", "0", "5", "6", "7"], "rt": [4953, 63, 185], "actions": ["right", "right", "up"], "actionTimes": [7169, 7733, 8423], "queries": {"click": {"state": {"target": ["11", "4", "3", "7"], "time": [3294, 3862, 4696, 5957]}, "edge": {"target": [], "time": []}}, "mouseover": {"state": {"target": ["9", "10", "11", "4", "3", "7", "7", "6", "8"], "time": [2874, 2954, 3088, 3706, 4556, 5175, 5560, 6355, 6430]}, "edge": {"target": [], "time": []}}, "mouseout": {"state": {"target": ["1", "9", "10", "11", "4", "3", "7", "7", "6", "8"], "time": [1648, 2924, 3003, 3642, 4058, 4912, 5326, 6324, 6380, 6532]}, "edge": {"target": [], "time": []}}}, "displayed_time": "11.22", "trialTime": 13157, "trial_type": "mouselab-mdp", "trial_index": 74, "time_elapsed": 1313795, "internal_node_id": "0.0-4.0-3.0-28.0"}}, {"uniqueid": "w81517528:a34577893", "current_trial": 75, "dateTime": 1664874700303, "trialdata": {"revealed_states": [], "num_clicks_accrued": [0, 0, 0, 0, 0, 0, 0, 0, 0, 0, 0, 0, 0], "stateRewards": ["", 4, -8, 24, 48, 2, 4, 48, 48, 2, 8, -48, -48], "withholdReward": true, "trial_id": "mdp_783704746330", "block": "test2", "trialIndex": 63, "score": 48.5, "costs": -0.5, "simulationMode": [null, null, null], "rewards": [4, -8, 48], "path": ["0", "0", "1", "2", "4"], "rt": [2874, 197, 113], "actions": ["up", "up", "left"], "actionTimes": [6927, 7628, 8247], "queries": {"click": {"state": {"target": ["11", "4"], "time": [5081, 5657]}, "edge": {"target": [], "time": []}}, "mouseover": {"state": {"target": ["9", "11", "4", "2", "3", "2", "10"], "time": [4782, 4903, 5540, 5890, 5989, 6240, 6307]}, "edge": {"target": [], "time": []}}, "mouseout": {"state": {"target": ["0", "9", "11", "4", "2", "3", "2", "10"], "time": [4757, 4804, 5406, 5872, 5939, 6206, 6257, 6324]}, "edge": {"target": [], "time": []}}}, "displayed_time": "13.05", "trialTime": 13665, "trial_type": "mouselab-mdp", "trial_index": 75, "time_elapsed": 1327658, "internal_node_id": "0.0-4.0-3.0-29.0"}}, {"uniqueid": "w81517528:a34577893", "current_trial": 76, "dateTime": 1664874716224, "trialdata": {"rt": 15882, "stimulus": "<h1> End of block! </h1>\n\nYou have reached the end of the block 2/4. If you need a short break, feel free to take one now before moving on.\n\n<br><br>\nIn the next block, you will complete another 30 rounds of this game.\n\n<br><br>\n<div style='text-align: center;'>Press <code>space</code> to begin.</div>\n<br><br>\n<div style='text-align: center;'>(If the experiment doesn't continue, try clicking on the text and then pressing <code>space</code>.)</div>", "response": " ", "trial_id": "mdp_ready_3", "trial_type": "html-keyboard-response", "trial_index": 76, "time_elapsed": 1343579, "internal_node_id": "0.0-4.0-4.0"}}, {"uniqueid": "w81517528:a34577893", "current_trial": 77, "dateTime": 1664874731873, "trialdata": {"revealed_states": [], "num_clicks_accrued": [0, 0, 0, 0, 0, 0, 0, 0, 0, 0, 0, 0, 0], "stateRewards": ["", -2, 4, -48, 24, -4, 8, 48, 24, -2, 4, -48, -24], "withholdReward": false, "trial_id": "mdp_740882974347", "block": "test3", "trialIndex": 64, "score": 55.75, "costs": -1.25, "simulationMode": [null, null, null], "rewards": [-4, 8, 48], "path": ["0", "0", "5", "6", "7"], "rt": [5098, 16, 6], "actions": ["right", "right", "up"], "actionTimes": [11580, 12103, 12625], "queries": {"click": {"state": {"target": ["4", "3", "11", "12", "7"], "time": [7300, 7843, 9026, 9641, 10463]}, "edge": {"target": [], "time": []}}, "mouseover": {"state": {"target": ["4", "2", "3", "0", "12", "12", "10", "11", "10", "12", "9", "7", "6", "8"], "time": [7153, 7471, 7571, 8124, 8207, 8443, 8708, 8995, 9276, 9426, 9844, 10328, 10788, 10897]}, "edge": {"target": [], "time": []}}, "mouseout": {"state": {"target": ["10", "4", "2", "3", "0", "12", "12", "10", "11", "10", "12", "9", "7", "6", "8"], "time": [5605, 7421, 7522, 8022, 8140, 8344, 8658, 8942, 9192, 9378, 9751, 9862, 10765, 10829, 13975]}, "edge": {"target": [], "time": []}}}, "displayed_time": "14.48", "trialTime": 15420, "trial_type": "mouselab-mdp", "trial_index": 77, "time_elapsed": 1359227, "internal_node_id": "0.0-4.0-5.0-0.0"}}, {"uniqueid": "w81517528:a34577893", "current_trial": 78, "dateTime": 1664874744163, "trialdata": {"revealed_states": [], "num_clicks_accrued": [0, 0, 0, 0, 0, 0, 0, 0, 0, 0, 0, 0, 0], "stateRewards": ["", 4, -8, 48, 24, 4, -4, 48, 48, -4, 8, -48, 24], "withholdReward": true, "trial_id": "mdp_303828806348", "block": "test3", "trialIndex": 65, "score": 48.25, "costs": -0.75, "simulationMode": [null, null, null], "rewards": [4, -8, 48], "path": ["0", "0", "1", "2", "3"], "rt": [3452, 37, 41], "actions": ["up", "up", "right"], "actionTimes": [5620, 6153, 6691], "queries": {"click": {"state": {"target": ["4", "11", "3"], "time": [2767, 3538, 4289]}, "edge": {"target": [], "time": []}}, "mouseover": {"state": {"target": ["4", "11", "1", "3", "7", "1", "9"], "time": [2624, 3426, 4007, 4056, 4641, 4941, 5009]}, "edge": {"target": [], "time": []}}, "mouseout": {"state": {"target": ["0", "4", "4", "11", "1", "3", "7", "1", "9"], "time": [1403, 1699, 3024, 3824, 4024, 4507, 4895, 4975, 5059]}, "edge": {"target": [], "time": []}}}, "displayed_time": "11.17", "trialTime": 12082, "trial_type": "mouselab-mdp", "trial_index": 78, "time_elapsed": 1371518, "internal_node_id": "0.0-4.0-5.0-1.0"}}, {"uniqueid": "w81517528:a34577893", "current_trial": 79, "dateTime": 1664874758585, "trialdata": {"revealed_states": [], "num_clicks_accrued": [0, 0, 0, 0, 0, 0, 0, 0, 0, 0, 0, 0, 0], "stateRewards": ["", 4, -4, 48, -48, -4, -4, 48, -48, 4, 4, -48, -24], "withholdReward": false, "trial_id": "mdp_490058671112", "block": "test3", "trialIndex": 66, "score": 52.25, "costs": -0.75, "simulationMode": [null, null, null], "rewards": [4, -4, 48], "path": ["0", "0", "1", "2", "3"], "rt": [4501, 1025, 139], "actions": ["up", "up", "right"], "actionTimes": [8619, 10145, 10790], "queries": {"click": {"state": {"target": ["4", "11", "3"], "time": [4874, 5708, 6988]}, "edge": {"target": [], "time": []}}, "mouseover": {"state": {"target": ["4", "4", "11", "2", "3", "3", "0"], "time": [4286, 4658, 5391, 6042, 6093, 6817, 8083]}, "edge": {"target": [], "time": []}}, "mouseout": {"state": {"target": ["0", "4", "4", "11", "2", "3", "3", "0"], "time": [4218, 4304, 5292, 5996, 6076, 6176, 7844, 8115]}, "edge": {"target": [], "time": []}}}, "displayed_time": "12.12", "trialTime": 14219, "trial_type": "mouselab-mdp", "trial_index": 79, "time_elapsed": 1385939, "internal_node_id": "0.0-4.0-5.0-2.0"}}, {"uniqueid": "w81517528:a34577893", "current_trial": 80, "dateTime": 1664874774704, "trialdata": {"revealed_states": [], "num_clicks_accrued": [0, 0, 0, 0, 0, 0, 0, 0, 0, 0, 0, 0, 0], "stateRewards": ["", 2, -4, -24, 24, 2, 8, 48, 48, 2, -8, 48, -24], "withholdReward": false, "trial_id": "mdp_330392242530", "block": "test3", "trialIndex": 67, "score": 46.25, "costs": -0.75, "simulationMode": [null, null, null], "rewards": [2, -8, 48], "path": ["0", "0", "9", "10", "11"], "rt": [6037, 434, 156], "actions": ["left", "left", "up"], "actionTimes": [8560, 9520, 10179], "queries": {"click": {"state": {"target": ["3", "4", "11"], "time": [5527, 6348, 7350]}, "edge": {"target": [], "time": []}}, "mouseover": {"state": {"target": ["1", "3", "2", "4", "11", "11"], "time": [4022, 5246, 5941, 6125, 6809, 7095]}, "edge": {"target": [], "time": []}}, "mouseout": {"state": {"target": ["0", "0", "1", "3", "2", "4", "11"], "time": [1991, 3588, 4439, 5910, 6025, 6762, 6893]}, "edge": {"target": [], "time": []}}}, "displayed_time": "11.52", "trialTime": 15917, "trial_type": "mouselab-mdp", "trial_index": 80, "time_elapsed": 1402058, "internal_node_id": "0.0-4.0-5.0-3.0"}}, {"uniqueid": "w81517528:a34577893", "current_trial": 81, "dateTime": 1664874787764, "trialdata": {"revealed_states": [], "num_clicks_accrued": [0, 0, 0, 0, 0, 0, 0, 0, 0, 0, 0, 0, 0], "stateRewards": ["", 2, 8, 24, 24, 2, -8, -24, -48, 2, 8, -48, 48], "withholdReward": false, "trial_id": "mdp_745175888812", "block": "test3", "trialIndex": 68, "score": 62.25, "costs": -0.75, "simulationMode": [null, null, null], "rewards": [2, 8, 48], "path": ["0", "0", "9", "10", "12"], "rt": [3101, 74, 69], "actions": ["left", "left", "down"], "actionTimes": [7133, 7702, 8268], "queries": {"click": {"state": {"target": ["4", "11", "12"], "time": [4549, 5265, 5936]}, "edge": {"target": [], "time": []}}, "mouseover": {"state": {"target": ["4", "11", "10", "12", "1", "1"], "time": [4232, 5167, 5536, 5736, 6170, 6608]}, "edge": {"target": [], "time": []}}, "mouseout": {"state": {"target": ["11", "9", "9", "9", "1", "0", "4", "11", "10", "12", "1", "1"], "time": [2054, 2443, 2694, 2964, 3067, 3402, 5039, 5505, 5586, 6086, 6187, 6643]}, "edge": {"target": [], "time": []}}}, "displayed_time": "12.03", "trialTime": 12866, "trial_type": "mouselab-mdp", "trial_index": 81, "time_elapsed": 1415118, "internal_node_id": "0.0-4.0-5.0-4.0"}}, {"uniqueid": "w81517528:a34577893", "current_trial": 82, "dateTime": 1664874797251, "trialdata": {"revealed_states": [], "num_clicks_accrued": [0, 0, 0, 0, 0, 0, 0, 0, 0, 0, 0, 0, 0], "stateRewards": ["", -2, -4, -48, -48, -2, -8, 48, -48, 4, -8, -48, 24], "withholdReward": true, "trial_id": "mdp_468495641521", "block": "test3", "trialIndex": 69, "score": 42, "costs": -1, "simulationMode": [null, null, null], "rewards": [-2, -8, 48], "path": ["0", "0", "5", "6", "7"], "rt": [4163, 80, 174], "actions": ["right", "right", "up"], "actionTimes": [5395, 5976, 6654], "queries": {"click": {"state": {"target": ["12", "4", "3", "7"], "time": [1997, 2793, 3435, 4052]}, "edge": {"target": [], "time": []}}, "mouseover": {"state": {"target": ["10", "12", "4", "4", "2", "3", "7", "6", "8"], "time": [1768, 1888, 2282, 2719, 3106, 3253, 3854, 4271, 4422]}, "edge": {"target": [], "time": []}}, "mouseout": {"state": {"target": ["0", "10", "12", "4", "4", "2", "3", "7", "6", "8"], "time": [1487, 1789, 2200, 2316, 3056, 3185, 3770, 4196, 4342, 4710]}, "edge": {"target": [], "time": []}}}, "displayed_time": "9.23", "trialTime": 9276, "trial_type": "mouselab-mdp", "trial_index": 82, "time_elapsed": 1424605, "internal_node_id": "0.0-4.0-5.0-5.0"}}, {"uniqueid": "w81517528:a34577893", "current_trial": 83, "dateTime": 1664874808999, "trialdata": {"revealed_states": [], "num_clicks_accrued": [0, 0, 0, 0, 0, 0, 0, 0, 0, 0, 0, 0, 0], "stateRewards": ["", -2, 8, -24, 48, -4, 4, -48, 24, 4, -8, 48, -24], "withholdReward": true, "trial_id": "mdp_425320427962", "block": "test3", "trialIndex": 70, "score": 48.5, "costs": -0.5, "simulationMode": [null, null, null], "rewards": [4, -8, 48], "path": ["0", "0", "9", "10", "11"], "rt": [2499, 5, 295], "actions": ["left", "left", "up"], "actionTimes": [3924, 4427, 5234], "queries": {"click": {"state": {"target": ["12", "11"], "time": [2153, 2650]}, "edge": {"target": [], "time": []}}, "mouseover": {"state": {"target": ["9", "12", "10", "11", "4", "9"], "time": [1748, 1961, 2429, 2551, 2964, 3315]}, "edge": {"target": [], "time": []}}, "mouseout": {"state": {"target": ["9", "12", "10", "11", "4", "9"], "time": [1829, 2379, 2480, 2881, 3234, 3350]}, "edge": {"target": [], "time": []}}}, "displayed_time": "10.43", "trialTime": 11513, "trial_type": "mouselab-mdp", "tr