{"condition": 1, "counterbalance": 0, "assignmentId": "a78252280", "workerId": "w97167656", "hitId": "h11640316", "currenttrial": 137, "bonus": 0, "data": [{"uniqueid": "w97167656:a78252280", "current_trial": 0, "dateTime": 1664555138070, "trialdata": {"success": true, "trial_type": "fullscreen", "trial_index": 0, "time_elapsed": 3715, "internal_node_id": "0.0-0.0"}}, {"uniqueid": "w97167656:a78252280", "current_trial": 1, "dateTime": 1664555156036, "trialdata": {"view_history": [{"page_index": 0, "viewing_time": 17963}], "rt": 17963, "trial_id": "exp_instructions_no_distractor", "trial_type": "instructions", "trial_index": 1, "time_elapsed": 21681, "internal_node_id": "0.0-1.0"}}, {"uniqueid": "w97167656:a78252280", "current_trial": 2, "dateTime": 1664555159939, "trialdata": {"success": true, "trial_type": "fullscreen", "trial_index": 2, "time_elapsed": 25584, "internal_node_id": "0.0-2.0-0.0"}}, {"uniqueid": "w97167656:a78252280", "current_trial": 3, "dateTime": 1664555333143, "trialdata": {"view_history": [{"page_index": 0, "viewing_time": 92330}, {"page_index": 1, "viewing_time": 35963}, {"page_index": 2, "viewing_time": 12765}, {"page_index": 3, "viewing_time": 10005}, {"page_index": 4, "viewing_time": 22140}], "rt": 173204, "trial_id": "mouselab_instructions_1", "trial_type": "instructions", "trial_index": 3, "time_elapsed": 198788, "internal_node_id": "0.0-2.0-1.0"}}, {"uniqueid": "w97167656:a78252280", "current_trial": 4, "dateTime": 1664555361386, "trialdata": {"revealed_states": [], "num_clicks_accrued": [0, 0, 0, 0, 0, 0, 0, 0, 0, 0, 0, 0, 0], "stateRewards": ["", -10, -10, 10, 10, -10, -10, -10, 10, 10, 10, 10, 10], "withholdReward": false, "trial_id": "practice_1", "block": "test", "trialIndex": 0, "score": 31, "costs": -1, "simulationMode": [null, null, null], "rewards": [10, 10, 10], "path": ["0", "0", "9", "10", "12"], "rt": [19972, 642, 920], "actions": ["left", "left", "down"], "actionTimes": [22203, 23335, 24748], "queries": {"click": {"state": {"target": ["5", "1", "9", "6"], "time": [6298, 7475, 8674, 14713]}, "edge": {"target": [], "time": []}}, "mouseover": {"state": {"target": ["5", "1", "9", "10", "12", "10", "0", "6", "0", "10"], "time": [5659, 6927, 8245, 9713, 10664, 11332, 13918, 14234, 15118, 17104]}, "edge": {"target": [], "time": []}}, "mouseout": {"state": {"target": ["5", "0", "5", "1", "9", "10", "12", "10", "9", "0", "5", "6", "5", "0", "9", "9", "10", "9"], "time": [587, 1856, 6660, 8028, 9613, 10547, 11198, 13867, 13917, 13951, 14051, 15068, 15102, 15185, 15753, 17037, 17638, 20874]}, "edge": {"target": [], "time": []}}}, "displayed_time": "25.25", "trialTime": 28005, "trial_type": "mouselab-mdp", "trial_index": 4, "time_elapsed": 227031, "internal_node_id": "0.0-2.0-2.0-0.0"}}, {"uniqueid": "w97167656:a78252280", "current_trial": 5, "dateTime": 1664555380759, "trialdata": {"revealed_states": [], "num_clicks_accrued": [0, 0, 0, 0, 0, 0, 0, 0, 0, 0, 0, 0, 0], "stateRewards": ["", -10, 10, -10, -10, -10, -10, 10, -10, -10, 10, -10, 10], "withholdReward": false, "trial_id": "practice_2", "block": "test", "trialIndex": 1, "score": 10, "costs": -2, "simulationMode": [null, null, null], "rewards": [-10, 10, 10], "path": ["0", "0", "9", "10", "12"], "rt": [12570, 896, 44], "actions": ["left", "left", "down"], "actionTimes": [13963, 15364, 15897], "queries": {"click": {"state": {"target": ["12", "8", "9", "1", "5", "11", "4", "3"], "time": [3603, 4541, 6445, 7128, 7961, 11800, 12348, 12940]}, "edge": {"target": [], "time": []}}, "mouseover": {"state": {"target": ["0", "12", "8", "5", "9", "1", "5", "0", "10", "2", "2", "11", "4", "2", "3"], "time": [2072, 2272, 4207, 5726, 6093, 6843, 7678, 8812, 9279, 10013, 10263, 10731, 12082, 12599, 12849]}, "edge": {"target": [], "time": []}}, "mouseout": {"state": {"target": ["0", "0", "12", "8", "8", "5", "9", "1", "5", "0", "9", "10", "2", "2", "11", "4", "2", "3", "5"], "time": [1104, 2105, 3940, 5058, 5542, 5826, 6676, 7394, 8729, 8912, 9129, 9730, 10080, 10347, 11982, 12549, 12766, 13250, 17738]}, "edge": {"target": [], "time": []}}}, "displayed_time": "16.40", "trialTime": 19333, "trial_type": "mouselab-mdp", "trial_index": 5, "time_elapsed": 246404, "internal_node_id": "0.0-2.0-2.0-1.0"}}, {"uniqueid": "w97167656:a78252280", "current_trial": 6, "dateTime": 1664555437957, "trialdata": {"view_history": [{"page_index": 0, "viewing_time": 26454}, {"page_index": 1, "viewing_time": 17355}, {"page_index": 2, "viewing_time": 13388}], "rt": 57197, "trial_id": "mouselab_instructions_2_scarce", "trial_type": "instructions", "trial_index": 6, "time_elapsed": 303602, "internal_node_id": "0.0-2.0-3.0"}}, {"uniqueid": "w97167656:a78252280", "current_trial": 7, "dateTime": 1664555477566, "trialdata": {"rt": 39606, "response": {"Q0": "$-48 to $48", "Q1": "The cost is always $0.25.", "Q2": "The better I perform the higher my bonus will be.", "Q3": "No, the amount of cash at each node of the web may be different each time.", "Q4": "The values of the nodes walked through from start to finish.", "Q5": "No, the spider might forget to count the money on some rounds."}, "question_order": [0, 1, 2, 3, 4, 5], "correct": {"Q0": "$-48 to $48", "Q1": "The cost is always $0.25.", "Q2": "The better I perform the higher my bonus will be.", "Q3": "No, the amount of cash at each node of the web may be different each time.", "Q4": "The values of the nodes walked through from start to finish.", "Q5": "No, the spider might forget to count the money on some rounds."}, "trial_id": "mouselab_quiz_scarce", "trial_type": "survey-multi-choice", "trial_index": 7, "time_elapsed": 343211, "internal_node_id": "0.0-2.0-4.0"}}, {"uniqueid": "w97167656:a78252280", "current_trial": 8, "dateTime": 1664555494365, "trialdata": {"rt": 16794, "stimulus": "\n<h1> Get ready to start the game! </h1>\n\nThank you for reading the instructions. Get ready start with the first of 4 block(s) of this game.\n<br><br>\nIn this first block, you will complete 30 rounds of this game before moving on.\n<br><br>\nRemember, the more money the spider gets, the bigger your bonus will be!\n<br><br>\n<div style='text-align: center;'>Press <code>space</code> to begin.</div>\n\n<br><br>\n(If, at any point, the <code>space</code> key does not take you to the next page, click once on the text and try again.)", "response": " ", "trial_id": "mdp_ready_1", "trial_type": "html-keyboard-response", "trial_index": 8, "time_elapsed": 360010, "internal_node_id": "0.0-4.0-0.0"}}, {"uniqueid": "w97167656:a78252280", "current_trial": 9, "dateTime": 1664555517508, "trialdata": {"revealed_states": [], "num_clicks_accrued": [0, 0, 0, 0, 0, 0, 0, 0, 0, 0, 0, 0, 0], "stateRewards": ["", -4, 4, -24, 48, -2, 8, -48, 24, 2, 4, 48, -48], "withholdReward": false, "trial_id": "mdp_366632183904", "block": "test1", "trialIndex": 2, "score": 57.5, "costs": -1.5, "simulationMode": [null, null, null], "rewards": [2, 4, 48], "path": ["0", "0", "9", "10", "11"], "rt": [17846, 67, 680], "actions": ["left", "left", "up"], "actionTimes": [19453, 20009, 21188], "queries": {"click": {"state": {"target": ["8", "12", "7", "11", "10", "9"], "time": [8706, 10259, 11174, 12395, 15457, 16244]}, "edge": {"target": [], "time": []}}, "mouseover": {"state": {"target": ["5", "6", "7", "5", "8", "8", "12", "6", "7", "4", "11", "4", "10", "9", "1", "2", "4"], "time": [3541, 5910, 6261, 6611, 7362, 7579, 9381, 10649, 10732, 11683, 12200, 12651, 14252, 15837, 17589, 18206, 18642]}, "edge": {"target": [], "time": []}}, "mouseout": {"state": {"target": ["5", "5", "6", "7", "5", "8", "8", "12", "6", "7", "4", "11", "4", "10", "9", "9", "1", "2", "4"], "time": [1022, 5760, 6127, 6578, 7312, 7379, 9014, 10482, 10682, 11366, 12100, 12600, 14069, 15720, 16437, 17272, 17639, 18223, 22143]}, "edge": {"target": [], "time": []}}}, "displayed_time": "21.68", "trialTime": 23100, "trial_type": "mouselab-mdp", "trial_index": 9, "time_elapsed": 383152, "internal_node_id": "0.0-4.0-1.0-0.0"}}, {"uniqueid": "w97167656:a78252280", "current_trial": 10, "dateTime": 1664555538485, "trialdata": {"revealed_states": [], "num_clicks_accrued": [0, 0, 0, 0, 0, 0, 0, 0, 0, 0, 0, 0, 0], "stateRewards": ["", 2, 8, -48, 24, -2, 4, 48, 48, -2, -8, 48, 24], "withholdReward": true, "trial_id": "mdp_157355418411", "block": "test1", "trialIndex": 3, "score": 52.5, "costs": -2.5, "simulationMode": [null, null, null], "rewards": [-2, 4, 48], "path": ["0", "0", "5", "6", "7"], "rt": [15805, 19, 13], "actions": ["right", "right", "up"], "actionTimes": [16890, 17424, 17935], "queries": {"click": {"state": {"target": ["8", "7", "5", "6", "11", "12", "10", "9", "3", "4"], "time": [5456, 6154, 8554, 9236, 12289, 12896, 13609, 14126, 15619, 16354]}, "edge": {"target": [], "time": []}}, "mouseover": {"state": {"target": ["0", "5", "8", "6", "7", "0", "12", "0", "5", "6", "0", "9", "11", "10", "12", "10", "9", "0", "1", "3", "2", "4", "1"], "time": [1422, 3374, 3658, 5810, 5927, 6461, 6828, 7946, 8079, 8980, 10198, 11232, 11499, 12500, 12667, 13167, 13935, 15153, 15236, 15503, 15854, 16137, 16654]}, "edge": {"target": [], "time": []}}, "mouseout": {"state": {"target": ["0", "0", "5", "8", "6", "7", "0", "12", "0", "5", "6", "5", "0", "9", "11", "10", "12", "10", "9", "0", "1", "3", "2", "4", "1", "5"], "time": [872, 3207, 3558, 5777, 5860, 6377, 6494, 7812, 7996, 8880, 9681, 10064, 11099, 11416, 12467, 12584, 13134, 13818, 14302, 15169, 15303, 15770, 16054, 16521, 16688, 19173]}, "edge": {"target": [], "time": []}}}, "displayed_time": "18.44", "trialTime": 20937, "trial_type": "mouselab-mdp", "trial_index": 10, "time_elapsed": 404129, "internal_node_id": "0.0-4.0-1.0-1.0"}}, {"uniqueid": "w97167656:a78252280", "current_trial": 11, "dateTime": 1664555556169, "trialdata": {"revealed_states": [], "num_clicks_accrued": [0, 0, 0, 0, 0, 0, 0, 0, 0, 0, 0, 0, 0], "stateRewards": ["", -2, -8, 48, -24, 2, -4, -48, -24, -2, -4, -48, 48], "withholdReward": true, "trial_id": "mdp_143798438087", "block": "test1", "trialIndex": 4, "score": 44.5, "costs": -2.5, "simulationMode": [null, null, null], "rewards": [-2, -4, 48], "path": ["0", "0", "9", "10", "12"], "rt": [12991, 53, 469], "actions": ["left", "left", "down"], "actionTimes": [14355, 14899, 15866], "queries": {"click": {"state": {"target": ["7", "8", "4", "3", "11", "12", "10", "1", "2", "9"], "time": [3148, 4228, 5383, 6050, 6583, 7183, 8885, 9492, 11720, 12305]}, "edge": {"target": [], "time": []}}, "mouseover": {"state": {"target": ["0", "5", "7", "6", "8", "12", "10", "11", "4", "2", "3", "11", "10", "12", "9", "1", "9", "10", "9", "1", "2", "9"], "time": [1733, 2401, 2885, 3368, 3502, 4770, 4887, 4953, 5220, 5688, 5871, 6388, 6772, 6855, 7489, 7773, 8206, 8340, 9174, 9308, 9992, 12161]}, "edge": {"target": [], "time": []}}, "mouseout": {"state": {"target": ["9", "0", "5", "7", "6", "8", "12", "10", "11", "4", "2", "3", "11", "10", "12", "9", "1", "9", "10", "9", "1", "2", "9"], "time": [916, 1866, 2751, 3318, 3419, 4470, 4836, 4903, 5087, 5637, 5771, 6171, 6738, 6822, 7406, 7606, 8156, 8240, 9141, 9207, 9658, 11877, 12461]}, "edge": {"target": [], "time": []}}}, "displayed_time": "16.36", "trialTime": 17644, "trial_type": "mouselab-mdp", "trial_index": 11, "time_elapsed": 421813, "internal_node_id": "0.0-4.0-1.0-2.0"}}, {"uniqueid": "w97167656:a78252280", "current_trial": 12, "dateTime": 1664555567840, "trialdata": {"revealed_states": [], "num_clicks_accrued": [0, 0, 0, 0, 0, 0, 0, 0, 0, 0, 0, 0, 0], "stateRewards": ["", 4, 4, 48, -48, -2, -8, -48, -24, 2, 4, -24, -48], "withholdReward": true, "trial_id": "mdp_239929662917", "block": "test1", "trialIndex": 5, "score": 59.5, "costs": -1.5, "simulationMode": [null, null, null], "rewards": [4, 4, 48], "path": ["0", "0", "1", "2", "3"], "rt": [7190, 49, 433], "actions": ["up", "up", "right"], "actionTimes": [8563, 9108, 10042], "queries": {"click": {"state": {"target": ["8", "7", "3", "4", "11", "12"], "time": [4313, 4777, 5415, 5902, 6375, 6862]}, "edge": {"target": [], "time": []}}, "mouseover": {"state": {"target": ["5", "5", "8", "6", "7", "3", "2", "4", "11", "10", "12"], "time": [2002, 2953, 3937, 4521, 4621, 5238, 5572, 5639, 6172, 6523, 6673]}, "edge": {"target": [], "time": []}}, "mouseout": {"state": {"target": ["0", "5", "5", "8", "6", "7", "3", "2", "4", "11", "10", "12"], "time": [1835, 2786, 3854, 4488, 4571, 5038, 5539, 5605, 6073, 6490, 6590, 7208]}, "edge": {"target": [], "time": []}}}, "displayed_time": "10.54", "trialTime": 11632, "trial_type": "mouselab-mdp", "trial_index": 12, "time_elapsed": 433484, "internal_node_id": "0.0-4.0-1.0-3.0"}}, {"uniqueid": "w97167656:a78252280", "current_trial": 13, "dateTime": 1664555578732, "trialdata": {"revealed_states": [], "num_clicks_accrued": [0, 0, 0, 0, 0, 0, 0, 0, 0, 0, 0, 0, 0], "stateRewards": ["", -2, -4, 48, -24, -4, -4, -24, -24, -2, 4, -48, -24], "withholdReward": true, "trial_id": "mdp_410467837196", "block": "test1", "trialIndex": 6, "score": 45.5, "costs": -1.5, "simulationMode": [null, null, null], "rewards": [-2, -4, 48], "path": ["0", "0", "1", "2", "3"], "rt": [7012, 294, 132], "actions": ["up", "up", "right"], "actionTimes": [7873, 8674, 9296], "queries": {"click": {"state": {"target": ["4", "3", "7", "8", "12", "11"], "time": [2112, 2644, 3230, 3830, 4444, 4947]}, "edge": {"target": [], "time": []}}, "mouseover": {"state": {"target": ["1", "4", "2", "3", "7", "6", "8", "12", "10", "11", "1", "5", "6"], "time": [1390, 1707, 2341, 2457, 3041, 3392, 3475, 4193, 4710, 4793, 6645, 7095, 7262]}, "edge": {"target": [], "time": []}}, "mouseout": {"state": {"target": ["0", "1", "4", "2", "3", "7", "6", "8", "12", "10", "11", "1", "5", "6"], "time": [772, 1440, 2308, 2391, 2808, 3358, 3425, 4076, 4693, 4743, 5160, 6879, 7129, 7546]}, "edge": {"target": [], "time": []}}}, "displayed_time": "9.80", "trialTime": 10852, "trial_type": "mouselab-mdp", "trial_index": 13, "time_elapsed": 444377, "internal_node_id": "0.0-4.0-1.0-4.0"}}, {"uniqueid": "w97167656:a78252280", "current_trial": 14, "dateTime": 1664555591471, "trialdata": {"revealed_states": [], "num_clicks_accrued": [0, 0, 0, 0, 0, 0, 0, 0, 0, 0, 0, 0, 0], "stateRewards": ["", -2, -8, 24, -24, 4, -8, 48, 48, -4, -8, -24, -48], "withholdReward": true, "trial_id": "mdp_286767261523", "block": "test1", "trialIndex": 7, "score": 47, "costs": -2, "simulationMode": [null, null, null], "rewards": [4, -8, 48], "path": ["0", "0", "5", "6", "7"], "rt": [6347, 2416, 497], "actions": ["right", "right", "up"], "actionTimes": [7220, 10132, 11131], "queries": {"click": {"state": {"target": ["11", "12", "4", "3", "7", "8", "6", "5"], "time": [2133, 2636, 3190, 3685, 4187, 4652, 5658, 6122]}, "edge": {"target": [], "time": []}}, "mouseover": {"state": {"target": ["9", "11", "10", "12", "10", "4", "2", "3", "7", "6", "8", "6", "5"], "time": [1609, 1876, 2310, 2493, 2777, 3027, 3428, 3544, 4011, 4345, 4412, 4979, 5963]}, "edge": {"target": [], "time": []}}, "mouseout": {"state": {"target": ["5", "0", "9", "11", "10", "12", "10", "4", "2", "3", "7", "6", "8", "6", "5", "1", "2", "5"], "time": [591, 1559, 1759, 2276, 2376, 2743, 2827, 3377, 3494, 3861, 4328, 4395, 4929, 5896, 6347, 9617, 9967, 11952]}, "edge": {"target": [], "time": []}}}, "displayed_time": "11.62", "trialTime": 12698, "trial_type": "mouselab-mdp", "trial_index": 14, "time_elapsed": 457116, "internal_node_id": "0.0-4.0-1.0-5.0"}}, {"uniqueid": "w97167656:a78252280", "current_trial": 15, "dateTime": 1664555604829, "trialdata": {"revealed_states": [], "num_clicks_accrued": [0, 0, 0, 0, 0, 0, 0, 0, 0, 0, 0, 0, 0], "stateRewards": ["", 2, -8, -24, 48, -4, -8, 24, -48, 4, -8, -24, -24], "withholdReward": true, "trial_id": "mdp_928911266656", "block": "test1", "trialIndex": 8, "score": 45, "costs": -2, "simulationMode": [null, null, null], "rewards": [2, -8, 48], "path": ["0", "0", "1", "2", "4"], "rt": [9016, 121, 515], "actions": ["up", "up", "left"], "actionTimes": [10187, 10798, 11809], "queries": {"click": {"state": {"target": ["8", "7", "3", "4", "11", "12", "1", "2"], "time": [3166, 3653, 4141, 4695, 5243, 5693, 6368, 6855]}, "edge": {"target": [], "time": []}}, "mouseover": {"state": {"target": ["5", "6", "8", "6", "7", "3", "2", "4", "11", "10", "12", "9", "1", "2", "10", "9"], "time": [1735, 1902, 1952, 3353, 3438, 3954, 4354, 4554, 4954, 5372, 5456, 5939, 6006, 6623, 7979, 8441]}, "edge": {"target": [], "time": []}}, "mouseout": {"state": {"target": ["0", "5", "6", "8", "6", "7", "3", "2", "4", "11", "10", "12", "9", "1", "2", "1", "10", "9"], "time": [1084, 1818, 1935, 3319, 3386, 3870, 4287, 4471, 4854, 5355, 5422, 5872, 5972, 6573, 7057, 7674, 8310, 9075]}, "edge": {"target": [], "time": []}}}, "displayed_time": "12.30", "trialTime": 13320, "trial_type": "mouselab-mdp", "trial_index": 15, "time_elapsed": 470474, "internal_node_id": "0.0-4.0-1.0-6.0"}}, {"uniqueid": "w97167656:a78252280", "current_trial": 16, "dateTime": 1664555615329, "trialdata": {"revealed_states": [], "num_clicks_accrued": [0, 0, 0, 0, 0, 0, 0, 0, 0, 0, 0, 0, 0], "stateRewards": ["", 4, 4, -48, -24, -2, -4, 48, 24, -4, 4, 24, -48], "withholdReward": false, "trial_id": "mdp_617383046444", "block": "test1", "trialIndex": 9, "score": 45.5, "costs": -1.5, "simulationMode": [null, null, null], "rewards": [-2, -4, 48], "path": ["0", "0", "5", "6", "7"], "rt": [4964, 150, 56], "actions": ["right", "right", "up"], "actionTimes": [5680, 6324, 6880], "queries": {"click": {"state": {"target": ["7", "3", "4", "8", "5", "6"], "time": [1774, 2771, 3259, 3926, 4564, 5037]}, "edge": {"target": [], "time": []}}, "mouseover": {"state": {"target": ["5", "6", "7", "3", "2", "4", "8", "6", "5", "6"], "time": [1352, 1452, 1636, 2103, 3004, 3121, 3788, 4205, 4422, 4856]}, "edge": {"target": [], "time": []}}, "mouseout": {"state": {"target": ["5", "0", "5", "6", "7", "3", "2", "4", "8", "6", "5", "6"], "time": [384, 1319, 1402, 1519, 1986, 2970, 3071, 3387, 4138, 4238, 4772, 5323]}, "edge": {"target": [], "time": []}}}, "displayed_time": "9.72", "trialTime": 10458, "trial_type": "mouselab-mdp", "trial_index": 16, "time_elapsed": 480974, "internal_node_id": "0.0-4.0-1.0-7.0"}}, {"uniqueid": "w97167656:a78252280", "current_trial": 17, "dateTime": 1664555630065, "trialdata": {"revealed_states": [], "num_clicks_accrued": [0, 0, 0, 0, 0, 0, 0, 0, 0, 0, 0, 0, 0], "stateRewards": ["", 2, -8, 48, -24, -4, -8, -24, 48, -2, 4, 24, -48], "withholdReward": false, "trial_id": "mdp_186932504904", "block": "test1", "trialIndex": 10, "score": 44, "costs": -3, "simulationMode": [null, null, null], "rewards": [2, -8, 48], "path": ["0", "0", "1", "2", "3"], "rt": [10284, 74, 407], "actions": ["up", "up", "right"], "actionTimes": [11850, 12417, 13317], "queries": {"click": {"state": {"target": ["12", "11", "7", "8", "5", "6", "10", "9", "4", "3", "2", "1"], "time": [3306, 3868, 4573, 5054, 5849, 6171, 6749, 7086, 7761, 8338, 9028, 9321]}, "edge": {"target": [], "time": []}}, "mouseover": {"state": {"target": ["9", "10", "12", "10", "11", "9", "5", "6", "7", "6", "8", "5", "6", "10", "9", "4", "2", "3", "2", "1"], "time": [2099, 2165, 2582, 3584, 3717, 4101, 4151, 4184, 4484, 4751, 4868, 5702, 6069, 6620, 6920, 7488, 7921, 8221, 8906, 9222]}, "edge": {"target": [], "time": []}}, "mouseout": {"state": {"target": ["0", "9", "10", "12", "10", "11", "9", "5", "6", "7", "6", "8", "5", "6", "10", "9", "4", "2", "3", "2", "1"], "time": [1047, 2149, 2482, 3550, 3650, 4051, 4117, 4167, 4401, 4701, 4801, 5319, 5986, 6319, 6887, 7337, 7888, 8005, 8588, 9156, 9473]}, "edge": {"target": [], "time": []}}}, "displayed_time": "13.81", "trialTime": 14696, "trial_type": "mouselab-mdp", "trial_index": 17, "time_elapsed": 495710, "internal_node_id": "0.0-4.0-1.0-8.0"}}, {"uniqueid": "w97167656:a78252280", "current_trial": 18, "dateTime": 1664555642787, "trialdata": {"revealed_states": [], "num_clicks_accrued": [0, 0, 0, 0, 0, 0, 0, 0, 0, 0, 0, 0, 0], "stateRewards": ["", 2, 4, -48, -24, 2, 8, 24, 48, -2, 4, 48, -48], "withholdReward": true, "trial_id": "mdp_551894842204", "block": "test1", "trialIndex": 11, "score": 60.5, "costs": -2.5, "simulationMode": [null, null, null], "rewards": [2, 8, 48], "path": ["0", "0", "5", "6", "8"], "rt": [8488, 135, 22], "actions": ["right", "right", "down"], "actionTimes": [9904, 10537, 11059], "queries": {"click": {"state": {"target": ["4", "3", "11", "12", "7", "8", "10", "9", "5", "6"], "time": [4178, 4575, 5188, 5648, 6165, 6675, 7838, 8333, 8925, 9375]}, "edge": {"target": [], "time": []}}, "mouseover": {"state": {"target": ["0", "1", "4", "2", "3", "1", "11", "10", "12", "5", "6", "7", "6", "8", "9", "10", "9", "9", "0", "5", "6"], "time": [1660, 3862, 4029, 4331, 4413, 4797, 5047, 5347, 5498, 5864, 5915, 6048, 6348, 6598, 7099, 7283, 7967, 8167, 8484, 8651, 9234]}, "edge": {"target": [], "time": []}}, "mouseout": {"state": {"target": ["0", "0", "1", "4", "2", "3", "1", "11", "10", "12", "5", "6", "7", "6", "8", "9", "10", "9", "9", "0", "5", "6"], "time": [1160, 1694, 3896, 4296, 4380, 4747, 4830, 5314, 5414, 5764, 5881, 5965, 6315, 6482, 6882, 7132, 7950, 8017, 8467, 8550, 9118, 9551]}, "edge": {"target": [], "time": []}}}, "displayed_time": "11.55", "trialTime": 12682, "trial_type": "mouselab-mdp", "trial_index": 18, "time_elapsed": 508432, "internal_node_id": "0.0-4.0-1.0-9.0"}}, {"uniqueid": "w97167656:a78252280", "current_trial": 19, "dateTime": 1664555656655, "trialdata": {"revealed_states": [], "num_clicks_accrued": [0, 0, 0, 0, 0, 0, 0, 0, 0, 0, 0, 0, 0], "stateRewards": ["", 2, -4, -24, -48, -2, 8, -24, 48, -2, 8, 24, -48], "withholdReward": false, "trial_id": "mdp_566582551557", "block": "test1", "trialIndex": 12, "score": 56.5, "costs": -2.5, "simulationMode": [null, null, null], "rewards": [-2, 8, 48], "path": ["0", "0", "5", "6", "8"], "rt": [10089, 395, 22], "actions": ["right", "right", "down"], "actionTimes": [11038, 11938, 12449], "queries": {"click": {"state": {"target": ["12", "7", "8", "11", "4", "3", "6", "5", "10", "9"], "time": [3523, 4393, 4842, 5495, 6185, 6995, 8037, 8675, 9897, 10227]}, "edge": {"target": [], "time": []}}, "mouseover": {"state": {"target": ["12", "8", "6", "7", "6", "8", "5", "0", "11", "4", "2", "3", "3", "6", "5", "9", "10", "9"], "time": [2284, 3969, 4053, 4169, 4586, 4686, 5054, 5087, 5320, 6026, 6304, 6471, 6872, 7539, 8440, 9591, 9791, 10092]}, "edge": {"target": [], "time": []}}, "mouseout": {"state": {"target": ["0", "12", "8", "6", "7", "6", "8", "5", "0", "11", "4", "2", "3", "3", "6", "5", "9", "10", "9"], "time": [2084, 3802, 4002, 4119, 4570, 4653, 5003, 5070, 5103, 5637, 6271, 6371, 6588, 7122, 8290, 8941, 9674, 10042, 10559]}, "edge": {"target": [], "time": []}}}, "displayed_time": "12.95", "trialTime": 13827, "trial_type": "mouselab-mdp", "trial_index": 19, "time_elapsed": 522300, "internal_node_id": "0.0-4.0-1.0-10.0"}}, {"uniqueid": "w97167656:a78252280", "current_trial": 20, "dateTime": 1664555668468, "trialdata": {"revealed_states": [], "num_clicks_accrued": [0, 0, 0, 0, 0, 0, 0, 0, 0, 0, 0, 0, 0], "stateRewards": ["", 2, -4, 24, -24, 2, -8, 48, 48, 4, -4, 24, 48], "withholdReward": true, "trial_id": "mdp_947836623875", "block": "test1", "trialIndex": 13, "score": 51, "costs": -2, "simulationMode": [null, null, null], "rewards": [4, -4, 48], "path": ["0", "0", "9", "10", "12"], "rt": [8218, 56, 400], "actions": ["left", "left", "down"], "actionTimes": [8918, 9462, 10373], "queries": {"click": {"state": {"target": ["12", "11", "7", "8", "5", "6", "9", "10"], "time": [2039, 2542, 3517, 3982, 4551, 4882, 5811, 6111]}, "edge": {"target": [], "time": []}}, "mouseover": {"state": {"target": ["9", "12", "10", "11", "10", "9", "0", "6", "7", "6", "8", "5", "6", "9", "10"], "time": [1247, 1665, 2248, 2298, 2916, 3083, 3132, 3249, 3350, 3683, 3817, 4334, 4750, 5501, 5952]}, "edge": {"target": [], "time": []}}, "mouseout": {"state": {"target": ["0", "9", "12", "10", "11", "10", "9", "0", "6", "7", "6", "8", "5", "6", "9", "10"], "time": [1181, 1414, 2215, 2282, 2749, 3066, 3116, 3166, 3316, 3666, 3733, 4200, 4684, 5084, 5918, 6335]}, "edge": {"target": [], "time": []}}}, "displayed_time": "10.87", "trialTime": 11774, "trial_type": "mouselab-mdp", "trial_index": 20, "time_elapsed": 534113, "internal_node_id": "0.0-4.0-1.0-11.0"}}, {"uniqueid": "w97167656:a78252280", "current_trial": 21, "dateTime": 1664555678716, "trialdata": {"revealed_states": [], "num_clicks_accrued": [0, 0, 0, 0, 0, 0, 0, 0, 0, 0, 0, 0, 0], "stateRewards": ["", -4, -8, 48, 48, -4, 4, 48, -24, 4, 8, -24, -48], "withholdReward": true, "trial_id": "mdp_142906093415", "block": "test1", "trialIndex": 14, "score": 50.5, "costs": -2.5, "simulationMode": [null, null, null], "rewards": [-4, 4, 48], "path": ["0", "0", "5", "6", "7"], "rt": [5964, 89, 328], "actions": ["right", "right", "up"], "actionTimes": [6618, 7207, 8030], "queries": {"click": {"state": {"target": ["12", "11", "4", "3", "2", "1", "7", "8", "5", "6"], "time": [1497, 1962, 2390, 2840, 3695, 4032, 4505, 4985, 5427, 5750]}, "edge": {"target": [], "time": []}}, "mouseover": {"state": {"target": ["9", "12", "10", "11", "4", "2", "3", "2", "1", "7", "6", "8", "5", "6"], "time": [1061, 1395, 1712, 1812, 2296, 2629, 2713, 3580, 3931, 4365, 4665, 4832, 5299, 5599]}, "edge": {"target": [], "time": []}}, "mouseout": {"state": {"target": ["0", "9", "12", "10", "11", "4", "2", "3", "2", "1", "7", "6", "8", "5", "6"], "time": [995, 1095, 1678, 1762, 2179, 2563, 2680, 3080, 3847, 4164, 4648, 4715, 5199, 5566, 6116]}, "edge": {"target": [], "time": []}}}, "displayed_time": "9.65", "trialTime": 10208, "trial_type": "mouselab-mdp", "trial_index": 21, "time_elapsed": 544361, "internal_node_id": "0.0-4.0-1.0-12.0"}}, {"uniqueid": "w97167656:a78252280", "current_trial": 22, "dateTime": 1664555688019, "trialdata": {"revealed_states": [], "num_clicks_accrued": [0, 0, 0, 0, 0, 0, 0, 0, 0, 0, 0, 0, 0], "stateRewards": ["", -2, 8, 24, -48, -4, -8, -24, -48, -4, 8, -24, 48], "withholdReward": true, "trial_id": "mdp_464339499860", "block": "test1", "trialIndex": 15, "score": 55.5, "costs": -1.5, "simulationMode": [null, null, null], "rewards": [-4, 8, 48], "path": ["0", "0", "9", "10", "12"], "rt": [4426, 128, 1], "actions": ["left", "left", "down"], "actionTimes": [5274, 5907, 6398], "queries": {"click": {"state": {"target": ["11", "12", "4", "3", "7", "8"], "time": [1742, 2426, 3033, 3527, 3963, 4690]}, "edge": {"target": [], "time": []}}, "mouseover": {"state": {"target": ["0", "11", "11", "10", "12", "10", "4", "2", "3", "7", "6", "8"], "time": [1108, 1308, 1591, 1975, 2109, 2709, 2860, 3243, 3393, 3844, 4111, 4555]}, "edge": {"target": [], "time": []}}, "mouseout": {"state": {"target": ["0", "0", "11", "11", "10", "12", "10", "4", "2", "3", "7", "6", "8"], "time": [574, 1241, 1408, 1909, 2042, 2676, 2743, 3193, 3310, 3660, 4094, 4161, 4962]}, "edge": {"target": [], "time": []}}}, "displayed_time": "8.85", "trialTime": 9263, "trial_type": "mouselab-mdp", "trial_index": 22, "time_elapsed": 553664, "internal_node_id": "0.0-4.0-1.0-13.0"}}, {"uniqueid": "w97167656:a78252280", "current_trial": 23, "dateTime": 1664555699533, "trialdata": {"revealed_states": [], "num_clicks_accrued": [0, 0, 0, 0, 0, 0, 0, 0, 0, 0, 0, 0, 0], "stateRewards": ["", 2, 8, -48, -24, 2, -4, -48, 24, 2, -4, -24, -24], "withholdReward": true, "trial_id": "mdp_954659099093", "block": "test1", "trialIndex": 16, "score": 25, "costs": -2, "simulationMode": [null, null, null], "rewards": [2, -4, 24], "path": ["0", "0", "5", "6", "8"], "rt": [7600, 191, 753], "actions": ["right", "right", "down"], "actionTimes": [8339, 9028, 10274], "queries": {"click": {"state": {"target": ["12", "8", "7", "11", "4", "3", "6", "5"], "time": [1521, 2391, 2878, 3643, 4049, 4506, 7559, 8009]}, "edge": {"target": [], "time": []}}, "mouseover": {"state": {"target": ["0", "12", "8", "8", "6", "7", "1", "11", "4", "2", "3", "6", "6", "5"], "time": [1029, 1412, 1846, 2113, 2630, 2730, 3131, 3498, 3898, 4248, 4415, 5200, 6904, 7685]}, "edge": {"target": [], "time": []}}, "mouseout": {"state": {"target": ["0", "0", "12", "8", "8", "6", "7", "1", "11", "4", "2", "3", "6", "6", "5", "9"], "time": [661, 1112, 1763, 1879, 2597, 2665, 3064, 3147, 3798, 4198, 4332, 4766, 6664, 7669, 8152, 10488]}, "edge": {"target": [], "time": []}}}, "displayed_time": "10.77", "trialTime": 11473, "trial_type": "mouselab-mdp", "trial_index": 23, "time_elapsed": 565178, "internal_node_id": "0.0-4.0-1.0-14.0"}}, {"uniqueid": "w97167656:a78252280", "current_trial": 24, "dateTime": 1664555712435, "trialdata": {"revealed_states": [], "num_clicks_accrued": [0, 0, 0, 0, 0, 0, 0, 0, 0, 0, 0, 0, 0], "stateRewards": ["", -2, 4, -24, 48, 4, -8, 48, -48, 2, -8, 48, 24], "withholdReward": false, "trial_id": "mdp_501111216502", "block": "test1", "trialIndex": 17, "score": 52, "costs": -3, "simulationMode": [null, null, null], "rewards": [-2, 4, 48], "path": ["0", "0", "1", "2", "4"], "rt": [9037, 114, 13], "actions": ["up", "up", "left"], "actionTimes": [9572, 10185, 10684], "queries": {"click": {"state": {"target": ["12", "11", "4", "3", "7", "8", "10", "9", "2", "1", "5", "6"], "time": [1049, 1499, 1889, 2324, 2849, 3307, 4237, 4604, 5331, 5713, 7649, 8136]}, "edge": {"target": [], "time": []}}, "mouseover": {"state": {"target": ["9", "12", "10", "11", "4", "2", "3", "7", "6", "8", "0", "9", "10", "9", "1", "2", "1", "5", "6"], "time": [762, 895, 1162, 1262, 1712, 2062, 2162, 2680, 2997, 3047, 3798, 3931, 4098, 4415, 5015, 5166, 5583, 6534, 8035]}, "edge": {"target": [], "time": []}}, "mouseout": {"state": {"target": ["0", "9", "12", "10", "11", "4", "2", "3", "7", "6", "8", "0", "9", "10", "9", "1", "2", "1", "5", "6", "5"], "time": [744, 778, 1145, 1212, 1645, 2029, 2113, 2480, 2980, 3013, 3697, 3848, 3998, 4381, 4899, 5032, 5466, 5933, 7818, 8335, 11288]}, "edge": {"target": [], "time": []}}}, "displayed_time": "11.19", "trialTime": 12862, "trial_type": "mouselab-mdp", "trial_index": 24, "time_elapsed": 578080, "internal_node_id": "0.0-4.0-1.0-15.0"}}, {"uniqueid": "w97167656:a78252280", "current_trial": 25, "dateTime": 1664555723215, "trialdata": {"revealed_states": [], "num_clicks_accrued": [0, 0, 0, 0, 0, 0, 0, 0, 0, 0, 0, 0, 0], "stateRewards": ["", -4, -4, -48, -24, 2, 8, 24, -48, 4, 4, 48, 48], "withholdReward": true, "trial_id": "mdp_693501840209", "block": "test1", "trialIndex": 18, "score": 59, "costs": -2, "simulationMode": [null, null, null], "rewards": [4, 4, 48], "path": ["0", "0", "9", "10", "12"], "rt": [6786, 64, 54], "actions": ["left", "left", "down"], "actionTimes": [7718, 8295, 8852], "queries": {"click": {"state": {"target": ["12", "11", "10", "9", "7", "8", "3", "4"], "time": [1896, 2428, 2833, 3208, 5796, 6283, 6943, 7356]}, "edge": {"target": [], "time": []}}, "mouseover": {"state": {"target": ["12", "10", "11", "10", "9", "0", "5", "7", "6", "8", "5", "3", "2", "4"], "time": [1591, 2108, 2241, 2675, 3042, 4977, 5127, 5661, 5962, 6128, 6545, 6796, 7096, 7263]}, "edge": {"target": [], "time": []}}, "mouseout": {"state": {"target": ["0", "12", "10", "11", "10", "9", "0", "5", "7", "6", "8", "5", "3", "2", "4", "0"], "time": [1457, 2074, 2158, 2608, 3009, 4343, 5077, 5211, 5928, 6062, 6495, 6596, 7063, 7196, 7597, 9416]}, "edge": {"target": [], "time": []}}}, "displayed_time": "9.93", "trialTime": 10741, "trial_type": "mouselab-mdp", "trial_index": 25, "time_elapsed": 588859, "internal_node_id": "0.0-4.0-1.0-16.0"}}, {"uniqueid": "w97167656:a78252280", "current_trial": 26, "dateTime": 1664555734338, "trialdata": {"revealed_states": [], "num_clicks_accrued": [0, 0, 0, 0, 0, 0, 0, 0, 0, 0, 0, 0, 0], "stateRewards": ["", 4, -8, -48, 24, 4, 4, -24, -24, 2, 4, -48, 24], "withholdReward": true, "trial_id": "mdp_626971397185", "block": "test1", "trialIndex": 19, "score": 32.5, "costs": -2.5, "simulationMode": [null, null, null], "rewards": [2, 4, 24], "path": ["0", "0", "9", "10", "12"], "rt": [7100, 411, 49], "actions": ["left", "left", "down"], "actionTimes": [8330, 9241, 9796], "queries": {"click": {"state": {"target": ["12", "8", "7", "11", "4", "3", "10", "9", "2", "1"], "time": [1991, 2696, 3244, 3770, 4962, 5606, 6611, 7032, 7744, 8082]}, "edge": {"target": [], "time": []}}, "mouseover": {"state": {"target": ["9", "12", "8", "6", "7", "1", "11", "10", "4", "2", "3", "3", "1", "9", "10", "9", "1", "2", "1"], "time": [1722, 1889, 2606, 2923, 3090, 3407, 3641, 4225, 4713, 5142, 5192, 5543, 6093, 6260, 6444, 6844, 7294, 7595, 7945]}, "edge": {"target": [], "time": []}}, "mouseout": {"state": {"target": ["0", "9", "12", "8", "6", "7", "1", "11", "10", "4", "2", "3", "3", "1", "9", "10", "9", "1", "2", "1", "0"], "time": [1672, 1772, 2306, 2890, 2973, 3340, 3474, 4008, 4341, 5076, 5176, 5276, 5743, 6177, 6393, 6761, 7228, 7428, 7878, 8696, 9146]}, "edge": {"target": [], "time": []}}}, "displayed_time": "10.30", "trialTime": 11085, "trial_type": "mouselab-mdp", "trial_index": 26, "time_elapsed": 599983, "internal_node_id": "0.0-4.0-1.0-17.0"}}, {"uniqueid": "w97167656:a78252280", "current_trial": 27, "dateTime": 1664555744474, "trialdata": {"revealed_states": [], "num_clicks_accrued": [0, 0, 0, 0, 0, 0, 0, 0, 0, 0, 0, 0, 0], "stateRewards": ["", -4, -4, -24, -48, -4, 8, -24, -48, 4, -8, 24, -24], "withholdReward": false, "trial_id": "mdp_924927483179", "block": "test1", "trialIndex": 20, "score": 23, "costs": -2, "simulationMode": [null, null, null], "rewards": [4, -8, 24], "path": ["0", "0", "9", "10", "11"], "rt": [5782, 48, 32], "actions": ["left", "left", "up"], "actionTimes": [6541, 7098, 7630], "queries": {"click": {"state": {"target": ["12", "8", "7", "11", "4", "3", "9", "10"], "time": [1577, 2253, 2703, 3303, 3760, 4188, 6055, 6340]}, "edge": {"target": [], "time": []}}, "mouseover": {"state": {"target": ["0", "9", "12", "8", "6", "7", "1", "11", "4", "2", "3", "1", "9", "10"], "time": [1104, 1209, 1292, 2176, 2443, 2560, 2944, 3177, 3544, 3928, 4078, 4629, 5697, 6197]}, "edge": {"target": [], "time": []}}, "mouseout": {"state": {"target": ["0", "0", "9", "12", "8", "6", "7", "1", "11", "4", "2", "3", "1", "9", "10", "9"], "time": [691, 1192, 1225, 1809, 2410, 2493, 2877, 2994, 3461, 3895, 3995, 4395, 4679, 6164, 6548, 7048]}, "edge": {"target": [], "time": []}}}, "displayed_time": "9.76", "trialTime": 10097, "trial_type": "mouselab-mdp", "trial_index": 27, "time_elapsed": 610119, "internal_node_id": "0.0-4.0-1.0-18.0"}}, {"uniqueid": "w97167656:a78252280", "current_trial": 28, "dateTime": 1664555758148, "trialdata": {"revealed_states": [], "num_clicks_accrued": [0, 0, 0, 0, 0, 0, 0, 0, 0, 0, 0, 0, 0], "stateRewards": ["", 4, 8, 48, -48, -4, 8, -24, -24, -4, 8, 48, 48], "withholdReward": true, "trial_id": "mdp_377640328420", "block": "test1", "trialIndex": 21, "score": 62.5, "costs": -2.5, "simulationMode": [null, null, null], "rewards": [4, 8, 48], "path": ["0", "0", "1", "2", "3"], "rt": [9925, 57, 452], "actions": ["up", "up", "right"], "actionTimes": [10845, 11400, 12346], "queries": {"click": {"state": {"target": ["12", "10", "9", "11", "7", "8", "3", "4", "2", "1"], "time": [1671, 2677, 3037, 5295, 7057, 7890, 8459, 8910, 9367, 9772]}, "edge": {"target": [], "time": []}}, "mouseover": {"state": {"target": ["12", "0", "5", "7", "10", "9", "1", "3", "7", "11", "5", "7", "6", "8", "6", "3", "2", "4", "2", "1"], "time": [1550, 1934, 2034, 2134, 2517, 2885, 3835, 3969, 4370, 5153, 6271, 6888, 7623, 7806, 8090, 8325, 8590, 8724, 9224, 9591]}, "edge": {"target": [], "time": []}}, "mouseout": {"state": {"target": ["0", "12", "0", "5", "7", "10", "9", "1", "3", "7", "11", "5", "7", "6", "8", "6", "3", "2", "4", "2", "1"], "time": [1266, 1817, 1967, 2067, 2284, 2818, 3568, 3869, 4052, 4820, 5771, 6688, 7506, 7723, 8040, 8140, 8557, 8624, 9174, 9474, 9942]}, "edge": {"target": [], "time": []}}}, "displayed_time": "12.85", "trialTime": 13635, "trial_type": "mouselab-mdp", "trial_index": 28, "time_elapsed": 623793, "internal_node_id": "0.0-4.0-1.0-19.0"}}, {"uniqueid": "w97167656:a78252280", "current_trial": 29, "dateTime": 1664555768142, "trialdata": {"revealed_states": [], "num_clicks_accrued": [0, 0, 0, 0, 0, 0, 0, 0, 0, 0, 0, 0, 0], "stateRewards": ["", -4, 8, 24, 24, 2, 4, -48, 24, -2, -4, -24, -24], "withholdReward": true, "trial_id": "mdp_752328329546", "block": "test1", "trialIndex": 22, "score": 32.75, "costs": -2.25, "simulationMode": [null, null, null], "rewards": [2, 4, 24], "path": ["0", "0", "5", "6", "8"], "rt": [5579, 41, 91], "actions": ["right", "right", "down"], "actionTimes": [6144, 6688, 7287], "queries": {"click": {"state": {"target": ["12", "11", "4", "3", "7", "8", "6", "5", "1"], "time": [1424, 1844, 2242, 2744, 3187, 3682, 4559, 4941, 5459]}, "edge": {"target": [], "time": []}}, "mouseover": {"state": {"target": ["12", "10", "11", "4", "2", "3", "7", "6", "8", "6", "5", "1", "2"], "time": [1274, 1607, 1691, 2091, 2408, 2608, 3025, 3342, 3542, 4343, 4794, 5278, 5613]}, "edge": {"target": [], "time": []}}, "mouseout": {"state": {"target": ["0", "12", "10", "11", "4", "2", "3", "7", "6", "8", "6", "5", "1", "2", "1", "0"], "time": [940, 1574, 1641, 2008, 2391, 2491, 2925, 3309, 3442, 3926, 4710, 5228, 5561, 5845, 6028, 8130]}, "edge": {"target": [], "time": []}}}, "displayed_time": "9.57", "trialTime": 9956, "trial_type": "mouselab-mdp", "trial_index": 29, "time_elapsed": 633787, "internal_node_id": "0.0-4.0-1.0-20.0"}}, {"uniqueid": "w97167656:a78252280", "current_trial": 30, "dateTime": 1664555779801, "trialdata": {"revealed_states": [], "num_clicks_accrued": [0, 0, 0, 0, 0, 0, 0, 0, 0, 0, 0, 0, 0], "stateRewards": ["", -2, -4, -48, -48, -2, -8, 48, -48, 4, -8, -48, 24], "withholdReward": true, "trial_id": "mdp_468495641521", "block": "test1", "trialIndex": 23, "score": 41, "costs": -2, "simulationMode": [null, null, null], "rewards": [-2, -8, 48], "path": ["0", "0", "5", "6", "7"], "rt": [8182, 62, 1], "actions": ["right", "right", "up"], "actionTimes": [8863, 9441, 9931], "queries": {"click": {"state": {"target": ["8", "12", "11", "7", "5", "6", "3", "4"], "time": [2281, 2933, 3653, 4268, 6939, 7373, 7950, 8460]}, "edge": {"target": [], "time": []}}, "mouseover": {"state": {"target": ["5", "6", "8", "12", "10", "11", "1", "7", "5", "6", "3", "2", "4"], "time": [1087, 1955, 2189, 2822, 3273, 3473, 3974, 4057, 6359, 7210, 7777, 8178, 8345]}, "edge": {"target": [], "time": []}}, "mouseout": {"state": {"target": ["0", "5", "6", "8", "12", "10", "11", "1", "7", "5", "6", "3", "2", "4"], "time": [1004, 1922, 2055, 2422, 3239, 3323, 3907, 3990, 4991, 7127, 7594, 8128, 8261, 8728]}, "edge": {"target": [], "time": []}}}, "displayed_time": "10.45", "trialTime": 11619, "trial_type": "mouselab-mdp", "trial_index": 30, "time_elapsed": 645446, "internal_node_id": "0.0-4.0-1.0-21.0"}}, {"uniqueid": "w97167656:a78252280", "current_trial": 31, "dateTime": 1664555791128, "trialdata": {"revealed_states": [], "num_clicks_accrued": [0, 0, 0, 0, 0, 0, 0, 0, 0, 0, 0, 0, 0], "stateRewards": ["", -2, -4, -48, 48, -4, 4, -48, 24, -4, -8, 24, 48], "withholdReward": true, "trial_id": "mdp_264482284450", "block": "test1", "trialIndex": 24, "score": 45, "costs": -2, "simulationMode": [null, null, null], "rewards": [-2, -4, 48], "path": ["0", "0", "1", "2", "4"], "rt": [6752, 99, 1], "actions": ["up", "up", "left"], "actionTimes": [7524, 8134, 8637], "queries": {"click": {"state": {"target": ["11", "4", "2", "1", "7", "8", "12", "10"], "time": [1337, 2154, 2927, 3684, 4164, 4742, 5582, 6482]}, "edge": {"target": [], "time": []}}, "mouseover": {"state": {"target": ["11", "1", "2", "4", "2", "1", "2", "1", "7", "6", "8", "12", "10", "9"], "time": [1212, 1712, 1846, 1996, 2463, 2625, 2780, 3230, 3981, 4448, 4582, 5383, 6267, 6834]}, "edge": {"target": [], "time": []}}, "mouseout": {"state": {"target": ["0", "11", "1", "2", "4", "2", "1", "2", "1", "7", "6", "8", "12", "10", "9", "0"], "time": [1012, 1646, 1746, 1946, 2413, 2496, 2663, 3114, 3881, 4382, 4515, 4949, 6167, 6767, 7284, 9361]}, "edge": {"target": [], "time": []}}}, "displayed_time": "9.77", "trialTime": 11292, "trial_type": "mouselab-mdp", "trial_index": 31, "time_elapsed": 656773, "internal_node_id": "0.0-4.0-1.0-22.0"}}, {"uniqueid": "w97167656:a78252280", "current_trial": 32, "dateTime": 1664555811976, "trialdata": {"revealed_states": [], "num_clicks_accrued": [0, 0, 0, 0, 0, 0, 0, 0, 0, 0, 0, 0, 0], "stateRewards": ["", -4, 8, 24, -48, -4, -8, -24, 24, 2, -4, -48, 24], "withholdReward": true, "trial_id": "mdp_898449441629", "block": "test1", "trialIndex": 25, "score": 30.25, "costs": -2.75, "simulationMode": [null, null, null], "rewards": [-4, 8, 24], "path": ["0", "0", "1", "2", "3"], "rt": [17253, 88, 349], "actions": ["up", "up", "right"], "actionTimes": [18086, 18664, 19509], "queries": {"click": {"state": {"target": ["12", "11", "3", "7", "8", "4", "1", "6", "9", "10", "2"], "time": [1534, 2022, 2786, 3379, 3821, 4338, 6581, 7608, 10623, 11156, 17426]}, "edge": {"target": [], "time": []}}, "mouseover": {"state": {"target": ["0", "9", "12", "10", "11", "2", "3", "7", "6", "8", "1", "4", "9", "5", "1", "5", "6", "5", "9", "10", "2", "0", "2"], "time": [1159, 1242, 1425, 1726, 1893, 2577, 2643, 3261, 3611, 3678, 4078, 4212, 5029, 5647, 6381, 6864, 7365, 7982, 10284, 10968, 15189, 16991, 17225]}, "edge": {"target": [], "time": []}}, "mouseout": {"state": {"target": ["0", "0", "9", "12", "10", "11", "2", "3", "7", "6", "8", "1", "4", "9", "5", "1", "5", "6", "5", "9", "10", "1", "2", "1", "0", "1", "2", "1", "0"], "time": [758, 1192, 1292, 1676, 1793, 2226, 2627, 3094, 3561, 3644, 3961, 4112, 4679, 5379, 6314, 6781, 7164, 7915, 8566, 10835, 11586, 15089, 15606, 15823, 17024, 17141, 17658, 17825, 20445]}, "edge": {"target": [], "time": []}}}, "displayed_time": "20.01", "trialTime": 20809, "trial_type": "mouselab-mdp", "trial_index": 32, "time_elapsed": 677621, "internal_node_id": "0.0-4.0-1.0-23.0"}}, {"uniqueid": "w97167656:a78252280", "current_trial": 33, "dateTime": 1664555825690, "trialdata": {"revealed_states": [], "num_clicks_accrued": [0, 0, 0, 0, 0, 0, 0, 0, 0, 0, 0, 0, 0], "stateRewards": ["", 4, 8, -48, 24, -2, 8, -48, -48, -4, 4, 48, -48], "withholdReward": false, "trial_id": "mdp_693807815190", "block": "test1", "trialIndex": 26, "score": 52, "costs": -1, "simulationMode": [null, null, null], "rewards": [-4, 4, 48], "path": ["0", "0", "9", "10", "11"], "rt": [6847, 618, 335], "actions": ["left", "left", "up"], "actionTimes": [7560, 8671, 9505], "queries": {"click": {"state": {"target": ["12", "11", "4", "10"], "time": [2868, 3670, 5245, 5920]}, "edge": {"target": [], "time": []}}, "mouseover": {"state": {"target": ["12", "10", "11", "4", "10", "9"], "time": [1512, 3447, 3564, 4215, 5733, 6517]}, "edge": {"target": [], "time": []}}, "mouseout": {"state": {"target": ["0", "12", "10", "11", "4", "10", "9", "0", "5", "5"], "time": [1362, 3414, 3497, 3981, 5650, 6384, 8119, 8202, 8320, 10554]}, "edge": {"target": [], "time": []}}}, "displayed_time": "10.71", "trialTime": 13672, "trial_type": "mouselab-mdp", "trial_index": 33, "time_elapsed": 691335, "internal_node_id": "0.0-4.0-1.0-24.0"}}, {"uniqueid": "w97167656:a78252280", "current_trial": 34, "dateTime": 1664555838696, "trialdata": {"revealed_states": [], "num_clicks_accrued": [0, 0, 0, 0, 0, 0, 0, 0, 0, 0, 0, 0, 0], "stateRewards": ["", -4, -4, -24, -24, -2, 4, 48, -24, -2, -4, -24, 48], "withholdReward": true, "trial_id": "mdp_855903341564", "block": "test1", "trialIndex": 27, "score": 53.25, "costs": -1.75, "simulationMode": [null, null, null], "rewards": [-2, 4, 48], "path": ["0", "0", "5", "6", "7"], "rt": [8988, 103, 325], "actions": ["right", "right", "up"], "actionTimes": [10076, 10677, 11500], "queries": {"click": {"state": {"target": ["12", "10", "3", "4", "7", "5", "6"], "time": [1780, 2784, 4113, 4652, 6085, 7097, 7915]}, "edge": {"target": [], "time": []}}, "mouseover": {"state": {"target": ["0", "9", "12", "10", "11", "10", "9", "1", "2", "3", "2", "4", "1", "7", "6", "5", "6", "0", "9"], "time": [1448, 1498, 1682, 2015, 2115, 2516, 3133, 3383, 3483, 3617, 4335, 4451, 4918, 4985, 6586, 6903, 7488, 8355, 8505]}, "edge": {"target": [], "time": []}}, "mouseout": {"state": {"target": ["0", "0", "9", "12", "10", "11", "10", "9", "1", "2", "3", "2", "4", "1", "7", "6", "5", "6", "5", "0", "9"], "time": [1031, 1465, 1531, 1982, 2065, 2432, 2983, 3300, 3433, 3500, 4284, 4418, 4818, 4935, 6503, 6820, 7371, 8255, 8338, 8422, 12409]}, "edge": {"target": [], "time": []}}}, "displayed_time": "11.99", "trialTime": 12967, "trial_type": "mouselab-mdp", "trial_index": 34, "time_elapsed": 704341, "internal_node_id": "0.0-4.0-1.0-25.0"}}, {"uniqueid": "w97167656:a78252280", "current_trial": 35, "dateTime": 1664555849634, "trialdata": {"revealed_states": [], "num_clicks_accrued": [0, 0, 0, 0, 0, 0, 0, 0, 0, 0, 0, 0, 0], "stateRewards": ["", 4, -8, 24, 48, 2, 4, 48, 48, 2, 8, -48, -48], "withholdReward": true, "trial_id": "mdp_783704746330", "block": "test1", "trialIndex": 28, "score": 57, "costs": -2, "simulationMode": [null, null, null], "rewards": [2, 4, 48], "path": ["0", "0", "5", "6", "7"], "rt": [7425, 85, 57], "actions": ["right", "right", "up"], "actionTimes": [8327, 8928, 9483], "queries": {"click": {"state": {"target": ["12", "11", "4", "7", "5", "1", "2", "6"], "time": [1828, 2794, 3177, 4287, 5292, 6079, 7273, 7902]}, "edge": {"target": [], "time": []}}, "mouseover": {"state": {"target": ["9", "12", "10", "11", "11", "4", "2", "3", "7", "6", "6", "5", "6", "1", "2", "6"], "time": [1384, 1685, 2118, 2235, 2769, 3086, 3386, 3636, 4220, 4571, 5021, 5205, 5488, 5922, 6606, 7790]}, "edge": {"target": [], "time": []}}, "mouseout": {"state": {"target": ["0", "9", "12", "10", "11", "11", "4", "2", "3", "7", "6", "6", "5", "6", "1", "2", "6", "5"], "time": [1334, 1451, 2085, 2185, 2402, 2969, 3353, 3486, 4054, 4504, 4687, 5121, 5455, 5705, 6439, 7457, 8091, 10276]}, "edge": {"target": [], "time": []}}}, "displayed_time": "9.99", "trialTime": 10895, "trial_type": "mouselab-mdp", "trial_index": 35, "time_elapsed": 715279, "internal_node_id": "0.0-4.0-1.0-26.0"}}, {"uniqueid": "w97167656:a78252280", "current_trial": 36, "dateTime": 1664555861920, "trialdata": {"revealed_states": [], "num_clicks_accrued": [0, 0, 0, 0, 0, 0, 0, 0, 0, 0, 0, 0, 0], "stateRewards": ["", -2, -8, -48, 24, 2, -4, -48, 48, 2, 4, 24, -24], "withholdReward": true, "trial_id": "mdp_849341543762", "block": "test1", "trialIndex": 29, "score": 49, "costs": -2, "simulationMode": [null, null, null], "rewards": [2, -4, 48], "path": ["0", "0", "5", "6", "8"], "rt": [9260, 80, 342], "actions": ["right", "right", "down"], "actionTimes": [9921, 10498, 11343], "queries": {"click": {"state": {"target": ["12", "4", "7", "8", "6", "5", "3", "11"], "time": [1338, 2103, 4893, 5635, 6866, 7308, 8591, 9295]}, "edge": {"target": [], "time": []}}, "mouseover": {"state": {"target": ["12", "4", "3", "7", "6", "8", "8", "9", "9", "0", "5", "6", "5", "1", "2", "3", "11", "9"], "time": [1241, 1842, 2576, 4244, 5162, 5228, 5562, 5879, 6196, 6413, 6496, 6747, 7080, 7664, 8232, 8398, 8932, 9683]}, "edge": {"target": [], "time": []}}, "mouseout": {"state": {"target": ["0", "12", "4", "3", "7", "6", "8", "8", "9", "9", "0", "5", "6", "5", "1", "2", "3", "11", "9"], "time": [1008, 1642, 2342, 4194, 5112, 5212, 5295, 5779, 5963, 6213, 6446, 6647, 7014, 7564, 7815, 8298, 8782, 9566, 9700]}, "edge": {"target": [], "time": []}}}, "displayed_time": "11.84", "trialTime": 12244, "trial_type": "mouselab-mdp", "trial_index": 36, "time_elapsed": 727565, "internal_node_id": "0.0-4.0-1.0-27.0"}}, {"uniqueid": "w97167656:a78252280", "current_trial": 37, "dateTime": 1664555872952, "trialdata": {"revealed_states": [], "num_clicks_accrued": [0, 0, 0, 0, 0, 0, 0, 0, 0, 0, 0, 0, 0], "stateRewards": ["", 2, -8, -24, -48, -2, -4, 48, 48, 4, 8, 48, 48], "withholdReward": true, "trial_id": "mdp_347285045422", "block": "test1", "trialIndex": 30, "score": 63.25, "costs": -1.75, "simulationMode": [null, null, null], "rewards": [4, 8, 48], "path": ["0", "0", "9", "10", "12"], "rt": [7828, 163, 90], "actions": ["left", "left", "down"], "actionTimes": [8298, 8954, 9532], "queries": {"click": {"state": {"target": ["12", "4", "3", "7", "5", "10", "6"], "time": [1276, 2251, 3766, 4411, 5341, 6069, 7606]}, "edge": {"target": [], "time": []}}, "mouseover": {"state": {"target": ["9", "12", "4", "2", "3", "7", "3", "7", "6", "6", "5", "9", "10", "9", "0", "6", "0"], "time": [866, 1150, 2034, 2534, 2684, 3135, 3552, 4086, 4720, 4987, 5104, 5704, 5904, 6288, 7256, 7456, 7956]}, "edge": {"target": [], "time": []}}, "mouseout": {"state": {"target": ["0", "9", "12", "4", "2", "3", "7", "3", "7", "6", "6", "5", "9", "10", "9", "0", "5", "6", "5", "0"], "time": [833, 983, 1617, 2518, 2601, 2885, 3402, 4053, 4636, 4803, 5054, 5471, 5788, 6238, 7222, 7289, 7389, 7823, 7940, 10225]}, "edge": {"target": [], "time": []}}}, "displayed_time": "10.03", "trialTime": 10989, "trial_type": "mouselab-mdp", "trial_index": 37, "time_elapsed": 738597, "internal_node_id": "0.0-4.0-1.0-28.0"}}, {"uniqueid": "w97167656:a78252280", "current_trial": 38, "dateTime": 1664555887607, "trialdata": {"revealed_states": [], "num_clicks_accrued": [0, 0, 0, 0, 0, 0, 0, 0, 0, 0, 0, 0, 0], "stateRewards": ["", 2, 4, -48, -48, 2, 4, 48, -24, -2, 8, 48, -48], "withholdReward": false, "trial_id": "mdp_258528916140", "block": "test1", "trialIndex": 31, "score": 56.75, "costs": -2.25, "simulationMode": [null, null, null], "rewards": [2, 4, 48], "path": ["0", "0", "5", "6", "7"], "rt": [10705, 242, 442], "actions": ["right", "right", "up"], "actionTimes": [11455, 12200, 13134], "queries": {"click": {"state": {"target": ["12", "11", "7", "3", "4", "10", "6", "5", "9"], "time": [1488, 1960, 3325, 5155, 5620, 6678, 7286, 7937, 8560]}, "edge": {"target": [], "time": []}}, "mouseover": {"state": {"target": ["12", "11", "4", "1", "7", "6", "8", "5", "3", "2", "4", "1", "9", "10", "9", "0", "5", "6", "5", "0", "9", "0", "0"], "time": [1347, 1830, 2214, 2865, 3198, 3666, 3782, 4133, 4366, 5418, 5468, 5968, 6335, 6552, 6852, 6902, 6969, 7169, 7620, 8220, 8370, 10305, 11423]}, "edge": {"target": [], "time": []}}, "mouseout": {"state": {"target": ["0", "12", "11", "4", "1", "7", "6", "8", "5", "3", "2", "4", "1", "9", "10", "9", "0", "5", "6", "5", "0", "9", "5", "5", "0", "9", "10", "9", "0"], "time": [1213, 1697, 2131, 2631, 2898, 3616, 3766, 4066, 4150, 5417, 5451, 5901, 6035, 6452, 6819, 6886, 6935, 7069, 7453, 8170, 8287, 9488, 10055, 10239, 10439, 10622, 11156, 11306, 14026]}, "edge": {"target": [], "time": []}}}, "displayed_time": "13.63", "trialTime": 14613, "trial_type": "mouselab-mdp", "trial_index": 38, "time_elapsed": 753252, "internal_node_id": "0.0-4.0-1.0-29.0"}}, {"uniqueid": "w97167656:a78252280", "current_trial": 39, "dateTime": 1664555901026, "trialdata": {"rt": 13416, "stimulus": "<h1> End of block! </h1>\n\nYou have reached the end of the block 1/4. If you need a short break, feel free to take one now before moving on.\n\n<br><br>\nIn the next block, you will complete another 30 rounds of this game.\n\n<br><br>\n<div style='text-align: center;'>Press <code>space</code> to begin.</div>\n<br><br>\n<div style='text-align: center;'>(If the experiment doesn't continue, try clicking on the text and then pressing <code>space</code>.)</div>", "response": " ", "trial_id": "mdp_ready_2", "trial_type": "html-keyboard-response", "trial_index": 39, "time_elapsed": 766671, "internal_node_id": "0.0-4.0-2.0"}}, {"uniqueid": "w97167656:a78252280", "current_trial": 40, "dateTime": 1664555912955, "trialdata": {"revealed_states": [], "num_clicks_accrued": [0, 0, 0, 0, 0, 0, 0, 0, 0, 0, 0, 0, 0], "stateRewards": ["", 2, -4, 48, -48, -4, -8, -48, 24, -4, 4, 48, 48], "withholdReward": true, "trial_id": "mdp_544803968425", "block": "test2", "trialIndex": 32, "score": 50.75, "costs": -2.25, "simulationMode": [null, null, null], "rewards": [-4, 4, 48], "path": ["0", "0", "9", "10", "12"], "rt": [8588, 87, 437], "actions": ["left", "left", "down"], "actionTimes": [9429, 10030, 10964], "queries": {"click": {"state": {"target": ["12", "4", "7", "8", "3", "1", "10", "9", "2"], "time": [1817, 2784, 3579, 4584, 5199, 6174, 6745, 7307, 7854]}, "edge": {"target": [], "time": []}}, "mouseover": {"state": {"target": ["12", "10", "11", "11", "4", "7", "6", "5", "0", "9", "0", "8", "3", "1", "2", "1", "9", "10", "9", "2"], "time": [1684, 1985, 2035, 2335, 2585, 3469, 3886, 3937, 3987, 4120, 4220, 4437, 5104, 5521, 5738, 6089, 6373, 6606, 6973, 7740]}, "edge": {"target": [], "time": []}}, "mouseout": {"state": {"target": ["0", "12", "10", "11", "11", "4", "7", "6", "5", "0", "9", "0", "8", "3", "1", "2", "1", "9", "10", "9", "1", "2", "1"], "time": [1501, 1951, 2018, 2235, 2502, 3119, 3820, 3903, 3953, 4037, 4203, 4254, 4787, 5371, 5705, 6005, 6339, 6456, 6906, 7507, 7674, 7991, 8041]}, "edge": {"target": [], "time": []}}}, "displayed_time": "11.46", "trialTime": 11887, "trial_type": "mouselab-mdp", "trial_index": 40, "time_elapsed": 778600, "internal_node_id": "0.0-4.0-3.0-0.0"}}, {"uniqueid": "w97167656:a78252280", "current_trial": 41, "dateTime": 1664555926385, "trialdata": {"revealed_states": [], "num_clicks_accrued": [0, 0, 0, 0, 0, 0, 0, 0, 0, 0, 0, 0, 0], "stateRewards": ["", 4, -8, -48, -24, 2, -8, -48, 48, -4, 8, 48, -48], "withholdReward": false, "trial_id": "mdp_605757196263", "block": "test2", "trialIndex": 33, "score": 54.5, "costs": -2.5, "simulationMode": [null, null, null], "rewards": [-4, 8, 48], "path": ["0", "0", "9", "10", "11"], "rt": [9977, 65, 303], "actions": ["left", "left", "up"], "actionTimes": [10672, 11238, 12027], "queries": {"click": {"state": {"target": ["12", "4", "7", "8", "11", "3", "9", "5", "6", "10"], "time": [1179, 1621, 2536, 3031, 3931, 4689, 6241, 7126, 7599, 8296]}, "edge": {"target": [], "time": []}}, "mouseover": {"state": {"target": ["12", "9", "4", "2", "3", "7", "6", "8", "0", "11", "1", "3", "3", "9", "0", "5", "5", "5", "6", "10"], "time": [1012, 1379, 1480, 1830, 1913, 2481, 2764, 2864, 3281, 3832, 4283, 4470, 4583, 6134, 6401, 6435, 6735, 6852, 7436, 8186]}, "edge": {"target": [], "time": []}}, "mouseout": {"state": {"target": ["0", "12", "9", "4", "2", "3", "7", "6", "8", "0", "11", "1", "3", "3", "9", "0", "5", "5", "5", "6", "5", "10"], "time": [862, 1329, 1413, 1763, 1880, 2297, 2715, 2814, 3215, 3315, 4166, 4299, 4483, 5033, 6385, 6435, 6551, 6785, 7386, 7719, 7786, 8487]}, "edge": {"target": [], "time": []}}}, "displayed_time": "12.52", "trialTime": 13384, "trial_type": "mouselab-mdp", "trial_index": 41, "time_elapsed": 792030, "internal_node_id": "0.0-4.0-3.0-1.0"}}, {"uniqueid": "w97167656:a78252280", "current_trial": 42, "dateTime": 1664555935412, "trialdata": {"revealed_states": [], "num_clicks_accrued": [0, 0, 0, 0, 0, 0, 0, 0, 0, 0, 0, 0, 0], "stateRewards": ["", -2, 8, 24, -48, -2, -4, 24, 48, 2, 8, -48, -48], "withholdReward": true, "trial_id": "mdp_562228697607", "block": "test2", "trialIndex": 34, "score": 45.5, "costs": -1.5, "simulationMode": [null, null, null], "rewards": [-2, -4, 48], "path": ["0", "0", "5", "6", "8"], "rt": [6479, 88, 72], "actions": ["right", "right", "down"], "actionTimes": [6985, 7563, 8130], "queries": {"click": {"state": {"target": ["12", "7", "11", "8", "3", "4"], "time": [1418, 2064, 3121, 3909, 5049, 5559]}, "edge": {"target": [], "time": []}}, "mouseover": {"state": {"target": ["12", "9", "1", "7", "1", "11", "9", "0", "8", "3", "3", "2", "4", "1", "5", "6"], "time": [1335, 1651, 1735, 1985, 2269, 2402, 3437, 3470, 3804, 4404, 4838, 5222, 5389, 5872, 5956, 6457]}, "edge": {"target": [], "time": []}}, "mouseout": {"state": {"target": ["0", "12", "9", "1", "7", "1", "11", "9", "0", "8", "3", "3", "2", "4", "1", "5", "6", "8"], "time": [1034, 1601, 1685, 1752, 2219, 2286, 3403, 3453, 3487, 4221, 4688, 5205, 5322, 5772, 5906, 6406, 6490, 8809]}, "edge": {"target": [], "time": []}}}, "displayed_time": "8.63", "trialTime": 8986, "trial_type": "mouselab-mdp", "trial_index": 42, "time_elapsed": 801057, "internal_node_id": "0.0-4.0-3.0-2.0"}}, {"uniqueid": "w97167656:a78252280", "current_trial": 43, "dateTime": 1664555945665, "trialdata": {"revealed_states": [], "num_clicks_accrued": [0, 0, 0, 0, 0, 0, 0, 0, 0, 0, 0, 0, 0], "stateRewards": ["", -2, -4, 48, -24, -4, -4, -24, -24, -2, 4, -48, -24], "withholdReward": true, "trial_id": "mdp_410467837196", "block": "test2", "trialIndex": 35, "score": 45.5, "costs": -1.5, "simulationMode": [null, null, null], "rewards": [-2, -4, 48], "path": ["0", "0", "1", "2", "3"], "rt": [4932, 131, 391], "actions": ["up", "up", "right"], "actionTimes": [5525, 6148, 7026], "queries": {"click": {"state": {"target": ["12", "4", "7", "8", "11", "3"], "time": [1402, 2190, 2827, 3525, 4177, 4830]}, "edge": {"target": [], "time": []}}, "mouseover": {"state": {"target": ["12", "10", "11", "4", "1", "7", "6", "8", "0", "9", "11", "1", "3"], "time": [1111, 1795, 1929, 2062, 2446, 2730, 3113, 3380, 3797, 3881, 4081, 4465, 4732]}, "edge": {"target": [], "time": []}}, "mouseout": {"state": {"target": ["0", "12", "10", "11", "4", "1", "7", "6", "8", "0", "9", "11", "1", "3"], "time": [811, 1762, 1862, 1979, 2413, 2463, 3063, 3197, 3680, 3831, 3914, 4365, 4581, 5032]}, "edge": {"target": [], "time": []}}}, "displayed_time": "9.59", "trialTime": 10206, "trial_type": "mouselab-mdp", "trial_index": 43, "time_elapsed": 811310, "internal_node_id": "0.0-4.0-3.0-3.0"}}, {"uniqueid": "w97167656:a78252280", "current_trial": 44, "dateTime": 1664555958186, "trialdata": {"revealed_states": [], "num_clicks_accrued": [0, 0, 0, 0, 0, 0, 0, 0, 0, 0, 0, 0, 0], "stateRewards": ["", -4, 8, 24, -48, -4, -8, -24, 24, 2, -4, -48, 24], "withholdReward": true, "trial_id": "mdp_898449441629", "block": "test2", "trialIndex": 36, "score": 30.75, "costs": -2.25, "simulationMode": [null, null, null], "rewards": [-4, 8, 24], "path": ["0", "0", "1", "2", "3"], "rt": [8918, 89, 27], "actions": ["up", "up", "right"], "actionTimes": [10009, 10587, 11109], "queries": {"click": {"state": {"target": ["12", "3", "7", "8", "4", "11", "6", "10", "2"], "time": [2065, 2725, 3557, 4135, 4742, 5267, 7008, 7840, 8664]}, "edge": {"target": [], "time": []}}, "mouseover": {"state": {"target": ["0", "12", "9", "1", "3", "1", "7", "6", "8", "1", "4", "11", "5", "6", "5", "0", "9", "10", "9", "1", "2", "1"], "time": [1505, 1889, 2389, 2440, 2506, 3257, 3407, 3908, 3991, 4492, 4592, 5159, 6444, 6594, 7429, 7495, 7545, 7711, 8062, 8412, 8496, 9316]}, "edge": {"target": [], "time": []}}, "mouseout": {"state": {"target": ["5", "0", "12", "9", "1", "3", "1", "7", "6", "8", "1", "4", "11", "5", "6", "5", "0", "9", "10", "9", "1", "2", "1", "0"], "time": [804, 1555, 2356, 2406, 2456, 2990, 3274, 3874, 3924, 4325, 4508, 4992, 5826, 6544, 7328, 7478, 7511, 7645, 8012, 8329, 8445, 9046, 12083, 12249]}, "edge": {"target": [], "time": []}}}, "displayed_time": "11.60", "trialTime": 12477, "trial_type": "mouselab-mdp", "trial_index": 44, "time_elapsed": 823831, "internal_node_id": "0.0-4.0-3.0-4.0"}}, {"uniqueid": "w97167656:a78252280", "current_trial": 45, "dateTime": 1664555967445, "trialdata": {"revealed_states": [], "num_clicks_accrued": [0, 0, 0, 0, 0, 0, 0, 0, 0, 0, 0, 0, 0], "stateRewards": ["", 2, -8, 24, -24, -2, 8, -48, -48, 2, -8, -24, -48], "withholdReward": true, "trial_id": "mdp_744278669205", "block": "test2", "trialIndex": 37, "score": 21.5, "costs": -1.5, "simulationMode": [null, null, null], "rewards": [2, -8, 24], "path": ["0", "0", "1", "2", "3"], "rt": [5190, 135, 1], "actions": ["up", "up", "right"], "actionTimes": [5935, 6568, 7068], "queries": {"click": {"state": {"target": ["12", "7", "11", "8", "3", "4"], "time": [1474, 2277, 3087, 3911, 4407, 5037]}, "edge": {"target": [], "time": []}}, "mouseover": {"state": {"target": ["12", "5", "7", "1", "11", "5", "8", "3", "2", "4", "2"], "time": [1345, 1912, 2095, 2596, 2913, 3630, 3763, 4314, 4714, 4948, 5365]}, "edge": {"target": [], "time": []}}, "mouseout": {"state": {"target": ["0", "12", "5", "7", "1", "11", "5", "8", "3", "2", "4", "2", "1"], "time": [1094, 1795, 1945, 2529, 2663, 3313, 3647, 4080, 4631, 4831, 5315, 7834, 7951]}, "edge": {"target": [], "time": []}}}, "displayed_time": "8.75", "trialTime": 9214, "trial_type": "mouselab-mdp", "trial_index": 45, "time_elapsed": 833090, "internal_node_id": "0.0-4.0-3.0-5.0"}}, {"uniqueid": "w97167656:a78252280", "current_trial": 46, "dateTime": 1664555976949, "trialdata": {"revealed_states": [], "num_clicks_accrued": [0, 0, 0, 0, 0, 0, 0, 0, 0, 0, 0, 0, 0], "stateRewards": ["", 4, -8, 48, -24, 4, -4, -48, -48, 4, -4, 24, 24], "withholdReward": true, "trial_id": "mdp_221562928904", "block": "test2", "trialIndex": 38, "score": 47.5, "costs": -1.5, "simulationMode": [null, null, null], "rewards": [4, -8, 48], "path": ["0", "0", "1", "2", "3"], "rt": [5486, 69, 303], "actions": ["up", "up", "right"], "actionTimes": [6574, 7140, 7941], "queries": {"click": {"state": {"target": ["11", "4", "3", "7", "8", "12"], "time": [2037, 3319, 3949, 4519, 5052, 5547]}, "edge": {"target": [], "time": []}}, "mouseover": {"state": {"target": ["10", "11", "4", "12", "4", "3", "7", "6", "8", "12"], "time": [1732, 1882, 2583, 2800, 3267, 3668, 4218, 4702, 4885, 5436]}, "edge": {"target": [], "time": []}}, "mouseout": {"state": {"target": ["0", "10", "11", "4", "12", "4", "3", "7", "6", "8", "12"], "time": [1515, 1749, 2316, 2667, 2917, 3517, 4151, 4652, 4819, 5202, 5953]}, "edge": {"target": [], "time": []}}}, "displayed_time": "9.09", "trialTime": 9463, "trial_type": "mouselab-mdp", "trial_index": 46, "time_elapsed": 842594, "internal_node_id": "0.0-4.0-3.0-6.0"}}, {"uniqueid": "w97167656:a78252280", "current_trial": 47, "dateTime": 1664555987366, "trialdata": {"revealed_states": [], "num_clicks_accrued": [0, 0, 0, 0, 0, 0, 0, 0, 0, 0, 0, 0, 0], "stateRewards": ["", -2, 4, 24, 48, 2, 4, -48, -48, -2, 8, 48, -24], "withholdReward": false, "trial_id": "mdp_305701202606", "block": "test2", "trialIndex": 39, "score": 56.5, "costs": -2.5, "simulationMode": [null, null, null], "rewards": [-2, 8, 48], "path": ["0", "0", "9", "10", "11"], "rt": [7221, 109, 330], "actions": ["left", "left", "up"], "actionTimes": [7849, 8450, 9272], "queries": {"click": {"state": {"target": ["12", "11", "7", "8", "3", "4", "2", "10", "9", "1"], "time": [1320, 1920, 2783, 3390, 4004, 4838, 5789, 6307, 6885, 7380]}, "edge": {"target": [], "time": []}}, "mouseover": {"state": {"target": ["9", "12", "10", "11", "7", "6", "8", "6", "3", "2", "4", "1", "2", "1", "9", "10", "9", "1"], "time": [1017, 1251, 1618, 1751, 2652, 3103, 3286, 3620, 3870, 4237, 4404, 5455, 5555, 5939, 6039, 6122, 6623, 7240]}, "edge": {"target": [], "time": []}}, "mouseout": {"state": {"target": ["0", "9", "12", "10", "11", "7", "6", "8", "6", "3", "2", "4", "1", "2", "1", "9", "10", "9", "1", "0"], "time": [984, 1084, 1585, 1685, 2102, 3053, 3186, 3586, 3653, 4204, 4337, 5121, 5488, 5922, 5955, 6073, 6490, 7090, 7540, 9509]}, "edge": {"target": [], "time": []}}}, "displayed_time": "9.76", "trialTime": 10373, "trial_type": "mouselab-mdp", "trial_index": 47, "time_elapsed": 853011, "internal_node_id": "0.0-4.0-3.0-7.0"}}, {"uniqueid": "w97167656:a78252280", "current_trial": 48, "dateTime": 1664555998342, "trialdata": {"revealed_states": [], "num_clicks_accrued": [0, 0, 0, 0, 0, 0, 0, 0, 0, 0, 0, 0, 0], "stateRewards": ["", 2, 4, -48, -24, 2, 8, 24, 48, -2, 4, 48, -48], "withholdReward": true, "trial_id": "mdp_551894842204", "block": "test2", "trialIndex": 40, "score": 60.75, "costs": -2.25, "simulationMode": [null, null, null], "rewards": [2, 8, 48], "path": ["0", "0", "5", "6", "8"], "rt": [8050, 168, 101], "actions": ["right", "right", "down"], "actionTimes": [8714, 9391, 9991], "queries": {"click": {"state": {"target": ["12", "11", "7", "8", "5", "9", "3", "4", "6"], "time": [1370, 1849, 2532, 3132, 4385, 4879, 5870, 6372, 7902]}, "edge": {"target": [], "time": []}}, "mouseover": {"state": {"target": ["9", "12", "10", "11", "1", "7", "6", "8", "5", "3", "5", "0", "9", "0", "3", "2", "4", "6", "0", "10"], "time": [1115, 1215, 1582, 1682, 2232, 2366, 2783, 2900, 3417, 3700, 4118, 4568, 4668, 5369, 5686, 6136, 6205, 6920, 8205, 8288]}, "edge": {"target": [], "time": []}}, "mouseout": {"state": {"target": ["0", "9", "12", "10", "11", "1", "7", "6", "8", "5", "3", "5", "0", "9", "0", "3", "2", "4", "5", "6", "5", "0", "9", "10", "9"], "time": [1098, 1131, 1532, 1632, 2099, 2249, 2733, 2850, 3317, 3500, 4034, 4518, 4618, 5185, 5402, 6103, 6153, 6637, 6820, 8155, 8188, 8222, 8272, 8772, 10491]}, "edge": {"target": [], "time": []}}}, "displayed_time": "10.49", "trialTime": 10936, "trial_type": "mouselab-mdp", "trial_index": 48, "time_elapsed": 863987, "internal_node_id": "0.0-4.0-3.0-8.0"}}, {"uniqueid": "w97167656:a78252280", "current_trial": 49, "dateTime": 1664556009038, "trialdata": {"revealed_states": [], "num_clicks_accrued": [0, 0, 0, 0, 0, 0, 0, 0, 0, 0, 0, 0, 0], "stateRewards": ["", 2, -4, 48, -48, -2, 8, -48, 24, -2, -8, 48, 48], "withholdReward": true, "trial_id": "mdp_949326095747", "block": "test2", "trialIndex": 41, "score": 49, "costs": -2, "simulationMode": [null, null, null], "rewards": [2, -4, 48], "path": ["0", "0", "1", "2", "3"], "rt": [7957, 97, 19], "actions": ["up", "up", "right"], "actionTimes": [8504, 9117, 9638], "queries": {"click": {"state": {"target": ["12", "7", "8", "3", "4", "1", "10", "9"], "time": [1097, 2155, 2688, 3723, 5823, 6303, 7225, 7653]}, "edge": {"target": [], "time": []}}, "mouseover": {"state": {"target": ["12", "0", "5", "1", "7", "6", "8", "0", "1", "3", "2", "4", "1", "2", "10", "9", "2"], "time": [960, 1294, 1344, 1678, 2045, 2428, 2529, 3146, 3379, 3529, 4180, 4297, 6249, 6649, 7016, 7501, 8084]}, "edge": {"target": [], "time": []}}, "mouseout": {"state": {"target": ["0", "12", "0", "5", "1", "7", "6", "8", "0", "1", "3", "2", "4", "1", "2", "10", "9", "1", "2"], "time": [827, 1227, 1327, 1361, 1711, 2395, 2478, 2862, 3196, 3429, 4113, 4213, 6132, 6482, 6933, 7467, 7834, 7951, 8418]}, "edge": {"target": [], "time": []}}}, "displayed_time": "10.14", "trialTime": 10650, "trial_type": "mouselab-mdp", "trial_index": 49, "time_elapsed": 874683, "internal_node_id": "0.0-4.0-3.0-9.0"}}, {"uniqueid": "w97167656:a78252280", "current_trial": 50, "dateTime": 1664556019408, "trialdata": {"revealed_states": [], "num_clicks_accrued": [0, 0, 0, 0, 0, 0, 0, 0, 0, 0, 0, 0, 0], "stateRewards": ["", -4, -8, 48, 24, 4, -8, 24, -48, -2, -8, 24, -48], "withholdReward": true, "trial_id": "mdp_952038635544", "block": "test2", "trialIndex": 42, "score": 39.5, "costs": -1.5, "simulationMode": [null, null, null], "rewards": [-4, -8, 48], "path": ["0", "0", "1", "2", "3"], "rt": [4679, 393, 75], "actions": ["up", "up", "right"], "actionTimes": [5674, 6564, 7130], "queries": {"click": {"state": {"target": ["12", "7", "4", "3", "8", "11"], "time": [1869, 2371, 2821, 3211, 4637, 5148]}, "edge": {"target": [], "time": []}}, "mouseover": {"state": {"target": ["12", "0", "7", "4", "2", "3", "1", "9", "8", "0", "9", "11", "9"], "time": [1749, 2083, 2216, 2700, 2967, 3067, 3384, 4202, 4535, 4852, 4903, 5069, 5386]}, "edge": {"target": [], "time": []}}, "mouseout": {"state": {"target": ["5", "5", "0", "12", "0", "7", "4", "2", "3", "1", "9", "8", "0", "9", "11", "9", "0"], "time": [281, 765, 1432, 2017, 2116, 2534, 2951, 3001, 3351, 3418, 4235, 4769, 4886, 4919, 5286, 5403, 8022]}, "edge": {"target": [], "time": []}}}, "displayed_time": "10.00", "trialTime": 10331, "trial_type": "mouselab-mdp", "trial_index": 50, "time_elapsed": 885053, "internal_node_id": "0.0-4.0-3.0-10.0"}}, {"uniqueid": "w97167656:a78252280", "current_trial": 51, "dateTime": 1664556028541, "trialdata": {"revealed_states": [], "num_clicks_accrued": [0, 0, 0, 0, 0, 0, 0, 0, 0, 0, 0, 0, 0], "stateRewards": ["", -4, 8, -48, -48, -4, 4, -24, -48, 2, -4, -24, 24], "withholdReward": true, "trial_id": "mdp_183773275291", "block": "test2", "trialIndex": 43, "score": 25.5, "costs": -1.5, "simulationMode": [null, null, null], "rewards": [2, -4, 24], "path": ["0", "0", "9", "10", "12"], "rt": [3890, 89, 327], "actions": ["left", "left", "down"], "actionTimes": [4668, 5246, 6069], "queries": {"click": {"state": {"target": ["12", "7", "11", "8", "3", "4"], "time": [1374, 1847, 2296, 2761, 3346, 3811]}, "edge": {"target": [], "time": []}}, "mouseover": {"state": {"target": ["0", "12", "5", "7", "1", "11", "0", "8", "5", "3", "2", "4", "9"], "time": [1036, 1253, 1603, 1703, 2070, 2137, 2454, 2588, 3022, 3222, 3505, 3622, 4306]}, "edge": {"target": [], "time": []}}, "mouseout": {"state": {"target": ["0", "0", "12", "5", "7", "1", "11", "0", "8", "5", "3", "2", "4", "9"], "time": [736, 1103, 1503, 1637, 2020, 2087, 2404, 2471, 2988, 3038, 3488, 3539, 4056, 5541]}, "edge": {"target": [], "time": []}}}, "displayed_time": "8.78", "trialTime": 9091, "trial_type": "mouselab-mdp", "trial_index": 51, "time_elapsed": 894186, "internal_node_id": "0.0-4.0-3.0-11.0"}}, {"uniqueid": "w97167656:a78252280", "current_trial": 52, "dateTime": 1664556037565, "trialdata": {"revealed_states": [], "num_clicks_accrued": [0, 0, 0, 0, 0, 0, 0, 0, 0, 0, 0, 0, 0], "stateRewards": ["", 2, 4, 48, -48, 2, 4, 24, -24, 2, -4, -24, -48], "withholdReward": false, "trial_id": "mdp_706591889062", "block": "test2", "trialIndex": 44, "score": 57.75, "costs": -1.25, "simulationMode": [null, null, null], "rewards": [2, 4, 48], "path": ["0", "0", "1", "2", "3"], "rt": [4455, 120, 57], "actions": ["up", "up", "right"], "actionTimes": [5193, 5804, 6359], "queries": {"click": {"state": {"target": ["12", "7", "11", "8", "3"], "time": [1543, 2097, 2697, 3177, 3754]}, "edge": {"target": [], "time": []}}, "mouseover": {"state": {"target": ["12", "12", "0", "5", "7", "1", "11", "8", "5", "3", "2", "4"], "time": [1080, 1405, 1780, 1814, 1964, 2381, 2531, 3015, 3449, 3649, 3916, 4233]}, "edge": {"target": [], "time": []}}, "mouseout": {"state": {"target": ["0", "12", "12", "0", "5", "7", "1", "11", "8", "5", "3", "2", "4"], "time": [997, 1146, 1714, 1797, 1831, 2291, 2415, 2832, 3415, 3482, 3883, 3966, 6002]}, "edge": {"target": [], "time": []}}}, "displayed_time": "8.74", "trialTime": 8982, "trial_type": "mouselab-mdp", "trial_index": 52, "time_elapsed": 903209, "internal_node_id": "0.0-4.0-3.0-12.0"}}, {"uniqueid": "w97167656:a78252280", "current_trial": 53, "dateTime": 1664556046844, "trialdata": {"revealed_states": [], "num_clicks_accrued": [0, 0, 0, 0, 0, 0, 0, 0, 0, 0, 0, 0, 0], "stateRewards": ["", 2, -8, 24, -48, 2, 4, 48, -48, -2, -8, -48, 48], "withholdReward": true, "trial_id": "mdp_629420544881", "block": "test2", "trialIndex": 45, "score": 57.25, "costs": -1.75, "simulationMode": [null, null, null], "rewards": [2, 4, 48], "path": ["0", "0", "5", "6", "7"], "rt": [6300, 224, 87], "actions": ["right", "right", "up"], "actionTimes": [6909, 7622, 8221], "queries": {"click": {"state": {"target": ["12", "7", "3", "4", "9", "5", "10"], "time": [1122, 2202, 3139, 3724, 4781, 5299, 6155]}, "edge": {"target": [], "time": []}}, "mouseover": {"state": {"target": ["9", "12", "9", "4", "7", "6", "8", "6", "3", "2", "4", "1", "0", "9", "0", "5", "10", "0", "6"], "time": [909, 1042, 1342, 1643, 2043, 2410, 2594, 2744, 2877, 3411, 3628, 4112, 4329, 4629, 5029, 5129, 5933, 6381, 6548]}, "edge": {"target": [], "time": []}}, "mouseout": {"state": {"target": ["9", "12", "9", "4", "7", "6", "8", "6", "3", "2", "4", "1", "0", "9", "0", "5", "9", "10", "9", "0", "5", "6"], "time": [925, 1309, 1376, 1893, 2377, 2510, 2710, 2794, 3344, 3478, 4028, 4195, 4412, 5013, 5096, 5480, 5780, 6281, 6348, 6398, 6481, 7098]}, "edge": {"target": [], "time": []}}}, "displayed_time": "8.72", "trialTime": 9232, "trial_type": "mouselab-mdp", "trial_index": 53, "time_elapsed": 912489, "internal_node_id": "0.0-4.0-3.0-13.0"}}, {"uniqueid": "w97167656:a78252280", "current_trial": 54, "dateTime": 1664556056989, "trialdata": {"revealed_states": [], "num_clicks_accrued": [0, 0, 0, 0, 0, 0, 0, 0, 0, 0, 0, 0, 0], "stateRewards": ["", 2, -8, 48, -24, 2, 8, 24, -24, 4, -4, -48, -48], "withholdReward": true, "trial_id": "mdp_130946197263", "block": "test2", "trialIndex": 46, "score": 45.75, "costs": -1.25, "simulationMode": [null, null, null], "rewards": [2, -8, 48], "path": ["0", "0", "1", "2", "3"], "rt": [4869, 87, 37], "actions": ["up", "up", "right"], "actionTimes": [5494, 6072, 6605], "queries": {"click": {"state": {"target": ["12", "11", "7", "8", "3"], "time": [1413, 2335, 3003, 3505, 4045]}, "edge": {"target": [], "time": []}}, "mouseover": {"state": {"target": ["9", "12", "0", "7", "11", "1", "7", "6", "8", "5", "3", "2", "4"], "time": [1163, 1330, 1630, 1814, 2264, 2598, 2831, 3215, 3365, 3749, 3916, 4216, 4449]}, "edge": {"target": [], "time": []}}, "mouseout": {"state": {"target": ["5", "0", "9", "12", "0", "7", "11", "1", "7", "6", "8", "5", "3", "2", "4", "1", "0"], "time": [429, 1113, 1180, 1546, 1647, 1964, 2514, 2614, 3148, 3332, 3699, 3799, 4199, 4233, 4666, 7319, 7386]}, "edge": {"target": [], "time": []}}}, "displayed_time": "9.63", "trialTime": 10105, "trial_type": "mouselab-mdp", "trial_index": 54, "time_elapsed": 922634, "internal_node_id": "0.0-4.0-3.0-14.0"}}, {"uniqueid": "w97167656:a78252280", "current_trial": 55, "dateTime": 1664556066192, "trialdata": {"revealed_states": [], "num_clicks_accrued": [0, 0, 0, 0, 0, 0, 0, 0, 0, 0, 0, 0, 0], "stateRewards": ["", -2, -4, -48, -48, -2, -8, 48, -48, 4, -8, -48, 24], "withholdReward": true, "trial_id": "mdp_468495641521", "block": "test2", "trialIndex": 47, "score": 41, "costs": -2, "simulationMode": [null, null, null], "rewards": [-2, -8, 48], "path": ["0", "0", "5", "6", "7"], "rt": [5459, 733, 12], "actions": ["right", "right", "up"], "actionTimes": [6203, 7446, 7959], "queries": {"click": {"state": {"target": ["12", "7", "3", "4", "11", "8", "6", "5"], "time": [1275, 1911, 2580, 3023, 3330, 3827, 5573, 5910]}, "edge": {"target": [], "time": []}}, "mouseover": {"state": {"target": ["12", "5", "7", "3", "2", "4", "11", "9", "0", "8", "6", "6", "5"], "time": [1156, 1590, 1690, 2357, 2775, 2908, 3259, 3542, 3576, 3709, 4643, 4927, 5744]}, "edge": {"target": [], "time": []}}, "mouseout": {"state": {"target": ["0", "12", "5", "7", "3", "2", "4", "11", "9", "0", "8", "6", "6", "5", "9"], "time": [856, 1507, 1607, 2141, 2708, 2808, 3192, 3492, 3559, 3592, 4560, 4743, 5728, 6111, 8564]}, "edge": {"target": [], "time": []}}}, "displayed_time": "8.74", "trialTime": 9158, "trial_type": "mouselab-mdp", "trial_index": 55, "time_elapsed": 931837, "internal_node_id": "0.0-4.0-3.0-15.0"}}, {"uniqueid": "w97167656:a78252280", "current_trial": 56, "dateTime": 1664556078307, "trialdata": {"revealed_states": [], "num_clicks_accrued": [0, 0, 0, 0, 0, 0, 0, 0, 0, 0, 0, 0, 0], "stateRewards": ["", -2, -8, 24, -48, 4, 4, -24, -48, -2, -8, -48, 24], "withholdReward": true, "trial_id": "mdp_556006673466", "block": "test2", "trialIndex": 48, "score": 16.5, "costs": -2.5, "simulationMode": [null, null, null], "rewards": [-2, -8, 24], "path": ["0", "0", "9", "10", "12"], "rt": [8876, 470, 281], "actions": ["left", "left", "down"], "actionTimes": [9431, 10420, 11198], "queries": {"click": {"state": {"target": ["12", "11", "7", "8", "3", "4", "10", "2", "1", "9"], "time": [1217, 1712, 2537, 2875, 3362, 4082, 4938, 5522, 6445, 8575]}, "edge": {"target": [], "time": []}}, "mouseover": {"state": {"target": ["12", "11", "7", "7", "6", "8", "6", "3", "2", "4", "9", "10", "9", "1", "2", "1", "9"], "time": [1191, 1591, 1941, 2476, 2693, 2776, 3060, 3310, 3560, 4021, 4578, 4861, 5128, 5195, 5412, 5845, 6746]}, "edge": {"target": [], "time": []}}, "mouseout": {"state": {"target": ["0", "12", "11", "7", "7", "6", "8", "6", "3", "2", "4", "9", "10", "9", "1", "2", "1", "9"], "time": [924, 1341, 1825, 2142, 2659, 2726, 3026, 3076, 3543, 3593, 4444, 4611, 5111, 5161, 5278, 5679, 6563, 10567]}, "edge": {"target": [], "time": []}}}, "displayed_time": "11.69", "trialTime": 12065, "trial_type": "mouselab-mdp", "trial_index": 56, "time_elapsed": 943952, "internal_node_id": "0.0-4.0-3.0-16.0"}}, {"uniqueid": "w97167656:a78252280", "current_trial": 57, "dateTime": 1664556090192, "trialdata": {"revealed_states": [], "num_clicks_accrued": [0, 0, 0, 0, 0, 0, 0, 0, 0, 0, 0, 0, 0], "stateRewards": ["", 2, 8, 48, -48, -2, -4, -24, 24, 4, -4, 48, -48], "withholdReward": true, "trial_id": "mdp_105734044587", "block": "test2", "trialIndex": 49, "score": 60.75, "costs": -2.25, "simulationMode": [null, null, null], "rewards": [2, 8, 48], "path": ["0", "0", "1", "2", "3"], "rt": [7952, 510, 353], "actions": ["up", "up", "right"], "actionTimes": [9072, 10094, 10938], "queries": {"click": {"state": {"target": ["12", "11", "4", "3", "7", "8", "2", "10", "9"], "time": [1616, 2419, 2861, 3371, 3896, 4482, 5359, 5861, 7054]}, "edge": {"target": [], "time": []}}, "mouseover": {"state": {"target": ["12", "10", "1", "11", "4", "2", "3", "7", "6", "8", "2", "10", "9", "0", "1"], "time": [1509, 1843, 1959, 2293, 2627, 3060, 3227, 3761, 4061, 4228, 5212, 5780, 6197, 7398, 8282]}, "edge": {"target": [], "time": []}}, "mouseout": {"state": {"target": ["0", "12", "10", "1", "11", "4", "2", "3", "7", "6", "8", "2", "10", "9", "0"], "time": [1392, 1809, 1859, 1993, 2543, 3010, 3127, 3511, 4028, 4111, 4679, 5513, 6063, 7298, 7548]}, "edge": {"target": [], "time": []}}}, "displayed_time": "11.44", "trialTime": 11839, "trial_type": "mouselab-mdp", "trial_index": 57, "time_elapsed": 955837, "internal_node_id": "0.0-4.0-3.0-17.0"}}, {"uniqueid": "w97167656:a78252280", "current_trial": 58, "dateTime": 1664556099932, "trialdata": {"revealed_states": [], "num_clicks_accrued": [0, 0, 0, 0, 0, 0, 0, 0, 0, 0, 0, 0, 0], "stateRewards": ["", 4, -8, 24, 48, -2, -4, -48, 24, 2, 4, -48, -24], "withholdReward": false, "trial_id": "mdp_749974461966", "block": "test2", "trialIndex": 50, "score": 47, "costs": -2, "simulationMode": [null, null, null], "rewards": [4, -8, 48], "path": ["0", "0", "1", "2", "4"], "rt": [6975, 139, 196], "actions": ["up", "up", "left"], "actionTimes": [7486, 8119, 8809], "queries": {"click": {"state": {"target": ["12", "11", "7", "8", "3", "4", "2", "1"], "time": [1015, 1518, 2006, 2456, 4638, 5110, 6934, 7279]}, "edge": {"target": [], "time": []}}, "mouseover": {"state": {"target": ["0", "12", "10", "11", "1", "7", "6", "8", "6", "3", "2", "4", "2", "1"], "time": [656, 922, 1239, 1339, 1690, 1840, 2190, 2390, 2658, 3225, 4859, 4976, 5744, 7162]}, "edge": {"target": [], "time": []}}, "mouseout": {"state": {"target": ["1", "0", "12", "10", "11", "1", "7", "6", "8", "6", "3", "2", "4", "2", "1"], "time": [272, 689, 1189, 1306, 1656, 1723, 2140, 2290, 2641, 2691, 4826, 4893, 5660, 7095, 7546]}, "edge": {"target": [], "time": []}}}, "displayed_time": "9.51", "trialTime": 9698, "trial_type": "mouselab-mdp", "trial_index": 58, "time_elapsed": 965577, "internal_node_id": "0.0-4.0-3.0-18.0"}}, {"uniqueid": "w97167656:a78252280", "current_trial": 59, "dateTime": 1664556110082, "trialdata": {"revealed_states": [], "num_clicks_accrued": [0, 0, 0, 0, 0, 0, 0, 0, 0, 0, 0, 0, 0], "stateRewards": ["", -2, -8, -48, 24, 2, -4, -48, 48, 2, 4, 24, -24], "withholdReward": true, "trial_id": "mdp_849341543762", "block": "test2", "trialIndex": 51, "score": 49.5, "costs": -1.5, "simulationMode": [null, null, null], "rewards": [2, -4, 48], "path": ["0", "0", "5", "6", "8"], "rt": [4553, 197, 235], "actions": ["right", "right", "down"], "actionTimes": [5239, 5928, 6651], "queries": {"click": {"state": {"target": ["12", "11", "7", "8", "3", "4"], "time": [1229, 1792, 2399, 2946, 3569, 4049]}, "edge": {"target": [], "time": []}}, "mouseover": {"state": {"target": ["9", "12", "10", "11", "1", "7", "6", "8", "3", "2", "4", "1", "5"], "time": [960, 1127, 1510, 1627, 2027, 2294, 2661, 2795, 3446, 3762, 3929, 4296, 4497]}, "edge": {"target": [], "time": []}}, "mouseout": {"state": {"target": ["9", "12", "10", "11", "1", "7", "6", "8", "3", "2", "4", "1"], "time": [993, 1444, 1577, 1961, 2061, 2578, 2745, 3145, 3696, 3829, 4246, 4363]}, "edge": {"target": [], "time": []}}}, "displayed_time": "9.69", "trialTime": 10109, "trial_type": "mouselab-mdp", "trial_index": 59, "time_elapsed": 975727, "internal_node_id": "0.0-4.0-3.0-19.0"}}, {"uniqueid": "w97167656:a78252280", "current_trial": 60, "dateTime": 1664556120887, "trialdata": {"revealed_states": [], "num_clicks_accrued": [0, 0, 0, 0, 0, 0, 0, 0, 0, 0, 0, 0, 0], "stateRewards": ["", 4, -8, -48, 24, 4, 4, -24, -24, 2, 4, -48, 24], "withholdReward": true, "trial_id": "mdp_626971397185", "block": "test2", "trialIndex": 52, "score": 33, "costs": -2, "simulationMode": [null, null, null], "rewards": [2, 4, 24], "path": ["0", "0", "9", "10", "12"], "rt": [7225, 95, 134], "actions": ["left", "left", "down"], "actionTimes": [7983, 8572, 9195], "queries": {"click": {"state": {"target": ["11", "12", "7", "8", "3", "4", "10", "2"], "time": [2127, 2568, 3071, 3446, 3935, 4383, 5336, 5944]}, "edge": {"target": [], "time": []}}, "mouseover": {"state": {"target": ["0", "9", "11", "11", "10", "12", "5", "7", "6", "8", "3", "2", "4", "9", "10", "1", "2", "1"], "time": [1269, 1453, 1686, 2070, 2320, 2437, 2821, 2937, 3204, 3355, 3857, 4105, 4306, 4906, 5223, 5557, 5807, 6191]}, "edge": {"target": [], "time": []}}, "mouseout": {"state": {"target": ["5", "0", "0", "9", "11", "11", "10", "12", "5", "7", "6", "8", "3", "2", "4", "9", "10", "1", "2", "1", "0"], "time": [452, 1105, 1353, 1569, 1753, 2287, 2370, 2704, 2854, 3188, 3271, 3571, 4072, 4205, 4756, 4989, 5457, 5673, 6091, 6691, 9994]}, "edge": {"target": [], "time": []}}}, "displayed_time": "9.71", "trialTime": 10763, "trial_type": "mouselab-mdp", "trial_index": 60, "time_elapsed": 986532, "internal_node_id": "0.0-4.0-3.0-20.0"}}, {"uniqueid": "w97167656:a78252280", "current_trial": 61, "dateTime": 1664556130879, "trialdata": {"revealed_states": [], "num_clicks_accrued": [0, 0, 0, 0, 0, 0, 0, 0, 0, 0, 0, 0, 0], "stateRewards": ["", 2, -8, -48, 24, 4, 8, 48, -48, 2, -4, 24, 24], "withholdReward": false, "trial_id": "mdp_130475327289", "block": "test2", "trialIndex": 53, "score": 63.5, "costs": -1.5, "simulationMode": [null, null, null], "rewards": [4, 8, 48], "path": ["0", "0", "5", "6", "7"], "rt": [4624, 119, 153], "actions": ["right", "right", "up"], "actionTimes": [5297, 5910, 6576], "queries": {"click": {"state": {"target": ["12", "11", "7", "8", "3", "4"], "time": [1162, 1829, 2489, 3014, 3696, 4259]}, "edge": {"target": [], "time": []}}, "mouseover": {"state": {"target": ["12", "10", "11", "7", "6", "8", "3", "2", "4", "1"], "time": [1051, 1518, 1702, 2402, 2686, 2836, 3587, 3937, 4121, 4722]}, "edge": {"target": [], "time": []}}, "mouseout": {"state": {"target": ["9", "0", "12", "10", "11", "7", "6", "8", "3", "2", "4", "1"], "time": [484, 834, 1468, 1585, 2002, 2636, 2769, 3320, 3887, 4004, 4638, 5772]}, "edge": {"target": [], "time": []}}}, "displayed_time": "9.67", "trialTime": 9943, "trial_type": "mouselab-mdp", "trial_index": 61, "time_elapsed": 996524, "internal_node_id": "0.0-4.0-3.0-21.0"}}, {"uniqueid": "w97167656:a78252280", "current_trial": 62, "dateTime": 1664556141294, "trialdata": {"revealed_states": [], "num_clicks_accrued": [0, 0, 0, 0, 0, 0, 0, 0, 0, 0, 0, 0, 0], "stateRewards": ["", -2, 8, -48, 48, -4, -8, 24, 24, -2, -4, 48, -48], "withholdReward": true, "trial_id": "mdp_867247318592", "block": "test2", "trialIndex": 54, "score": 56.75, "costs": -2.25, "simulationMode": [null, null, null], "rewards": [-2, 8, 48], "path": ["0", "0", "1", "2", "4"], "rt": [7466, 88, 10], "actions": ["up", "up", "left"], "actionTimes": [8061, 8640, 9161], "queries": {"click": {"state": {"target": ["12", "11", "7", "8", "3", "4", "1", "9", "10"], "time": [1152, 1715, 2427, 2989, 3522, 3994, 4924, 5322, 5899]}, "edge": {"target": [], "time": []}}, "mouseover": {"state": {"target": ["0", "12", "10", "11", "1", "7", "6", "8", "5", "3", "2", "4", "1", "9", "10", "2"], "time": [776, 1059, 1443, 1593, 1943, 2060, 2594, 2794, 3261, 3412, 3679, 3829, 4863, 5163, 5748, 6515]}, "edge": {"target": [], "time": []}}, "mouseout": {"state": {"target": ["0", "12", "10", "11", "1", "7", "6", "8", "5", "3", "2", "4", "1", "9", "10", "9", "1", "2"], "time": [793, 1376, 1526, 1877, 1960, 2561, 2711, 3228, 3278, 3662, 3745, 4329, 5081, 5531, 6148, 6198, 6381, 8617]}, "edge": {"target": [], "time": []}}}, "displayed_time": "9.67", "trialTime": 10373, "trial_type": "mouselab-mdp", "trial_index": 62, "time_elapsed": 1006939, "internal_node_id": "0.0-4.0-3.0-22.0"}}, {"uniqueid": "w97167656:a78252280", "current_trial": 63, "dateTime": 1664556153892, "trialdata": {"revealed_states": [], "num_clicks_accrued": [0, 0, 0, 0, 0, 0, 0, 0, 0, 0, 0, 0, 0], "stateRewards": ["", 2, 4, 48, -48, 2, 8, -24, 48, 4, 8, 48, -48], "withholdReward": true, "trial_id": "mdp_110142964375", "block": "test2", "trialIndex": 55, "score": 62.5, "costs": -2.5, "simulationMode": [null, null, null], "rewards": [4, 8, 48], "path": ["0", "0", "9", "10", "11"], "rt": [9753, 94, 101], "actions": ["left", "left", "up"], "actionTimes": [10332, 10945, 11534], "queries": {"click": {"state": {"target": ["12", "11", "4", "3", "7", "8", "9", "5", "1", "10"], "time": [1095, 1530, 2092, 2512, 3067, 3638, 6750, 7387, 8010, 9765]}, "edge": {"target": [], "time": []}}, "mouseover": {"state": {"target": ["9", "12", "10", "11", "1", "4", "2", "3", "7", "7", "6", "8", "5", "0", "9", "0", "5", "1", "10"], "time": [822, 1005, 1255, 1372, 1739, 1973, 2223, 2407, 2707, 2857, 3291, 3508, 6344, 6411, 6461, 7011, 7312, 7645, 9447]}, "edge": {"target": [], "time": []}}, "mouseout": {"state": {"target": ["9", "12", "10", "11", "1", "4", "2", "3", "7", "7", "6", "8", "5", "0", "9", "0", "5", "1", "9", "10", "9"], "time": [838, 1222, 1306, 1656, 1756, 2206, 2273, 2657, 2790, 3224, 3408, 3825, 6377, 6444, 6978, 7111, 7595, 8146, 9364, 9964, 10648]}, "edge": {"target": [], "time": []}}}, "displayed_time": "12.03", "trialTime": 12556, "trial_type": "mouselab-mdp", "trial_index": 63, "time_elapsed": 1019537, "internal_node_id": "0.0-4.0-3.0-23.0"}}, {"uniqueid": "w97167656:a78252280", "current_trial": 64, "dateTime": 1664556163809, "trialdata": {"revealed_states": [], "num_clicks_accrued": [0, 0, 0, 0, 0, 0, 0, 0, 0, 0, 0, 0, 0], "stateRewards": ["", 2, -8, 48, -24, -4, -8, -24, 48, -2, 4, 24, -48], "withholdReward": true, "trial_id": "mdp_186932504904", "block": "test2", "trialIndex": 56, "score": 45, "costs": -2, "simulationMode": [null, null, null], "rewards": [2, -8, 48], "path": ["0", "0", "1", "2", "3"], "rt": [7292, 87, 2], "actions": ["up", "up", "right"], "actionTimes": [7904, 8494, 8994], "queries": {"click": {"state": {"target": ["12", "11", "7", "8", "3", "5", "1", "6"], "time": [1214, 1851, 2474, 2984, 3599, 5459, 5970, 7147]}, "edge": {"target": [], "time": []}}, "mouseover": {"state": {"target": ["12", "9", "11", "1", "7", "6", "8", "6", "3", "1", "0", "5", "6", "5", "1", "6"], "time": [1050, 1567, 1717, 2185, 2335, 2752, 2802, 3303, 3402, 4270, 4754, 4854, 5138, 5338, 5721, 7056]}, "edge": {"target": [], "time": []}}, "mouseout": {"state": {"target": ["0", "12", "9", "11", "1", "7", "6", "8", "6", "3", "1", "0", "5", "6", "5", "1", "5", "6", "5", "1"], "time": [917, 1501, 1601, 2051, 2202, 2735, 2785, 3286, 3319, 3870, 4387, 4821, 4904, 5204, 5605, 6122, 6990, 7290, 7356, 8057]}, "edge": {"target": [], "time": []}}}, "displayed_time": "9.51", "trialTime": 9872, "trial_type": "mouselab-mdp", "trial_index": 64, "time_elapsed": 1029454, "internal_node_id": "0.0-4.0-3.0-24.0"}}, {"uniqueid": "w97167656:a78252280", "current_trial": 65, "dateTime": 1664556173874, "trialdata": {"revealed_states": [], "num_clicks_accrued": [0, 0, 0, 0, 0, 0, 0, 0, 0, 0, 0, 0, 0], "stateRewards": ["", 2, -4, -24, -24, -2, -8, -48, 24, -4, -8, 24, 24], "withholdReward": true, "trial_id": "mdp_521351546461", "block": "test2", "trialIndex": 57, "score": 16.75, "costs": -2.25, "simulationMode": [null, null, null], "rewards": [-2, -8, 24], "path": ["0", "0", "5", "6", "8"], "rt": [7211, 99, 36], "actions": ["right", "right", "down"], "actionTimes": [7764, 8354, 8889], "queries": {"click": {"state": {"target": ["12", "11", "4", "3", "7", "8", "9", "5", "10"], "time": [1111, 1784, 2257, 2752, 3127, 3658, 4716, 5310, 6069]}, "edge": {"target": [], "time": []}}, "mouseover": {"state": {"target": ["0", "12", "10", "11", "4", "3", "7", "6", "8", "9", "0", "5", "10", "6"], "time": [812, 1012, 1395, 1545, 2129, 2680, 2980, 3347, 3564, 4532, 4916, 5199, 5950, 6884]}, "edge": {"target": [], "time": []}}, "mouseout": {"state": {"target": ["0", "12", "10", "11", "4", "3", "7", "6", "8", "9", "0", "5", "9", "10", "9", "6"], "time": [862, 1345, 1479, 1912, 2346, 2864, 3281, 3464, 3848, 4866, 5049, 5533, 5783, 6184, 6217, 8186]}, "edge": {"target": [], "time": []}}}, "displayed_time": "9.40", "trialTime": 10022, "trial_type": "mouselab-mdp", "trial_index": 65, "time_elapsed": 1039519, "internal_node_id": "0.0-4.0-3.0-25.0"}}, {"uniqueid": "w97167656:a78252280", "current_trial": 66, "dateTime": 1664556183882, "trialdata": {"revealed_states": [], "num_clicks_accrued": [0, 0, 0, 0, 0, 0, 0, 0, 0, 0, 0, 0, 0], "stateRewards": ["", 2, 4, 24, 48, -2, 8, 24, -24, -4, -4, 48, 48], "withholdReward": true, "trial_id": "mdp_753439303214", "block": "test2", "trialIndex": 58, "score": 56.75, "costs": -2.25, "simulationMode": [null, null, null], "rewards": [2, 4, 48], "path": ["0", "0", "1", "2", "4"], "rt": [7035, 76, 456], "actions": ["up", "up", "left"], "actionTimes": [7555, 8133, 9078], "queries": {"click": {"state": {"target": ["12", "7", "8", "3", "4", "1", "9", "10", "2"], "time": [1280, 2443, 2998, 3560, 4130, 5008, 5465, 6268, 6770]}, "edge": {"target": [], "time": []}}, "mouseover": {"state": {"target": ["12", "9", "11", "7", "6", "8", "6", "3", "2", "4", "1", "9", "10", "2"], "time": [1181, 1532, 1715, 2166, 2749, 2916, 3283, 3450, 3917, 3951, 4852, 5285, 6136, 6670]}, "edge": {"target": [], "time": []}}, "mouseout": {"state": {"target": ["0", "12", "9", "11", "7", "6", "8", "6", "3", "2", "4", "1", "9", "9", "10", "1", "2", "1"], "time": [898, 1481, 1598, 2082, 2649, 2833, 3267, 3333, 3900, 3934, 4451, 5135, 5719, 6036, 6387, 6537, 6954, 7037]}, "edge": {"target": [], "time": []}}}, "displayed_time": "9.57", "trialTime": 9956, "trial_type": "mouselab-mdp", "trial_index": 66, "time_elapsed": 1049527, "internal_node_id": "0.0-4.0-3.0-26.0"}}, {"uniqueid": "w97167656:a78252280", "current_trial": 67, "dateTime": 1664556194031, "trialdata": {"revealed_states": [], "num_clicks_accrued": [0, 0, 0, 0, 0, 0, 0, 0, 0, 0, 0, 0, 0], "stateRewards": ["", 2, 4, 48, 48, -2, 4, 48, -24, -4, 8, -48, 48], "withholdReward": false, "trial_id": "mdp_407586865939", "block": "test2", "trialIndex": 59, "score": 57.25, "costs": -1.75, "simulationMode": [null, null, null], "rewards": [2, 4, 48], "path": ["0", "0", "1", "2", "3"], "rt": [7492, 65, 23], "actions": ["up", "up", "right"], "actionTimes": [8049, 8616, 9139], "queries": {"click": {"state": {"target": ["12", "7", "3", "1", "9", "5", "2"], "time": [1383, 2245, 3063, 4428, 4922, 5433, 7294]}, "edge": {"target": [], "time": []}}, "mouseover": {"state": {"target": ["12", "7", "3", "2", "4", "1", "9", "0", "5", "0", "2"], "time": [1191, 2125, 2826, 3460, 3610, 4228, 4711, 5079, 5262, 6246, 6613]}, "edge": {"target": [], "time": []}}, "mouseout": {"state": {"target": ["5", "0", "12", "7", "3", "2", "4", "1", "9", "0", "5", "0", "1", "2"], "time": [424, 1041, 1642, 2576, 3410, 3527, 4044, 4578, 5045, 5128, 5612, 6296, 6496, 8315]}, "edge": {"target": [], "time": []}}}, "displayed_time": "9.63", "trialTime": 10105, "trial_type": "mouselab-mdp", "trial_index": 67, "time_elapsed": 1059676, "internal_node_id": "0.0-4.0-3.0-27.0"}}, {"uniqueid": "w97167656:a78252280", "current_trial": 68, "dateTime": 1664556204101, "trialdata": {"revealed_states": [], "num_clicks_accrued": [0, 0, 0, 0, 0, 0, 0, 0, 0, 0, 0, 0, 0], "stateRewards": ["", -4, -8, 24, 48, 2, -4, -24, 24, -4, 8, 48, 48], "withholdReward": false, "trial_id": "mdp_496672670022", "block": "test2", "trialIndex": 60, "score": 54.75, "costs": -2.25, "simulationMode": [null, null, null], "rewards": [-4, 8, 48], "path": ["0", "0", "9", "10", "12"], "rt": [6535, 338, 104], "actions": ["left", "left", "down"], "actionTimes": [7175, 8008, 8609], "queries": {"click": {"state": {"target": ["12", "7", "8", "3", "4", "1", "9", "10", "2"], "time": [1264, 1804, 2412, 2959, 3499, 4601, 5014, 5674, 6305]}, "edge": {"target": [], "time": []}}, "mouseover": {"state": {"target": ["0", "12", "9", "7", "6", "8", "5", "3", "4", "2", "1", "9", "10", "10", "2"], "time": [930, 1131, 1448, 1631, 2198, 2248, 2699, 2799, 3283, 3984, 4317, 4851, 5251, 5485, 6186]}, "edge": {"target": [], "time": []}}, "mouseout": {"state": {"target": ["5", "0", "0", "12", "9", "7", "6", "8", "5", "3", "4", "2", "1", "9", "10", "10", "9", "2", "1", "0"], "time": [363, 580, 964, 1397, 1464, 1965, 2215, 2665, 2716, 3183, 3967, 4300, 4734, 5185, 5268, 5885, 5935, 6402, 6519, 7504]}, "edge": {"target": [], "time": []}}}, "displayed_time": "9.64", "trialTime": 10021, "trial_type": "mouselab-mdp", "trial_index": 68, "time_elapsed": 1069746, "internal_node_id": "0.0-4.0-3.0-28.0"}}, {"uniqueid": "w97167656:a78252280", "current_trial": 69, "dateTime": 1664556213059, "trialdata": {"revealed_states": [], "num_clicks_accrued": [0, 0, 0, 0, 0, 0, 0, 0, 0, 0, 0, 0, 0], "stateRewards": ["", -4, 8, -24, -24, 4, -8, 48, -24, -4, -8, -24, -48], "withholdReward": false, "trial_id": "mdp_391766721791", "block": "test2", "trialIndex": 61, "score": 47.75, "costs": -1.25, "simulationMode": [null, null, null], "rewards": [4, -8, 48], "path": ["0", "0", "5", "6", "7"], "rt": [4497, 38, 143], "actions": ["right", "right", "up"], "actionTimes": [5068, 5601, 6257], "queries": {"click": {"state": {"target": ["12", "11", "7", "3", "4"], "time": [1219, 1714, 2193, 3305, 3799]}, "edge": {"target": [], "time": []}}, "mouseover": {"state": {"target": ["12", "10", "11", "1", "7", "6", "8", "3", "4", "1", "5"], "time": [1125, 1425, 1609, 1909, 2093, 2343, 2597, 3211, 3644, 4095, 4428]}, "edge": {"target": [], "time": []}}, "mouseout": {"state": {"target": ["0", "12", "10", "11", "1", "7", "6", "8", "3", "4", "1", "5", "6"], "time": [908, 1375, 1526, 1826, 1943, 2327, 2393, 3010, 3494, 3945, 4295, 5413, 5447]}, "edge": {"target": [], "time": []}}}, "displayed_time": "8.57", "trialTime": 8914, "trial_type": "mouselab-mdp", "trial_index": 69, "time_elapsed": 1078704, "internal_node_id": "0.0-4.0-3.0-29.0"}}, {"uniqueid": "w97167656:a78252280", "current_trial": 70, "dateTime": 1664556214372, "trialdata": {"rt": 1310, "stimulus": "<h1> End of block! </h1>\n\nYou have reached the end of the block 2/4. If you need a short break, feel free to take one now before moving on.\n\n<br><br>\nIn the next block, you will complete another 30 rounds of this game.\n\n<br><br>\n<div style='text-align: center;'>Press <code>space</code> to begin.</div>\n<br><br>\n<div style='text-align: center;'>(If the experiment doesn't continue, try clicking on the text and then pressing <code>space</code>.)</div>", "response": " ", "trial_id": "mdp_ready_3", "trial_type": "html-keyboard-response", "trial_index": 70, "time_elapsed": 1080017, "internal_node_id": "0.0-4.0-4.0"}}, {"uniqueid": "w97167656:a78252280", "current_trial": 71, "dateTime": 1664556223810, "trialdata": {"revealed_states": [], "num_clicks_accrued": [0, 0, 0, 0, 0, 0, 0, 0, 0, 0, 0, 0, 0], "stateRewards": ["", -2, 4, 24, 48, 2, 4, -48, -48, 2, 8, 48, -48], "withholdReward": false, "trial_id": "mdp_409609775558", "block": "test3", "trialIndex": 62, "score": 61, "costs": -2, "simulationMode": [null, null, null], "rewards": [2, 8, 48], "path": ["0", "0", "9", "10", "11"], "rt": [5826, 155, 87], "actions": ["left", "left", "up"], "actionTimes": [6536, 7194, 7792], "queries": {"click": {"state": {"target": ["12", "7", "8", "11", "4", "9", "1", "10"], "time": [1193, 1920, 2393, 2948, 3345, 4637, 5018, 5723]}, "edge": {"target": [], "time": []}}, "mouseover": {"state": {"target": ["0", "9", "12", "9", "7", "6", "8", "0", "9", "11", "4", "2", "3", "1", "9", "1", "10"], "time": [914, 931, 1114, 1548, 1782, 2115, 2265, 2616, 2666, 2866, 3150, 3550, 3801, 4418, 4518, 4868, 5619]}, "edge": {"target": [], "time": []}}, "mouseout": {"state": {"target": ["5", "0", "9", "12", "9", "7", "6", "8", "0", "9", "11", "4", "2", "3", "1", "9", "1", "9", "10", "9", "5"], "time": [547, 931, 964, 1481, 1581, 2082, 2182, 2533, 2649, 2699, 3066, 3500, 3667, 4117, 4451, 4785, 5335, 5552, 5869, 5986, 9223]}, "edge": {"target": [], "time": []}}}, "displayed_time": "8.71", "trialTime": 9394, "trial_type": "mouselab-mdp", "trial_index": 71, "time_elapsed": 1089455, "internal_node_id": "0.0-4.0-5.0-0.0"}}, {"uniqueid": "w97167656:a78252280", "current_trial": 72, "dateTime": 1664556232516, "trialdata": {"revealed_states": [], "num_clicks_accrued": [0, 0, 0, 0, 0, 0, 0, 0, 0, 0, 0, 0, 0], "stateRewards": ["", 2, -4, 24, 24, 2, 4, 24, 24, -4, 8, 24, 48], "withholdReward": true, "trial_id": "mdp_268430387178", "block": "test3", "trialIndex": 63, "score": 55.5, "costs": -1.5, "simulationMode": [null, null, null], "rewards": [-4, 8, 48], "path": ["0", "0", "9", "10", "12"], "rt": [5617, 345, 277], "actions": ["left", "left", "down"], "actionTimes": [6140, 6974, 7741], "queries": {"click": {"state": {"target": ["12", "7", "11", "8", "3", "4"], "time": [1282, 2002, 2617, 3189, 3727, 5242]}, "edge": {"target": [], "time": []}}, "mouseover": {"state": {"target": ["0", "9", "12", "12", "5", "6", "7", "11", "9", "0", "8", "5", "3", "4"], "time": [671, 737, 821, 1189, 1622, 1772, 1838, 2522, 2773, 2806, 3123, 3423, 3657, 5008]}, "edge": {"target": [], "time": []}}, "mouseout": {"state": {"target": ["0", "9", "12", "12", "5", "6", "7", "11", "9", "0", "8", "5", "3", "4", "9", "0"], "time": [688, 754, 921, 1405, 1638, 1805, 2139, 2723, 2789, 2823, 3373, 3457, 4007, 5642, 6444, 6610]}, "edge": {"target": [], "time": []}}}, "displayed_time": "8.52", "trialTime": 8664, "trial_type": "mouselab-mdp", "trial_index": 72, "time_elapsed": 1098161, "internal_node_id": "0.0-4.0-5.0-1.0"}}, {"uniqueid": "w97167656:a78252280", "current_trial": 73, "dateTime": 1664556243257, "trialdata": {"revealed_states": [], "num_clicks_accrued": [0, 0, 0, 0, 0, 0, 0, 0, 0, 0, 0, 0, 0], "stateRewards": ["", 4, -8, 48, 24, 4, -4, 48, 48, -4, 8, -48, 24], "withholdReward": true, "trial_id": "mdp_303828806348", "block": "test3", "trialIndex": 64, "score": 51, "costs": -2, "simulationMode": [null, null, null], "rewards": [4, -4, 48], "path": ["0", "0", "5", "6", "7"], "rt": [7964, 96, 87], "actions": ["right", "right", "up"], "actionTimes": [8585, 9185, 9775], "queries": {"click": {"state": {"target": ["12", "7", "11", "4", "3", "1", "5", "2"], "time": [1617, 2404, 3815, 4362, 4946, 5832, 6409, 7212]}, "edge": {"target": [], "time": []}}, "mouseover": {"state": {"target": ["12", "12", "12", "12", "8", "6", "7", "2", "4", "11", "4", "2", "3", "1", "5", "2", "6"], "time": [862, 1078, 1279, 1479, 1863, 2129, 2280, 2997, 3197, 3581, 4265, 4699, 4815, 5733, 6150, 7084, 7818]}, "edge": {"target": [], "time": []}}, "mouseout": {"state": {"target": ["0", "12", "12", "12", "12", "8", "6", "7", "2", "4", "11", "4", "2", "3", "1", "5", "2", "6"], "time": [812, 878, 1145, 1379, 1746, 1879, 2196, 2597, 3080, 3548, 4015, 4665, 4732, 5399, 5983, 6918, 7468, 8135]}, "edge": {"target": [], "time": []}}}, "displayed_time": "10.27", "trialTime": 10687, "trial_type": "mouselab-mdp", "trial_index": 73, "time_elapsed": 1108902, "internal_node_id": "0.0-4.0-5.0-2.0"}}, {"uniqueid": "w97167656:a78252280", "current_trial": 74, "dateTime": 1664556253963, "trialdata": {"revealed_states": [], "num_clicks_accrued": [0, 0, 0, 0, 0, 0, 0, 0, 0, 0, 0, 0, 0], "stateRewards": ["", -4, -4, 48, 24, -4, -4, -24, -48, -4, 4, 48, -24], "withholdReward": true, "trial_id": "mdp_896503755738", "block": 