{"condition": 0, "counterbalance": 0, "assignmentId": "a42847816", "workerId": "w46230590", "hitId": "h49824792", "currenttrial": 971, "bonus": 0, "data": [{"uniqueid": "w46230590:a42847816", "current_trial": 0, "dateTime": 1664463982294, "trialdata": {"success": true, "trial_type": "fullscreen", "trial_index": 0, "time_elapsed": 5987, "internal_node_id": "0.0-0.0"}}, {"uniqueid": "w46230590:a42847816", "current_trial": 1, "dateTime": 1664464005700, "trialdata": {"view_history": [{"page_index": 0, "viewing_time": 23397}], "rt": 23398, "trial_id": "exp_instructions_distractor", "trial_type": "instructions", "trial_index": 1, "time_elapsed": 29394, "internal_node_id": "0.0-1.0"}}, {"uniqueid": "w46230590:a42847816", "current_trial": 2, "dateTime": 1664464032003, "trialdata": {"view_history": [{"page_index": 0, "viewing_time": 26300}], "rt": 26301, "trial_id": "color_game_instructions", "trial_type": "instructions", "trial_index": 2, "time_elapsed": 55697, "internal_node_id": "0.0-2.0"}}, {"uniqueid": "w46230590:a42847816", "current_trial": 3, "dateTime": 1664464040882, "trialdata": {"rt": 8876, "stimulus": "<h1> Get ready to start the game! </h1>\n\nThank you for reading the instructions. Get ready start with the first of 5 block(s) of this game.\n<br><br>\nIn this first block, you will complete 90 rounds of this game before moving on.\n<br><br>\nRemember, the better you perform, the bigger your bonus will be!\n<br><br>\n<div style='text-align: center;'>Press <code>space</code> to begin.</div>", "response": " ", "trial_id": "stroop_1_ready_1", "trial_type": "html-keyboard-response", "trial_index": 3, "time_elapsed": 64576, "internal_node_id": "0.0-3.0"}}, {"uniqueid": "w46230590:a42847816", "current_trial": 4, "dateTime": 1664464042153, "trialdata": {"rt": 1251, "stimulus": "<p id='stroop-text' class='stroop-green'>RED</p>", "response": "g", "stimulus-type": "incongruent", "word": "red", "color": "green", "correct_response": "g", "trial_id": "stroop-trial-1-incongruent-11", "trial_type": "html-keyboard-response", "trial_index": 4, "time_elapsed": 65846, "internal_node_id": "0.0-4.0-0.0"}}, {"uniqueid": "w46230590:a42847816", "current_trial": 5, "dateTime": 1664464043649, "trialdata": {"rt": 993, "stimulus": "<p id='stroop-text' class='stroop-blue'>YELLOW</p>", "response": "b", "stimulus-type": "incongruent", "word": "yellow", "color": "blue", "correct_response": "b", "trial_id": "stroop-trial-1-incongruent-22", "trial_type": "html-keyboard-response", "trial_index": 5, "time_elapsed": 67342, "internal_node_id": "0.0-4.0-1.0"}}, {"uniqueid": "w46230590:a42847816", "current_trial": 6, "dateTime": 1664464045208, "trialdata": {"rt": 1055, "stimulus": "<p id='stroop-text' class='stroop-green'>YELLOW</p>", "response": "g", "stimulus-type": "incongruent", "word": "yellow", "color": "green", "correct_response": "g", "trial_id": "stroop-trial-1-incongruent-28", "trial_type": "html-keyboard-response", "trial_index": 6, "time_elapsed": 68901, "internal_node_id": "0.0-4.0-2.0"}}, {"uniqueid": "w46230590:a42847816", "current_trial": 7, "dateTime": 1664464046402, "trialdata": {"rt": 691, "stimulus": "<p id='stroop-text' class='stroop-blue'>BLUE</p>", "response": "b", "stimulus-type": "congruent", "word": "blue", "color": "blue", "correct_response": "b", "trial_id": "stroop-trial-1-congruent-2", "trial_type": "html-keyboard-response", "trial_index": 7, "time_elapsed": 70095, "internal_node_id": "0.0-4.0-3.0"}}, {"uniqueid": "w46230590:a42847816", "current_trial": 8, "dateTime": 1664464047370, "trialdata": {"rt": 465, "stimulus": "<p id='stroop-text' class='stroop-blue'>BLUE</p>", "response": "b", "stimulus-type": "congruent", "word": "blue", "color": "blue", "correct_response": "b", "trial_id": "stroop-trial-1-congruent-21", "trial_type": "html-keyboard-response", "trial_index": 8, "time_elapsed": 71063, "internal_node_id": "0.0-4.0-4.0"}}, {"uniqueid": "w46230590:a42847816", "current_trial": 9, "dateTime": 1664464048456, "trialdata": {"rt": 583, "stimulus": "<p id='stroop-text' class='stroop-green'>GREEN</p>", "response": "g", "stimulus-type": "congruent", "word": "green", "color": "green", "correct_response": "g", "trial_id": "stroop-trial-1-congruent-29", "trial_type": "html-keyboard-response", "trial_index": 9, "time_elapsed": 72149, "internal_node_id": "0.0-4.0-5.0"}}, {"uniqueid": "w46230590:a42847816", "current_trial": 10, "dateTime": 1664464049611, "trialdata": {"rt": 653, "stimulus": "<p id='stroop-text' class='stroop-blue'>CHAIR</p>", "response": "b", "stimulus-type": "unrelated", "word": "CHAIR", "color": "blue", "correct_response": "b", "trial_id": "stroop-trial-1-unrelated-4", "trial_type": "html-keyboard-response", "trial_index": 10, "time_elapsed": 73305, "internal_node_id": "0.0-4.0-6.0"}}, {"uniqueid": "w46230590:a42847816", "current_trial": 11, "dateTime": 1664464050703, "trialdata": {"rt": 590, "stimulus": "<p id='stroop-text' class='stroop-green'>GREEN</p>", "response": "g", "stimulus-type": "congruent", "word": "green", "color": "green", "correct_response": "g", "trial_id": "stroop-trial-1-congruent-19", "trial_type": "html-keyboard-response", "trial_index": 11, "time_elapsed": 74397, "internal_node_id": "0.0-4.0-7.0"}}, {"uniqueid": "w46230590:a42847816", "current_trial": 12, "dateTime": 1664464052064, "trialdata": {"rt": 858, "stimulus": "<p id='stroop-text' class='stroop-red'>CHAIR</p>", "response": "r", "stimulus-type": "unrelated", "word": "CHAIR", "color": "red", "correct_response": "r", "trial_id": "stroop-trial-1-unrelated-29", "trial_type": "html-keyboard-response", "trial_index": 12, "time_elapsed": 75758, "internal_node_id": "0.0-4.0-8.0"}}, {"uniqueid": "w46230590:a42847816", "current_trial": 13, "dateTime": 1664464053529, "trialdata": {"rt": 962, "stimulus": "<p id='stroop-text' class='stroop-blue'>FORK</p>", "response": "b", "stimulus-type": "unrelated", "word": "FORK", "color": "blue", "correct_response": "b", "trial_id": "stroop-trial-1-unrelated-6", "trial_type": "html-keyboard-response", "trial_index": 13, "time_elapsed": 77223, "internal_node_id": "0.0-4.0-9.0"}}, {"uniqueid": "w46230590:a42847816", "current_trial": 14, "dateTime": 1664464054867, "trialdata": {"rt": 834, "stimulus": "<p id='stroop-text' class='stroop-green'>YELLOW</p>", "response": "y", "stimulus-type": "incongruent", "word": "yellow", "color": "green", "correct_response": "g", "trial_id": "stroop-trial-1-incongruent-1", "trial_type": "html-keyboard-response", "trial_index": 14, "time_elapsed": 78561, "internal_node_id": "0.0-4.0-10.0"}}, {"uniqueid": "w46230590:a42847816", "current_trial": 15, "dateTime": 1664464056215, "trialdata": {"rt": 845, "stimulus": "<p id='stroop-text' class='stroop-yellow'>GREEN</p>", "response": "y", "stimulus-type": "incongruent", "word": "green", "color": "yellow", "correct_response": "y", "trial_id": "stroop-trial-1-incongruent-12", "trial_type": "html-keyboard-response", "trial_index": 15, "time_elapsed": 79909, "internal_node_id": "0.0-4.0-11.0"}}, {"uniqueid": "w46230590:a42847816", "current_trial": 16, "dateTime": 1664464057667, "trialdata": {"rt": 949, "stimulus": "<p id='stroop-text' class='stroop-red'>CHAIR</p>", "response": "r", "stimulus-type": "unrelated", "word": "CHAIR", "color": "red", "correct_response": "r", "trial_id": "stroop-trial-1-unrelated-10", "trial_type": "html-keyboard-response", "trial_index": 16, "time_elapsed": 81360, "internal_node_id": "0.0-4.0-12.0"}}, {"uniqueid": "w46230590:a42847816", "current_trial": 17, "dateTime": 1664464058932, "trialdata": {"rt": 762, "stimulus": "<p id='stroop-text' class='stroop-blue'>GREEN</p>", "response": "b", "stimulus-type": "incongruent", "word": "green", "color": "blue", "correct_response": "b", "trial_id": "stroop-trial-1-incongruent-25", "trial_type": "html-keyboard-response", "trial_index": 17, "time_elapsed": 82626, "internal_node_id": "0.0-4.0-13.0"}}, {"uniqueid": "w46230590:a42847816", "current_trial": 18, "dateTime": 1664464060005, "trialdata": {"rt": 570, "stimulus": "<p id='stroop-text' class='stroop-blue'>SHIP</p>", "response": "b", "stimulus-type": "unrelated", "word": "SHIP", "color": "blue", "correct_response": "b", "trial_id": "stroop-trial-1-unrelated-14", "trial_type": "html-keyboard-response", "trial_index": 18, "time_elapsed": 83698, "internal_node_id": "0.0-4.0-14.0"}}, {"uniqueid": "w46230590:a42847816", "current_trial": 19, "dateTime": 1664464061385, "trialdata": {"rt": 876, "stimulus": "<p id='stroop-text' class='stroop-yellow'>MONKEY</p>", "response": "y", "stimulus-type": "unrelated", "word": "MONKEY", "color": "yellow", "correct_response": "y", "trial_id": "stroop-trial-1-unrelated-21", "trial_type": "html-keyboard-response", "trial_index": 19, "time_elapsed": 85078, "internal_node_id": "0.0-4.0-15.0"}}, {"uniqueid": "w46230590:a42847816", "current_trial": 20, "dateTime": 1664464062878, "trialdata": {"rt": 991, "stimulus": "<p id='stroop-text' class='stroop-red'>SHIP</p>", "response": "r", "stimulus-type": "unrelated", "word": "SHIP", "color": "red", "correct_response": "r", "trial_id": "stroop-trial-1-unrelated-13", "trial_type": "html-keyboard-response", "trial_index": 20, "time_elapsed": 86572, "internal_node_id": "0.0-4.0-16.0"}}, {"uniqueid": "w46230590:a42847816", "current_trial": 21, "dateTime": 1664464063947, "trialdata": {"rt": 564, "stimulus": "<p id='stroop-text' class='stroop-blue'>SHIP</p>", "response": "b", "stimulus-type": "unrelated", "word": "SHIP", "color": "blue", "correct_response": "b", "trial_id": "stroop-trial-1-unrelated-11", "trial_type": "html-keyboard-response", "trial_index": 21, "time_elapsed": 87640, "internal_node_id": "0.0-4.0-17.0"}}, {"uniqueid": "w46230590:a42847816", "current_trial": 22, "dateTime": 1664464065109, "trialdata": {"rt": 659, "stimulus": "<p id='stroop-text' class='stroop-red'>RED</p>", "response": "r", "stimulus-type": "congruent", "word": "red", "color": "red", "correct_response": "r", "trial_id": "stroop-trial-1-congruent-4", "trial_type": "html-keyboard-response", "trial_index": 22, "time_elapsed": 88802, "internal_node_id": "0.0-4.0-18.0"}}, {"uniqueid": "w46230590:a42847816", "current_trial": 23, "dateTime": 1664464066179, "trialdata": {"rt": 567, "stimulus": "<p id='stroop-text' class='stroop-blue'>SHIP</p>", "response": "b", "stimulus-type": "unrelated", "word": "SHIP", "color": "blue", "correct_response": "b", "trial_id": "stroop-trial-1-unrelated-2", "trial_type": "html-keyboard-response", "trial_index": 23, "time_elapsed": 89873, "internal_node_id": "0.0-4.0-19.0"}}, {"uniqueid": "w46230590:a42847816", "current_trial": 24, "dateTime": 1664464067406, "trialdata": {"rt": 724, "stimulus": "<p id='stroop-text' class='stroop-yellow'>BOTTLE</p>", "response": "y", "stimulus-type": "unrelated", "word": "BOTTLE", "color": "yellow", "correct_response": "y", "trial_id": "stroop-trial-1-unrelated-22", "trial_type": "html-keyboard-response", "trial_index": 24, "time_elapsed": 91100, "internal_node_id": "0.0-4.0-20.0"}}, {"uniqueid": "w46230590:a42847816", "current_trial": 25, "dateTime": 1664464068455, "trialdata": {"rt": 546, "stimulus": "<p id='stroop-text' class='stroop-yellow'>SHIP</p>", "response": "y", "stimulus-type": "unrelated", "word": "SHIP", "color": "yellow", "correct_response": "y", "trial_id": "stroop-trial-1-unrelated-18", "trial_type": "html-keyboard-response", "trial_index": 25, "time_elapsed": 92148, "internal_node_id": "0.0-4.0-21.0"}}, {"uniqueid": "w46230590:a42847816", "current_trial": 26, "dateTime": 1664464069468, "trialdata": {"rt": 509, "stimulus": "<p id='stroop-text' class='stroop-yellow'>YELLOW</p>", "response": "y", "stimulus-type": "congruent", "word": "yellow", "color": "yellow", "correct_response": "y", "trial_id": "stroop-trial-1-congruent-12", "trial_type": "html-keyboard-response", "trial_index": 26, "time_elapsed": 93161, "internal_node_id": "0.0-4.0-22.0"}}, {"uniqueid": "w46230590:a42847816", "current_trial": 27, "dateTime": 1664464070812, "trialdata": {"rt": 842, "stimulus": "<p id='stroop-text' class='stroop-green'>DOG</p>", "response": "g", "stimulus-type": "unrelated", "word": "DOG", "color": "green", "correct_response": "g", "trial_id": "stroop-trial-1-unrelated-19", "trial_type": "html-keyboard-response", "trial_index": 27, "time_elapsed": 94506, "internal_node_id": "0.0-4.0-23.0"}}, {"uniqueid": "w46230590:a42847816", "current_trial": 28, "dateTime": 1664464071837, "trialdata": {"rt": 522, "stimulus": "<p id='stroop-text' class='stroop-blue'>BLUE</p>", "response": "b", "stimulus-type": "congruent", "word": "blue", "color": "blue", "correct_response": "b", "trial_id": "stroop-trial-1-congruent-6", "trial_type": "html-keyboard-response", "trial_index": 28, "time_elapsed": 95531, "internal_node_id": "0.0-4.0-24.0"}}, {"uniqueid": "w46230590:a42847816", "current_trial": 29, "dateTime": 1664464072936, "trialdata": {"rt": 596, "stimulus": "<p id='stroop-text' class='stroop-green'>FORK</p>", "response": "g", "stimulus-type": "unrelated", "word": "FORK", "color": "green", "correct_response": "g", "trial_id": "stroop-trial-1-unrelated-1", "trial_type": "html-keyboard-response", "trial_index": 29, "time_elapsed": 96629, "internal_node_id": "0.0-4.0-25.0"}}, {"uniqueid": "w46230590:a42847816", "current_trial": 30, "dateTime": 1664464074281, "trialdata": {"rt": 842, "stimulus": "<p id='stroop-text' class='stroop-blue'>YELLOW</p>", "response": "b", "stimulus-type": "incongruent", "word": "yellow", "color": "blue", "correct_response": "b", "trial_id": "stroop-trial-1-incongruent-5", "trial_type": "html-keyboard-response", "trial_index": 30, "time_elapsed": 97974, "internal_node_id": "0.0-4.0-26.0"}}, {"uniqueid": "w46230590:a42847816", "current_trial": 31, "dateTime": 1664464075294, "trialdata": {"rt": 511, "stimulus": "<p id='stroop-text' class='stroop-blue'>BLUE</p>", "response": "b", "stimulus-type": "congruent", "word": "blue", "color": "blue", "correct_response": "b", "trial_id": "stroop-trial-1-congruent-15", "trial_type": "html-keyboard-response", "trial_index": 31, "time_elapsed": 98988, "internal_node_id": "0.0-4.0-27.0"}}, {"uniqueid": "w46230590:a42847816", "current_trial": 32, "dateTime": 1664464076253, "trialdata": {"rt": 455, "stimulus": "<p id='stroop-text' class='stroop-blue'>BLUE</p>", "response": "b", "stimulus-type": "congruent", "word": "blue", "color": "blue", "correct_response": "b", "trial_id": "stroop-trial-1-congruent-26", "trial_type": "html-keyboard-response", "trial_index": 32, "time_elapsed": 99946, "internal_node_id": "0.0-4.0-28.0"}}, {"uniqueid": "w46230590:a42847816", "current_trial": 33, "dateTime": 1664464077448, "trialdata": {"rt": 693, "stimulus": "<p id='stroop-text' class='stroop-red'>RED</p>", "response": "r", "stimulus-type": "congruent", "word": "red", "color": "red", "correct_response": "r", "trial_id": "stroop-trial-1-congruent-23", "trial_type": "html-keyboard-response", "trial_index": 33, "time_elapsed": 101142, "internal_node_id": "0.0-4.0-29.0"}}, {"uniqueid": "w46230590:a42847816", "current_trial": 34, "dateTime": 1664464078645, "trialdata": {"rt": 694, "stimulus": "<p id='stroop-text' class='stroop-red'>BOTTLE</p>", "response": "r", "stimulus-type": "unrelated", "word": "BOTTLE", "color": "red", "correct_response": "r", "trial_id": "stroop-trial-1-unrelated-7", "trial_type": "html-keyboard-response", "trial_index": 34, "time_elapsed": 102338, "internal_node_id": "0.0-4.0-30.0"}}, {"uniqueid": "w46230590:a42847816", "current_trial": 35, "dateTime": 1664464080128, "trialdata": {"rt": 980, "stimulus": "<p id='stroop-text' class='stroop-red'>GREEN</p>", "response": "r", "stimulus-type": "incongruent", "word": "green", "color": "red", "correct_response": "r", "trial_id": "stroop-trial-1-incongruent-21", "trial_type": "html-keyboard-response", "trial_index": 35, "time_elapsed": 103821, "internal_node_id": "0.0-4.0-31.0"}}, {"uniqueid": "w46230590:a42847816", "current_trial": 36, "dateTime": 1664464081319, "trialdata": {"rt": 688, "stimulus": "<p id='stroop-text' class='stroop-red'>YELLOW</p>", "response": "r", "stimulus-type": "incongruent", "word": "yellow", "color": "red", "correct_response": "r", "trial_id": "stroop-trial-1-incongruent-4", "trial_type": "html-keyboard-response", "trial_index": 36, "time_elapsed": 105012, "internal_node_id": "0.0-4.0-32.0"}}, {"uniqueid": "w46230590:a42847816", "current_trial": 37, "dateTime": 1664464082355, "trialdata": {"rt": 533, "stimulus": "<p id='stroop-text' class='stroop-blue'>RED</p>", "response": "b", "stimulus-type": "incongruent", "word": "red", "color": "blue", "correct_response": "b", "trial_id": "stroop-trial-1-incongruent-24", "trial_type": "html-keyboard-response", "trial_index": 37, "time_elapsed": 106048, "internal_node_id": "0.0-4.0-33.0"}}, {"uniqueid": "w46230590:a42847816", "current_trial": 38, "dateTime": 1664464083355, "trialdata": {"rt": 497, "stimulus": "<p id='stroop-text' class='stroop-red'>DOG</p>", "response": "r", "stimulus-type": "unrelated", "word": "DOG", "color": "red", "correct_response": "r", "trial_id": "stroop-trial-1-unrelated-27", "trial_type": "html-keyboard-response", "trial_index": 38, "time_elapsed": 107048, "internal_node_id": "0.0-4.0-34.0"}}, {"uniqueid": "w46230590:a42847816", "current_trial": 39, "dateTime": 1664464084363, "trialdata": {"rt": 505, "stimulus": "<p id='stroop-text' class='stroop-blue'>BLUE</p>", "response": "b", "stimulus-type": "congruent", "word": "blue", "color": "blue", "correct_response": "b", "trial_id": "stroop-trial-1-congruent-16", "trial_type": "html-keyboard-response", "trial_index": 39, "time_elapsed": 108056, "internal_node_id": "0.0-4.0-35.0"}}, {"uniqueid": "w46230590:a42847816", "current_trial": 40, "dateTime": 1664464085740, "trialdata": {"rt": 874, "stimulus": "<p id='stroop-text' class='stroop-blue'>YELLOW</p>", "response": "b", "stimulus-type": "incongruent", "word": "yellow", "color": "blue", "correct_response": "b", "trial_id": "stroop-trial-1-incongruent-30", "trial_type": "html-keyboard-response", "trial_index": 40, "time_elapsed": 109433, "internal_node_id": "0.0-4.0-36.0"}}, {"uniqueid": "w46230590:a42847816", "current_trial": 41, "dateTime": 1664464087507, "trialdata": {"rt": 1265, "stimulus": "<p id='stroop-text' class='stroop-yellow'>STONE</p>", "response": "y", "stimulus-type": "unrelated", "word": "STONE", "color": "yellow", "correct_response": "y", "trial_id": "stroop-trial-1-unrelated-9", "trial_type": "html-keyboard-response", "trial_index": 41, "time_elapsed": 111201, "internal_node_id": "0.0-4.0-37.0"}}, {"uniqueid": "w46230590:a42847816", "current_trial": 42, "dateTime": 1664464088810, "trialdata": {"rt": 800, "stimulus": "<p id='stroop-text' class='stroop-blue'>BLUE</p>", "response": "b", "stimulus-type": "congruent", "word": "blue", "color": "blue", "correct_response": "b", "trial_id": "stroop-trial-1-congruent-10", "trial_type": "html-keyboard-response", "trial_index": 42, "time_elapsed": 112504, "internal_node_id": "0.0-4.0-38.0"}}, {"uniqueid": "w46230590:a42847816", "current_trial": 43, "dateTime": 1664464090089, "trialdata": {"rt": 776, "stimulus": "<p id='stroop-text' class='stroop-yellow'>YELLOW</p>", "response": "y", "stimulus-type": "congruent", "word": "yellow", "color": "yellow", "correct_response": "y", "trial_id": "stroop-trial-1-congruent-14", "trial_type": "html-keyboard-response", "trial_index": 43, "time_elapsed": 113783, "internal_node_id": "0.0-4.0-39.0"}}, {"uniqueid": "w46230590:a42847816", "current_trial": 44, "dateTime": 1664464091170, "trialdata": {"rt": 577, "stimulus": "<p id='stroop-text' class='stroop-yellow'>YELLOW</p>", "response": "y", "stimulus-type": "congruent", "word": "yellow", "color": "yellow", "correct_response": "y", "trial_id": "stroop-trial-1-congruent-13", "trial_type": "html-keyboard-response", "trial_index": 44, "time_elapsed": 114864, "internal_node_id": "0.0-4.0-40.0"}}, {"uniqueid": "w46230590:a42847816", "current_trial": 45, "dateTime": 1664464092325, "trialdata": {"rt": 651, "stimulus": "<p id='stroop-text' class='stroop-red'>DOG</p>", "response": "r", "stimulus-type": "unrelated", "word": "DOG", "color": "red", "correct_response": "r", "trial_id": "stroop-trial-1-unrelated-5", "trial_type": "html-keyboard-response", "trial_index": 45, "time_elapsed": 116019, "internal_node_id": "0.0-4.0-41.0"}}, {"uniqueid": "w46230590:a42847816", "current_trial": 46, "dateTime": 1664464093506, "trialdata": {"rt": 677, "stimulus": "<p id='stroop-text' class='stroop-blue'>YELLOW</p>", "response": "b", "stimulus-type": "incongruent", "word": "yellow", "color": "blue", "correct_response": "b", "trial_id": "stroop-trial-1-incongruent-29", "trial_type": "html-keyboard-response", "trial_index": 46, "time_elapsed": 117199, "internal_node_id": "0.0-4.0-42.0"}}, {"uniqueid": "w46230590:a42847816", "current_trial": 47, "dateTime": 1664464094526, "trialdata": {"rt": 517, "stimulus": "<p id='stroop-text' class='stroop-red'>RED</p>", "response": "r", "stimulus-type": "congruent", "word": "red", "color": "red", "correct_response": "r", "trial_id": "stroop-trial-1-congruent-1", "trial_type": "html-keyboard-response", "trial_index": 47, "time_elapsed": 118220, "internal_node_id": "0.0-4.0-43.0"}}, {"uniqueid": "w46230590:a42847816", "current_trial": 48, "dateTime": 1664464095645, "trialdata": {"rt": 616, "stimulus": "<p id='stroop-text' class='stroop-yellow'>FORK</p>", "response": "y", "stimulus-type": "unrelated", "word": "FORK", "color": "yellow", "correct_response": "y", "trial_id": "stroop-trial-1-unrelated-26", "trial_type": "html-keyboard-response", "trial_index": 48, "time_elapsed": 119339, "internal_node_id": "0.0-4.0-44.0"}}, {"uniqueid": "w46230590:a42847816", "current_trial": 49, "dateTime": 1664464096741, "trialdata": {"rt": 592, "stimulus": "<p id='stroop-text' class='stroop-red'>RED</p>", "response": "r", "stimulus-type": "congruent", "word": "red", "color": "red", "correct_response": "r", "trial_id": "stroop-trial-1-congruent-30", "trial_type": "html-keyboard-response", "trial_index": 49, "time_elapsed": 120434, "internal_node_id": "0.0-4.0-45.0"}}, {"uniqueid": "w46230590:a42847816", "current_trial": 50, "dateTime": 1664464097893, "trialdata": {"rt": 650, "stimulus": "<p id='stroop-text' class='stroop-green'>FORK</p>", "response": "g", "stimulus-type": "unrelated", "word": "FORK", "color": "green", "correct_response": "g", "trial_id": "stroop-trial-1-unrelated-16", "trial_type": "html-keyboard-response", "trial_index": 50, "time_elapsed": 121587, "internal_node_id": "0.0-4.0-46.0"}}, {"uniqueid": "w46230590:a42847816", "current_trial": 51, "dateTime": 1664464098935, "trialdata": {"rt": 538, "stimulus": "<p id='stroop-text' class='stroop-blue'>YELLOW</p>", "response": "b", "stimulus-type": "incongruent", "word": "yellow", "color": "blue", "correct_response": "b", "trial_id": "stroop-trial-1-incongruent-13", "trial_type": "html-keyboard-response", "trial_index": 51, "time_elapsed": 122628, "internal_node_id": "0.0-4.0-47.0"}}, {"uniqueid": "w46230590:a42847816", "current_trial": 52, "dateTime": 1664464099953, "trialdata": {"rt": 516, "stimulus": "<p id='stroop-text' class='stroop-yellow'>YELLOW</p>", "response": "y", "stimulus-type": "congruent", "word": "yellow", "color": "yellow", "correct_response": "y", "trial_id": "stroop-trial-1-congruent-24", "trial_type": "html-keyboard-response", "trial_index": 52, "time_elapsed": 123647, "internal_node_id": "0.0-4.0-48.0"}}, {"uniqueid": "w46230590:a42847816", "current_trial": 53, "dateTime": 1664464100886, "trialdata": {"rt": 430, "stimulus": "<p id='stroop-text' class='stroop-yellow'>RED</p>", "response": "y", "stimulus-type": "incongruent", "word": "red", "color": "yellow", "correct_response": "y", "trial_id": "stroop-trial-1-incongruent-18", "trial_type": "html-keyboard-response", "trial_index": 53, "time_elapsed": 124579, "internal_node_id": "0.0-4.0-49.0"}}, {"uniqueid": "w46230590:a42847816", "current_trial": 54, "dateTime": 1664464101853, "trialdata": {"rt": 464, "stimulus": "<p id='stroop-text' class='stroop-yellow'>BLUE</p>", "response": "y", "stimulus-type": "incongruent", "word": "blue", "color": "yellow", "correct_response": "y", "trial_id": "stroop-trial-1-incongruent-27", "trial_type": "html-keyboard-response", "trial_index": 54, "time_elapsed": 125546, "internal_node_id": "0.0-4.0-50.0"}}, {"uniqueid": "w46230590:a42847816", "current_trial": 55, "dateTime": 1664464102841, "trialdata": {"rt": 486, "stimulus": "<p id='stroop-text' class='stroop-yellow'>YELLOW</p>", "response": "y", "stimulus-type": "congruent", "word": "yellow", "color": "yellow", "correct_response": "y", "trial_id": "stroop-trial-1-congruent-20", "trial_type": "html-keyboard-response", "trial_index": 55, "time_elapsed": 126534, "internal_node_id": "0.0-4.0-51.0"}}, {"uniqueid": "w46230590:a42847816", "current_trial": 56, "dateTime": 1664464104075, "trialdata": {"rt": 731, "stimulus": "<p id='stroop-text' class='stroop-yellow'>MONKEY</p>", "response": "y", "stimulus-type": "unrelated", "word": "MONKEY", "color": "yellow", "correct_response": "y", "trial_id": "stroop-trial-1-unrelated-25", "trial_type": "html-keyboard-response", "trial_index": 56, "time_elapsed": 127769, "internal_node_id": "0.0-4.0-52.0"}}, {"uniqueid": "w46230590:a42847816", "current_trial": 57, "dateTime": 1664464105170, "trialdata": {"rt": 591, "stimulus": "<p id='stroop-text' class='stroop-green'>GREEN</p>", "response": "g", "stimulus-type": "congruent", "word": "green", "color": "green", "correct_response": "g", "trial_id": "stroop-trial-1-congruent-11", "trial_type": "html-keyboard-response", "trial_index": 57, "time_elapsed": 128864, "internal_node_id": "0.0-4.0-53.0"}}, {"uniqueid": "w46230590:a42847816", "current_trial": 58, "dateTime": 1664464106196, "trialdata": {"rt": 523, "stimulus": "<p id='stroop-text' class='stroop-red'>RED</p>", "response": "r", "stimulus-type": "congruent", "word": "red", "color": "red", "correct_response": "r", "trial_id": "stroop-trial-1-congruent-9", "trial_type": "html-keyboard-response", "trial_index": 58, "time_elapsed": 129890, "internal_node_id": "0.0-4.0-54.0"}}, {"uniqueid": "w46230590:a42847816", "current_trial": 59, "dateTime": 1664464107476, "trialdata": {"rt": 777, "stimulus": "<p id='stroop-text' class='stroop-yellow'>RED</p>", "response": "y", "stimulus-type": "incongruent", "word": "red", "color": "yellow", "correct_response": "y", "trial_id": "stroop-trial-1-incongruent-16", "trial_type": "html-keyboard-response", "trial_index": 59, "time_elapsed": 131170, "internal_node_id": "0.0-4.0-55.0"}}, {"uniqueid": "w46230590:a42847816", "current_trial": 60, "dateTime": 1664464108576, "trialdata": {"rt": 597, "stimulus": "<p id='stroop-text' class='stroop-blue'>RED</p>", "response": "b", "stimulus-type": "incongruent", "word": "red", "color": "blue", "correct_response": "b", "trial_id": "stroop-trial-1-incongruent-6", "trial_type": "html-keyboard-response", "trial_index": 60, "time_elapsed": 132270, "internal_node_id": "0.0-4.0-56.0"}}, {"uniqueid": "w46230590:a42847816", "current_trial": 61, "dateTime": 1664464109576, "trialdata": {"rt": 496, "stimulus": "<p id='stroop-text' class='stroop-blue'>YELLOW</p>", "response": "b", "stimulus-type": "incongruent", "word": "yellow", "color": "blue", "correct_response": "b", "trial_id": "stroop-trial-1-incongruent-19", "trial_type": "html-keyboard-response", "trial_index": 61, "time_elapsed": 133270, "internal_node_id": "0.0-4.0-57.0"}}, {"uniqueid": "w46230590:a42847816", "current_trial": 62, "dateTime": 1664464111347, "trialdata": {"rt": 1268, "stimulus": "<p id='stroop-text' class='stroop-red'>BLUE</p>", "response": "r", "stimulus-type": "incongruent", "word": "blue", "color": "red", "correct_response": "r", "trial_id": "stroop-trial-1-incongruent-26", "trial_type": "html-keyboard-response", "trial_index": 62, "time_elapsed": 135040, "internal_node_id": "0.0-4.0-58.0"}}, {"uniqueid": "w46230590:a42847816", "current_trial": 63, "dateTime": 1664464112402, "trialdata": {"rt": 553, "stimulus": "<p id='stroop-text' class='stroop-blue'>DOG</p>", "response": "b", "stimulus-type": "unrelated", "word": "DOG", "color": "blue", "correct_response": "b", "trial_id": "stroop-trial-1-unrelated-3", "trial_type": "html-keyboard-response", "trial_index": 63, "time_elapsed": 136096, "internal_node_id": "0.0-4.0-59.0"}}, {"uniqueid": "w46230590:a42847816", "current_trial": 64, "dateTime": 1664464113312, "trialdata": {"rt": 407, "stimulus": "<p id='stroop-text' class='stroop-blue'>BLUE</p>", "response": "b", "stimulus-type": "congruent", "word": "blue", "color": "blue", "correct_response": "b", "trial_id": "stroop-trial-1-congruent-28", "trial_type": "html-keyboard-response", "trial_index": 64, "time_elapsed": 137006, "internal_node_id": "0.0-4.0-60.0"}}, {"uniqueid": "w46230590:a42847816", "current_trial": 65, "dateTime": 1664464114377, "trialdata": {"rt": 562, "stimulus": "<p id='stroop-text' class='stroop-red'>RED</p>", "response": "r", "stimulus-type": "congruent", "word": "red", "color": "red", "correct_response": "r", "trial_id": "stroop-trial-1-congruent-7", "trial_type": "html-keyboard-response", "trial_index": 65, "time_elapsed": 138071, "internal_node_id": "0.0-4.0-61.0"}}, {"uniqueid": "w46230590:a42847816", "current_trial": 66, "dateTime": 1664464115427, "trialdata": {"rt": 548, "stimulus": "<p id='stroop-text' class='stroop-green'>RED</p>", "response": "g", "stimulus-type": "incongruent", "word": "red", "color": "green", "correct_response": "g", "trial_id": "stroop-trial-1-incongruent-9", "trial_type": "html-keyboard-response", "trial_index": 66, "time_elapsed": 139121, "internal_node_id": "0.0-4.0-62.0"}}, {"uniqueid": "w46230590:a42847816", "current_trial": 67, "dateTime": 1664464116463, "trialdata": {"rt": 532, "stimulus": "<p id='stroop-text' class='stroop-red'>RED</p>", "response": "r", "stimulus-type": "congruent", "word": "red", "color": "red", "correct_response": "r", "trial_id": "stroop-trial-1-congruent-25", "trial_type": "html-keyboard-response", "trial_index": 67, "time_elapsed": 140156, "internal_node_id": "0.0-4.0-63.0"}}, {"uniqueid": "w46230590:a42847816", "current_trial": 68, "dateTime": 1664464117483, "trialdata": {"rt": 518, "stimulus": "<p id='stroop-text' class='stroop-blue'>RED</p>", "response": "b", "stimulus-type": "incongruent", "word": "red", "color": "blue", "correct_response": "b", "trial_id": "stroop-trial-1-incongruent-2", "trial_type": "html-keyboard-response", "trial_index": 68, "time_elapsed": 141177, "internal_node_id": "0.0-4.0-64.0"}}, {"uniqueid": "w46230590:a42847816", "current_trial": 69, "dateTime": 1664464118658, "trialdata": {"rt": 672, "stimulus": "<p id='stroop-text' class='stroop-green'>WINDOW</p>", "response": "g", "stimulus-type": "unrelated", "word": "WINDOW", "color": "green", "correct_response": "g", "trial_id": "stroop-trial-1-unrelated-12", "trial_type": "html-keyboard-response", "trial_index": 69, "time_elapsed": 142351, "internal_node_id": "0.0-4.0-65.0"}}, {"uniqueid": "w46230590:a42847816", "current_trial": 70, "dateTime": 1664464119814, "trialdata": {"rt": 654, "stimulus": "<p id='stroop-text' class='stroop-red'>BLUE</p>", "response": "r", "stimulus-type": "incongruent", "word": "blue", "color": "red", "correct_response": "r", "trial_id": "stroop-trial-1-incongruent-3", "trial_type": "html-keyboard-response", "trial_index": 70, "time_elapsed": 143507, "internal_node_id": "0.0-4.0-66.0"}}, {"uniqueid": "w46230590:a42847816", "current_trial": 71, "dateTime": 1664464120867, "trialdata": {"rt": 550, "stimulus": "<p id='stroop-text' class='stroop-blue'>GREEN</p>", "response": "b", "stimulus-type": "incongruent", "word": "green", "color": "blue", "correct_response": "b", "trial_id": "stroop-trial-1-incongruent-14", "trial_type": "html-keyboard-response", "trial_index": 71, "time_elapsed": 144561, "internal_node_id": "0.0-4.0-67.0"}}, {"uniqueid": "w46230590:a42847816", "current_trial": 72, "dateTime": 1664464121999, "trialdata": {"rt": 629, "stimulus": "<p id='stroop-text' class='stroop-green'>RED</p>", "response": "g", "stimulus-type": "incongruent", "word": "red", "color": "green", "correct_response": "g", "trial_id": "stroop-trial-1-incongruent-7", "trial_type": "html-keyboard-response", "trial_index": 72, "time_elapsed": 145693, "internal_node_id": "0.0-4.0-68.0"}}, {"uniqueid": "w46230590:a42847816", "current_trial": 73, "dateTime": 1664464123434, "trialdata": {"rt": 932, "stimulus": "<p id='stroop-text' class='stroop-yellow'>BLUE</p>", "response": "y", "stimulus-type": "incongruent", "word": "blue", "color": "yellow", "correct_response": "y", "trial_id": "stroop-trial-1-incongruent-10", "trial_type": "html-keyboard-response", "trial_index": 73, "time_elapsed": 147127, "internal_node_id": "0.0-4.0-69.0"}}, {"uniqueid": "w46230590:a42847816", "current_trial": 74, "dateTime": 1664464124502, "trialdata": {"rt": 566, "stimulus": "<p id='stroop-text' class='stroop-red'>BRIDGE</p>", "response": "r", "stimulus-type": "unrelated", "word": "BRIDGE", "color": "red", "correct_response": "r", "trial_id": "stroop-trial-1-unrelated-20", "trial_type": "html-keyboard-response", "trial_index": 74, "time_elapsed": 148196, "internal_node_id": "0.0-4.0-70.0"}}, {"uniqueid": "w46230590:a42847816", "current_trial": 75, "dateTime": 1664464125491, "trialdata": {"rt": 487, "stimulus": "<p id='stroop-text' class='stroop-red'>RED</p>", "response": "r", "stimulus-type": "congruent", "word": "red", "color": "red", "correct_response": "r", "trial_id": "stroop-trial-1-congruent-27", "trial_type": "html-keyboard-response", "trial_index": 75, "time_elapsed": 149185, "internal_node_id": "0.0-4.0-71.0"}}, {"uniqueid": "w46230590:a42847816", "current_trial": 76, "dateTime": 1664464126523, "trialdata": {"rt": 528, "stimulus": "<p id='stroop-text' class='stroop-red'>BOTTLE</p>", "response": "r", "stimulus-type": "unrelated", "word": "BOTTLE", "color": "red", "correct_response": "r", "trial_id": "stroop-trial-1-unrelated-28", "trial_type": "html-keyboard-response", "trial_index": 76, "time_elapsed": 150216, "internal_node_id": "0.0-4.0-72.0"}}, {"uniqueid": "w46230590:a42847816", "current_trial": 77, "dateTime": 1664464127672, "trialdata": {"rt": 646, "stimulus": "<p id='stroop-text' class='stroop-green'>RED</p>", "response": "g", "stimulus-type": "incongruent", "word": "red", "color": "green", "correct_response": "g", "trial_id": "stroop-trial-1-incongruent-20", "trial_type": "html-keyboard-response", "trial_index": 77, "time_elapsed": 151366, "internal_node_id": "0.0-4.0-73.0"}}, {"uniqueid": "w46230590:a42847816", "current_trial": 78, "dateTime": 1664464129589, "trialdata": {"rt": 1413, "stimulus": "<p id='stroop-text' class='stroop-blue'>BLUE</p>", "response": "b", "stimulus-type": "congruent", "word": "blue", "color": "blue", "correct_response": "b", "trial_id": "stroop-trial-1-congruent-18", "trial_type": "html-keyboard-response", "trial_index": 78, "time_elapsed": 153283, "internal_node_id": "0.0-4.0-74.0"}}, {"uniqueid": "w46230590:a42847816", "current_trial": 79, "dateTime": 1664464130945, "trialdata": {"rt": 854, "stimulus": "<p id='stroop-text' class='stroop-green'>BLUE</p>", "response": "g", "stimulus-type": "incongruent", "word": "blue", "color": "green", "correct_response": "g", "trial_id": "stroop-trial-1-incongruent-8", "trial_type": "html-keyboard-response", "trial_index": 79, "time_elapsed": 154638, "internal_node_id": "0.0-4.0-75.0"}}, {"uniqueid": "w46230590:a42847816", "current_trial": 80, "dateTime": 1664464132254, "trialdata": {"rt": 806, "stimulus": "<p id='stroop-text' class='stroop-green'>GREEN</p>", "response": "g", "stimulus-type": "congruent", "word": "green", "color": "green", "correct_response": "g", "trial_id": "stroop-trial-1-congruent-22", "trial_type": "html-keyboard-response", "trial_index": 80, "time_elapsed": 155948, "internal_node_id": "0.0-4.0-76.0"}}, {"uniqueid": "w46230590:a42847816", "current_trial": 81, "dateTime": 1664464133240, "trialdata": {"rt": 483, "stimulus": "<p id='stroop-text' class='stroop-blue'>BLUE</p>", "response": "b", "stimulus-type": "congruent", "word": "blue", "color": "blue", "correct_response": "b", "trial_id": "stroop-trial-1-congruent-5", "trial_type": "html-keyboard-response", "trial_index": 81, "time_elapsed": 156934, "internal_node_id": "0.0-4.0-77.0"}}, {"uniqueid": "w46230590:a42847816", "current_trial": 82, "dateTime": 1664464134508, "trialdata": {"rt": 764, "stimulus": "<p id='stroop-text' class='stroop-green'>GREEN</p>", "response": "g", "stimulus-type": "congruent", "word": "green", "color": "green", "correct_response": "g", "trial_id": "stroop-trial-1-congruent-8", "trial_type": "html-keyboard-response", "trial_index": 82, "time_elapsed": 158202, "internal_node_id": "0.0-4.0-78.0"}}, {"uniqueid": "w46230590:a42847816", "current_trial": 83, "dateTime": 1664464135516, "trialdata": {"rt": 504, "stimulus": "<p id='stroop-text' class='stroop-yellow'>RED</p>", "response": "r", "stimulus-type": "incongruent", "word": "red", "color": "yellow", "correct_response": "y", "trial_id": "stroop-trial-1-incongruent-17", "trial_type": "html-keyboard-response", "trial_index": 83, "time_elapsed": 159209, "internal_node_id": "0.0-4.0-79.0"}}, {"uniqueid": "w46230590:a42847816", "current_trial": 84, "dateTime": 1664464136731, "trialdata": {"rt": 712, "stimulus": "<p id='stroop-text' class='stroop-yellow'>BOTTLE</p>", "response": "y", "stimulus-type": "unrelated", "word": "BOTTLE", "color": "yellow", "correct_response": "y", "trial_id": "stroop-trial-1-unrelated-30", "trial_type": "html-keyboard-response", "trial_index": 84, "time_elapsed": 160425, "internal_node_id": "0.0-4.0-80.0"}}, {"uniqueid": "w46230590:a42847816", "current_trial": 85, "dateTime": 1664464137843, "trialdata": {"rt": 608, "stimulus": "<p id='stroop-text' class='stroop-yellow'>YELLOW</p>", "response": "y", "stimulus-type": "congruent", "word": "yellow", "color": "yellow", "correct_response": "y", "trial_id": "stroop-trial-1-congruent-17", "trial_type": "html-keyboard-response", "trial_index": 85, "time_elapsed": 161537, "internal_node_id": "0.0-4.0-81.0"}}, {"uniqueid": "w46230590:a42847816", "current_trial": 86, "dateTime": 1664464138915, "trialdata": {"rt": 569, "stimulus": "<p id='stroop-text' class='stroop-green'>CHAIR</p>", "response": "g", "stimulus-type": "unrelated", "word": "CHAIR", "color": "green", "correct_response": "g", "trial_id": "stroop-trial-1-unrelated-23", "trial_type": "html-keyboard-response", "trial_index": 86, "time_elapsed": 162609, "internal_node_id": "0.0-4.0-82.0"}}, {"uniqueid": "w46230590:a42847816", "current_trial": 87, "dateTime": 1664464139840, "trialdata": {"rt": 421, "stimulus": "<p id='stroop-text' class='stroop-green'>CHAIR</p>", "response": "g", "stimulus-type": "unrelated", "word": "CHAIR", "color": "green", "correct_response": "g", "trial_id": "stroop-trial-1-unrelated-17", "trial_type": "html-keyboard-response", "trial_index": 87, "time_elapsed": 163534, "internal_node_id": "0.0-4.0-83.0"}}, {"uniqueid": "w46230590:a42847816", "current_trial": 88, "dateTime": 1664464140731, "trialdata": {"rt": 387, "stimulus": "<p id='stroop-text' class='stroop-green'>GREEN</p>", "response": "g", "stimulus-type": "congruent", "word": "green", "color": "green", "correct_response": "g", "trial_id": "stroop-trial-1-congruent-3", "trial_type": "html-keyboard-response", "trial_index": 88, "time_elapsed": 164425, "internal_node_id": "0.0-4.0-84.0"}}, {"uniqueid": "w46230590:a42847816", "current_trial": 89, "dateTime": 1664464141692, "trialdata": {"rt": 458, "stimulus": "<p id='stroop-text' class='stroop-blue'>GREEN</p>", "response": "b", "stimulus-type": "incongruent", "word": "green", "color": "blue", "correct_response": "b", "trial_id": "stroop-trial-1-incongruent-23", "trial_type": "html-keyboard-response", "trial_index": 89, "time_elapsed": 165386, "internal_node_id": "0.0-4.0-85.0"}}, {"uniqueid": "w46230590:a42847816", "current_trial": 90, "dateTime": 1664464142827, "trialdata": {"rt": 632, "stimulus": "<p id='stroop-text' class='stroop-red'>BRIDGE</p>", "response": "r", "stimulus-type": "unrelated", "word": "BRIDGE", "color": "red", "correct_response": "r", "trial_id": "stroop-trial-1-unrelated-8", "trial_type": "html-keyboard-response", "trial_index": 90, "time_elapsed": 166520, "internal_node_id": "0.0-4.0-86.0"}}, {"uniqueid": "w46230590:a42847816", "current_trial": 91, "dateTime": 1664464144198, "trialdata": {"rt": 856, "stimulus": "<p id='stroop-text' class='stroop-blue'>BOTTLE</p>", "response": "b", "stimulus-type": "unrelated", "word": "BOTTLE", "color": "blue", "correct_response": "b", "trial_id": "stroop-trial-1-unrelated-24", "trial_type": "html-keyboard-response", "trial_index": 91, "time_elapsed": 167892, "internal_node_id": "0.0-4.0-87.0"}}, {"uniqueid": "w46230590:a42847816", "current_trial": 92, "dateTime": 1664464145078, "trialdata": {"rt": 378, "stimulus": "<p id='stroop-text' class='stroop-blue'>YELLOW</p>", "response": "b", "stimulus-type": "incongruent", "word": "yellow", "color": "blue", "correct_response": "b", "trial_id": "stroop-trial-1-incongruent-15", "trial_type": "html-keyboard-response", "trial_index": 92, "time_elapsed": 168772, "internal_node_id": "0.0-4.0-88.0"}}, {"uniqueid": "w46230590:a42847816", "current_trial": 93, "dateTime": 1664464146072, "trialdata": {"rt": 491, "stimulus": "<p id='stroop-text' class='stroop-yellow'>FORK</p>", "response": "y", "stimulus-type": "unrelated", "word": "FORK", "color": "yellow", "correct_response": "y", "trial_id": "stroop-trial-1-unrelated-15", "trial_type": "html-keyboard-response", "trial_index": 93, "time_elapsed": 169766, "internal_node_id": "0.0-4.0-89.0"}}, {"uniqueid": "w46230590:a42847816", "current_trial": 94, "dateTime": 1664464167893, "trialdata": {"rt": 21317, "stimulus": "  <h1> End of block! </h1>\n\n  You have reached the end of the block 1/5. If you need a short break, feel free to take one now before moving on.\n\n  <br><br>\n  In the next block, you will complete another 90 rounds of this game.\n\n  <br><br>\n  <div style='text-align: center;'>Press <code>space</code> to begin.</div>\n  <br><br>\n<div style='text-align: center;'>(If the experiment doesn't continue, try clicking on the text and then pressing <code>space</code>.)</div>", "response": " ", "trial_id": "stroop_1_ready_2", "trial_type": "html-keyboard-response", "trial_index": 94, "time_elapsed": 191587, "internal_node_id": "0.0-5.0"}}, {"uniqueid": "w46230590:a42847816", "current_trial": 95, "dateTime": 1664464168841, "trialdata": {"rt": 944, "stimulus": "<p id='stroop-text' class='stroop-yellow'>RED</p>", "response": "y", "stimulus-type": "incongruent", "word": "red", "color": "yellow", "correct_response": "y", "trial_id": "stroop-trial-1-incongruent-16", "trial_type": "html-keyboard-response", "trial_index": 95, "time_elapsed": 192534, "internal_node_id": "0.0-6.0-0.0"}}, {"uniqueid": "w46230590:a42847816", "current_trial": 96, "dateTime": 1664464169770, "trialdata": {"rt": 426, "stimulus": "<p id='stroop-text' class='stroop-yellow'>YELLOW</p>", "response": "y", "stimulus-type": "congruent", "word": "yellow", "color": "yellow", "correct_response": "y", "trial_id": "stroop-trial-1-congruent-6", "trial_type": "html-keyboard-response", "trial_index": 96, "time_elapsed": 193464, "internal_node_id": "0.0-6.0-1.0"}}, {"uniqueid": "w46230590:a42847816", "current_trial": 97, "dateTime": 1664464170651, "trialdata": {"rt": 378, "stimulus": "<p id='stroop-text' class='stroop-yellow'>YELLOW</p>", "response": "y", "stimulus-type": "congruent", "word": "yellow", "color": "yellow", "correct_response": "y", "trial_id": "stroop-trial-1-congruent-17", "trial_type": "html-keyboard-response", "trial_index": 97, "time_elapsed": 194344, "internal_node_id": "0.0-6.0-2.0"}}, {"uniqueid": "w46230590:a42847816", "current_trial": 98, "dateTime": 1664464171683, "trialdata": {"rt": 528, "stimulus": "<p id='stroop-text' class='stroop-green'>RED</p>", "response": "g", "stimulus-type": "incongruent", "word": "red", "color": "green", "correct_response": "g", "trial_id": "stroop-trial-1-incongruent-12", "trial_type": "html-keyboard-response", "trial_index": 98, "time_elapsed": 195377, "internal_node_id": "0.0-6.0-3.0"}}, {"uniqueid": "w46230590:a42847816", "current_trial": 99, "dateTime": 1664464172609, "trialdata": {"rt": 422, "stimulus": "<p id='stroop-text' class='stroop-green'>RED</p>", "response": "g", "stimulus-type": "incongruent", "word": "red", "color": "green", "correct_response": "g", "trial_id": "stroop-trial-1-incongruent-6", "trial_type": "html-keyboard-response", "trial_index": 99, "time_elapsed": 196303, "internal_node_id": "0.0-6.0-4.0"}}, {"uniqueid": "w46230590:a42847816", "current_trial": 100, "dateTime": 1664464173502, "trialdata": {"rt": 390, "stimulus": "<p id='stroop-text' class='stroop-red'>YELLOW</p>", "response": "r", "stimulus-type": "incongruent", "word": "yellow", "color": "red", "correct_response": "r", "trial_id": "stroop-trial-1-incongruent-22", "trial_type": "html-keyboard-response", "trial_index": 100, "time_elapsed": 197196, "internal_node_id": "0.0-6.0-5.0"}}, {"uniqueid": "w46230590:a42847816", "current_trial": 101, "dateTime": 1664464174458, "trialdata": {"rt": 453, "stimulus": "<p id='stroop-text' class='stroop-blue'>BOTTLE</p>", "response": "b", "stimulus-type": "unrelated", "word": "BOTTLE", "color": "blue", "correct_response": "b", "trial_id": "stroop-trial-1-unrelated-28", "trial_type": "html-keyboard-response", "trial_index": 101, "time_elapsed": 198151, "internal_node_id": "0.0-6.0-6.0"}}, {"uniqueid": "w46230590:a42847816", "current_trial": 102, "dateTime": 1664464175334, "trialdata": {"rt": 372, "stimulus": "<p id='stroop-text' class='stroop-blue'>BLUE</p>", "response": "b", "stimulus-type": "congruent", "word": "blue", "color": "blue", "correct_response": "b", "trial_id": "stroop-trial-1-congruent-23", "trial_type": "html-keyboard-response", "trial_index": 102, "time_elapsed": 199028, "internal_node_id": "0.0-6.0-7.0"}}, {"uniqueid": "w46230590:a42847816", "current_trial": 103, "dateTime": 1664464176135, "trialdata": {"rt": 297, "stimulus": "<p id='stroop-text' class='stroop-blue'>GREEN</p>", "response": "b", "stimulus-type": "incongruent", "word": "green", "color": "blue", "correct_response": "b", "trial_id": "stroop-trial-1-incongruent-18", "trial_type": "html-keyboard-response", "trial_index": 103, "time_elapsed": 199829, "internal_node_id": "0.0-6.0-8.0"}}, {"uniqueid": "w46230590:a42847816", "current_trial": 104, "dateTime": 1664464177144, "trialdata": {"rt": 506, "stimulus": "<p id='stroop-text' class='stroop-red'>RED</p>", "response": "r", "stimulus-type": "congruent", "word": "red", "color": "red", "correct_response": "r", "trial_id": "stroop-trial-1-congruent-16", "trial_type": "html-keyboard-response", "trial_index": 104, "time_elapsed": 200838, "internal_node_id": "0.0-6.0-9.0"}}, {"uniqueid": "w46230590:a42847816", "current_trial": 105, "dateTime": 1664464178211, "trialdata": {"rt": 563, "stimulus": "<p id='stroop-text' class='stroop-yellow'>RED</p>", "response": "y", "stimulus-type": "incongruent", "word": "red", "color": "yellow", "correct_response": "y", "trial_id": "stroop-trial-1-incongruent-14", "trial_type": "html-keyboard-response", "trial_index": 105, "time_elapsed": 201905, "internal_node_id": "0.0-6.0-10.0"}}, {"uniqueid": "w46230590:a42847816", "current_trial": 106, "dateTime": 1664464179228, "trialdata": {"rt": 512, "stimulus": "<p id='stroop-text' class='stroop-green'>RED</p>", "response": "g", "stimulus-type": "incongruent", "word": "red", "color": "green", "correct_response": "g", "trial_id": "stroop-trial-1-incongruent-26", "trial_type": "html-keyboard-response", "trial_index": 106, "time_elapsed": 202922, "internal_node_id": "0.0-6.0-11.0"}}, {"uniqueid": "w46230590:a42847816", "current_trial": 107, "dateTime": 1664464180518, "trialdata": {"rt": 785, "stimulus": "<p id='stroop-text' class='stroop-yellow'>BRAIN</p>", "response": "y", "stimulus-type": "unrelated", "word": "BRAIN", "color": "yellow", "correct_response": "y", "trial_id": "stroop-trial-1-unrelated-26", "trial_type": "html-keyboard-response", "trial_index": 107, "time_elapsed": 204211, "internal_node_id": "0.0-6.0-12.0"}}, {"uniqueid": "w46230590:a42847816", "current_trial": 108, "dateTime": 1664464181675, "trialdata": {"rt": 654, "stimulus": "<p id='stroop-text' class='stroop-green'>BLUE</p>", "response": "b", "stimulus-type": "incongruent", "word": "blue", "color": "green", "correct_response": "g", "trial_id": "stroop-trial-1-incongruent-28", "trial_type": "html-keyboard-response", "trial_index": 108, "time_elapsed": 205369, "internal_node_id": "0.0-6.0-13.0"}}, {"uniqueid": "w46230590:a42847816", "current_trial": 109, "dateTime": 1664464182713, "trialdata": {"rt": 534, "stimulus": "<p id='stroop-text' class='stroop-blue'>YELLOW</p>", "response": "b", "stimulus-type": "incongruent", "word": "yellow", "color": "blue", "correct_response": "b", "trial_id": "stroop-trial-1-incongruent-2", "trial_type": "html-keyboard-response", "trial_index": 109, "time_elapsed": 206407, "internal_node_id": "0.0-6.0-14.0"}}, {"uniqueid": "w46230590:a42847816", "current_trial": 110, "dateTime": 1664464183984, "trialdata": {"rt": 767, "stimulus": "<p id='stroop-text' class='stroop-yellow'>YELLOW</p>", "response": "y", "stimulus-type": "congruent", "word": "yellow", "color": "yellow", "correct_response": "y", "trial_id": "stroop-trial-1-congruent-12", "trial_type": "html-keyboard-response", "trial_index": 110, "time_elapsed": 207678, "internal_node_id": "0.0-6.0-15.0"}}, {"uniqueid": "w46230590:a42847816", "current_trial": 111, "dateTime": 1664464185123, "trialdata": {"rt": 636, "stimulus": "<p id='stroop-text' class='stroop-blue'>RED</p>", "response": "g", "stimulus-type": "incongruent", "word": "red", "color": "blue", "correct_response": "b", "trial_id": "stroop-trial-1-incongruent-3", "trial_type": "html-keyboard-response", "trial_index": 111, "time_elapsed": 208817, "internal_node_id": "0.0-6.0-16.0"}}, {"uniqueid": "w46230590:a42847816", "current_trial": 112, "dateTime": 1664464186281, "trialdata": {"rt": 654, "stimulus": "<p id='stroop-text' class='stroop-red'>RED</p>", "response": "r", "stimulus-type": "congruent", "word": "red", "color": "red", "correct_response": "r", "trial_id": "stroop-trial-1-congruent-25", "trial_type": "html-keyboard-response", "trial_index": 112, "time_elapsed": 209975, "internal_node_id": "0.0-6.0-17.0"}}, {"uniqueid": "w46230590:a42847816", "current_trial": 113, "dateTime": 1664464187571, "trialdata": {"rt": 785, "stimulus": "<p id='stroop-text' class='stroop-green'>BRAIN</p>", "response": "g", "stimulus-type": "unrelated", "word": "BRAIN", "color": "green", "correct_response": "g", "trial_id": "stroop-trial-1-unrelated-2", "trial_type": "html-keyboard-response", "trial_index": 113, "time_elapsed": 211265, "internal_node_id": "0.0-6.0-18.0"}}, {"uniqueid": "w46230590:a42847816", "current_trial": 114, "dateTime": 1664464188512, "trialdata": {"rt": 438, "stimulus": "<p id='stroop-text' class='stroop-green'>BLUE</p>", "response": "g", "stimulus-type": "incongruent", "word": "blue", "color": "green", "correct_response": "g", "trial_id": "stroop-trial-1-incongruent-17", "trial_type": "html-keyboard-response", "trial_index": 114, "time_elapsed": 212206, "internal_node_id": "0.0-6.0-19.0"}}, {"uniqueid": "w46230590:a42847816", "current_trial": 115, "dateTime": 1664464189411, "trialdata": {"rt": 396, "stimulus": "<p id='stroop-text' class='stroop-green'>GREEN</p>", "response": "g", "stimulus-type": "congruent", "word": "green", "color": "green", "correct_response": "g", "trial_id": "stroop-trial-1-congruent-13", "trial_type": "html-keyboard-response", "trial_index": 115, "time_elapsed": 213105, "internal_node_id": "0.0-6.0-20.0"}}, {"uniqueid": "w46230590:a42847816", "current_trial": 116, "dateTime": 1664464190461, "trialdata": {"rt": 547, "stimulus": "<p id='stroop-text' class='stroop-yellow'>GREEN</p>", "response": "y", "stimulus-type": "incongruent", "word": "green", "color": "yellow", "correct_response": "y", "trial_id": "stroop-trial-1-incongruent-13", "trial_type": "html-keyboard-response", "trial_index": 116, "time_elapsed": 214155, "internal_node_id": "0.0-6.0-21.0"}}, {"uniqueid": "w46230590:a42847816", "current_trial": 117, "dateTime": 1664464191614, "trialdata": {"rt": 649, "stimulus": "<p id='stroop-text' class='stroop-green'>WINDOW</p>", "response": "g", "stimulus-type": "unrelated", "word": "WINDOW", "color": "green", "correct_response": "g", "trial_id": "stroop-trial-1-unrelated-6", "trial_type": "html-keyboard-response", "trial_index": 117, "time_elapsed": 215308, "internal_node_id": "0.0-6.0-22.0"}}, {"uniqueid": "w46230590:a42847816", "current_trial": 118, "dateTime": 1664464192620, "trialdata": {"rt": 502, "stimulus": "<p id='stroop-text' class='stroop-green'>GREEN</p>", "response": "g", "stimulus-type": "congruent", "word": "green", "color": "green", "correct_response": "g", "trial_id": "stroop-trial-1-congruent-8", "trial_type": "html-keyboard-response", "trial_index": 118, "time_elapsed": 216314, "internal_node_id": "0.0-6.0-23.0"}}, {"uniqueid": "w46230590:a42847816", "current_trial": 119, "dateTime": 1664464193589, "trialdata": {"rt": 466, "stimulus": "<p id='stroop-text' class='stroop-blue'>BLUE</p>", "response": "b", "stimulus-type": "congruent", "word": "blue", "color": "blue", "correct_response": "b", "trial_id": "stroop-trial-1-congruent-11", "trial_type": "html-keyboard-response", "trial_index": 119, "time_elapsed": 217283, "internal_node_id": "0.0-6.0-24.0"}}, {"uniqueid": "w46230590:a42847816", "current_trial": 120, "dateTime": 1664464194456, "trialdata": {"rt": 363, "stimulus": "<p id='stroop-text' class='stroop-blue'>BLUE</p>", "response": "b", "stimulus-type": "congruent", "word": "blue", "color": "blue", "correct_response": "b", "trial_id": "stroop-trial-1-congruent-30", "trial_type": "html-keyboard-response", "trial_index": 120, "time_elapsed": 218150, "internal_node_id": "0.0-6.0-25.0"}}, {"uniqueid": "w46230590:a42847816", "current_trial": 121, "dateTime": 1664464195443, "trialdata": {"rt": 483, "stimulus": "<p id='stroop-text' class='stroop-yellow'>DOG</p>", "response": "y", "stimulus-type": "unrelated", "word": "DOG", "color": "yellow", "correct_response": "y", "trial_id": "stroop-trial-1-unrelated-1", "trial_type": "html-keyboard-response", "trial_index": 121, "time_elapsed": 219136, "internal_node_id": "0.0-6.0-26.0"}}, {"uniqueid": "w46230590:a42847816", "current_trial": 122, "dateTime": 1664464196456, "trialdata": {"rt": 508, "stimulus": "<p id='stroop-text' class='stroop-red'>RED</p>", "response": "r", "stimulus-type": "congruent", "word": "red", "color": "red", "correct_response": "r", "trial_id": "stroop-trial-1-congruent-24", "trial_type": "html-keyboard-response", "trial_index": 122, "time_elapsed": 220149, "internal_node_id": "0.0-6.0-27.0"}}, {"uniqueid": "w46230590:a42847816", "current_trial": 123, "dateTime": 1664464197386, "trialdata": {"rt": 425, "stimulus": "<p id='stroop-text' class='stroop-red'>WINDOW</p>", "response": "r", "stimulus-type": "unrelated", "word": "WINDOW", "color": "red", "correct_response": "r", "trial_id": "stroop-trial-1-unrelated-16", "trial_type": "html-keyboard-response", "trial_index": 123, "time_elapsed": 221078, "internal_node_id": "0.0-6.0-28.0"}}, {"uniqueid": "w46230590:a42847816", "current_trial": 124, "dateTime": 1664464198315, "trialdata": {"rt": 425, "stimulus": "<p id='stroop-text' class='stroop-red'>YELLOW</p>", "response": "r", "stimulus-type": "incongruent", "word": "yellow", "color": "red", "correct_response": "r", "trial_id": "stroop-trial-1-incongruent-11", "trial_type": "html-keyboard-response", "trial_index": 124, "time_elapsed": 222009, "internal_node_id": "0.0-6.0-29.0"}}, {"uniqueid": "w46230590:a42847816", "current_trial": 125, "dateTime": 1664464199426, "trialdata": {"rt": 607, "stimulus": "<p id='stroop-text' class='stroop-yellow'>YELLOW</p>", "response": "y", "stimulus-type": "congruent", "word": "yellow", "color": "yellow", "correct_response": "y", "trial_id": "stroop-trial-1-congruent-3", "trial_type": "html-keyboard-response", "trial_index": 125, "time_elapsed": 223119, "internal_node_id": "0.0-6.0-30.0"}}, {"uniqueid": "w46230590:a42847816", "current_trial": 126, "dateTime": 1664464200497, "trialdata": {"rt": 568, "stimulus": "<p id='stroop-text' class='stroop-red'>YELLOW</p>", "response": "r", "stimulus-type": "incongruent", "word": "yellow", "color": "red", "correct_response": "r", "trial_id": "stroop-trial-1-incongruent-29", "trial_type": "html-keyboard-response", "trial_index": 126, "time_elapsed": 224191, "internal_node_id": "0.0-6.0-31.0"}}, {"uniqueid": "w46230590:a42847816", "current_trial": 127, "dateTime": 1664464201647, "trialdata": {"rt": 646, "stimulus": "<p id='stroop-text' class='stroop-green'>BOTTLE</p>", "response": "g", "stimulus-type": "unrelated", "word": "BOTTLE", "color": "green", "correct_response": "g", "trial_id": "stroop-trial-1-unrelated-21", "trial_type": "html-keyboard-response", "trial_index": 127, "time_elapsed": 225340, "internal_node_id": "0.0-6.0-32.0"}}, {"uniqueid": "w46230590:a42847816", "current_trial": 128, "dateTime": 1664464202607, "trialdata": {"rt": 457, "stimulus": "<p id='stroop-text' class='stroop-blue'>WINDOW</p>", "response": "b", "stimulus-type": "unrelated", "word": "WINDOW", "color": "blue", "correct_response": "b", "trial_id": "stroop-trial-1-unrelated-23", "trial_type": "html-keyboard-response", "trial_index": 128, "time_elapsed": 226301, "internal_node_id": "0.0-6.0-33.0"}}, {"uniqueid": "w46230590:a42847816", "current_trial": 129, "dateTime": 1664464203811, "trialdata": {"rt": 699, "stimulus": "<p id='stroop-text' class='stroop-yellow'>RED</p>", "response": "y", "stimulus-type": "incongruent", "word": "red", "color": "yellow", "correct_response": "y", "trial_id": "stroop-trial-1-incongruent-15", "trial_type": "html-keyboard-response", "trial_index": 129, "time_elapsed": 227504, "internal_node_id": "0.0-6.0-34.0"}}, {"uniqueid": "w46230590:a42847816", "current_trial": 130, "dateTime": 1664464204723, "trialdata": {"rt": 408, "stimulus": "<p id='stroop-text' class='stroop-yellow'>RED</p>", "response": "y", "stimulus-type": "incongruent", "word": "red", "color": "yellow", "correct_response": "y", "trial_id": "stroop-trial-1-incongruent-9", "trial_type": "html-keyboard-response", "trial_index": 130, "time_elapsed": 228417, "internal_node_id": "0.0-6.0-35.0"}}, {"uniqueid": "w46230590:a42847816", "current_trial": 131, "dateTime": 1664464205806, "trialdata": {"rt": 579, "stimulus": "<p id='stroop-text' class='stroop-green'>BLUE</p>", "response": "g", "stimulus-type": "incongruent", "word": "blue", "color": "green", "correct_response": "g", "trial_id": "stroop-trial-1-incongruent-5", "trial_type": "html-keyboard-response", "trial_index": 131, "time_elapsed": 229500, "internal_node_id": "0.0-6.0-36.0"}}, {"uniqueid": "w46230590:a42847816", "current_trial": 132, "dateTime": 1664464207043, "trialdata": {"rt": 734, "stimulus": "<p id='stroop-text' class='stroop-red'>BLUE</p>", "response": "r", "stimulus-type": "incongruent", "word": "blue", "color": "red", "correct_response": "r", "trial_id": "stroop-trial-1-incongruent-25", "trial_type": "html-keyboard-response", "trial_index": 132, "time_elapsed": 230737, "internal_node_id": "0.0-6.0-37.0"}}, {"uniqueid": "w46230590:a42847816", "current_trial": 133, "dateTime": 1664464208092, "trialdata": {"rt": 544, "stimulus": "<p id='stroop-text' class='stroop-yellow'>YELLOW</p>", "response": "y", "stimulus-type": "congruent", "word": "yellow", "color": "yellow", "correct_response": "y", "trial_id": "stroop-trial-1-congruent-21", "trial_type": "html-keyboard-response", "trial_index": 133, "time_elapsed": 231786, "internal_node_id": "0.0-6.0-38.0"}}, {"uniqueid": "w46230590:a42847816", "current_trial": 134, "dateTime": 1664464209264, "trialdata": {"rt": 668, "stimulus": "<p id='stroop-text' class='stroop-red'>RED</p>", "response": "r", "stimulus-type": "congruent", "word": "red", "color": "red", "correct_response": "r", "trial_id": "stroop-trial-1-congruent-14", "trial_type": "html-keyboard-response", "trial_index": 134, "time_elapsed": 232957, "internal_node_id": "0.0-6.0-39.0"}}, {"uniqueid": "w46230590:a42847816", "current_trial": 135, "dateTime": 1664464210491, "trialdata": {"rt": 723, "stimulus": "<p id='stroop-text' class='stroop-yellow'>CHAIR</p>", "response": "b", "stimulus-type": "unrelated", "word": "CHAIR", "color": "yellow", "correct_response": "y", "trial_id": "stroop-trial-1-unrelated-17", "trial_type": "html-keyboard-response", "trial_index": 135, "time_elapsed": 234184, "internal_node_id": "0.0-6.0-40.0"}}, {"uniqueid": "w46230590:a42847816", "current_trial": 136, "dateTime": 1664464211774, "trialdata": {"rt": 779, "stimulus": "<p id='stroop-text' class='stroop-green'>SHIP</p>", "response": "g", "stimulus-type": "unrelated", "word": "SHIP", "color": "green", "correct_response": "g", "trial_id": "stroop-trial-1-unrelated-30", "trial_type": "html-keyboard-response", "trial_index": 136, "time_elapsed": 235467, "internal_node_id": "0.0-6.0-41.0"}}, {"uniqueid": "w46230590:a42847816", "current_trial": 137, "dateTime": 1664464212869, "trialdata": {"rt": 592, "stimulus": "<p id='stroop-text' class='stroop-red'>YELLOW</p>", "response": "r", "stimulus-type": "incongruent", "word": "yellow", "color": "red", "correct_response": "r", "trial_id": "stroop-trial-1-incongruent-30", "trial_type": "html-keyboard-response", "trial_index": 137, "time_elapsed": 236563, "internal_node_id": "0.0-6.0-42.0"}}, {"uniqueid": "w46230590:a42847816", "current_trial": 138, "dateTime": 1664464214083, "trialdata": {"rt": 711, "stimulus": "<p id='stroop-text' class='stroop-yellow'>BRIDGE</p>", "response": "y", "stimulus-type": "unrelated", "word": "BRIDGE", "color": "yellow", "correct_response": "y", "trial_id": "stroop-trial-1-unrelated-13", "trial_type": "html-keyboard-response", "trial_index": 138, "time_elapsed": 237777, "internal_node_id": "0.0-6.0-43.0"}}, {"uniqueid": "w46230590:a42847816", "current_trial": 139, "dateTime": 1664464215138, "trialdata": {"rt": 551, "stimulus": "<p id='stroop-text' class='stroop-green'>GREEN</p>", "response": "g", "stimulus-type": "congruent", "word": "green", "color": "green", "correct_response": "g", "trial_id": "stroop-trial-1-congruent-20", "trial_type": "html-keyboard-response", "trial_index": 139, "time_elapsed": 238831, "internal_node_id": "0.0-6.0-44.0"}}, {"uniqueid": "w46230590:a42847816", "current_trial": 140, "dateTime": 1664464216258, "trialdata": {"rt": 616, "stimulus": "<p id='stroop-text' class='stroop-yellow'>GREEN</p>", "response": "y", "stimulus-type": "incongruent", "word": "green", "color": "yellow", "correct_response": "y", "trial_id": "stroop-trial-1-incongruent-8", "trial_type": "html-keyboard-response", "trial_index": 140, "time_elapsed": 239951, "internal_node_id": "0.0-6.0-45.0"}}, {"uniqueid": "w46230590:a42847816", "current_trial": 141, "dateTime": 1664464217251, "trialdata": {"rt": 489, "stimulus": "<p id='stroop-text' class='stroop-red'>RED</p>", "response": "r", "stimulus-type": "congruent", "word": "red", "color": "red", "correct_response": "r", "trial_id": "stroop-trial-1-congruent-5", "trial_type": "html-keyboard-response", "trial_index": 141, "time_elapsed": 240944, "internal_node_id": "0.0-6.0-46.0"}}, {"uniqueid": "w46230590:a42847816", "current_trial": 142, "dateTime": 1664464218380, "trialdata": {"rt": 626, "stimulus": "<p id='stroop-text' class='stroop-red'>GREEN</p>", "response": "y", "stimulus-type": "incongruent", "word": "green", "color": "red", "correct_response": "r", "trial_id": "stroop-trial-1-incongruent-19", "trial_type": "html-keyboard-response", "trial_index": 142, "time_elapsed": 242074, "internal_node_id": "0.0-6.0-47.0"}}, {"uniqueid": "w46230590:a42847816", "current_trial": 143, "dateTime": 1664464219918, "trialdata": {"rt": 1034, "stimulus": "<p id='stroop-text' class='stroop-blue'>BLUE</p>", "response": "b", "stimulus-type": "congruent", "word": "blue", "color": "blue", "correct_response": "b", "trial_id": "stroop-trial-1-congruent-18", "trial_type": "html-keyboard-response", "trial_index": 143, "time_elapsed": 243611, "internal_node_id": "0.0-6.0-48.0"}}, {"uniqueid": "w46230590:a42847816", "current_trial": 144, "dateTime": 1664464221174, "trialdata": {"rt": 752, "stimulus": "<p id='stroop-text' class='stroop-green'>RED</p>", "response": "g", "stimulus-type": "incongruent", "word": "red", "color": "green", "correct_response": "g", "trial_id": "stroop-trial-1-incongruent-24", "trial_type": "html-keyboard-response", "trial_index": 144, "time_elapsed": 244868, "internal_node_id": "0.0-6.0-49.0"}}, {"uniqueid": "w46230590:a42847816", "current_trial": 145, "dateTime": 1664464222308, "trialdata": {"rt": 628, "stimulus": "<p id='stroop-text' class='stroop-blue'>BLUE</p>", "response": "b", "stimulus-type": "congruent", "word": "blue", "color": "blue", "correct_response": "b", "trial_id": "stroop-trial-1-congruent-15", "trial_type": "html-keyboard-response", "trial_index": 145, "time_elapsed": 246002, "internal_node_id": "0.0-6.0-50.0"}}, {"uniqueid": "w46230590:a42847816", "current_trial": 146, "dateTime": 1664464223651, "trialdata": {"rt": 839, "stimulus": "<p id='stroop-text' class='stroop-blue'>YELLOW</p>", "response": "b", "stimulus-type": "incongruent", "word": "yellow", "color": "blue", "correct_response": "b", "trial_id": "stroop-trial-1-incongruent-7", "trial_type": "html-keyboard-response", "trial_index": 146, "time_elapsed": 247344, "internal_node_id": "0.0-6.0-51.0"}}, {"uniqueid": "w46230590:a42847816", "current_trial": 147, "dateTime": 1664464224664, "trialdata": {"rt": 510, "stimulus": "<p id='stroop-text' class='stroop-red'>RED</p>", "response": "r", "stimulus-type": "congruent", "word": "red", "color": "red", "correct_response": "r", "trial_id": "stroop-trial-1-congruent-7", "trial_type": "html-keyboard-response", "trial_index": 147, "time_elapsed": 248357, "internal_node_id": "0.0-6.0-52.0"}}, {"uniqueid": "w46230590:a42847816", "current_trial": 148, "dateTime": 1664464225677, "trialdata": {"rt": 506, "stimulus": "<p id='stroop-text' class='stroop-yellow'>YELLOW</p>", "response": "y", "stimulus-type": "congruent", "word": "yellow", "color": "yellow", "correct_response": "y", "trial_id": "stroop-trial-1-congruent-22", "trial_type": "html-keyboard-response", "trial_index": 148, "time_elapsed": 249371, "internal_node_id": "0.0-6.0-53.0"}}, {"uniqueid": "w46230590:a42847816", "current_trial": 149, "dateTime": 1664464226892, "trialdata": {"rt": 710, "stimulus": "<p id='stroop-text' class='stroop-blue'>BLUE</p>", "response": "b", "stimulus-type": "congruent", "word": "blue", "color": "blue", "correct_response": "b", "trial_id": "stroop-trial-1-congruent-19", "trial_type": "html-keyboard-response", "trial_index": 149, "time_elapsed": 250586, "internal_node_id": "0.0-6.0-54.0"}}, {"uniqueid": "w46230590:a42847816", "current_trial": 150, "dateTime": 1664464228022, "trialdata": {"rt": 627, "stimulus": "<p id='stroop-text' class='stroop-red'>RED</p>", "response": "r", "stimulus-type": "congruent", "word": "red", "color": "red", "correct_response": "r", "trial_id": "stroop-trial-1-congruent-29", "trial_type": "html-keyboard-response", "trial_index": 150, "time_elapsed": 251716, "internal_node_id": "0.0-6.0-55.0"}}, {"uniqueid": "w46230590:a42847816", "current_trial": 151, "dateTime": 1664464229091, "trialdata": {"rt": 565, "stimulus": "<p id='stroop-text' class='stroop-yellow'>YELLOW</p>", "response": "y", "stimulus-type": "congruent", "word": "yellow", "color": "yellow", "correct_response": "y", "trial_id": "stroop-trial-1-congruent-27", "trial_type": "html-keyboard-response", "trial_index": 151, "time_elapsed": 252785, "internal_node_id": "0.0-6.0-56.0"}}, {"uniqueid": "w46230590:a42847816", "current_trial": 152, "dateTime": 1664464230492, "trialdata": {"rt": 896, "stimulus": "<p id='stroop-text' class='stroop-red'>YELLOW</p>", "response": "r", "stimulus-type": "incongruent", "word": "yellow", "color": "red", "correct_response": "r", "trial_id": "stroop-trial-1-incongruent-1", "trial_type": "html-keyboard-response", "trial_index": 152, "time_elapsed": 254186, "internal_node_id": "0.0-6.0-57.0"}}, {"uniqueid": "w46230590:a42847816", "current_trial": 153, "dateTime": 1664464231630, "trialdata": {"rt": 635, "stimulus": "<p id='stroop-text' class='stroop-yellow'>MONKEY</p>", "response": "y", "stimulus-type": "unrelated", "word": "MONKEY", "color": "yellow", "correct_response": "y", "trial_id": "stroop-trial-1-unrelated-10", "trial_type": "html-keyboard-response", "trial_index": 153, "time_elapsed": 255323, "internal_node_id": "0.0-6.0-58.0"}}, {"uniqueid": "w46230590:a42847816", "current_trial": 154, "dateTime": 1664464232698, "trialdata": {"rt": 565, "stimulus": "<p id='stroop-text' class='stroop-green'>BOTTLE</p>", "response": "g", "stimulus-type": "unrelated", "word": "BOTTLE", "color": "green", "correct_response": "g", "trial_id": "stroop-trial-1-unrelated-19", "trial_type": "html-keyboard-response", "trial_index": 154, "time_elapsed": 256392, "internal_node_id": "0.0-6.0-59.0"}}, {"uniqueid": "w46230590:a42847816", "current_trial": 155, "dateTime": 1664464233620, "trialdata": {"rt": 416, "stimulus": "<p id='stroop-text' class='stroop-blue'>WINDOW</p>", "response": "b", "stimulus-type": "unrelated", "word": "WINDOW", "color": "blue", "correct_response": "b", "trial_id": "stroop-trial-1-unrelated-5", "trial_type": "html-keyboard-response", "trial_index": 155, "time_elapsed": 257313, "internal_node_id": "0.0-6.0-60.0"}}, {"uniqueid": "w46230590:a42847816", "current_trial": 156, "dateTime": 1664464234797, "trialdata": {"rt": 672, "stimulus": "<p id='stroop-text' class='stroop-blue'>BLUE</p>", "response": "b", "stimulus-type": "congruent", "word": "blue", "color": "blue", "correct_response": "b", "trial_id": "stroop-trial-1-congruent-4", "trial_type": "html-keyboard-response", "trial_index": 156, "time_elapsed": 258490, "internal_node_id": "0.0-6.0-61.0"}}, {"uniqueid": "w46230590:a42847816", "current_trial": 157, "dateTime": 1664464235936, "trialdata": {"rt": 635, "stimulus": "<p id='stroop-text' class='stroop-yellow'>DOG</p>", "response": "y", "stimulus-type": "unrelated", "word": "DOG", "color": "yellow", "correct_response": "y", "trial_id": "stroop-trial-1-unrelated-22", "trial_type": "html-keyboard-response", "trial_index": 157, "time_elapsed": 259629, "internal_node_id": "0.0-6.0-62.0"}}, {"uniqueid": "w46230590:a42847816", "current_trial": 158, "dateTime": 1664464236941, "trialdata": {"rt": 501, "stimulus": "<p id='stroop-text' class='stroop-red'>BOAT</p>", "response": "r", "stimulus-type": "unrelated", "word": "BOAT", "color": "red", "correct_response": "r", "trial_id": "stroop-trial-1-unrelated-12", "trial_type": "html-keyboard-response", "trial_index": 158, "time_elapsed": 260634, "internal_node_id": "0.0-6.0-63.0"}}, {"uniqueid": "w46230590:a42847816", "current_trial": 159, "dateTime": 1664464237880, "trialdata": {"rt": 436, "stimulus": "<p id='stroop-text' class='stroop-red'>RED</p>", "response": "y", "stimulus-type": "congruent", "word": "red", "color": "red", "correct_response": "r", "trial_id": "stroop-trial-1-congruent-28", "trial_type": "html-keyboard-response", "trial_index": 159, "time_elapsed": 261574, "internal_node_id": "0.0-6.0-64.0"}}, {"uniqueid": "w46230590:a42847816", "current_trial": 160, "dateTime": 1664464239576, "trialdata": {"rt": 1191, "stimulus": "<p id='stroop-text' class='stroop-green'>GREEN</p>", "response": "g", "stimulus-type": "congruent", "word": "green", "color": "green", "correct_response": "g", "trial_id": "stroop-trial-1-congruent-26", "trial_type": "html-keyboard-response", "trial_index": 160, "time_elapsed": 263270, "internal_node_id": "0.0-6.0-65.0"}}, {"uniqueid": "w46230590:a42847816", "current_trial": 161, "dateTime": 1664464240639, "trialdata": {"rt": 558, "stimulus": "<p id='stroop-text' class='stroop-yellow'>WINDOW</p>", "response": "y", "stimulus-type": "unrelated", "word": "WINDOW", "color": "yellow", "correct_response": "y", "trial_id": "stroop-trial-1-unrelated-20", "trial_type": "html-keyboard-response", "trial_index": 161, "time_elapsed": 264333, "internal_node_id": "0.0-6.0-66.0"}}, {"uniqueid": "w46230590:a42847816", "current_trial": 162, "dateTime": 1664464241874, "trialdata": {"rt": 730, "stimulus": "<p id='stroop-text' class='stroop-red'>RED</p>", "response": "r", "stimulus-type": "congruent", "word": "red", "color": "red", "correct_response": "r", "trial_id": "stroop-trial-1-congruent-10", "trial_type": "html-keyboard-response", "trial_index": 162, "time_elapsed": 265567, "internal_node_id": "0.0-6.0-67.0"}}, {"uniqueid": "w46230590:a42847816", "current_trial": 163, "dateTime": 1664464242930, "trialdata": {"rt": 550, "stimulus": "<p id='stroop-text' class='stroop-yellow'>YELLOW</p>", "response": "y", "stimulus-type": "congruent", "word": "yellow", "color": "yellow", "correct_response": "y", "trial_id": "stroop-trial-1-congruent-2", "trial_type": "html-keyboard-response", "trial_index": 163, "time_elapsed": 266624, "internal_node_id": "0.0-6.0-68.0"}}, {"uniqueid": "w46230590:a42847816", "current_trial": 164, "dateTime": 1664464243839, "trialdata": {"rt": 405, "stimulus": "<p id='stroop-text' class='stroop-red'>RED</p>", "response": "g", "stimulus-type": "congruent", "word": "red", "color": "red", "correct_response": "r", "trial_id": "stroop-trial-1-congruent-9", "trial_type": "html-keyboard-response", "trial_index": 164, "time_elapsed": 267533, "internal_node_id": "0.0-6.0-69.0"}}, {"uniqueid": "w46230590:a42847816", "current_trial": 165, "dateTime": 1664464245144, "trialdata": {"rt": 801, "stimulus": "<p id='stroop-text' class='stroop-red'>SHIP</p>", "response": "r", "stimulus-type": "unrelated", "word": "SHIP", "color": "red", "correct_response": "r", "trial_id": "stroop-trial-1-unrelated-18", "trial_type": "html-keyboard-response", "trial_index": 165, "time_elapsed": 268838, "internal_node_id": "0.0-6.0-70.0"}}, {"uniqueid": "w46230590:a42847816", "current_trial": 166, "dateTime": 1664464246460, "trialdata": {"rt": 812, "stimulus": "<p id='stroop-text' class='stroop-red'>GREEN</p>", "response": "g", "stimulus-type": "incongruent", "word": "green", "color": "red", "correct_response": "r", "trial_id": "stroop-trial-1-incongruent-20", "trial_type": "html-keyboard-response", "trial_index": 166, "time_elapsed": 270153, "internal_node_id": "0.0-6.0-71.0"}}, {"uniqueid": "w46230590:a42847816", "current_trial": 167, "dateTime": 1664464248116, "trialdata": {"rt": 1153, "stimulus": "<p id='stroop-text' class='stroop-red'>RED</p>", "response": "r", "stimulus-type": "congruent", "word": "red", "color": "red", "correct_response": "r", "trial_id": "stroop-trial-1-congruent-1", "trial_type": "html-keyboard-response", "trial_index": 167, "time_elapsed": 271810, "internal_node_id": "0.0-6.0-72.0"}}, {"uniqueid": "w46230590:a42847816", "current_trial": 168, "dateTime": 1664464249346, "trialdata": {"rt": 726, "stimulus": "<p id='stroop-text' class='stroop-red'>MONKEY</p>", "response": "r", "stimulus-type": "unrelated", "word": "MONKEY", "color": "red", "correct_response": "r", "trial_id": "stroop-trial-1-unrelated-27", "trial_type": "html-keyboard-response", "trial_index": 168, "time_elapsed": 273040, "internal_node_id": "0.0-6.0-73.0"}}, {"uniqueid": "w46230590:a42847816", "current_trial": 169, "dateTime": 1664464250752, "trialdata": {"rt": 902, "stimulus": "<p id='stroop-text' class='stroop-red'>YELLOW</p>", "response": "r", "stimulus-type": "incongruent", "word": "yellow", "color": "red", "correct_response": "r", "trial_id": "stroop-trial-1-incongruent-10", "trial_type": "html-keyboard-response", "trial_index": 169, "time_elapsed": 274446, "internal_node_id": "0.0-6.0-74.0"}}, {"uniqueid": "w46230590:a42847816", "current_trial": 170, "dateTime": 1664464251848, "trialdata": {"rt": 591, "stimulus": "<p id='stroop-text' class='stroop-red'>SHIP</p>", "response": "r", "stimulus-type": "unrelated", "word": "SHIP", "color": "red", "correct_response": "r", "trial_id": "stroop-trial-1-unrelated-8", "trial_type": "html-keyboard-response", "trial_index": 170, "time_elapsed": 275541, "internal_node_id": "0.0-6.0-75.0"}}, {"uniqueid": "w46230590:a42847816", "current_trial": 171, "dateTime": 1664464252793, "trialdata": {"rt": 441, "stimulus": "<p id='stroop-text' class='stroop-red'>STONE</p>", "response": "r", "stimulus-type": "unrelated", "word": "STONE", "color": "red", "correct_response": "r", "trial_id": "stroop-trial-1-unrelated-14", "trial_type": "html-keyboard-response", "trial_index": 171, "time_elapsed": 276487, "internal_node_id": "0.0-6.0-76.0"}}, {"uniqueid": "w46230590:a42847816", "current_trial": 172, "dateTime": 1664464253924, "trialdata": {"rt": 627, "stimulus": "<p id='stroop-text' class='stroop-yellow'>DOG</p>", "response": "y", "stimulus-type": "unrelated", "word": "DOG", "color": "yellow", "correct_response": "y", "trial_id": "stroop-trial-1-unrelated-24", "trial_type": "html-keyboard-response", "trial_index": 172, "time_elapsed": 277617, "internal_node_id": "0.0-6.0-77.0"}}, {"uniqueid": "w46230590:a42847816", "current_trial": 173, "dateTime": 1664464255010, "trialdata": {"rt": 582, "stimulus": "<p id='stroop-text' class='stroop-green'>YELLOW</p>", "response": "g", "stimulus-type": "incongruent", "word": "yellow", "color": "green", "correct_response": "g", "trial_id": "stroop-trial-1-incongruent-21", "trial_type": "html-keyboard-response", "trial_index": 173, "time_elapsed": 278703, "internal_node_id": "0.0-6.0-78.0"}}, {"uniqueid": "w46230590:a42847816", "current_trial": 174, "dateTime": 1664464255923, "trialdata": {"rt": 410, "stimulus": "<p id='stroop-text' class='stroop-green'>FORK</p>", "response": "g", "stimulus-type": "unrelated", "word": "FORK", "color": "green", "correct_response": "g", "trial_id": "stroop-trial-1-unrelated-15", "trial_type": "html-keyboard-response", "trial_index": 174, "time_elapsed": 279617, "internal_node_id": "0.0-6.0-79.0"}}, {"uniqueid": "w46230590:a42847816", "current_trial": 175, "dateTime": 1664464256753, "trialdata": {"rt": 327, "stimulus": "<p id='stroop-text' class='stroop-green'>YELLOW</p>", "response": "g", "stimulus-type": "incongruent", "word": "yellow", "color": "green", "correct_response": "g", "trial_id": "stroop-trial-1-incongruent-27", "trial_type": "html-keyboard-response", "trial_index": 175, "time_elapsed": 280447, "internal_node_id": "0.0-6.0-80.0"}}, {"uniqueid": "w46230590:a42847816", "current_trial": 176, "dateTime": 1664464257836, "trialdata": {"rt": 580, "stimulus": "<p id='stroop-text' class='stroop-red'>YELLOW</p>", "response": "r", "stimulus-type": "incongruent", "word": "yellow", "color": "red", "correct_response": "r", "trial_id": "stroop-trial-1-incongruent-23", "trial_type": "html-keyboard-response", "trial_index": 176, "time_elapsed": 281530, "internal_node_id": "0.0-6.0-81.0"}}, {"uniqueid": "w46230590:a42847816", "current_trial": 177, "dateTime": 1664464258929, "trialdata": {"rt": 589, "stimulus": "<p id='stroop-text' class='stroop-yellow'>BOTTLE</p>", "response": "y", "stimulus-type": "unrelated", "word": "BOTTLE", "color": "yellow", "correct_response": "y", "trial_id": "stroop-trial-1-unrelated-11", "trial_type": "html-keyboard-response", "trial_index": 177, "time_elapsed": 282623, "internal_node_id": "0.0-6.0-82.0"}}, {"uniqueid": "w46230590:a42847816", "current_trial": 178, "dateTime": 1664464259940, "trialdata": {"rt": 507, "stimulus": "<p id='stroop-text' class='stroop-blue'>DOG</p>", "response": "b", "stimulus-type": "unrelated", "word": "DOG", "color": "blue", "correct_response": "b", "trial_id": "stroop-trial-1-unrelated-4", "trial_type": "html-keyboard-response", "trial_index": 178, "time_elapsed": 283634, "internal_node_id": "0.0-6.0-83.0"}}, {"uniqueid": "w46230590:a42847816", "current_trial": 179, "dateTime": 1664464261797, "trialdata": {"rt": 1351, "stimulus": "<p id='stroop-text' class='stroop-blue'>FORK</p>", "response": "b", "stimulus-type": "unrelated", "word": "FORK", "color": "blue", "correct_response": "b", "trial_id": "stroop-trial-1-unrelated-7", "trial_type": "html-keyboard-response", "trial_index": 179, "time_elapsed": 285490, "internal_node_id": "0.0-6.0-84.0"}}, {"uniqueid": "w46230590:a42847816", "current_trial": 180, "dateTime": 1664464263044, "trialdata": {"rt": 744, "stimulus": "<p id='stroop-text' class='stroop-red'>BOAT</p>", "response": "r", "stimulus-type": "unrelated", "word": "BOAT", "color": "red", "correct_response": "r", "trial_id": "stroop-trial-1-unrelated-3", "trial_type": "html-keyboard-response", "trial_index": 180, "time_elapsed": 286738, "internal_node_id": "0.0-6.0-85.0"}}, {"uniqueid": "w46230590:a42847816", "current_trial": 181, "dateTime": 1664464264101, "trialdata": {"rt": 553, "stimulus": "<p id='stroop-text' class='stroop-yellow'>GREEN</p>", "response": "y", "stimulus-type": "incongruent", "word": "green", "color": "yellow", "correct_response": "y", "trial_id": "stroop-trial-1-incongruent-4", "trial_type": "html-keyboard-response", "trial_index": 181, "time_elapsed": 287795, "internal_node_id": "0.0-6.0-86.0"}}, {"uniqueid": "w46230590:a42847816", "current_trial": 182, "dateTime": 1664464265339, "trialdata": {"rt": 734, "stimulus": "<p id='stroop-text' class='stroop-red'>STONE</p>", "response": "r", "stimulus-type": "unrelated", "word": "STONE", "color": "red", "correct_response": "r", "trial_id": "stroop-trial-1-unrelated-9", "trial_type": "html-keyboard-response", "trial_index": 182, "time_elapsed": 289033, "internal_node_id": "0.0-6.0-87.0"}}, {"uniqueid": "w46230590:a42847816", "current_trial": 183, "dateTime": 1664464266375, "trialdata": {"rt": 533, "stimulus": "<p id='stroop-text' class='stroop-red'>DOG</p>", "response": "r", "stimulus-type": "unrelated", "word": "DOG", "color": "red", "correct_response": "r", "trial_id": "stroop-trial-1-unrelated-25", "trial_type": "html-keyboard-response", "trial_index": 183, "time_elapsed": 290069, "internal_node_id": "0.0-6.0-88.0"}}, {"uniqueid": "w46230590:a42847816", "current_trial": 184, "dateTime": 1664464267459, "trialdata": {"rt": 578, "stimulus": "<p id='stroop-text' class='stroop-green'>CHAIR</p>", "response": "g", "stimulus-type": "unrelated", "word": "CHAIR", "color": "green", "correct_response": "g", "trial_id": "stroop-trial-1-unrelated-29", "trial_type": "html-keyboard-response", "trial_index": 184, "time_elapsed": 291152, "internal_node_id": "0.0-6.0-89.0"}}, {"uniqueid": "w46230590:a42847816", "current_trial": 185, "dateTime": 1664464279541, "trialdata": {"rt": 11577, "stimulus": "  <h1> End of block! </h1>\n\n  You have reached the end of the block 2/5. If you need a short break, feel free to take one now before moving on.\n\n  <br><br>\n  In the next block, you will complete another 90 rounds of this game.\n\n  <br><br>\n  <div style='text-align: center;'>Press <code>space</code> to begin.</div>\n  <br><br>\n<div style='text-align: center;'>(If the experiment doesn't continue, try clicking on the text and then pressing <code>space</code>.)</div>", "response": " ", "trial_id": "stroop_1_ready_3", "trial_type": "html-keyboard-response", "trial_index": 185, "time_elapsed": 303235, "internal_node_id": "0.0-7.0"}}, {"uniqueid": "w46230590:a42847816", "current_trial": 186, "dateTime": 1664464280383, "trialdata": {"rt": 837, "stimulus": "<p id='stroop-text' class='stroop-blue'>BLUE</p>", "response": "b", "stimulus-type": "congruent", "word": "blue", "color": "blue", "correct_response": "b", "trial_id": "stroop-trial-1-congruent-22", "trial_type": "html-keyboard-response", "trial_index": 186, "time_elapsed": 304076, "internal_node_id": "0.0-8.0-0.0"}}, {"uniqueid": "w46230590:a42847816", "current_trial": 187, "dateTime": 1664464281602, "trialdata": {"rt": 716, "stimulus": "<p id='stroop-text' class='stroop-red'>BOTTLE</p>", "response": "r", "stimulus-type": "unrelated", "word": "BOTTLE", "color": "red", "correct_response": "r", "trial_id": "stroop-trial-1-unrelated-24", "trial_type": "html-keyboard-response", "trial_index": 187, "time_elapsed": 305296, "internal_node_id": "0.0-8.0-1.0"}}, {"uniqueid": "w46230590:a42847816", "current_trial": 188, "dateTime": 1664464282652, "trialdata": {"rt": 544, "stimulus": "<p id='stroop-text' class='stroop-green'>RED</p>", "response": "g", "stimulus-type": "incongruent", "word": "red", "color": "green", "correct_response": "g", "trial_id": "stroop-trial-1-incongruent-16", "trial_type": "html-keyboard-response", "trial_index": 188, "time_elapsed": 306345, "internal_node_id": "0.0-8.0-2.0"}}, {"uniqueid": "w46230590:a42847816", "current_trial": 189, "dateTime": 1664464283818, "trialdata": {"rt": 662, "stimulus": "<p id='stroop-text' class='stroop-yellow'>YELLOW</p>", "response": "y", "stimulus-type": "congruent", "word": "yellow", "color": "yellow", "correct_response": "y", "trial_id": "stroop-trial-1-congruent-19", "trial_type": "html-keyboard-response", "trial_index": 189, "time_elapsed": 307512, "internal_node_id": "0.0-8.0-3.0"}}, {"uniqueid": "w46230590:a42847816", "current_trial": 190, "dateTime": 1664464284814, "trialdata": {"rt": 492, "stimulus": "<p id='stroop-text' class='stroop-yellow'>WINDOW</p>", "response": "y", "stimulus-type": "unrelated", "word": "WINDOW", "color": "yellow", "correct_response": "y", "trial_id": "stroop-trial-1-unrelated-5", "trial_type": "html-keyboard-response", "trial_index": 190, "time_elapsed": 308507, "internal_node_id": "0.0-8.0-4.0"}}, {"uniqueid": "w46230590:a42847816", "current_trial": 191, "dateTime": 1664464286089, "trialdata": {"rt": 771, "stimulus": "<p id='stroop-text' class='stroop-green'>RED</p>", "response": "g", "stimulus-type": "incongruent", "word": "red", "color": "green", "correct_response": "g", "trial_id": "stroop-trial-1-incongruent-20", "trial_type": "html-keyboard-response", "trial_index": 191, "time_elapsed": 309782, "internal_node_id": "0.0-8.0-5.0"}}, {"uniqueid": "w46230590:a42847816", "current_trial": 192, "dateTime": 1664464287138, "trialdata": {"rt": 545, "stimulus": "<p id='stroop-text' class='stroop-yellow'>GREEN</p>", "response": "y", "stimulus-type": "incongruent", "word": "green", "color": "yellow", "correct_response": "y", "trial_id": "stroop-trial-1-incongruent-29", "trial_type": "html-keyboard-response", "trial_index": 192, "time_elapsed": 310832, "internal_node_id": "0.0-8.0-6.0"}}, {"uniqueid": "w46230590:a42847816", "current_trial": 193, "dateTime": 1664464288096, "trialdata": {"rt": 452, "stimulus": "<p id='stroop-text' class='stroop-green'>STONE</p>", "response": "g", "stimulus-type": "unrelated", "word": "STONE", "color": "green", "correct_response": "g", "trial_id": "stroop-trial-1-unrelated-4", "trial_type": "html-keyboard-response", "trial_index": 193, "time_elapsed": 311789, "internal_node_id": "0.0-8.0-7.0"}}, {"uniqueid": "w46230590:a42847816", "current_trial": 194, "dateTime": 1664464289244, "trialdata": {"rt": 645, "stimulus": "<p id='stroop-text' class='stroop-yellow'>BRAIN</p>", "response": "y", "stimulus-type": "unrelated", "word": "BRAIN", "color": "yellow", "correct_response": "y", "trial_id": "stroop-trial-1-unrelated-19", "trial_type": "html-keyboard-response", "trial_index": 194, "time_elapsed": 312938, "internal_node_id": "0.0-8.0-8.0"}}, {"uniqueid": "w46230590:a42847816", "current_trial": 195, "dateTime": 1664464290181, "trialdata": {"rt": 431, "stimulus": "<p id='stroop-text' class='stroop-red'>RED</p>", "response": "r", "stimulus-type": "congruent", "word": "red", "color": "red", "correct_response": "r", "trial_id": "stroop-trial-1-congruent-17", "trial_type": "html-keyboard-response", "trial_index": 195, "time_elapsed": 313874, "internal_node_id": "0.0-8.0-9.0"}}, {"uniqueid": "w46230590:a42847816", "current_trial": 196, "dateTime": 1664464291773, "trialdata": {"rt": 1088, "stimulus": "<p id='stroop-text' class='stroop-blue'>RED</p>", "response": "b", "stimulus-type": "incongruent", "word": "red", "color": "blue", "correct_response": "b", "trial_id": "stroop-trial-1-incongruent-17", "trial_type": "html-keyboard-response", "trial_index": 196, "time_elapsed": 315467, "internal_node_id": "0.0-8.0-10.0"}}, {"uniqueid": "w46230590:a42847816", "current_trial": 197, "dateTime": 1664464292604, "trialdata": {"rt": 326, "stimulus": "<p id='stroop-text' class='stroop-blue'>BRIDGE</p>", "response": "b", "stimulus-type": "unrelated", "word": "BRIDGE", "color": "blue", "correct_response": "b", "trial_id": "stroop-trial-1-unrelated-10", "trial_type": "html-keyboard-response", "trial_index": 197, "time_elapsed": 316298, "internal_node_id": "0.0-8.0-11.0"}}, {"uniqueid": "w46230590:a42847816", "current_trial": 198, "dateTime": 1664464293645, "trialdata": {"rt": 536, "stimulus": "<p id='stroop-text' class='stroop-yellow'>YELLOW</p>", "response": "y", "stimulus-type": "congruent", "word": "yellow", "color": "yellow", "correct_response": "y", "trial_id": "stroop-trial-1-congruent-9", "trial_type": "html-keyboard-response", "trial_index": 198, "time_elapsed": 317338, "internal_node_id": "0.0-8.0-12.0"}}, {"uniqueid": "w46230590:a42847816", "current_trial": 199, "dateTime": 1664464294625, "trialdata": {"rt": 475, "stimulus": "<p id='stroop-text' class='stroop-green'>GREEN</p>", "response": "g", "stimulus-type": "congruent", "word": "green", "color": "green", "correct_response": "g", "trial_id": "stroop-trial-1-congruent-21", "trial_type": "html-keyboard-response", "trial_index": 199, "time_elapsed": 318318, "internal_node_id": "0.0-8.0-13.0"}}, {"uniqueid": "w46230590:a42847816", "current_trial": 200, "dateTime": 1664464295773, "trialdata": {"rt": 645, "stimulus": "<p id='stroop-text' class='stroop-yellow'>FORK</p>", "response": "y", "stimulus-type": "unrelated", "word": "FORK", "color": "yellow", "correct_response": "y", "trial_id": "stroop-trial-1-unrelated-9", "trial_type": "html-keyboard-response", "trial_index": 200, "time_elapsed": 319467, "internal_node_id": "0.0-8.0-14.0"}}, {"uniqueid": "w46230590:a42847816", "current_trial": 201, "dateTime": 1664464296730, "trialdata": {"rt": 452, "stimulus": "<p id='stroop-text' class='stroop-red'>RED</p>", "response": "r", "stimulus-type": "congruent", "word": "red", "color": "red", "correct_response": "r", "trial_id": "stroop-trial-1-congruent-25", "trial_type": "html-keyboard-response", "trial_index": 201, "time_elapsed": 320423, "internal_node_id": "0.0-8.0-15.0"}}, {"uniqueid": "w46230590:a42847816", "current_trial": 202, "dateTime": 1664464297965, "trialdata": {"rt": 731, "stimulus": "<p id='stroop-text' class='stroop-green'>YELLOW</p>", "response": "g", "stimulus-type": "incongruent", "word": "yellow", "color": "green", "correct_response": "g", "trial_id": "stroop-trial-1-incongruent-24", "trial_type": "html-keyboard-response", "trial_index": 202, "time_elapsed": 321658, "internal_node_id": "0.0-8.0-16.0"}}, {"uniqueid": "w46230590:a42847816", "current_trial": 203, "dateTime": 1664464298913, "trialdata": {"rt": 445, "stimulus": "<p id='stroop-text' class='stroop-blue'>BLUE</p>", "response": "b", "stimulus-type": "congruent", "word": "blue", "color": "blue", "correct_response": "b", "trial_id": "stroop-trial-1-congruent-14", "trial_type": "html-keyboard-response", "trial_index": 203, "time_elapsed": 322607, "internal_node_id": "0.0-8.0-17.0"}}, {"uniqueid": "w46230590:a42847816", "current_trial": 204, "dateTime": 1664464299964, "trialdata": {"rt": 548, "stimulus": "<p id='stroop-text' class='stroop-green'>BLUE</p>", "response": "g", "stimulus-type": "incongruent", "word": "blue", "color": "green", "correct_response": "g", "trial_id": "stroop-trial-1-incongruent-27", "trial_type": "html-keyboard-response", "trial_index": 204, "time_elapsed": 323658, "internal_node_id": "0.0-8.0-18.0"}}, {"uniqueid": "w46230590:a42847816", "current_trial": 205, "dateTime": 1664464301045, "trialdata": {"rt": 575, "stimulus": "<p id='stroop-text' class='stroop-red'>DOG</p>", "response": "r", "stimulus-type": "unrelated", "word": "DOG", "color": "red", "correct_response": "r", "trial_id": "stroop-trial-1-unrelated-13", "trial_type": "html-keyboard-response", "trial_index": 205, "time_elapsed": 324738, "internal_node_id": "0.0-8.0-19.0"}}, {"uniqueid": "w46230590:a42847816", "current_trial": 206, "dateTime": 1664464302004, "trialdata": {"rt": 454, "stimulus": "<p id='stroop-text' class='stroop-yellow'>GREEN</p>", "response": "y", "stimulus-type": "incongruent", "word": "green", "color": "yellow", "correct_response": "y", "trial_id": "stroop-trial-1-incongruent-26", "trial_type": "html-keyboard-response", "trial_index": 206, "time_elapsed": 325698, "internal_node_id": "0.0-8.0-20.0"}}, {"uniqueid": "w46230590:a42847816", "current_trial": 207, "dateTime": 1664464303057, "trialdata": {"rt": 549, "stimulus": "<p id='stroop-text' class='stroop-red'>RED</p>", "response": "r", "stimulus-type": "congruent", "word": "red", "color": "red", "correct_response": "r", "trial_id": "stroop-trial-1-congruent-8", "trial_type": "html-keyboard-response", "trial_index": 207, "time_elapsed": 326750, "internal_node_id": "0.0-8.0-21.0"}}, {"uniqueid": "w46230590:a42847816", "current_trial": 208, "dateTime": 1664464304102, "trialdata": {"rt": 540, "stimulus": "<p id='stroop-text' class='stroop-red'>BRAIN</p>", "response": "r", "stimulus-type": "unrelated", "word": "BRAIN", "color": "red", "correct_response": "r", "trial_id": "stroop-trial-1-unrelated-30", "trial_type": "html-keyboard-response", "trial_index": 208, "time_elapsed": 327796, "internal_node_id": "0.0-8.0-22.0"}}, {"uniqueid": "w46230590:a42847816", "current_trial": 209, "dateTime": 1664464305187, "trialdata": {"rt": 580, "stimulus": "<p id='stroop-text' class='stroop-green'>YELLOW</p>", "response": "y", "stimulus-type": "incongruent", "word": "yellow", "color": "green", "correct_response": "g", "trial_id": "stroop-trial-1-incongruent-13", "trial_type": "html-keyboard-response", "trial_index": 209, "time_elapsed": 328881, "internal_node_id": "0.0-8.0-23.0"}}, {"uniqueid": "w46230590:a42847816", "current_trial": 210, "dateTime": 1664464306448, "trialdata": {"rt": 757, "stimulus": "<p id='stroop-text' class='stroop-blue'>BOTTLE</p>", "response": "b", "stimulus-type": "unrelated", "word": "BOTTLE", "color": "blue", "correct_response": "b", "trial_id": "stroop-trial-1-unrelated-15", "trial_type": "html-keyboard-response", "trial_index": 210, "time_elapsed": 330142, "internal_node_id": "0.0-8.0-24.0"}}, {"uniqueid": "w46230590:a42847816", "current_trial": 211, "dateTime": 1664464307567, "trialdata": {"rt": 614, "stimulus": "<p id='stroop-text' class='stroop-red'>SHIP</p>", "response": "r", "stimulus-type": "unrelated", "word": "SHIP", "color": "red", "correct_response": "r", "trial_id": "stroop-trial-1-unrelated-20", "trial_type": "html-keyboard-response", "trial_index": 211, "time_elapsed": 331260, "internal_node_id": "0.0-8.0-25.0"}}, {"uniqueid": "w46230590:a42847816", "current_trial": 212, "dateTime": 1664464308604, "trialdata": {"rt": 534, "stimulus": "<p id='stroop-text' class='stroop-green'>BLUE</p>", "response": "g", "stimulus-type": "incongruent", "word": "blue", "color": "green", "correct_response": "g", "trial_id": "stroop-trial-1-incongruent-19", "trial_type": "html-keyboard-response", "trial_index": 212, "time_elapsed": 332298, "internal_node_id": "0.0-8.0-26.0"}}, {"uniqueid": "w46230590:a42847816", "current_trial": 213, "dateTime": 1664464309738, "trialdata": {"rt": 630, "stimulus": "<p id='stroop-text' class='stroop-yellow'>BRAIN</p>", "response": "y", "stimulus-type": "unrelated", "word": "BRAIN", "color": "yellow", "correct_response": "y", "trial_id": "stroop-trial-1-unrelated-2", "trial_type": "html-keyboard-response", "trial_index": 213, "time_elapsed": 333432, "internal_node_id": "0.0-8.0-27.0"}}, {"uniqueid": "w46230590:a42847816", "current_trial": 214, "dateTime": 1664464310719, "trialdata": {"rt": 476, "stimulus": "<p id='stroop-text' class='stroop-red'>RED</p>", "response": "r", "stimulus-type": "congruent", "word": "red", "color": "red", "correct_response": "r", "trial_id": "stroop-trial-1-congruent-24", "trial_type": "html-keyboard-response", "trial_index": 214, "time_elapsed": 334412, "internal_node_id": "0.0-8.0-28.0"}}, {"uniqueid": "w46230590:a42847816", "current_trial": 215, "dateTime": 1664464312170, "trialdata": {"rt": 947, "stimulus": "<p id='stroop-text' class='stroop-red'>GREEN</p>", "response": "r", "stimulus-type": "incongruent", "word": "green", "color": "red", "correct_response": "r", "trial_id": "stroop-trial-1-incongruent-10", "trial_type": "html-keyboard-response", "trial_index": 215, "time_elapsed": 335863, "internal_node_id": "0.0-8.0-29.0"}}, {"uniqueid": "w46230590:a42847816", "current_trial": 216, "dateTime": 1664464313243, "trialdata": {"rt": 568, "stimulus": "<p id='stroop-text' class='stroop-blue'>BLUE</p>", "response": "b", "stimulus-type": "congruent", "word": "blue", "color": "blue", "correct_response": "b", "trial_id": "stroop-trial-1-congruent-13", "trial_type": "html-keyboard-response", "trial_index": 216, "time_elapsed": 336936, "internal_node_id": "0.0-8.0-30.0"}}, {"uniqueid": "w46230590:a42847816", "current_trial": 217, "dateTime": 1664464314292, "trialdata": {"rt": 545, "stimulus": "<p id='stroop-text' class='stroop-green'>GREEN</p>", "response": "g", "stimulus-type": "congruent", "word": "green", "color": "green", "correct_response": "g", "trial_id": "stroop-trial-1-congruent-1", "trial_type": "html-keyboard-response", "trial_index": 217, "time_elapsed": 337986, "internal_node_id": "0.0-8.0-31.0"}}, {"uniqueid": "w46230590:a42847816", "current_trial": 218, "dateTime": 1664464315351, "trialdata": {"rt": 555, "stimulus": "<p id='stroop-text' class='stroop-red'>DOG</p>", "response": "r", "stimulus-type": "unrelated", "word": "DOG", "color": "red", "correct_response": "r", "trial_id": "stroop-trial-1-unrelated-7", "trial_type": "html-keyboard-response", "trial_index": 218, "time_elapsed": 339044, "internal_node_id": "0.0-8.0-32.0"}}, {"uniqueid": "w46230590:a42847816", "current_trial": 219, "dateTime": 1664464316305, "trialdata": {"rt": 449, "stimulus": "<p id='stroop-text' class='stroop-red'>STONE</p>", "response": "r", "stimulus-type": "unrelated", "word": "STONE", "color": "red", "correct_response": "r", "trial_id": "stroop-trial-1-unrelated-6", "trial_type": "html-keyboard-response", "trial_index": 219, "time_elapsed": 339998, "internal_node_id": "0.0-8.0-33.0"}}, {"uniqueid": "w46230590:a42847816", "current_trial": 220, "dateTime": 1664464317209, "trialdata": {"rt": 401, "stimulus": "<p id='stroop-text' class='stroop-yellow'>YELLOW</p>", "response": "y", "stimulus-type": "congruent", "word": "yellow", "color": "yellow", "correct_response": "y", "trial_id": "stroop-trial-1-congruent-7", "trial_type": "html-keyboard-response", "trial_index": 220, "time_elapsed": 340903, "internal_node_id": "0.0-8.0-34.0"}}, {"uniqueid": "w46230590:a42847816", "current_trial": 221, "dateTime": 1664464318159, "trialdata": {"rt": 446, "stimulus": "<p id='stroop-text' class='stroop-yellow'>YELLOW</p>", "response": "y", "stimulus-type": "congruent", "word": "yellow", "color": "yellow", "correct_response": "y", "trial_id": "stroop-trial-1-congruent-15", "trial_type": "html-keyboard-response", "trial_index": 221, "time_elapsed": 341853, "internal_node_id": "0.0-8.0-35.0"}}, {"uniqueid": "w46230590:a42847816", "current_trial": 222, "dateTime": 1664464319580, "trialdata": {"rt": 916, "stimulus": "<p id='stroop-text' class='stroop-red'>GREEN</p>", "response": "r", "stimulus-type": "incongruent", "word": "green", "color": "red", "correct_response": "r", "trial_id": "stroop-trial-1-incongruent-11", "trial_type": "html-keyboard-response", "trial_index": 222, "time_elapsed": 343273, "internal_node_id": "0.0-8.0-36.0"}}, {"uniqueid": "w46230590:a42847816",