{"condition": 0, "counterbalance": 0, "assignmentId": "a45910616", "workerId": "w55311035", "hitId": "h27770842", "currenttrial": 965, "bonus": 0, "data": [{"uniqueid": "w55311035:a45910616", "current_trial": 0, "dateTime": 1664562498272, "trialdata": {"success": true, "trial_type": "fullscreen", "trial_index": 0, "time_elapsed": 4674, "internal_node_id": "0.0-0.0"}}, {"uniqueid": "w55311035:a45910616", "current_trial": 1, "dateTime": 1664562517533, "trialdata": {"view_history": [{"page_index": 0, "viewing_time": 19258}], "rt": 19259, "trial_id": "exp_instructions_distractor", "trial_type": "instructions", "trial_index": 1, "time_elapsed": 23935, "internal_node_id": "0.0-1.0"}}, {"uniqueid": "w55311035:a45910616", "current_trial": 2, "dateTime": 1664562534835, "trialdata": {"view_history": [{"page_index": 0, "viewing_time": 17299}], "rt": 17301, "trial_id": "color_game_instructions", "trial_type": "instructions", "trial_index": 2, "time_elapsed": 41237, "internal_node_id": "0.0-2.0"}}, {"uniqueid": "w55311035:a45910616", "current_trial": 3, "dateTime": 1664562542256, "trialdata": {"rt": 7420, "stimulus": "<h1> Get ready to start the game! </h1>\n\nThank you for reading the instructions. Get ready start with the first of 5 block(s) of this game.\n<br><br>\nIn this first block, you will complete 90 rounds of this game before moving on.\n<br><br>\nRemember, the better you perform, the bigger your bonus will be!\n<br><br>\n<div style='text-align: center;'>Press <code>space</code> to begin.</div>", "response": " ", "trial_id": "stroop_1_ready_1", "trial_type": "html-keyboard-response", "trial_index": 3, "time_elapsed": 48659, "internal_node_id": "0.0-3.0"}}, {"uniqueid": "w55311035:a45910616", "current_trial": 4, "dateTime": 1664562543254, "trialdata": {"rt": 991, "stimulus": "<p id='stroop-text' class='stroop-green'>GREEN</p>", "response": "g", "stimulus-type": "congruent", "word": "green", "color": "green", "correct_response": "g", "trial_id": "stroop-trial-1-congruent-3", "trial_type": "html-keyboard-response", "trial_index": 4, "time_elapsed": 49656, "internal_node_id": "0.0-4.0-0.0"}}, {"uniqueid": "w55311035:a45910616", "current_trial": 5, "dateTime": 1664562544721, "trialdata": {"rt": 964, "stimulus": "<p id='stroop-text' class='stroop-yellow'>YELLOW</p>", "response": "y", "stimulus-type": "congruent", "word": "yellow", "color": "yellow", "correct_response": "y", "trial_id": "stroop-trial-1-congruent-10", "trial_type": "html-keyboard-response", "trial_index": 5, "time_elapsed": 51123, "internal_node_id": "0.0-4.0-1.0"}}, {"uniqueid": "w55311035:a45910616", "current_trial": 6, "dateTime": 1664562546188, "trialdata": {"rt": 965, "stimulus": "<p id='stroop-text' class='stroop-red'>RED</p>", "response": "r", "stimulus-type": "congruent", "word": "red", "color": "red", "correct_response": "r", "trial_id": "stroop-trial-1-congruent-28", "trial_type": "html-keyboard-response", "trial_index": 6, "time_elapsed": 52591, "internal_node_id": "0.0-4.0-2.0"}}, {"uniqueid": "w55311035:a45910616", "current_trial": 7, "dateTime": 1664562548019, "trialdata": {"rt": 1329, "stimulus": "<p id='stroop-text' class='stroop-yellow'>FORK</p>", "response": "y", "stimulus-type": "unrelated", "word": "FORK", "color": "yellow", "correct_response": "y", "trial_id": "stroop-trial-1-unrelated-23", "trial_type": "html-keyboard-response", "trial_index": 7, "time_elapsed": 54421, "internal_node_id": "0.0-4.0-3.0"}}, {"uniqueid": "w55311035:a45910616", "current_trial": 8, "dateTime": 1664562549428, "trialdata": {"rt": 908, "stimulus": "<p id='stroop-text' class='stroop-red'>MONKEY</p>", "response": "r", "stimulus-type": "unrelated", "word": "MONKEY", "color": "red", "correct_response": "r", "trial_id": "stroop-trial-1-unrelated-3", "trial_type": "html-keyboard-response", "trial_index": 8, "time_elapsed": 55831, "internal_node_id": "0.0-4.0-4.0"}}, {"uniqueid": "w55311035:a45910616", "current_trial": 9, "dateTime": 1664562550753, "trialdata": {"rt": 822, "stimulus": "<p id='stroop-text' class='stroop-red'>RED</p>", "response": "r", "stimulus-type": "congruent", "word": "red", "color": "red", "correct_response": "r", "trial_id": "stroop-trial-1-congruent-27", "trial_type": "html-keyboard-response", "trial_index": 9, "time_elapsed": 57155, "internal_node_id": "0.0-4.0-5.0"}}, {"uniqueid": "w55311035:a45910616", "current_trial": 10, "dateTime": 1664562551951, "trialdata": {"rt": 696, "stimulus": "<p id='stroop-text' class='stroop-red'>DOG</p>", "response": "r", "stimulus-type": "unrelated", "word": "DOG", "color": "red", "correct_response": "r", "trial_id": "stroop-trial-1-unrelated-18", "trial_type": "html-keyboard-response", "trial_index": 10, "time_elapsed": 58353, "internal_node_id": "0.0-4.0-6.0"}}, {"uniqueid": "w55311035:a45910616", "current_trial": 11, "dateTime": 1664562553532, "trialdata": {"rt": 1079, "stimulus": "<p id='stroop-text' class='stroop-yellow'>GREEN</p>", "response": "y", "stimulus-type": "incongruent", "word": "green", "color": "yellow", "correct_response": "y", "trial_id": "stroop-trial-1-incongruent-9", "trial_type": "html-keyboard-response", "trial_index": 11, "time_elapsed": 59934, "internal_node_id": "0.0-4.0-7.0"}}, {"uniqueid": "w55311035:a45910616", "current_trial": 12, "dateTime": 1664562555181, "trialdata": {"rt": 1149, "stimulus": "<p id='stroop-text' class='stroop-blue'>RED</p>", "response": "b", "stimulus-type": "incongruent", "word": "red", "color": "blue", "correct_response": "b", "trial_id": "stroop-trial-1-incongruent-19", "trial_type": "html-keyboard-response", "trial_index": 12, "time_elapsed": 61584, "internal_node_id": "0.0-4.0-8.0"}}, {"uniqueid": "w55311035:a45910616", "current_trial": 13, "dateTime": 1664562556144, "trialdata": {"rt": 461, "stimulus": "<p id='stroop-text' class='stroop-blue'>BOTTLE</p>", "response": "b", "stimulus-type": "unrelated", "word": "BOTTLE", "color": "blue", "correct_response": "b", "trial_id": "stroop-trial-1-unrelated-24", "trial_type": "html-keyboard-response", "trial_index": 13, "time_elapsed": 62547, "internal_node_id": "0.0-4.0-9.0"}}, {"uniqueid": "w55311035:a45910616", "current_trial": 14, "dateTime": 1664562557115, "trialdata": {"rt": 468, "stimulus": "<p id='stroop-text' class='stroop-blue'>BLUE</p>", "response": "b", "stimulus-type": "congruent", "word": "blue", "color": "blue", "correct_response": "b", "trial_id": "stroop-trial-1-congruent-16", "trial_type": "html-keyboard-response", "trial_index": 14, "time_elapsed": 63518, "internal_node_id": "0.0-4.0-10.0"}}, {"uniqueid": "w55311035:a45910616", "current_trial": 15, "dateTime": 1664562558205, "trialdata": {"rt": 588, "stimulus": "<p id='stroop-text' class='stroop-red'>CHAIR</p>", "response": "r", "stimulus-type": "unrelated", "word": "CHAIR", "color": "red", "correct_response": "r", "trial_id": "stroop-trial-1-unrelated-15", "trial_type": "html-keyboard-response", "trial_index": 15, "time_elapsed": 64608, "internal_node_id": "0.0-4.0-11.0"}}, {"uniqueid": "w55311035:a45910616", "current_trial": 16, "dateTime": 1664562559443, "trialdata": {"rt": 737, "stimulus": "<p id='stroop-text' class='stroop-blue'>BRIDGE</p>", "response": "b", "stimulus-type": "unrelated", "word": "BRIDGE", "color": "blue", "correct_response": "b", "trial_id": "stroop-trial-1-unrelated-9", "trial_type": "html-keyboard-response", "trial_index": 16, "time_elapsed": 65846, "internal_node_id": "0.0-4.0-12.0"}}, {"uniqueid": "w55311035:a45910616", "current_trial": 17, "dateTime": 1664562560609, "trialdata": {"rt": 662, "stimulus": "<p id='stroop-text' class='stroop-yellow'>SHIP</p>", "response": "y", "stimulus-type": "unrelated", "word": "SHIP", "color": "yellow", "correct_response": "y", "trial_id": "stroop-trial-1-unrelated-1", "trial_type": "html-keyboard-response", "trial_index": 17, "time_elapsed": 67012, "internal_node_id": "0.0-4.0-13.0"}}, {"uniqueid": "w55311035:a45910616", "current_trial": 18, "dateTime": 1664562561966, "trialdata": {"rt": 855, "stimulus": "<p id='stroop-text' class='stroop-blue'>BLUE</p>", "response": "b", "stimulus-type": "congruent", "word": "blue", "color": "blue", "correct_response": "b", "trial_id": "stroop-trial-1-congruent-18", "trial_type": "html-keyboard-response", "trial_index": 18, "time_elapsed": 68369, "internal_node_id": "0.0-4.0-14.0"}}, {"uniqueid": "w55311035:a45910616", "current_trial": 19, "dateTime": 1664562564540, "trialdata": {"rt": 2072, "stimulus": "<p id='stroop-text' class='stroop-green'>GREEN</p>", "response": "g", "stimulus-type": "congruent", "word": "green", "color": "green", "correct_response": "g", "trial_id": "stroop-trial-1-congruent-11", "trial_type": "html-keyboard-response", "trial_index": 19, "time_elapsed": 70943, "internal_node_id": "0.0-4.0-15.0"}}, {"uniqueid": "w55311035:a45910616", "current_trial": 20, "dateTime": 1664562566685, "trialdata": {"rt": 1643, "stimulus": "<p id='stroop-text' class='stroop-red'>STONE</p>", "response": "r", "stimulus-type": "unrelated", "word": "STONE", "color": "red", "correct_response": "r", "trial_id": "stroop-trial-1-unrelated-16", "trial_type": "html-keyboard-response", "trial_index": 20, "time_elapsed": 73087, "internal_node_id": "0.0-4.0-16.0"}}, {"uniqueid": "w55311035:a45910616", "current_trial": 21, "dateTime": 1664562568637, "trialdata": {"rt": 1451, "stimulus": "<p id='stroop-text' class='stroop-green'>GREEN</p>", "response": "g", "stimulus-type": "congruent", "word": "green", "color": "green", "correct_response": "g", "trial_id": "stroop-trial-1-congruent-6", "trial_type": "html-keyboard-response", "trial_index": 21, "time_elapsed": 75040, "internal_node_id": "0.0-4.0-17.0"}}, {"uniqueid": "w55311035:a45910616", "current_trial": 22, "dateTime": 1664562569727, "trialdata": {"rt": 588, "stimulus": "<p id='stroop-text' class='stroop-red'>MONKEY</p>", "response": "r", "stimulus-type": "unrelated", "word": "MONKEY", "color": "red", "correct_response": "r", "trial_id": "stroop-trial-1-unrelated-14", "trial_type": "html-keyboard-response", "trial_index": 22, "time_elapsed": 76129, "internal_node_id": "0.0-4.0-18.0"}}, {"uniqueid": "w55311035:a45910616", "current_trial": 23, "dateTime": 1664562570817, "trialdata": {"rt": 588, "stimulus": "<p id='stroop-text' class='stroop-red'>RED</p>", "response": "r", "stimulus-type": "congruent", "word": "red", "color": "red", "correct_response": "r", "trial_id": "stroop-trial-1-congruent-15", "trial_type": "html-keyboard-response", "trial_index": 23, "time_elapsed": 77219, "internal_node_id": "0.0-4.0-19.0"}}, {"uniqueid": "w55311035:a45910616", "current_trial": 24, "dateTime": 1664562572363, "trialdata": {"rt": 1044, "stimulus": "<p id='stroop-text' class='stroop-blue'>BOTTLE</p>", "response": "b", "stimulus-type": "unrelated", "word": "BOTTLE", "color": "blue", "correct_response": "b", "trial_id": "stroop-trial-1-unrelated-26", "trial_type": "html-keyboard-response", "trial_index": 24, "time_elapsed": 78766, "internal_node_id": "0.0-4.0-20.0"}}, {"uniqueid": "w55311035:a45910616", "current_trial": 25, "dateTime": 1664562573830, "trialdata": {"rt": 965, "stimulus": "<p id='stroop-text' class='stroop-red'>GREEN</p>", "response": "r", "stimulus-type": "incongruent", "word": "green", "color": "red", "correct_response": "r", "trial_id": "stroop-trial-1-incongruent-28", "trial_type": "html-keyboard-response", "trial_index": 25, "time_elapsed": 80232, "internal_node_id": "0.0-4.0-21.0"}}, {"uniqueid": "w55311035:a45910616", "current_trial": 26, "dateTime": 1664562575085, "trialdata": {"rt": 754, "stimulus": "<p id='stroop-text' class='stroop-yellow'>BLUE</p>", "response": "y", "stimulus-type": "incongruent", "word": "blue", "color": "yellow", "correct_response": "y", "trial_id": "stroop-trial-1-incongruent-10", "trial_type": "html-keyboard-response", "trial_index": 26, "time_elapsed": 81488, "internal_node_id": "0.0-4.0-22.0"}}, {"uniqueid": "w55311035:a45910616", "current_trial": 27, "dateTime": 1664562576090, "trialdata": {"rt": 500, "stimulus": "<p id='stroop-text' class='stroop-yellow'>YELLOW</p>", "response": "y", "stimulus-type": "congruent", "word": "yellow", "color": "yellow", "correct_response": "y", "trial_id": "stroop-trial-1-congruent-4", "trial_type": "html-keyboard-response", "trial_index": 27, "time_elapsed": 82493, "internal_node_id": "0.0-4.0-23.0"}}, {"uniqueid": "w55311035:a45910616", "current_trial": 28, "dateTime": 1664562578064, "trialdata": {"rt": 1472, "stimulus": "<p id='stroop-text' class='stroop-blue'>GREEN</p>", "response": "b", "stimulus-type": "incongruent", "word": "green", "color": "blue", "correct_response": "b", "trial_id": "stroop-trial-1-incongruent-6", "trial_type": "html-keyboard-response", "trial_index": 28, "time_elapsed": 84466, "internal_node_id": "0.0-4.0-24.0"}}, {"uniqueid": "w55311035:a45910616", "current_trial": 29, "dateTime": 1664562579879, "trialdata": {"rt": 1312, "stimulus": "<p id='stroop-text' class='stroop-blue'>YELLOW</p>", "response": "b", "stimulus-type": "incongruent", "word": "yellow", "color": "blue", "correct_response": "b", "trial_id": "stroop-trial-1-incongruent-5", "trial_type": "html-keyboard-response", "trial_index": 29, "time_elapsed": 86281, "internal_node_id": "0.0-4.0-25.0"}}, {"uniqueid": "w55311035:a45910616", "current_trial": 30, "dateTime": 1664562581157, "trialdata": {"rt": 776, "stimulus": "<p id='stroop-text' class='stroop-blue'>BLUE</p>", "response": "b", "stimulus-type": "congruent", "word": "blue", "color": "blue", "correct_response": "b", "trial_id": "stroop-trial-1-congruent-12", "trial_type": "html-keyboard-response", "trial_index": 30, "time_elapsed": 87559, "internal_node_id": "0.0-4.0-26.0"}}, {"uniqueid": "w55311035:a45910616", "current_trial": 31, "dateTime": 1664562582515, "trialdata": {"rt": 857, "stimulus": "<p id='stroop-text' class='stroop-blue'>BLUE</p>", "response": "b", "stimulus-type": "congruent", "word": "blue", "color": "blue", "correct_response": "b", "trial_id": "stroop-trial-1-congruent-25", "trial_type": "html-keyboard-response", "trial_index": 31, "time_elapsed": 88918, "internal_node_id": "0.0-4.0-27.0"}}, {"uniqueid": "w55311035:a45910616", "current_trial": 32, "dateTime": 1664562583742, "trialdata": {"rt": 724, "stimulus": "<p id='stroop-text' class='stroop-blue'>BRIDGE</p>", "response": "b", "stimulus-type": "unrelated", "word": "BRIDGE", "color": "blue", "correct_response": "b", "trial_id": "stroop-trial-1-unrelated-21", "trial_type": "html-keyboard-response", "trial_index": 32, "time_elapsed": 90144, "internal_node_id": "0.0-4.0-28.0"}}, {"uniqueid": "w55311035:a45910616", "current_trial": 33, "dateTime": 1664562585038, "trialdata": {"rt": 794, "stimulus": "<p id='stroop-text' class='stroop-yellow'>YELLOW</p>", "response": "y", "stimulus-type": "congruent", "word": "yellow", "color": "yellow", "correct_response": "y", "trial_id": "stroop-trial-1-congruent-21", "trial_type": "html-keyboard-response", "trial_index": 33, "time_elapsed": 91441, "internal_node_id": "0.0-4.0-29.0"}}, {"uniqueid": "w55311035:a45910616", "current_trial": 34, "dateTime": 1664562586504, "trialdata": {"rt": 964, "stimulus": "<p id='stroop-text' class='stroop-blue'>RED</p>", "response": "r", "stimulus-type": "incongruent", "word": "red", "color": "blue", "correct_response": "b", "trial_id": "stroop-trial-1-incongruent-21", "trial_type": "html-keyboard-response", "trial_index": 34, "time_elapsed": 92906, "internal_node_id": "0.0-4.0-30.0"}}, {"uniqueid": "w55311035:a45910616", "current_trial": 35, "dateTime": 1664562588250, "trialdata": {"rt": 1245, "stimulus": "<p id='stroop-text' class='stroop-blue'>WINDOW</p>", "response": "b", "stimulus-type": "unrelated", "word": "WINDOW", "color": "blue", "correct_response": "b", "trial_id": "stroop-trial-1-unrelated-25", "trial_type": "html-keyboard-response", "trial_index": 35, "time_elapsed": 94653, "internal_node_id": "0.0-4.0-31.0"}}, {"uniqueid": "w55311035:a45910616", "current_trial": 36, "dateTime": 1664562589255, "trialdata": {"rt": 503, "stimulus": "<p id='stroop-text' class='stroop-blue'>BOTTLE</p>", "response": "b", "stimulus-type": "unrelated", "word": "BOTTLE", "color": "blue", "correct_response": "b", "trial_id": "stroop-trial-1-unrelated-29", "trial_type": "html-keyboard-response", "trial_index": 36, "time_elapsed": 95657, "internal_node_id": "0.0-4.0-32.0"}}, {"uniqueid": "w55311035:a45910616", "current_trial": 37, "dateTime": 1664562590510, "trialdata": {"rt": 753, "stimulus": "<p id='stroop-text' class='stroop-blue'>YELLOW</p>", "response": "b", "stimulus-type": "incongruent", "word": "yellow", "color": "blue", "correct_response": "b", "trial_id": "stroop-trial-1-incongruent-2", "trial_type": "html-keyboard-response", "trial_index": 37, "time_elapsed": 96912, "internal_node_id": "0.0-4.0-33.0"}}, {"uniqueid": "w55311035:a45910616", "current_trial": 38, "dateTime": 1664562591731, "trialdata": {"rt": 719, "stimulus": "<p id='stroop-text' class='stroop-red'>GREEN</p>", "response": "r", "stimulus-type": "incongruent", "word": "green", "color": "red", "correct_response": "r", "trial_id": "stroop-trial-1-incongruent-4", "trial_type": "html-keyboard-response", "trial_index": 38, "time_elapsed": 98134, "internal_node_id": "0.0-4.0-34.0"}}, {"uniqueid": "w55311035:a45910616", "current_trial": 39, "dateTime": 1664562592947, "trialdata": {"rt": 713, "stimulus": "<p id='stroop-text' class='stroop-green'>GREEN</p>", "response": "g", "stimulus-type": "congruent", "word": "green", "color": "green", "correct_response": "g", "trial_id": "stroop-trial-1-congruent-30", "trial_type": "html-keyboard-response", "trial_index": 39, "time_elapsed": 99349, "internal_node_id": "0.0-4.0-35.0"}}, {"uniqueid": "w55311035:a45910616", "current_trial": 40, "dateTime": 1664562594031, "trialdata": {"rt": 582, "stimulus": "<p id='stroop-text' class='stroop-red'>CHAIR</p>", "response": "r", "stimulus-type": "unrelated", "word": "CHAIR", "color": "red", "correct_response": "r", "trial_id": "stroop-trial-1-unrelated-19", "trial_type": "html-keyboard-response", "trial_index": 40, "time_elapsed": 100433, "internal_node_id": "0.0-4.0-36.0"}}, {"uniqueid": "w55311035:a45910616", "current_trial": 41, "dateTime": 1664562595555, "trialdata": {"rt": 1023, "stimulus": "<p id='stroop-text' class='stroop-blue'>YELLOW</p>", "response": "b", "stimulus-type": "incongruent", "word": "yellow", "color": "blue", "correct_response": "b", "trial_id": "stroop-trial-1-incongruent-14", "trial_type": "html-keyboard-response", "trial_index": 41, "time_elapsed": 101958, "internal_node_id": "0.0-4.0-37.0"}}, {"uniqueid": "w55311035:a45910616", "current_trial": 42, "dateTime": 1664562596553, "trialdata": {"rt": 494, "stimulus": "<p id='stroop-text' class='stroop-blue'>BLUE</p>", "response": "b", "stimulus-type": "congruent", "word": "blue", "color": "blue", "correct_response": "b", "trial_id": "stroop-trial-1-congruent-9", "trial_type": "html-keyboard-response", "trial_index": 42, "time_elapsed": 102955, "internal_node_id": "0.0-4.0-38.0"}}, {"uniqueid": "w55311035:a45910616", "current_trial": 43, "dateTime": 1664562597603, "trialdata": {"rt": 548, "stimulus": "<p id='stroop-text' class='stroop-red'>CHAIR</p>", "response": "r", "stimulus-type": "unrelated", "word": "CHAIR", "color": "red", "correct_response": "r", "trial_id": "stroop-trial-1-unrelated-10", "trial_type": "html-keyboard-response", "trial_index": 43, "time_elapsed": 104005, "internal_node_id": "0.0-4.0-39.0"}}, {"uniqueid": "w55311035:a45910616", "current_trial": 44, "dateTime": 1664562598990, "trialdata": {"rt": 884, "stimulus": "<p id='stroop-text' class='stroop-red'>YELLOW</p>", "response": "r", "stimulus-type": "incongruent", "word": "yellow", "color": "red", "correct_response": "r", "trial_id": "stroop-trial-1-incongruent-16", "trial_type": "html-keyboard-response", "trial_index": 44, "time_elapsed": 105392, "internal_node_id": "0.0-4.0-40.0"}}, {"uniqueid": "w55311035:a45910616", "current_trial": 45, "dateTime": 1664562600422, "trialdata": {"rt": 930, "stimulus": "<p id='stroop-text' class='stroop-green'>GREEN</p>", "response": "g", "stimulus-type": "congruent", "word": "green", "color": "green", "correct_response": "g", "trial_id": "stroop-trial-1-congruent-17", "trial_type": "html-keyboard-response", "trial_index": 45, "time_elapsed": 106825, "internal_node_id": "0.0-4.0-41.0"}}, {"uniqueid": "w55311035:a45910616", "current_trial": 46, "dateTime": 1664562601854, "trialdata": {"rt": 930, "stimulus": "<p id='stroop-text' class='stroop-red'>BLUE</p>", "response": "r", "stimulus-type": "incongruent", "word": "blue", "color": "red", "correct_response": "r", "trial_id": "stroop-trial-1-incongruent-1", "trial_type": "html-keyboard-response", "trial_index": 46, "time_elapsed": 108257, "internal_node_id": "0.0-4.0-42.0"}}, {"uniqueid": "w55311035:a45910616", "current_trial": 47, "dateTime": 1664562603138, "trialdata": {"rt": 782, "stimulus": "<p id='stroop-text' class='stroop-yellow'>YELLOW</p>", "response": "y", "stimulus-type": "congruent", "word": "yellow", "color": "yellow", "correct_response": "y", "trial_id": "stroop-trial-1-congruent-14", "trial_type": "html-keyboard-response", "trial_index": 47, "time_elapsed": 109540, "internal_node_id": "0.0-4.0-43.0"}}, {"uniqueid": "w55311035:a45910616", "current_trial": 48, "dateTime": 1664562604205, "trialdata": {"rt": 564, "stimulus": "<p id='stroop-text' class='stroop-red'>STONE</p>", "response": "r", "stimulus-type": "unrelated", "word": "STONE", "color": "red", "correct_response": "r", "trial_id": "stroop-trial-1-unrelated-22", "trial_type": "html-keyboard-response", "trial_index": 48, "time_elapsed": 110607, "internal_node_id": "0.0-4.0-44.0"}}, {"uniqueid": "w55311035:a45910616", "current_trial": 49, "dateTime": 1664562605164, "trialdata": {"rt": 457, "stimulus": "<p id='stroop-text' class='stroop-yellow'>YELLOW</p>", "response": "y", "stimulus-type": "congruent", "word": "yellow", "color": "yellow", "correct_response": "y", "trial_id": "stroop-trial-1-congruent-19", "trial_type": "html-keyboard-response", "trial_index": 49, "time_elapsed": 111566, "internal_node_id": "0.0-4.0-45.0"}}, {"uniqueid": "w55311035:a45910616", "current_trial": 50, "dateTime": 1664562606950, "trialdata": {"rt": 1284, "stimulus": "<p id='stroop-text' class='stroop-red'>GREEN</p>", "response": "r", "stimulus-type": "incongruent", "word": "green", "color": "red", "correct_response": "r", "trial_id": "stroop-trial-1-incongruent-22", "trial_type": "html-keyboard-response", "trial_index": 50, "time_elapsed": 113353, "internal_node_id": "0.0-4.0-46.0"}}, {"uniqueid": "w55311035:a45910616", "current_trial": 51, "dateTime": 1664562608627, "trialdata": {"rt": 1175, "stimulus": "<p id='stroop-text' class='stroop-green'>BLUE</p>", "response": "y", "stimulus-type": "incongruent", "word": "blue", "color": "green", "correct_response": "g", "trial_id": "stroop-trial-1-incongruent-24", "trial_type": "html-keyboard-response", "trial_index": 51, "time_elapsed": 115029, "internal_node_id": "0.0-4.0-47.0"}}, {"uniqueid": "w55311035:a45910616", "current_trial": 52, "dateTime": 1664562611263, "trialdata": {"rt": 2135, "stimulus": "<p id='stroop-text' class='stroop-yellow'>WINDOW</p>", "response": "y", "stimulus-type": "unrelated", "word": "WINDOW", "color": "yellow", "correct_response": "y", "trial_id": "stroop-trial-1-unrelated-7", "trial_type": "html-keyboard-response", "trial_index": 52, "time_elapsed": 117665, "internal_node_id": "0.0-4.0-48.0"}}, {"uniqueid": "w55311035:a45910616", "current_trial": 53, "dateTime": 1664562613940, "trialdata": {"rt": 2174, "stimulus": "<p id='stroop-text' class='stroop-blue'>GREEN</p>", "response": "b", "stimulus-type": "incongruent", "word": "green", "color": "blue", "correct_response": "b", "trial_id": "stroop-trial-1-incongruent-8", "trial_type": "html-keyboard-response", "trial_index": 53, "time_elapsed": 120342, "internal_node_id": "0.0-4.0-49.0"}}, {"uniqueid": "w55311035:a45910616", "current_trial": 54, "dateTime": 1664562615446, "trialdata": {"rt": 1004, "stimulus": "<p id='stroop-text' class='stroop-yellow'>YELLOW</p>", "response": "b", "stimulus-type": "congruent", "word": "yellow", "color": "yellow", "correct_response": "y", "trial_id": "stroop-trial-1-congruent-13", "trial_type": "html-keyboard-response", "trial_index": 54, "time_elapsed": 121848, "internal_node_id": "0.0-4.0-50.0"}}, {"uniqueid": "w55311035:a45910616", "current_trial": 55, "dateTime": 1664562617506, "trialdata": {"rt": 1557, "stimulus": "<p id='stroop-text' class='stroop-blue'>WINDOW</p>", "response": "b", "stimulus-type": "unrelated", "word": "WINDOW", "color": "blue", "correct_response": "b", "trial_id": "stroop-trial-1-unrelated-28", "trial_type": "html-keyboard-response", "trial_index": 55, "time_elapsed": 123909, "internal_node_id": "0.0-4.0-51.0"}}, {"uniqueid": "w55311035:a45910616", "current_trial": 56, "dateTime": 1664562618836, "trialdata": {"rt": 828, "stimulus": "<p id='stroop-text' class='stroop-yellow'>RED</p>", "response": "y", "stimulus-type": "incongruent", "word": "red", "color": "yellow", "correct_response": "y", "trial_id": "stroop-trial-1-incongruent-27", "trial_type": "html-keyboard-response", "trial_index": 56, "time_elapsed": 125238, "internal_node_id": "0.0-4.0-52.0"}}, {"uniqueid": "w55311035:a45910616", "current_trial": 57, "dateTime": 1664562620142, "trialdata": {"rt": 804, "stimulus": "<p id='stroop-text' class='stroop-blue'>BLUE</p>", "response": "b", "stimulus-type": "congruent", "word": "blue", "color": "blue", "correct_response": "b", "trial_id": "stroop-trial-1-congruent-20", "trial_type": "html-keyboard-response", "trial_index": 57, "time_elapsed": 126544, "internal_node_id": "0.0-4.0-53.0"}}, {"uniqueid": "w55311035:a45910616", "current_trial": 58, "dateTime": 1664562621489, "trialdata": {"rt": 845, "stimulus": "<p id='stroop-text' class='stroop-blue'>YELLOW</p>", "response": "b", "stimulus-type": "incongruent", "word": "yellow", "color": "blue", "correct_response": "b", "trial_id": "stroop-trial-1-incongruent-3", "trial_type": "html-keyboard-response", "trial_index": 58, "time_elapsed": 127892, "internal_node_id": "0.0-4.0-54.0"}}, {"uniqueid": "w55311035:a45910616", "current_trial": 59, "dateTime": 1664562622694, "trialdata": {"rt": 704, "stimulus": "<p id='stroop-text' class='stroop-yellow'>WINDOW</p>", "response": "y", "stimulus-type": "unrelated", "word": "WINDOW", "color": "yellow", "correct_response": "y", "trial_id": "stroop-trial-1-unrelated-17", "trial_type": "html-keyboard-response", "trial_index": 59, "time_elapsed": 129097, "internal_node_id": "0.0-4.0-55.0"}}, {"uniqueid": "w55311035:a45910616", "current_trial": 60, "dateTime": 1664562624325, "trialdata": {"rt": 1128, "stimulus": "<p id='stroop-text' class='stroop-blue'>FORK</p>", "response": "b", "stimulus-type": "unrelated", "word": "FORK", "color": "blue", "correct_response": "b", "trial_id": "stroop-trial-1-unrelated-13", "trial_type": "html-keyboard-response", "trial_index": 60, "time_elapsed": 130728, "internal_node_id": "0.0-4.0-56.0"}}, {"uniqueid": "w55311035:a45910616", "current_trial": 61, "dateTime": 1664562625569, "trialdata": {"rt": 742, "stimulus": "<p id='stroop-text' class='stroop-red'>STONE</p>", "response": "r", "stimulus-type": "unrelated", "word": "STONE", "color": "red", "correct_response": "r", "trial_id": "stroop-trial-1-unrelated-27", "trial_type": "html-keyboard-response", "trial_index": 61, "time_elapsed": 131972, "internal_node_id": "0.0-4.0-57.0"}}, {"uniqueid": "w55311035:a45910616", "current_trial": 62, "dateTime": 1664562627327, "trialdata": {"rt": 1256, "stimulus": "<p id='stroop-text' class='stroop-yellow'>BRIDGE</p>", "response": "y", "stimulus-type": "unrelated", "word": "BRIDGE", "color": "yellow", "correct_response": "y", "trial_id": "stroop-trial-1-unrelated-12", "trial_type": "html-keyboard-response", "trial_index": 62, "time_elapsed": 133730, "internal_node_id": "0.0-4.0-58.0"}}, {"uniqueid": "w55311035:a45910616", "current_trial": 63, "dateTime": 1664562628788, "trialdata": {"rt": 959, "stimulus": "<p id='stroop-text' class='stroop-green'>BLUE</p>", "response": "g", "stimulus-type": "incongruent", "word": "blue", "color": "green", "correct_response": "g", "trial_id": "stroop-trial-1-incongruent-20", "trial_type": "html-keyboard-response", "trial_index": 63, "time_elapsed": 135191, "internal_node_id": "0.0-4.0-59.0"}}, {"uniqueid": "w55311035:a45910616", "current_trial": 64, "dateTime": 1664562630380, "trialdata": {"rt": 1089, "stimulus": "<p id='stroop-text' class='stroop-blue'>FORK</p>", "response": "b", "stimulus-type": "unrelated", "word": "FORK", "color": "blue", "correct_response": "b", "trial_id": "stroop-trial-1-unrelated-20", "trial_type": "html-keyboard-response", "trial_index": 64, "time_elapsed": 136783, "internal_node_id": "0.0-4.0-60.0"}}, {"uniqueid": "w55311035:a45910616", "current_trial": 65, "dateTime": 1664562631846, "trialdata": {"rt": 964, "stimulus": "<p id='stroop-text' class='stroop-green'>GREEN</p>", "response": "g", "stimulus-type": "congruent", "word": "green", "color": "green", "correct_response": "g", "trial_id": "stroop-trial-1-congruent-22", "trial_type": "html-keyboard-response", "trial_index": 65, "time_elapsed": 138249, "internal_node_id": "0.0-4.0-61.0"}}, {"uniqueid": "w55311035:a45910616", "current_trial": 66, "dateTime": 1664562633107, "trialdata": {"rt": 759, "stimulus": "<p id='stroop-text' class='stroop-green'>GREEN</p>", "response": "g", "stimulus-type": "congruent", "word": "green", "color": "green", "correct_response": "g", "trial_id": "stroop-trial-1-congruent-26", "trial_type": "html-keyboard-response", "trial_index": 66, "time_elapsed": 139510, "internal_node_id": "0.0-4.0-62.0"}}, {"uniqueid": "w55311035:a45910616", "current_trial": 67, "dateTime": 1664562634386, "trialdata": {"rt": 775, "stimulus": "<p id='stroop-text' class='stroop-red'>BLUE</p>", "response": "r", "stimulus-type": "incongruent", "word": "blue", "color": "red", "correct_response": "r", "trial_id": "stroop-trial-1-incongruent-29", "trial_type": "html-keyboard-response", "trial_index": 67, "time_elapsed": 140789, "internal_node_id": "0.0-4.0-63.0"}}, {"uniqueid": "w55311035:a45910616", "current_trial": 68, "dateTime": 1664562635938, "trialdata": {"rt": 1050, "stimulus": "<p id='stroop-text' class='stroop-blue'>DOG</p>", "response": "b", "stimulus-type": "unrelated", "word": "DOG", "color": "blue", "correct_response": "b", "trial_id": "stroop-trial-1-unrelated-8", "trial_type": "html-keyboard-response", "trial_index": 68, "time_elapsed": 142341, "internal_node_id": "0.0-4.0-64.0"}}, {"uniqueid": "w55311035:a45910616", "current_trial": 69, "dateTime": 1664562637153, "trialdata": {"rt": 713, "stimulus": "<p id='stroop-text' class='stroop-yellow'>FORK</p>", "response": "y", "stimulus-type": "unrelated", "word": "FORK", "color": "yellow", "correct_response": "y", "trial_id": "stroop-trial-1-unrelated-4", "trial_type": "html-keyboard-response", "trial_index": 69, "time_elapsed": 143556, "internal_node_id": "0.0-4.0-65.0"}}, {"uniqueid": "w55311035:a45910616", "current_trial": 70, "dateTime": 1664562638369, "trialdata": {"rt": 714, "stimulus": "<p id='stroop-text' class='stroop-red'>YELLOW</p>", "response": "r", "stimulus-type": "incongruent", "word": "yellow", "color": "red", "correct_response": "r", "trial_id": "stroop-trial-1-incongruent-12", "trial_type": "html-keyboard-response", "trial_index": 70, "time_elapsed": 144772, "internal_node_id": "0.0-4.0-66.0"}}, {"uniqueid": "w55311035:a45910616", "current_trial": 71, "dateTime": 1664562639733, "trialdata": {"rt": 863, "stimulus": "<p id='stroop-text' class='stroop-yellow'>YELLOW</p>", "response": "y", "stimulus-type": "congruent", "word": "yellow", "color": "yellow", "correct_response": "y", "trial_id": "stroop-trial-1-congruent-23", "trial_type": "html-keyboard-response", "trial_index": 71, "time_elapsed": 146136, "internal_node_id": "0.0-4.0-67.0"}}, {"uniqueid": "w55311035:a45910616", "current_trial": 72, "dateTime": 1664562641336, "trialdata": {"rt": 1100, "stimulus": "<p id='stroop-text' class='stroop-blue'>GREEN</p>", "response": "b", "stimulus-type": "incongruent", "word": "green", "color": "blue", "correct_response": "b", "trial_id": "stroop-trial-1-incongruent-23", "trial_type": "html-keyboard-response", "trial_index": 72, "time_elapsed": 147739, "internal_node_id": "0.0-4.0-68.0"}}, {"uniqueid": "w55311035:a45910616", "current_trial": 73, "dateTime": 1664562642426, "trialdata": {"rt": 588, "stimulus": "<p id='stroop-text' class='stroop-blue'>GREEN</p>", "response": "b", "stimulus-type": "incongruent", "word": "green", "color": "blue", "correct_response": "b", "trial_id": "stroop-trial-1-incongruent-7", "trial_type": "html-keyboard-response", "trial_index": 73, "time_elapsed": 148829, "internal_node_id": "0.0-4.0-69.0"}}, {"uniqueid": "w55311035:a45910616", "current_trial": 74, "dateTime": 1664562643476, "trialdata": {"rt": 548, "stimulus": "<p id='stroop-text' class='stroop-yellow'>YELLOW</p>", "response": "y", "stimulus-type": "congruent", "word": "yellow", "color": "yellow", "correct_response": "y", "trial_id": "stroop-trial-1-congruent-7", "trial_type": "html-keyboard-response", "trial_index": 74, "time_elapsed": 149879, "internal_node_id": "0.0-4.0-70.0"}}, {"uniqueid": "w55311035:a45910616", "current_trial": 75, "dateTime": 1664562644612, "trialdata": {"rt": 633, "stimulus": "<p id='stroop-text' class='stroop-green'>GREEN</p>", "response": "g", "stimulus-type": "congruent", "word": "green", "color": "green", "correct_response": "g", "trial_id": "stroop-trial-1-congruent-5", "trial_type": "html-keyboard-response", "trial_index": 75, "time_elapsed": 151015, "internal_node_id": "0.0-4.0-71.0"}}, {"uniqueid": "w55311035:a45910616", "current_trial": 76, "dateTime": 1664562645799, "trialdata": {"rt": 685, "stimulus": "<p id='stroop-text' class='stroop-blue'>BLUE</p>", "response": "b", "stimulus-type": "congruent", "word": "blue", "color": "blue", "correct_response": "b", "trial_id": "stroop-trial-1-congruent-2", "trial_type": "html-keyboard-response", "trial_index": 76, "time_elapsed": 152202, "internal_node_id": "0.0-4.0-72.0"}}, {"uniqueid": "w55311035:a45910616", "current_trial": 77, "dateTime": 1664562646860, "trialdata": {"rt": 559, "stimulus": "<p id='stroop-text' class='stroop-yellow'>YELLOW</p>", "response": "y", "stimulus-type": "congruent", "word": "yellow", "color": "yellow", "correct_response": "y", "trial_id": "stroop-trial-1-congruent-24", "trial_type": "html-keyboard-response", "trial_index": 77, "time_elapsed": 153263, "internal_node_id": "0.0-4.0-73.0"}}, {"uniqueid": "w55311035:a45910616", "current_trial": 78, "dateTime": 1664562647785, "trialdata": {"rt": 423, "stimulus": "<p id='stroop-text' class='stroop-green'>GREEN</p>", "response": "g", "stimulus-type": "congruent", "word": "green", "color": "green", "correct_response": "g", "trial_id": "stroop-trial-1-congruent-29", "trial_type": "html-keyboard-response", "trial_index": 78, "time_elapsed": 154188, "internal_node_id": "0.0-4.0-74.0"}}, {"uniqueid": "w55311035:a45910616", "current_trial": 79, "dateTime": 1664562648847, "trialdata": {"rt": 558, "stimulus": "<p id='stroop-text' class='stroop-red'>RED</p>", "response": "r", "stimulus-type": "congruent", "word": "red", "color": "red", "correct_response": "r", "trial_id": "stroop-trial-1-congruent-1", "trial_type": "html-keyboard-response", "trial_index": 79, "time_elapsed": 155250, "internal_node_id": "0.0-4.0-75.0"}}, {"uniqueid": "w55311035:a45910616", "current_trial": 80, "dateTime": 1664562649971, "trialdata": {"rt": 623, "stimulus": "<p id='stroop-text' class='stroop-yellow'>GREEN</p>", "response": "y", "stimulus-type": "incongruent", "word": "green", "color": "yellow", "correct_response": "y", "trial_id": "stroop-trial-1-incongruent-26", "trial_type": "html-keyboard-response", "trial_index": 80, "time_elapsed": 156374, "internal_node_id": "0.0-4.0-76.0"}}, {"uniqueid": "w55311035:a45910616", "current_trial": 81, "dateTime": 1664562651232, "trialdata": {"rt": 757, "stimulus": "<p id='stroop-text' class='stroop-yellow'>GREEN</p>", "response": "y", "stimulus-type": "incongruent", "word": "green", "color": "yellow", "correct_response": "y", "trial_id": "stroop-trial-1-incongruent-30", "trial_type": "html-keyboard-response", "trial_index": 81, "time_elapsed": 157635, "internal_node_id": "0.0-4.0-77.0"}}, {"uniqueid": "w55311035:a45910616", "current_trial": 82, "dateTime": 1664562652270, "trialdata": {"rt": 536, "stimulus": "<p id='stroop-text' class='stroop-red'>GREEN</p>", "response": "r", "stimulus-type": "incongruent", "word": "green", "color": "red", "correct_response": "r", "trial_id": "stroop-trial-1-incongruent-18", "trial_type": "html-keyboard-response", "trial_index": 82, "time_elapsed": 158673, "internal_node_id": "0.0-4.0-78.0"}}, {"uniqueid": "w55311035:a45910616", "current_trial": 83, "dateTime": 1664562653377, "trialdata": {"rt": 605, "stimulus": "<p id='stroop-text' class='stroop-yellow'>STONE</p>", "response": "y", "stimulus-type": "unrelated", "word": "STONE", "color": "yellow", "correct_response": "y", "trial_id": "stroop-trial-1-unrelated-2", "trial_type": "html-keyboard-response", "trial_index": 83, "time_elapsed": 159780, "internal_node_id": "0.0-4.0-79.0"}}, {"uniqueid": "w55311035:a45910616", "current_trial": 84, "dateTime": 1664562654290, "trialdata": {"rt": 411, "stimulus": "<p id='stroop-text' class='stroop-red'>GREEN</p>", "response": "r", "stimulus-type": "incongruent", "word": "green", "color": "red", "correct_response": "r", "trial_id": "stroop-trial-1-incongruent-17", "trial_type": "html-keyboard-response", "trial_index": 84, "time_elapsed": 160693, "internal_node_id": "0.0-4.0-80.0"}}, {"uniqueid": "w55311035:a45910616", "current_trial": 85, "dateTime": 1664562655689, "trialdata": {"rt": 896, "stimulus": "<p id='stroop-text' class='stroop-green'>STONE</p>", "response": "g", "stimulus-type": "unrelated", "word": "STONE", "color": "green", "correct_response": "g", "trial_id": "stroop-trial-1-unrelated-11", "trial_type": "html-keyboard-response", "trial_index": 85, "time_elapsed": 162092, "internal_node_id": "0.0-4.0-81.0"}}, {"uniqueid": "w55311035:a45910616", "current_trial": 86, "dateTime": 1664562656773, "trialdata": {"rt": 582, "stimulus": "<p id='stroop-text' class='stroop-red'>MONKEY</p>", "response": "r", "stimulus-type": "unrelated", "word": "MONKEY", "color": "red", "correct_response": "r", "trial_id": "stroop-trial-1-unrelated-5", "trial_type": "html-keyboard-response", "trial_index": 86, "time_elapsed": 163176, "internal_node_id": "0.0-4.0-82.0"}}, {"uniqueid": "w55311035:a45910616", "current_trial": 87, "dateTime": 1664562657840, "trialdata": {"rt": 565, "stimulus": "<p id='stroop-text' class='stroop-blue'>BOTTLE</p>", "response": "b", "stimulus-type": "unrelated", "word": "BOTTLE", "color": "blue", "correct_response": "b", "trial_id": "stroop-trial-1-unrelated-6", "trial_type": "html-keyboard-response", "trial_index": 87, "time_elapsed": 164243, "internal_node_id": "0.0-4.0-83.0"}}, {"uniqueid": "w55311035:a45910616", "current_trial": 88, "dateTime": 1664562658844, "trialdata": {"rt": 502, "stimulus": "<p id='stroop-text' class='stroop-blue'>GREEN</p>", "response": "b", "stimulus-type": "incongruent", "word": "green", "color": "blue", "correct_response": "b", "trial_id": "stroop-trial-1-incongruent-11", "trial_type": "html-keyboard-response", "trial_index": 88, "time_elapsed": 165247, "internal_node_id": "0.0-4.0-84.0"}}, {"uniqueid": "w55311035:a45910616", "current_trial": 89, "dateTime": 1664562660168, "trialdata": {"rt": 822, "stimulus": "<p id='stroop-text' class='stroop-green'>YELLOW</p>", "response": "g", "stimulus-type": "incongruent", "word": "yellow", "color": "green", "correct_response": "g", "trial_id": "stroop-trial-1-incongruent-13", "trial_type": "html-keyboard-response", "trial_index": 89, "time_elapsed": 166571, "internal_node_id": "0.0-4.0-85.0"}}, {"uniqueid": "w55311035:a45910616", "current_trial": 90, "dateTime": 1664562661178, "trialdata": {"rt": 507, "stimulus": "<p id='stroop-text' class='stroop-red'>RED</p>", "response": "g", "stimulus-type": "congruent", "word": "red", "color": "red", "correct_response": "r", "trial_id": "stroop-trial-1-congruent-8", "trial_type": "html-keyboard-response", "trial_index": 90, "time_elapsed": 167581, "internal_node_id": "0.0-4.0-86.0"}}, {"uniqueid": "w55311035:a45910616", "current_trial": 91, "dateTime": 1664562663353, "trialdata": {"rt": 1674, "stimulus": "<p id='stroop-text' class='stroop-blue'>RED</p>", "response": "b", "stimulus-type": "incongruent", "word": "red", "color": "blue", "correct_response": "b", "trial_id": "stroop-trial-1-incongruent-25", "trial_type": "html-keyboard-response", "trial_index": 91, "time_elapsed": 169756, "internal_node_id": "0.0-4.0-87.0"}}, {"uniqueid": "w55311035:a45910616", "current_trial": 92, "dateTime": 1664562664791, "trialdata": {"rt": 935, "stimulus": "<p id='stroop-text' class='stroop-green'>RED</p>", "response": "g", "stimulus-type": "incongruent", "word": "red", "color": "green", "correct_response": "g", "trial_id": "stroop-trial-1-incongruent-15", "trial_type": "html-keyboard-response", "trial_index": 92, "time_elapsed": 171194, "internal_node_id": "0.0-4.0-88.0"}}, {"uniqueid": "w55311035:a45910616", "current_trial": 93, "dateTime": 1664562665915, "trialdata": {"rt": 622, "stimulus": "<p id='stroop-text' class='stroop-yellow'>WINDOW</p>", "response": "y", "stimulus-type": "unrelated", "word": "WINDOW", "color": "yellow", "correct_response": "y", "trial_id": "stroop-trial-1-unrelated-30", "trial_type": "html-keyboard-response", "trial_index": 93, "time_elapsed": 172318, "internal_node_id": "0.0-4.0-89.0"}}, {"uniqueid": "w55311035:a45910616", "current_trial": 94, "dateTime": 1664562689003, "trialdata": {"rt": 22585, "stimulus": "  <h1> End of block! </h1>\n\n  You have reached the end of the block 1/5. If you need a short break, feel free to take one now before moving on.\n\n  <br><br>\n  In the next block, you will complete another 90 rounds of this game.\n\n  <br><br>\n  <div style='text-align: center;'>Press <code>space</code> to begin.</div>\n  <br><br>\n<div style='text-align: center;'>(If the experiment doesn't continue, try clicking on the text and then pressing <code>space</code>.)</div>", "response": " ", "trial_id": "stroop_1_ready_2", "trial_type": "html-keyboard-response", "trial_index": 94, "time_elapsed": 195406, "internal_node_id": "0.0-5.0"}}, {"uniqueid": "w55311035:a45910616", "current_trial": 95, "dateTime": 1664562689757, "trialdata": {"rt": 750, "stimulus": "<p id='stroop-text' class='stroop-green'>GREEN</p>", "response": "g", "stimulus-type": "congruent", "word": "green", "color": "green", "correct_response": "g", "trial_id": "stroop-trial-1-congruent-27", "trial_type": "html-keyboard-response", "trial_index": 95, "time_elapsed": 196160, "internal_node_id": "0.0-6.0-0.0"}}, {"uniqueid": "w55311035:a45910616", "current_trial": 96, "dateTime": 1664562691240, "trialdata": {"rt": 980, "stimulus": "<p id='stroop-text' class='stroop-green'>BLUE</p>", "response": "g", "stimulus-type": "incongruent", "word": "blue", "color": "green", "correct_response": "g", "trial_id": "stroop-trial-1-incongruent-10", "trial_type": "html-keyboard-response", "trial_index": 96, "time_elapsed": 197642, "internal_node_id": "0.0-6.0-1.0"}}, {"uniqueid": "w55311035:a45910616", "current_trial": 97, "dateTime": 1664562692605, "trialdata": {"rt": 864, "stimulus": "<p id='stroop-text' class='stroop-blue'>GREEN</p>", "response": "b", "stimulus-type": "incongruent", "word": "green", "color": "blue", "correct_response": "b", "trial_id": "stroop-trial-1-incongruent-22", "trial_type": "html-keyboard-response", "trial_index": 97, "time_elapsed": 199008, "internal_node_id": "0.0-6.0-2.0"}}, {"uniqueid": "w55311035:a45910616", "current_trial": 98, "dateTime": 1664562693518, "trialdata": {"rt": 411, "stimulus": "<p id='stroop-text' class='stroop-blue'>GREEN</p>", "response": "b", "stimulus-type": "incongruent", "word": "green", "color": "blue", "correct_response": "b", "trial_id": "stroop-trial-1-incongruent-30", "trial_type": "html-keyboard-response", "trial_index": 98, "time_elapsed": 199920, "internal_node_id": "0.0-6.0-3.0"}}, {"uniqueid": "w55311035:a45910616", "current_trial": 99, "dateTime": 1664562694619, "trialdata": {"rt": 599, "stimulus": "<p id='stroop-text' class='stroop-green'>BLUE</p>", "response": "g", "stimulus-type": "incongruent", "word": "blue", "color": "green", "correct_response": "g", "trial_id": "stroop-trial-1-incongruent-28", "trial_type": "html-keyboard-response", "trial_index": 99, "time_elapsed": 201021, "internal_node_id": "0.0-6.0-4.0"}}, {"uniqueid": "w55311035:a45910616", "current_trial": 100, "dateTime": 1664562695743, "trialdata": {"rt": 623, "stimulus": "<p id='stroop-text' class='stroop-blue'>STONE</p>", "response": "b", "stimulus-type": "unrelated", "word": "STONE", "color": "blue", "correct_response": "b", "trial_id": "stroop-trial-1-unrelated-2", "trial_type": "html-keyboard-response", "trial_index": 100, "time_elapsed": 202145, "internal_node_id": "0.0-6.0-5.0"}}, {"uniqueid": "w55311035:a45910616", "current_trial": 101, "dateTime": 1664562696696, "trialdata": {"rt": 449, "stimulus": "<p id='stroop-text' class='stroop-blue'>SHIP</p>", "response": "b", "stimulus-type": "unrelated", "word": "SHIP", "color": "blue", "correct_response": "b", "trial_id": "stroop-trial-1-unrelated-23", "trial_type": "html-keyboard-response", "trial_index": 101, "time_elapsed": 203099, "internal_node_id": "0.0-6.0-6.0"}}, {"uniqueid": "w55311035:a45910616", "current_trial": 102, "dateTime": 1664562697563, "trialdata": {"rt": 364, "stimulus": "<p id='stroop-text' class='stroop-blue'>RED</p>", "response": "b", "stimulus-type": "incongruent", "word": "red", "color": "blue", "correct_response": "b", "trial_id": "stroop-trial-1-incongruent-20", "trial_type": "html-keyboard-response", "trial_index": 102, "time_elapsed": 203966, "internal_node_id": "0.0-6.0-7.0"}}, {"uniqueid": "w55311035:a45910616", "current_trial": 103, "dateTime": 1664562698818, "trialdata": {"rt": 752, "stimulus": "<p id='stroop-text' class='stroop-red'>BLUE</p>", "response": "r", "stimulus-type": "incongruent", "word": "blue", "color": "red", "correct_response": "r", "trial_id": "stroop-trial-1-incongruent-18", "trial_type": "html-keyboard-response", "trial_index": 103, "time_elapsed": 205220, "internal_node_id": "0.0-6.0-8.0"}}, {"uniqueid": "w55311035:a45910616", "current_trial": 104, "dateTime": 1664562699937, "trialdata": {"rt": 617, "stimulus": "<p id='stroop-text' class='stroop-yellow'>YELLOW</p>", "response": "y", "stimulus-type": "congruent", "word": "yellow", "color": "yellow", "correct_response": "y", "trial_id": "stroop-trial-1-congruent-28", "trial_type": "html-keyboard-response", "trial_index": 104, "time_elapsed": 206340, "internal_node_id": "0.0-6.0-9.0"}}, {"uniqueid": "w55311035:a45910616", "current_trial": 105, "dateTime": 1664562701278, "trialdata": {"rt": 839, "stimulus": "<p id='stroop-text' class='stroop-green'>BLUE</p>", "response": "g", "stimulus-type": "incongruent", "word": "blue", "color": "green", "correct_response": "g", "trial_id": "stroop-trial-1-incongruent-17", "trial_type": "html-keyboard-response", "trial_index": 105, "time_elapsed": 207680, "internal_node_id": "0.0-6.0-10.0"}}, {"uniqueid": "w55311035:a45910616", "current_trial": 106, "dateTime": 1664562702419, "trialdata": {"rt": 639, "stimulus": "<p id='stroop-text' class='stroop-yellow'>BOTTLE</p>", "response": "y", "stimulus-type": "unrelated", "word": "BOTTLE", "color": "yellow", "correct_response": "y", "trial_id": "stroop-trial-1-unrelated-22", "trial_type": "html-keyboard-response", "trial_index": 106, "time_elapsed": 208822, "internal_node_id": "0.0-6.0-11.0"}}, {"uniqueid": "w55311035:a45910616", "current_trial": 107, "dateTime": 1664562703480, "trialdata": {"rt": 559, "stimulus": "<p id='stroop-text' class='stroop-green'>GREEN</p>", "response": "g", "stimulus-type": "congruent", "word": "green", "color": "green", "correct_response": "g", "trial_id": "stroop-trial-1-congruent-30", "trial_type": "html-keyboard-response", "trial_index": 107, "time_elapsed": 209882, "internal_node_id": "0.0-6.0-12.0"}}, {"uniqueid": "w55311035:a45910616", "current_trial": 108, "dateTime": 1664562704496, "trialdata": {"rt": 514, "stimulus": "<p id='stroop-text' class='stroop-green'>BRIDGE</p>", "response": "g", "stimulus-type": "unrelated", "word": "BRIDGE", "color": "green", "correct_response": "g", "trial_id": "stroop-trial-1-unrelated-24", "trial_type": "html-keyboard-response", "trial_index": 108, "time_elapsed": 210899, "internal_node_id": "0.0-6.0-13.0"}}, {"uniqueid": "w55311035:a45910616", "current_trial": 109, "dateTime": 1664562705455, "trialdata": {"rt": 456, "stimulus": "<p id='stroop-text' class='stroop-green'>GREEN</p>", "response": "g", "stimulus-type": "congruent", "word": "green", "color": "green", "correct_response": "g", "trial_id": "stroop-trial-1-congruent-16", "trial_type": "html-keyboard-response", "trial_index": 109, "time_elapsed": 211858, "internal_node_id": "0.0-6.0-14.0"}}, {"uniqueid": "w55311035:a45910616", "current_trial": 110, "dateTime": 1664562706653, "trialdata": {"rt": 696, "stimulus": "<p id='stroop-text' class='stroop-yellow'>BLUE</p>", "response": "b", "stimulus-type": "incongruent", "word": "blue", "color": "yellow", "correct_response": "y", "trial_id": "stroop-trial-1-incongruent-27", "trial_type": "html-keyboard-response", "trial_index": 110, "time_elapsed": 213056, "internal_node_id": "0.0-6.0-15.0"}}, {"uniqueid": "w55311035:a45910616", "current_trial": 111, "dateTime": 1664562707817, "trialdata": {"rt": 662, "stimulus": "<p id='stroop-text' class='stroop-blue'>RED</p>", "response": "r", "stimulus-type": "incongruent", "word": "red", "color": "blue", "correct_response": "b", "trial_id": "stroop-trial-1-incongruent-4", "trial_type": "html-keyboard-response", "trial_index": 111, "time_elapsed": 214219, "internal_node_id": "0.0-6.0-16.0"}}, {"uniqueid": "w55311035:a45910616", "current_trial": 112, "dateTime": 1664562709506, "trialdata": {"rt": 1188, "stimulus": "<p id='stroop-text' class='stroop-green'>FORK</p>", "response": "g", "stimulus-type": "unrelated", "word": "FORK", "color": "green", "correct_response": "g", "trial_id": "stroop-trial-1-unrelated-29", "trial_type": "html-keyboard-response", "trial_index": 112, "time_elapsed": 215908, "internal_node_id": "0.0-6.0-17.0"}}, {"uniqueid": "w55311035:a45910616", "current_trial": 113, "dateTime": 1664562710585, "trialdata": {"rt": 576, "stimulus": "<p id='stroop-text' class='stroop-yellow'>DOG</p>", "response": "y", "stimulus-type": "unrelated", "word": "DOG", "color": "yellow", "correct_response": "y", "trial_id": "stroop-trial-1-unrelated-28", "trial_type": "html-keyboard-response", "trial_index": 113, "time_elapsed": 216987, "internal_node_id": "0.0-6.0-18.0"}}, {"uniqueid": "w55311035:a45910616", "current_trial": 114, "dateTime": 1664562712170, "trialdata": {"rt": 1083, "stimulus": "<p id='stroop-text' class='stroop-blue'>GREEN</p>", "response": "b", "stimulus-type": "incongruent", "word": "green", "color": "blue", "correct_response": "b", "trial_id": "stroop-trial-1-incongruent-24", "trial_type": "html-keyboard-response", "trial_index": 114, "time_elapsed": 218573, "internal_node_id": "0.0-6.0-19.0"}}, {"uniqueid": "w55311035:a45910616", "current_trial": 115, "dateTime": 1664562713197, "trialdata": {"rt": 525, "stimulus": "<p id='stroop-text' class='stroop-red'>RED</p>", "response": "r", "stimulus-type": "congruent", "word": "red", "color": "red", "correct_response": "r", "trial_id": "stroop-trial-1-congruent-29", "trial_type": "html-keyboard-response", "trial_index": 115, "time_elapsed": 219600, "internal_node_id": "0.0-6.0-20.0"}}, {"uniqueid": "w55311035:a45910616", "current_trial": 116, "dateTime": 1664562714504, "trialdata": {"rt": 805, "stimulus": "<p id='stroop-text' class='stroop-green'>YELLOW</p>", "response": "y", "stimulus-type": "incongruent", "word": "yellow", "color": "green", "correct_response": "g", "trial_id": "stroop-trial-1-incongruent-19", "trial_type": "html-keyboard-response", "trial_index": 116, "time_elapsed": 220907, "internal_node_id": "0.0-6.0-21.0"}}, {"uniqueid": "w55311035:a45910616", "current_trial": 117, "dateTime": 1664562715521, "trialdata": {"rt": 513, "stimulus": "<p id='stroop-text' class='stroop-green'>GREEN</p>", "response": "g", "stimulus-type": "congruent", "word": "green", "color": "green", "correct_response": "g", "trial_id": "stroop-trial-1-congruent-11", "trial_type": "html-keyboard-response", "trial_index": 117, "time_elapsed": 221923, "internal_node_id": "0.0-6.0-22.0"}}, {"uniqueid": "w55311035:a45910616", "current_trial": 118, "dateTime": 1664562716725, "trialdata": {"rt": 702, "stimulus": "<p id='stroop-text' class='stroop-red'>WINDOW</p>", "response": "r", "stimulus-type": "unrelated", "word": "WINDOW", "color": "red", "correct_response": "r", "trial_id": "stroop-trial-1-unrelated-6", "trial_type": "html-keyboard-response", "trial_index": 118, "time_elapsed": 223127, "internal_node_id": "0.0-6.0-23.0"}}, {"uniqueid": "w55311035:a45910616", "current_trial": 119, "dateTime": 1664562718203, "trialdata": {"rt": 976, "stimulus": "<p id='stroop-text' class='stroop-blue'>RED</p>", "response": "b", "stimulus-type": "incongruent", "word": "red", "color": "blue", "correct_response": "b", "trial_id": "stroop-trial-1-incongruent-23", "trial_type": "html-keyboard-response", "trial_index": 119, "time_elapsed": 224605, "internal_node_id": "0.0-6.0-24.0"}}, {"uniqueid": "w55311035:a45910616", "current_trial": 120, "dateTime": 1664562719526, "trialdata": {"rt": 821, "stimulus": "<p id='stroop-text' class='stroop-green'>MONKEY</p>", "response": "g", "stimulus-type": "unrelated", "word": "MONKEY", "color": "green", "correct_response": "g", "trial_id": "stroop-trial-1-unrelated-16", "trial_type": "html-keyboard-response", "trial_index": 120, "time_elapsed": 225928, "internal_node_id": "0.0-6.0-25.0"}}, {"uniqueid": "w55311035:a45910616", "current_trial": 121, "dateTime": 1664562721837, "trialdata": {"rt": 1807, "stimulus": "<p id='stroop-text' class='stroop-red'>BLUE</p>", "response": "r", "stimulus-type": "incongruent", "word": "blue", "color": "red", "correct_response": "r", "trial_id": "stroop-trial-1-incongruent-3", "trial_type": "html-keyboard-response", "trial_index": 121, "time_elapsed": 228239, "internal_node_id": "0.0-6.0-26.0"}}, {"uniqueid": "w55311035:a45910616", "current_trial": 122, "dateTime": 1664562722859, "trialdata": {"rt": 520, "stimulus": "<p id='stroop-text' class='stroop-yellow'>YELLOW</p>", "response": "y", "stimulus-type": "congruent", "word": "yellow", "color": "yellow", "correct_response": "y", "trial_id": "stroop-trial-1-congruent-9", "trial_type": "html-keyboard-response", "trial_index": 122, "time_elapsed": 229262, "internal_node_id": "0.0-6.0-27.0"}}, {"uniqueid": "w55311035:a45910616", "current_trial": 123, "dateTime": 1664562724422, "trialdata": {"rt": 1060, "stimulus": "<p id='stroop-text' class='stroop-green'>RED</p>", "response": "g", "stimulus-type": "incongruent", "word": "red", "color": "green", "correct_response": "g", "trial_id": "stroop-trial-1-incongruent-6", "trial_type": "html-keyboard-response", "trial_index": 123, "time_elapsed": 230825, "internal_node_id": "0.0-6.0-28.0"}}, {"uniqueid": "w55311035:a45910616", "current_trial": 124, "dateTime": 1664562725511, "trialdata": {"rt": 587, "stimulus": "<p id='stroop-text' class='stroop-yellow'>BOTTLE</p>", "response": "y", "stimulus-type": "unrelated", "word": "BOTTLE", "color": "yellow", "correct_response": "y", "trial_id": "stroop-trial-1-unrelated-11", "trial_type": "html-keyboard-response", "trial_index": 124, "time_elapsed": 231914, "internal_node_id": "0.0-6.0-29.0"}}, {"uniqueid": "w55311035:a45910616", "current_trial": 125, "dateTime": 1664562726710, "trialdata": {"rt": 696, "stimulus": "<p id='stroop-text' class='stroop-blue'>DOG</p>", "response": "b", "stimulus-type": "unrelated", "word": "DOG", "color": "blue", "correct_response": "b", "trial_id": "stroop-trial-1-unrelated-5", "trial_type": "html-keyboard-response", "trial_index": 125, "time_elapsed": 233112, "internal_node_id": "0.0-6.0-30.0"}}, {"uniqueid": "w55311035:a45910616", "current_trial": 126, "dateTime": 1664562727896, "trialdata": {"rt": 684, "stimulus": "<p id='stroop-text' class='stroop-yellow'>SHIP</p>", "response": "y", "stimulus-type": "unrelated", "word": "SHIP", "color": "yellow", "correct_response": "y", "trial_id": "stroop-trial-1-unrelated-20", "trial_type": "html-keyboard-response", "trial_index": 126, "time_elapsed": 234299, "internal_node_id": "0.0-6.0-31.0"}}, {"uniqueid": "w55311035:a45910616", "current_trial": 127, "dateTime": 1664562728982, "trialdata": {"rt": 584, "stimulus": "<p id='stroop-text' class='stroop-yellow'>YELLOW</p>", "response": "y", "stimulus-type": "congruent", "word": "yellow", "color": "yellow", "correct_response": "y", "trial_id": "stroop-trial-1-congruent-7", "trial_type": "html-keyboard-response", "trial_index": 127, "time_elapsed": 235385, "internal_node_id": "0.0-6.0-32.0"}}, {"uniqueid": "w55311035:a45910616", "current_trial": 128, "dateTime": 1664562730761, "trialdata": {"rt": 1276, "stimulus": "<p id='stroop-text' class='stroop-green'>BRIDGE</p>", "response": "g", "stimulus-type": "unrelated", "word": "BRIDGE", "color": "green", "correct_response": "g", "trial_id": "stroop-trial-1-unrelated-12", "trial_type": "html-keyboard-response", "trial_index": 128, "time_elapsed": 237164, "internal_node_id": "0.0-6.0-33.0"}}, {"uniqueid": "w55311035:a45910616", "current_trial": 129, "dateTime": 1664562731766, "trialdata": {"rt": 502, "stimulus": "<p id='stroop-text' class='stroop-yellow'>YELLOW</p>", "response": "y", "stimulus-type": "congruent", "word": "yellow", "color": "yellow", "correct_response": "y", "trial_id": "stroop-trial-1-congruent-3", "trial_type": "html-keyboard-response", "trial_index": 129, "time_elapsed": 238168, "internal_node_id": "0.0-6.0-34.0"}}, {"uniqueid": "w55311035:a45910616", "current_trial": 130, "dateTime": 1664562732964, "trialdata": {"rt": 697, "stimulus": "<p id='stroop-text' class='stroop-red'>BLUE</p>", "response": "r", "stimulus-type": "incongruent", "word": "blue", "color": "red", "correct_response": "r", "trial_id": "stroop-trial-1-incongruent-8", "trial_type": "html-keyboard-response", "trial_index": 130, "time_elapsed": 239367, "internal_node_id": "0.0-6.0-35.0"}}, {"uniqueid": "w55311035:a45910616", "current_trial": 131, "dateTime": 1664562734070, "trialdata": {"rt": 604, "stimulus": "<p id='stroop-text' class='stroop-yellow'>DOG</p>", "response": "y", "stimulus-type": "unrelated", "word": "DOG", "color": "yellow", "correct_response": "y", "trial_id": "stroop-trial-1-unrelated-14", "trial_type": "html-keyboard-response", "trial_index": 131, "time_elapsed": 240473, "internal_node_id": "0.0-6.0-36.0"}}, {"uniqueid": "w55311035:a45910616", "current_trial": 132, "dateTime": 1664562735395, "trialdata": {"rt": 822, "stimulus": "<p id='stroop-text' class='stroop-yellow'>GREEN</p>", "response": "y", "stimulus-type": "incongruent", "word": "green", "color": "yellow", "correct_response": "y", "trial_id": "stroop-trial-1-incongruent-25", "trial_type": "html-keyboard-response", "trial_index": 132, "time_elapsed": 241797, "internal_node_id": "0.0-6.0-37.0"}}, {"uniqueid": "w55311035:a45910616", "current_trial": 133, "dateTime": 1664562736434, "trialdata": {"rt": 537, "stimulus": "<p id='stroop-text' class='stroop-yellow'>RED</p>", "response": "y", "stimulus-type": "incongruent", "word": "red", "color": "yellow", "correct_response": "y", "trial_id": "stroop-trial-1-incongruent-14", "trial_type": "html-keyboard-response", "trial_index": 133, "time_elapsed": 242837, "internal_node_id": "0.0-6.0-38.0"}}, {"uniqueid": "w55311035:a45910616", "current_trial": 134, "dateTime": 1664562737990, "trialdata": {"rt": 1055, "stimulus": "<p id='stroop-text' class='stroop-blue'>YELLOW</p>", "response": "b", "stimulus-type": "incongruent", "word": "yellow", "color": "blue", "correct_response": "b", "trial_id": "stroop-trial-1-incongruent-13", "trial_type": "html-keyboard-response", "trial_index": 134, "time_elapsed": 244393, "internal_node_id": "0.0-6.0-39.0"}}, {"uniqueid": "w55311035:a45910616", "current_trial": 135, "dateTime": 1664562739652, "trialdata": {"rt": 1158, "stimulus": "<p id='stroop-text' class='stroop-blue'>DOG</p>", "response": "b", "stimulus-type": "unrelated", "word": "DOG", "color": "blue", "correct_response": "b", "trial_id": "stroop-trial-1-unrelated-26", "trial_type": "html-keyboard-response", "trial_index": 135, "time_elapsed": 246055, "internal_node_id": "0.0-6.0-40.0"}}, {"uniqueid": "w55311035:a45910616", "current_trial": 136, "dateTime": 1664562741083, "trialdata": {"rt": 929, "stimulus": "<p id='stroop-text' class='stroop-yellow'>YELLOW</p>", "response": "y", "stimulus-type": "congruent", "word": "yellow", "color": "yellow", "correct_response": "y", "trial_id": "stroop-trial-1-congruent-5", "trial_type": "html-keyboard-response", "trial_index": 136, "time_elapsed": 247486, "internal_node_id": "0.0-6.0-41.0"}}, {"uniqueid": "w55311035:a45910616", "current_trial": 137, "dateTime": 1664562742202, "trialdata": {"rt": 614, "stimulus": "<p id='stroop-text' class='stroop-blue'>BRIDGE</p>", "response": "b", "stimulus-type": "unrelated", "word": "BRIDGE", "color": "blue", "correct_response": "b", "trial_id": "stroop-trial-1-unrelated-30", "trial_type": "html-keyboard-response", "trial_index": 137, "time_elapsed": 248604, "internal_node_id": "0.0-6.0-42.0"}}, {"uniqueid": "w55311035:a45910616", "current_trial": 138, "dateTime": 1664562743378, "trialdata": {"rt": 672, "stimulus": "<p id='stroop-text' class='stroop-yellow'>BOTTLE</p>", "response": "y", "stimulus-type": "unrelated", "word": "BOTTLE", "color": "yellow", "correct_response": "y", "trial_id": "stroop-trial-1-unrelated-9", "trial_type": "html-keyboard-response", "trial_index": 138, "time_elapsed": 249780, "internal_node_id": "0.0-6.0-43.0"}}, {"uniqueid": "w55311035:a45910616", "current_trial": 139, "dateTime": 1664562744639, "trialdata": {"rt": 759, "stimulus": "<p id='stroop-text' class='stroop-green'>BOAT</p>", "response": "g", "stimulus-type": "unrelated", "word": "BOAT", "color": "green", "correct_response": "g", "trial_id": "stroop-trial-1-unrelated-4", "trial_type": "html-keyboard-response", "trial_index": 139, "time_elapsed": 251042, "internal_node_id": "0.0-6.0-44.0"}}, {"uniqueid": "w55311035:a45910616", "current_trial": 140, "dateTime": 1664562745866, "trialdata": {"rt": 724, "stimulus": "<p id='stroop-text' class='stroop-green'>GREEN</p>", "response": "g", "stimulus-type": "congruent", "word": "green", "color": "green", "correct_response": "g", "trial_id": "stroop-trial-1-congruent-15", "trial_type": "html-keyboard-response", "trial_index": 140, "time_elapsed": 252269, "internal_node_id": "0.0-6.0-45.0"}}, {"uniqueid": "w55311035:a45910616", "current_trial": 141, "dateTime": 1664562747304, "trialdata": {"rt": 935, "stimulus": "<p id='stroop-text' class='stroop-blue'>WINDOW</p>", "response": "b", "stimulus-type": "unrelated", "word": "WINDOW", "color": "blue", "correct_response": "b", "trial_id": "stroop-trial-1-unrelated-15", "trial_type": "html-keyboard-response", "trial_index": 141, "time_elapsed": 253707, "internal_node_id": "0.0-6.0-46.0"}}, {"uniqueid": "w55311035:a45910616", "current_trial": 142, "dateTime": 1664562748519, "trialdata": {"rt": 712, "stimulus": "<p id='stroop-text' class='stroop-red'>BRAIN</p>", "response": "r", "stimulus-type": "unrelated", "word": "BRAIN", "color": "red", "correct_response": "r", "trial_id": "stroop-trial-1-unrelated-7", "trial_type": "html-keyboard-response", "trial_index": 142, "time_elapsed": 254922, "internal_node_id": "0.0-6.0-47.0"}}, {"uniqueid": "w55311035:a45910616", "current_trial": 143, "dateTime": 1664562749667, "trialdata": {"rt": 644, "stimulus": "<p id='stroop-text' class='stroop-green'>GREEN</p>", "response": "g", "stimulus-type": "congruent", "word": "green", "color": "green", "correct_response": "g", "trial_id": "stroop-trial-1-congruent-14", "trial_type": "html-keyboard-response", "trial_index": 143, "time_elapsed": 256070, "internal_node_id": "0.0-6.0-48.0"}}, {"uniqueid": "w55311035:a45910616", "current_trial": 144, "dateTime": 1664562750830, "trialdata": {"rt": 660, "stimulus": "<p id='stroop-text' class='stroop-red'>DOG</p>", "response": "r", "stimulus-type": "unrelated", "word": "DOG", "color": "red", "correct_response": "r", "trial_id": "stroop-trial-1-unrelated-13", "trial_type": "html-keyboard-response", "trial_index": 144, "time_elapsed": 257233, "internal_node_id": "0.0-6.0-49.0"}}, {"uniqueid": "w55311035:a45910616", "current_trial": 145, "dateTime": 1664562751920, "trialdata": {"rt": 588, "stimulus": "<p id='stroop-text' class='stroop-green'>GREEN</p>", "response": "g", "stimulus-type": "congruent", "word": "green", "color": "green", "correct_response": "g", "trial_id": "stroop-trial-1-congruent-24", "trial_type": "html-keyboard-response", "trial_index": 145, "time_elapsed": 258323, "internal_node_id": "0.0-6.0-50.0"}}, {"uniqueid": "w55311035:a45910616", "current_trial": 146, "dateTime": 1664562753124, "trialdata": {"rt": 702, "stimulus": "<p id='stroop-text' class='stroop-green'>GREEN</p>", "response": "g", "stimulus-type": "congruent", "word": "green", "color": "green", "correct_response": "g", "trial_id": "stroop-trial-1-congruent-22", "trial_type": "html-keyboard-response", "trial_index": 146, "time_elapsed": 259527, "internal_node_id": "0.0-6.0-51.0"}}, {"uniqueid": "w55311035:a45910616", "current_trial": 147, "dateTime": 1664562754152, "trialdata": {"rt": 525, "stimulus": "<p id='stroop-text' class='stroop-red'>RED</p>", "response": "r", "stimulus-type": "congruent", "word": "red", "color": "red", "correct_response": "r", "trial_id": "stroop-trial-1-congruent-23", "trial_type": "html-keyboard-response", "trial_index": 147, "time_elapsed": 260554, "internal_node_id": "0.0-6.0-52.0"}}, {"uniqueid": "w55311035:a45910616", "current_trial": 148, "dateTime": 1664562755184, "trialdata": {"rt": 530, "stimulus": "<p id='stroop-text' class='stroop-yellow'>YELLOW</p>", "response": "y", "stimulus-type": "congruent", "word": "yellow", "color": "yellow", "correct_response": "y", "trial_id": "stroop-trial-1-congruent-10", "trial_type": "html-keyboard-response", "trial_index": 148, "time_elapsed": 261587, "internal_node_id": "0.0-6.0-53.0"}}, {"uniqueid": "w55311035:a45910616", "current_trial": 149, "dateTime": 1664562756405, "trialdata": {"rt": 719, "stimulus": "<p id='stroop-text' class='stroop-green'>YELLOW</p>", "response": "g", "stimulus-type": "incongruent", "word": "yellow", "color": "green", "correct_response": "g", "trial_id": "stroop-trial-1-incongruent-5", "trial_type": "html-keyboard-response", "trial_index": 149, "time_elapsed": 262808, "internal_node_id": "0.0-6.0-54.0"}}, {"uniqueid": "w55311035:a45910616", "current_trial": 150, "dateTime": 1664562757644, "trialdata": {"rt": 737, "stimulus": "<p id='stroop-text' class='stroop-green'>CHAIR</p>", "response": "g", "stimulus-type": "unrelated", "word": "CHAIR", "color": "green", "correct_response": "g", "trial_id": "stroop-trial-1-unrelated-21", "trial_type": "html-keyboard-response", "trial_index": 150, "time_elapsed": 264047, "internal_node_id": "0.0-6.0-55.0"}}, {"uniqueid": "w55311035:a45910616", "current_trial": 151, "dateTime": 1664562758802, "trialdata": {"rt": 655, "stimulus": "<p id='stroop-text' class='stroop-blue'>BLUE</p>", "response": "b", "stimulus-type": "congruent", "word": "blue", "color": "blue", "correct_response": "b", "trial_id": "stroop-trial-1-congruent-2", "trial_type": "html-keyboard-response", "trial_index": 151, "time_elapsed": 265205, "internal_node_id": "0.0-6.0-56.0"}}, {"uniqueid": "w55311035:a45910616", "current_trial": 152, "dateTime": 1664562759818, "trialdata": {"rt": 514, "stimulus": "<p id='stroop-text' class='stroop-blue'>BLUE</p>", "response": "b", "stimulus-type": "congruent", "word": "blue", "color": "blue", "correct_response": "b", "trial_id": "stroop-trial-1-congruent-17", "trial_type": "html-keyboard-response", "trial_index": 152, "time_elapsed": 266221, "internal_node_id": "0.0-6.0-57.0"}}, {"uniqueid": "w55311035:a45910616", "current_trial": 153, "dateTime": 1664562760811, "trialdata": {"rt": 491, "stimulus": "<p id='stroop-text' class='stroop-blue'>BLUE</p>", "response": "b", "stimulus-type": "congruent", "word": "blue", "color": "blue", "correct_response": "b", "trial_id": "stroop-trial-1-congruent-18", "trial_type": "html-keyboard-response", "trial_index": 153, "time_elapsed": 267214, "internal_node_id": "0.0-6.0-58.0"}}, {"uniqueid": "w55311035:a45910616", "current_trial": 154, "dateTime": 1664562761809, "trialdata": {"rt": 495, "stimulus": "<p id='stroop-text' class='stroop-red'>RED</p>", "response": "r", "stimulus-type": "congruent", "word": "red", "color": "red", "correct_response": "r", "trial_id": "stroop-trial-1-congruent-4", "trial_type": "html-keyboard-response", "trial_index": 154, "time_elapsed": 268212, "internal_node_id": "0.0-6.0-59.0"}}, {"uniqueid": "w55311035:a45910616", "current_trial": 155, "dateTime": 1664562763070, "trialdata": {"rt": 759, "stimulus": "<p id='stroop-text' class='stroop-red'>WINDOW</p>", "response": "r", "stimulus-type": "unrelated", "word": "WINDOW", "color": "red", "correct_response": "r", "trial_id": "stroop-trial-1-unrelated-3", "trial_type": "html-keyboard-response", "trial_index": 155, "time_elapsed": 269473, "internal_node_id": "0.0-6.0-60.0"}}, {"uniqueid": "w55311035:a45910616", "current_trial": 156, "dateTime": 1664562764891, "trialdata": {"rt": 1318, "stimulus": "<p id='stroop-text' class='stroop-blue'>GREEN</p>", "response": "b", "stimulus-type": "incongruent", "word": "green", "color": "blue", "correct_response": "b", "trial_id": "stroop-trial-1-incongruent-1", "trial_type": "html-keyboard-response", "trial_index": 156, "time_elapsed": 271294, "internal_node_id": "0.0-6.0-61.0"}}, {"uniqueid": "w55311035:a45910616", "current_trial": 157, "dateTime": 1664562766100, "trialdata": {"rt": 707, "stimulus": "<p id='stroop-text' class='stroop-blue'>GREEN</p>", "response": "b", "stimulus-type": "incongruent", "word": "green", "color": "blue", "correct_response": "b", "trial_id": "stroop-trial-1-incongruent-11", "trial_type": "html-keyboard-response", "trial_index": 157, "time_elapsed": 272503, "internal_node_id": "0.0-6.0-62.0"}}, {"uniqueid": "w55311035:a45910616", "current_trial": 158, "dateTime": 1664562767641, "trialdata": {"rt": 1039, "stimulus": "<p id='stroop-text' class='stroop-green'>BOAT</p>", "response": "g", "stimulus-type": "unrelated", "word": "BOAT", "color": "green", "correct_response": "g", "trial_id": "stroop-trial-1-unrelated-17", "trial_type": "html-keyboard-response", "trial_index": 158, "time_elapsed": 274044, "internal_node_id": "0.0-6.0-63.0"}}, {"uniqueid": "w55311035:a45910616", "current_trial": 159, "dateTime": 1664562768953, "trialdata": {"rt": 810, "stimulus": "<p id='stroop-text' class='stroop-yellow'>BLUE</p>", "response": "y", "stimulus-type": "incongruent", "word": "blue", "color": "yellow", "correct_response": "y", "trial_id": "stroop-trial-1-incongruent-16", "trial_type": "html-keyboard-response", "trial_index": 159, "time_elapsed": 275356, "internal_node_id": "0.0-6.0-64.0"}}, {"uniqueid": "w55311035:a45910616", "current_trial": 160, "dateTime": 1664562770295, "trialdata": {"rt": 839, "stimulus": "<p id='stroop-text' class='stroop-red'>YELLOW</p>", "response": "y", "stimulus-type": "incongruent", "word": "yellow", "color": "red", "correct_response": "r", "trial_id": "stroop-trial-1-incongruent-15", "trial_type": "html-keyboard-response", "trial_index": 160, "time_elapsed": 276697, "internal_node_id": "0.0-6.0-65.0"}}, {"uniqueid": "w55311035:a45910616", "current_trial": 161, "dateTime": 1664562771812, "trialdata": {"rt": 1016, "stimulus": "<p id='stroop-text' class='stroop-red'>GREEN</p>", "response": "r", "stimulus-type": "incongruent", "word": "green", "color": "red", "correct_response": "r", "trial_id": "stroop-trial-1-incongruent-2", "trial_type": "html-keyboard-response", "trial_index": 161, "time_elapsed": 278215, "internal_node_id": "0.0-6.0-66.0"}}, {"uniqueid": "w55311035:a45910616", "current_trial": 162, "dateTime": 1664562773307, "trialdata": {"rt": 993, "stimulus": "<p id='stroop-text' class='stroop-yellow'>MONKEY</p>", "response": "y", "stimulus-type": "unrelated", "word": "MONKEY", "color": "yellow", "correct_response": "y", "trial_id": "stroop-trial-1-unrelated-25", "trial_type": "html-keyboard-response", "trial_index": 162, "time_elapsed": 279710, "internal_node_id": "0.0-6.0-67.0"}}, {"uniqueid": "w55311035:a45910616", "current_trial": 163, "dateTime": 1664562774460, "trialdata": {"rt": 650, "stimulus": "<p id='stroop-text' class='stroop-green'>GREEN</p>", "response": "g", "stimulus-type": "congruent", "word": "green", "color": "green", "correct_response": "g", "trial_id": "stroop-trial-1-congruent-25", "trial_type": "html-keyboard-response", "trial_index": 163, "time_elapsed": 280863, "internal_node_id": "0.0-6.0-68.0"}}, {"uniqueid": "w55311035:a45910616", "current_trial": 164, "dateTime": 1664562775795, "trialdata": {"rt": 832, "stimulus": "<p id='stroop-text' class='stroop-yellow'>YELLOW</p>", "response": "y", "stimulus-type": "congruent", "word": "yellow", "color": "yellow", "correct_response": "y", "trial_id": "stroop-trial-1-congruent-8", "trial_type": "html-keyboard-response", "trial_index": 164, "time_elapsed": 282198, "internal_node_id": "0.0-6.0-69.0"}}, {"uniqueid": "w55311035:a45910616", "current_trial": 165, "dateTime": 1664562777296, "trialdata": {"rt": 999, "stimulus": "<p id='stroop-text' class='stroop-blue'>RED</p>", "response": "b", "stimulus-type": "incongruent", "word": "red", "color": "blue", "correct_response": "b", "trial_id": "stroop-trial-1-incongruent-21", "trial_type": "html-keyboard-response", "trial_index": 165, "time_elapsed": 283699, "internal_node_id": "0.0-6.0-70.0"}}, {"uniqueid": "w55311035:a45910616", "current_trial": 166, "dateTime": 1664562778546, "trialdata": {"rt": 747, "stimulus": "<p id='stroop-text' class='stroop-red'>CHAIR</p>", "response": "r", "stimulus-type": "unrelated", "word": "CHAIR", "color": "red", "correct_response": "r", "trial_id": "stroop-trial-1-unrelated-8", "trial_type": "html-keyboard-response", "trial_index": 166, "time_elapsed": 284949, "internal_node_id": "0.0-6.0-71.0"}}, {"uniqueid": "w55311035:a45910616", "current_trial": 167, "dateTime": 1664562779881, "trialdata": {"rt": 832, "stimulus": "<p id='stroop-text' class='stroop-yellow'>BOAT</p>", "response": "y", "stimulus-type": "unrelated", "word": "BOAT", "color": "yellow", "correct_response": "y", "trial_id": "stroop-trial-1-unrelated-1", "trial_type": "html-keyboard-response", "trial_index": 167, "time_elapsed": 286284, "internal_node_id": "0.0-6.0-72.0"}}, {"uniqueid": "w55311035:a45910616", "current_trial": 168, "dateTime": 1664562781627, "trialdata": {"rt": 1244, "stimulus": "<p id='stroop-text' class='stroop-blue'>BLUE</p>", "response": "b", "stimulus-type": "congruent", "word": "blue", "color": "blue", "correct_response": "b", "trial_id": "stroop-trial-1-congruent-13", "trial_type": "html-keyboard-response", "trial_index": 168, "time_elapsed": 288030, "internal_node_id": "0.0-6.0-73.0"}}, {"uniqueid": "w55311035:a45910616", "current_trial": 169, "dateTime": 1664562782672, "trialdata": {"rt": 543, "stimulus": "<p id='stroop-text' class='stroop-red'>RED</p>", "response": "r", "stimulus-type": "congruent", "word": "red", "color": "red", "correct_response": "r", "trial_id": "stroop-trial-1-congruent-12", "trial_type": "html-keyboard-response", "trial_index": 169, "time_elapsed": 289075, "internal_node_id": "0.0-6.0-74.0"}}, {"uniqueid": "w55311035:a45910616", "current_trial": 170, "dateTime": 1664562783910, "trialdata": {"rt": 735, "stimulus": "<p id='stroop-text' class='stroop-blue'>BLUE</p>", "response": "b", "stimulus-type": "congruent", "word": "blue", "color": "blue", "correct_response": "b", "trial_id": "stroop-trial-1-congruent-26", "trial_type": "html-keyboard-response", "trial_index": 170, "time_elapsed": 290313, "internal_node_id": "0.0-6.0-75.0"}}, {"uniqueid": "w55311035:a45910616", "current_trial": 171, "dateTime": 1664562784875, "trialdata": {"rt": 464, "stimulus": "<p id='stroop-text' class='stroop-red'>BRIDGE</p>", "response": "b", "stimulus-type": "unrelated", "word": "BRIDGE", "color": "red", "correct_response": "r", "trial_id": "stroop-trial-1-unrelated-19", "trial_type": "html-keyboard-response", "trial_index": 171, "time_elapsed": 291278, "internal_node_id": "0.0-6.0-76.0"}}, {"uniqueid": "w55311035:a45910616", "current_trial": 172, "dateTime": 1664562786170, "trialdata": {"rt": 793, "stimulus": "<p id='stroop-text' class='stroop-green'>GREEN</p>", "response": "g", "stimulus-type": "congruent", "word": "green", "color": "green", "correct_response": "g", "trial_id": "stroop-trial-1-congruent-6", "trial_type": "html-keyboard-response", "trial_index": 172, "time_elapsed": 292573, "internal_node_id": "0.0-6.0-77.0"}}, {"uniqueid": "w55311035:a45910616", "current_trial": 173, "dateTime": 1664562787226, "trialdata": {"rt": 554, "stimulus": "<p id='stroop-text' class='stroop-yellow'>YELLOW</p>", "response": "y", "stimulus-type": "congruent", "word": "yellow", "color": "yellow", "correct_response": "y", "trial_id": "stroop-trial-1-congruent-1", "trial_type": "html-keyboard-response", "trial_index": 173, "time_elapsed": 293629, "internal_node_id": "0.0-6.0-78.0"}}, {"uniqueid": "w55311035:a45910616", "current_trial": 174, "dateTime": 1664562788236, "trialdata": {"rt": 509, "stimulus": "<p id='stroop-text' class='stroop-blue'>YELLOW</p>", "response": "y", "stimulus-type": "incongruent", "word": "yellow", "color": "blue", "correct_response": "b", "trial_id": "stroop-trial-1-incongruent-26", "trial_type": "html-keyboard-response", "trial_index": 174, "time_elapsed": 294639, "internal_node_id": "0.0-6.0-79.0"}}, {"uniqueid": "w55311035:a45910616", "current_trial": 175, "dateTime": 1664562789988, "trialdata": {"rt": 1250, "stimulus": "<p id='stroop-text' class='stroop-yellow'>DOG</p>", "response": "y", "stimulus-type": "unrelated", "word": "DOG", "color": "yellow", "correct_response": "y", "trial_id": "stroop-trial-1-unrelated-27", "trial_type": "html-keyboard-response", "trial_index": 175, "time_elapsed": 296391, "internal_node_id": "0.0-6.0-80.0"}}, {"uniqueid": "w55311035:a45910616", "current_trial": 176, "dateTime": 1664562791021, "trialdata": {"rt": 531, "stimulus": "<p id='stroop-text' class='stroop-red'>RED</p>", "response": "r", "stimulus-type": "congruent", "word": "red", "color": "red", "correct_response": "r", "trial_id": "stroop-trial-1-congruent-20", "trial_type": "html-keyboard-response", "trial_index": 176, "time_elapsed": 297424, "internal_node_id": "0.0-6.0-81.0"}}, {"uniqueid": "w55311035:a45910616", "current_trial": 177, "dateTime": 1664562792253, "trialdata": {"rt": 729, "stimulus": "<p id='stroop-text' class='stroop-green'>FORK</p>", "response": "g", "stimulus-type": "unrelated", "word": "FORK", "color": "green", "correct_response": "g", "trial_id": "stroop-trial-1-unrelated-18", "trial_type": "html-keyboard-response", "trial_index": 177, "time_elapsed": 298656, "internal_node_id": "0.0-6.0-82.0"}}, {"uniqueid": "w55311035:a45910616", "current_trial": 178, "dateTime": 1664562793583, "trialdata": {"rt": 828, "stimulus": "<p id='stroop-text' class='stroop-green'>BLUE</p>", "response": "g", "stimulus-type": "incongruent", "word": "blue", "color": "green", "correct_response": "g", "trial_id": "stroop-trial-1-incongruent-29", "trial_type": "html-keyboard-response", "trial_index": 178, "time_elapsed": 299986, "internal_node_id": "0.0-6.0-83.0"}}, {"uniqueid": "w55311035:a45910616", "current_trial": 179, "dateTime": 1664562794650, "trialdata": {"rt": 563, "stimulus": "<p id='stroop-text' class='stroop-blue'>BLUE</p>", "response": "b", "stimulus-type": "congruent", "word": "blue", "color": "blue", "correct_response": "b", "trial_id": "stroop-trial-1-congruent-19", "trial_type": "html-keyboard-response", "trial_index": 179, "time_elapsed": 301053, "internal_node_id": "0.0-6.0-84.0"}}, {"uniqueid": "w55311035:a45910616", "current_trial": 180, "dateTime": 1664562795819, "trialdata": {"rt": 667, "stimulus": "<p id='stroop-text' class='stroop-red'>YELLOW</p>", "response": "r", "stimulus-type": "incongruent", "word": "yellow", "color": "red", "correct_response": "r", "trial_id": "stroop-trial-1-incongruent-7", "trial_type": "html-keyboard-response", "trial_index": 180, "time_elapsed": 302222, "internal_node_id": "0.0-6.0-85.0"}}, {"uniqueid": "w55311035:a45910616", "current_trial": 181, "dateTime": 1664562797275, "trialdata": {"rt": 953, "stimulus": "<p id='stroop-text' class='stroop-green'>BRAIN</p>", "response": "g", "stimulus-type": "unrelated", "word": "BRAIN", "color": "green", "correct_response": "g", "trial_id": "stroop-trial-1-unrelated-10", "trial_type": "html-keyboard-response", "trial_index": 181, "time_elapsed": 303678, "internal_node_id": "0.0-6.0-86.0"}}, {"uniqueid": "w55311035:a45910616", "current_trial": 182, "dateTime": 1664562798655, "trialdata": {"rt": 877, "stimulus": "<p id='stroop-text' class='stroop-blue'>GREEN</p>", "response": "b", "stimulus-type": "incongruent", "word": "green", "color": "blue", "correct_response": "b", "trial_id": "stroop-trial-1-incongruent-12", "trial_type": "html-keyboard-response", "trial_index": 182, "time_elapsed": 305058, "internal_node_id": "0.0-6.0-87.0"}}, {"uniqueid": "w55311035:a45910616", "current_trial": 183, "dateTime": 1664562799609, "trialdata": {"rt": 451, "stimulus": "<p id='stroop-text' class='stroop-blue'>BLUE</p>", "response": "b", "stimulus-type": "congruent", "word": "blue", "color": "blue", "correct_response": "b", "trial_id": "stroop-trial-1-congruent-21", "trial_type": "html-keyboard-response", "trial_index": 183, "time_elapsed": 306012, "internal_node_id": "0.0-6.0-88.0"}}, {"uniqueid": "w55311035:a45910616", "current_trial": 184, "dateTime": 1664562800499, "trialdata": {"rt": 387, "stimulus": "<p id='stroop-text' class='stroop-blue'>YELLOW</p>", "response": "b", "stimulus-type": "incongruent", "word": "yellow", "color": "blue", "correct_response": "b", "trial_id": "stroop-trial-1-incongruent-9", "trial_type": "html-keyboard-response", "trial_index": 184, "time_elapsed": 306902, "internal_node_id": "0.0-6.0-89.0"}}, {"uniqueid": "w55311035:a45910616", "current_trial": 185, "dateTime": 1664562822857, "trialdata": {"rt": 21854, "stimulus": "  <h1> End of block! </h1>\n\n  You have reached the end of the block 2/5. If you need a short break, feel free to take one now before moving on.\n\n  <br><br>\n  In the next block, you will complete another 90 rounds of this game.\n\n  <br><br>\n  <div style='text-align: center;'>Press <code>space</code> to begin.</div>\n  <br><br>\n<div style='text-align: center;'>(If the experiment doesn't continue, try clicking on the text and then pressing <code>space</code>.)</div>", "response": " ", "trial_id": "stroop_1_ready_3", "trial_type": "html-keyboard-response", "trial_index": 185, "time_elapsed": 329260, "internal_node_id": "0.0-7.0"}}, {"uniqueid": "w55311035:a45910616", "current_trial": 186, "dateTime": 1664562823787, "trialdata": {"rt": 926, "stimulus": "<p id='stroop-text' class='stroop-blue'>BLUE</p>", "response": "b", "stimulus-type": "congruent", "word": "blue", "color": "blue", "correct_response": "b", "trial_id": "stroop-trial-1-congruent-1", "trial_type": "html-keyboard-response", "trial_index": 186, "time_elapsed": 330190, "internal_node_id": "0.0-8.0-0.0"}}, {"uniqueid": "w55311035:a45910616", "current_trial": 187, "dateTime": 1664562824740, "trialdata": {"rt": 450, "stimulus": "<p id='stroop-text' class='stroop-blue'>RED</p>", "response": "b", "stimulus-type": "incongruent", "word": "red", "color": "blue", "correct_response": "b", "trial_id": "stroop-trial-1-incongruent-30", "trial_type": "html-keyboard-response", "trial_index": 187, "time_elapsed": 331143, "internal_node_id": "0.0-8.0-1.0"}}, {"uniqueid": "w55311035:a45910616", "current_trial": 188, "dateTime": 1664562825664, "trialdata": {"rt": 420, "stimulus": "<p id='stroop-text' class='stroop-blue'>BRIDGE</p>", "response": "b", "stimulus-type": "unrelated", "word": "BRIDGE", "color": "blue", "correct_response": "b", "trial_id": "stroop-trial-1-unrelated-21", "trial_type": "html-keyboard-response", "trial_index": 188, "time_elapsed": 332067, "internal_node_id": "0.0-8.0-2.0"}}, {"uniqueid": "w55311035:a45910616", "current_trial": 189, "dateTime": 1664562826646, "trialdata": {"rt": 478, "stimulus": "<p id='stroop-text' class='stroop-green'>GREEN</p>", "response": "g", "stimulus-type": "congruent", "word": "green", "color": "green", "correct_response": "g", "trial_id": "stroop-trial-1-congruent-21", "trial_type": "html-keyboard-response", "trial_index": 189, "time_elapsed": 333049, "internal_node_id": "0.0-8.0-3.0"}}, {"uniqueid": "w55311035:a45910616", "current_trial": 190, "dateTime": 1664562827850, "trialdata": {"rt": 701, "stimulus": "<p id='stroop-text' class='stroop-blue'>RED</p>", "response": "b", "stimulus-type": "incongruent", "word": "red", "color": "blue", "correct_response": "b", "trial_id": "stroop-trial-1-incongruent-9", "trial_type": "html-keyboard-response", "trial_index": 190, "time_elapsed": 334253, "internal_node_id": "0.0-8.0-4.0"}}, {"uniqueid": "w55311035:a45910616", "current_trial": 191, "dateTime": 1664562828923, "trialdata": {"rt": 571, "stimulus": "<p id='stroop-text' class='stroop-red'>RED</p>", "response": "r", "stimulus-type": "congruent", "word": "red", "color": "red", "correct_response": "r", "trial_id": "stroop-trial-1-congruent-5", "trial_type": "html-keyboard-response", "trial_index": 191, "time_elapsed": 335326, "internal_node_id": "0.0-8.0-5.0"}}, {"uniqueid": "w55311035:a45910616", "current_trial": 192, "dateTime": 1664562830515, "trialdata": {"rt": 1090, "stimulus": "<p id='stroop-text' class='stroop-blue'>GREEN</p>", "response": "b", "stimulus-type": "incongruent", "word": "green", "color": "blue", "correct_response": "b", "trial_id": "stroop-trial-1-incongruent-27", "trial_type": "html-keyboard-response", "trial_index": 192, "time_elapsed": 336918, "internal_node_id": "0.0-8.0-6.0"}}, {"uniqueid": "w55311035:a45910616", "current_trial": 193, "dateTime": 1664562831690, "trialdata": {"rt": 672, "stimulus": "<p id='stroop-text' class='stroop-green'>BLUE</p>", "response": "g", "stimulus-type": "incongruent", "word": "blue", "color": "green", "correct_response": "g", "trial_id": "stroop-trial-1-incongruent-11", "trial_type": "html-keyboard-response", "trial_index": 193, "time_elapsed": 338093, "internal_node_id": "0.0-8.0-7.0"}}, {"uniqueid": "w55311035:a45910616", "current_trial": 194, "dateTime": 1664562832900, "trialdata": {"rt": 707, "stimulus": "<p id='stroop-text' class='stroop-blue'>GREEN</p>", "response": "b", "stimulus-type": "incongruent", "word": "green", "color": "blue", "correct_response": "b", "trial_id": "stroop-trial-1-incongruent-21", "trial_type": "html-keyboard-response", "trial_index": 194, "time_elapsed": 339303, "internal_node_id": "0.0-8.0-8.0"}}, {"uniqueid": "w55311035:a45910616", "current_trial": 195, "dateTime": 1664562834241, "trialdata": {"rt": 839, "stimulus": "<p id='stroop-text' class='stroop-yellow'>YELLOW</p>", "response": "y", "stimulus-type": "congruent", "word": "yellow", "color": "yellow", "correct_response": "y", "trial_id": "stroop-trial-1-congruent-8", "trial_type": "html-keyboard-response", "trial_index": 195, "time_elapsed": 340644, "internal_node_id": "0.0-8.0-9.0"}}, {"uniqueid": "w55311035:a45910616", "current_trial": 196, "dateTime": 1664562835559, "trialdata": {"rt": 814, "stimulus": "<p id='stroop-text' class='stroop-yellow'>YELLOW</p>", "response": "y", "stimulus-type": "congruent", "word": "yellow", "color": "yellow", "correct_response": "y", "trial_id": "stroop-trial-1-congruent-12", "trial_type": "html-keyboard-response", "trial_index": 196, "time_elapsed": 341962, "internal_node_id": "0.0-8.0-10.0"}}, {"uniqueid": "w55311035:a45910616", "current_trial": 197, "dateTime": 1664562836866, "trialdata": {"rt": 805, "stimulus": "<p id='stroop-text' class='stroop-red'>RED</p>", "response": "y", "stimulus-type": "congruent", "word": "red", "color": "red", "correct_response": "r", "trial_id": "stroop-trial-1-congruent-27", "trial_type": "html-keyboard-response", "trial_index": 197, "time_elapsed": 343269, "internal_node_id": "0.0-8.0-11.0"}}, {"uniqueid": "w55311035:a45910616", "current_trial": 198, "dateTime": 1664562838447, "trialdata": {"rt": 1077, "stimulus": "<p id='stroop-text' class='stroop-yellow'>YELLOW</p>", "response": "y", "stimulus-type": "congruent", "word": "yellow", "color": "yellow", "correct_response": "y", "trial_id": "stroop-trial-1-congruent-6", "trial_type": "html-keyboard-response", "trial_index": 198, "time_elapsed": 344850, "internal_node_id": "0.0-8.0-12.0"}}, {"uniqueid": "w55311035:a45910616", "current_trial": 199, "dateTime": 1664562839833, "trialdata": {"rt": 884, "stimulus": "<p id='stroop-text' class='stroop-green'>BRAIN</p>", "response": "g", "stimulus-type": "unrelated", "word": "BRAIN", "color": "green", "correct_response": "g", "trial_id": "stroop-trial-1-unrelated-17", "trial_type": "html-keyboard-response", "trial_index": 199, "time_elapsed": 346236, "internal_node_id": "0.0-8.0-13.0"}}, {"uniqueid": "w55311035:a45910616", "current_trial": 200, "dateTime": 1664562841123, "trialdata": {"rt": 786, "stimulus": "<p id='stroop-text' class='stroop-yellow'>GREEN</p>", "response": "y", "stimulus-type": "incongruent", "word": "green", "color": "yellow", "correct_response": "y", "trial_id": "stroop-trial-1-incongruent-24", "trial_type": "html-keyboard-response", "trial_index": 200, "time_elapsed": 347526, "internal_node_id": "0.0-8.0-14.0"}}, {"uniqueid": "w55311035:a45910616", "current_trial": 201, "dateTime": 1664562841990, "trialdata": {"rt": 364, "stimulus": "<p id='stroop-text' class='stroop-yellow'>YELLOW</p>", "response": "y", "stimulus-type": "congruent", "word": "yellow", "color": "yellow", "correct_response": "y", "trial_id": "stroop-trial-1-congruent-2", "trial_type": "html-keyboard-response", "trial_index": 201, "time_elapsed": 348393, "internal_node_id": "0.0-8.0-15.0"}}, {"uniqueid": "w55311035:a45910616", "current_trial": 202, "dateTime": 1664562843080, "trialdata": {"rt": 587, "stimulus": "<p id='stroop-text' class='stroop-red'>RED</p>", "response": "r", "stimulus-type": "congruent", "word": "red", "color": "red", "correct_response": "r", "trial_id": "stroop-trial-1-congruent-9", "trial_type": "html-keyboard-response", "trial_index": 202, "time_elapsed": 349483, "internal_node_id": "0.0-8.0-16.0"}}, {"uniqueid": "w55311035:a45910616", "current_trial": 203, "dateTime": 1664562844559, "trialdata": {"rt": 977, "stimulus": "<p id='stroop-text' class='stroop-blue'>YELLOW</p>", "response": "b", "stimulus-type": "incongruent", "word": "yellow", "color": "blue", "correct_response": "b", "trial_id": "stroop-trial-1-incongruent-18", "trial_type": "html-keyboard-response", "trial_index": 203, "time_elapsed": 350962, "internal_node_id": "0.0-8.0-17.0"}}, {"uniqueid": "w55311035:a45910616", "current_trial": 204, "dateTime": 1664562845711, "trialdata": {"rt": 649, "stimulus": "<p id='stroop-text' class='stroop-red'>BRAIN</p>", "response": "r", "stimulus-type": "unrelated", "word": "BRAIN", "color": "red", "correct_response": "r", "trial_id": "stroop-trial-1-unrelated-19", "trial_type": "html-keyboard-response", "trial_index": 204, "time_elapsed": 352114, "internal_node_id": "0.0-8.0-18.0"}}, {"uniqueid": "w55311035:a45910616", "current_trial": 205, "dateTime": 1664562846715, "trialdata": {"rt": 501, "stimulus": "<p id='stroop-text' class='stroop-yellow'>MONKEY</p>", "response": "y", "stimulus-type": "unrelated", "word": "MONKEY", "color": "yellow", "correct_response": "y", "trial_id": "stroop-trial-1-unrelated-22", "trial_type": "html-keyboard-response", "trial_index": 205, "time_elapsed": 353118, "internal_node_id": "0.0-8.0-19.0"}}, {"uniqueid": "w55311035:a45910616", "current_trial": 206, "dateTime": 1664562847623, "trialdata": {"rt": 405, "stimulus": "<p id='stroop-text' class='stroop-yellow'>YELLOW</p>", "response": "y", "stimulus-type": "congruent", "word": "yellow", "color": "yellow", "correct_response": "y", "trial_id": "stroop-trial-1-congruent-19", "trial_type": "html-keyboard-response", "trial_index": 206, "time_elapsed": 354026, "internal_node_id": "0.0-8.0-20.0"}}, {"uniqueid": "w55311035:a45910616", "current_trial": 207, "dateTime": 1664562848838, "trialdata": {"rt": 712, "stimulus": "<p id='stroop-text' class='stroop-green'>CHAIR</p>", "response": "g", "stimulus-type": "unrelated", "word": "CHAIR", "color": "green", "correct_response": "g", "trial_id": "stroop-trial-1-unrelated-16", "trial_type": "html-keyboard-response", "trial_index": 207, "time_elapsed": 355241, "internal_node_id": "0.0-8.0-21.0"}}, {"uniqueid": "w55311035:a45910616", "current_trial": 208, "dateTime": 1664562850037, "trialdata": {"rt": 695, "stimulus": "<p id='stroop-text' class='stroop-blue'>YELLOW</p>", "response": "b", "stimulus-type": "incongruent", "word": "yellow", "color": "blue", "correct_response": "b", "trial_id": "stroop-trial-1-incongruent-22", "trial_type": "html-keyboard-response", "trial_index": 208, "time_elapsed": 356440, "internal_node_id": "0.0-8.0-22.0"}}, {"uniqueid": "w55311035:a45910616", "current_trial": 209, "dateTime": 1664562851092, "trialdata": {"rt": 553, "stimulus": "<p id='stroop-text' class='stroop-yellow'>YELLOW</p>", "response": "b", "stimulus-type": "congruent", "word": "yellow", "color": "yellow", "correct_response": "y", "trial_id": "stroop-trial-1-congruent-11", "trial_type": "html-keyboard-response", "trial_index": 209, "time_elapsed": 357495, "internal_node_id": "0.0-8.0-23.0"}}, {"uniqueid": "w55311035:a45910616", "current_trial": 210, "dateTime": 1664562852393, "trialdata": {"rt": 798, "stimulus": "<p id='stroop-text' class='stroop-blue'>YELLOW</p>", "response": "b", "stimulus-type": "incongruent", "word": "yellow", "color": "blue", "correct_response": "b", "trial_id": "stroop-trial-1-incongruent-17", "trial_type": "html-keyboard-response", "trial_index": 210, "time_elapsed": 358796, "internal_node_id": "0.0-8.0-24.0"}}, {"uniqueid": "w55311035:a45910616", "current_trial": 211, "dateTime": 1664562854271, "trialdata": {"rt": 1376, "stimulus": "<p id='stroop-text' class='stroop-blue'>FORK</p>", "response": "b", "stimulus-type": "unrelated", "word": "FORK", "color": "blue", "correct_response": "b", "trial_id": "stroop-trial-1-unrelated-12", "trial_type": "html-keyboard-response", "trial_index": 211, "time_elapsed": 360674, "internal_node_id": "0.0-8.0-25.0"}}, {"uniqueid": "w55311035:a45910616", "current_trial": 212, "dateTime": 1664562855834, "trialdata": {"rt": 1060, "stimulus": "<p id='stroop-text' class='stroop-yellow'>SHIP</p>", "response": "y", "stimulus-type": "unrelated", "word": "SHIP", "color": "yellow", "correct_response": "y", "trial_id": "stroop-trial-1-unrelated-18", "trial_type": "html-keyboard-response", "trial_index": 212, "time_elapsed": 362237, "internal_node_id": "0.0-8.0-26.0"}}, {"uniqueid": "w55311035:a45910616", "current_trial": 213, "dateTime": 1664562856838, "trialdata": {"rt": 502, "stimulus": "<p id='stroop-text' class='stroop-yellow'>YELLOW</p>", "response": "y", "stimulus-type": "congruent", "word": "yellow", "color": "yellow", "correct_response": "y", "trial_id": "stroop-trial-1-congruent-16", "trial_type": "html-keyboard-response", "trial_index": 213, "time_elapsed": 363241, "internal_node_id": "0.0-8.0-27.0"}}, {"uniqueid": "w55311035:a45910616", "current_trial": 214, "dateTime": 1664562857854, "trialdata": {"rt": 513, "stimulus": "<p id='stroop-text' class='stroop-yellow'>YELLOW</p>", "response": "y", "stimulus-type": "congruent", "word": "yellow", "color": "yellow", "correct_response": "y", "trial_id": "stroop-trial-1-congruent-4", "trial_type": "html-keyboard-response", "trial_index": 214, "time_elapsed": 364257, "internal_node_id": "0.0-8.0-28.0"}}, {"uniqueid": "w55311035:a45910616", "current_trial": 215, "dateTime": 1664562859829, "trialdata": {"rt": 1472, "stimulus": "<p id='stroop-text' class='stroop-yellow'>BLUE</p>", "response": "y", "stimulus-type": "incongruent", "word": "blue", "color": "yellow", "correct_response": "y", "trial_id": "stroop-trial-1-incongruent-10", "trial_type": "html-keyboard-response", "trial_index": 215, "time_elapsed": 366232, "internal_node_id": "0.0-8.0-29.0"}}, {"uniqueid": "w55311035:a45910616", "current_trial": 216, "dateTime": 1664562861951, "trialdata": {"rt": 1620, "stimulus": "<p id='stroop-text' class='stroop-blue'>DOG</p>", "response": "b", "stimulus-type": "unrelated", "word": "DOG", "color": "blue", "correct_response": "b", "trial_id": "stroop-trial-1-unrelated-3", "trial_type": "html-keyboard-response", "trial_index": 216, "time_elapsed": 368354, "internal_node_id": "0.0-8.0-30.0"}}, {"uniqueid": "w55311035:a45910616", "current_trial": 217, "dateTime": 1664562863230, "trialdata": {"rt": 776, "stimulus": "<p id='stroop-text' class='stroop-green'>GREEN</p>", "response": "g", "stimulus-type": "congruent", "word": "green", "color": "green", "correct_response": "g", "trial_id": "stroop-trial-1-congruent-13", "trial_type": "html-keyboard-response", "trial_index": 217, "time_elapsed": 369633, "internal_node_id": "0.0-8.0-31.0"}}, {"uniqueid": "w55311035:a45910616", "current_trial": 218, "dateTime": 1664562864542, "trialdata": {"rt": 809, "stimulus": "<p id='stroop-text' class='stroop-blue'>BOTTLE</p>", "response": "b", "stimulus-type": "unrelated", "word": "BOTTLE", "color": "blue", "correct_response": "b", "trial_id": "stroop-trial-1-unrelated-25", "trial_type": "html-keyboard-response", "trial_index": 218, "time_elapsed": 370945, "internal_node_id": "0.0-8.0-32.0"}}, {"uniqueid": "w55311035:a45910616", "current_trial": 219, "dateTime": 1664562866220, "trialdata": {"rt": 1175, "stimulus": "<p id='stroop-text' class='stroop-red'>WINDOW</p>", "response": "r", "stimulus-type": "unrelated", "word": "WINDOW", "color": "red", "correct_response": "r", "trial_id": "stroop-trial-1-unrelated-26", "trial_type": "html-keyboard-response", "trial_index": 219, "time_elapsed": 372623, "internal_node_id": "0.0-8.0-33.0"}}, {"uniqueid": "w55311035:a45910616", "current_trial": 220, "dateTime": 1664562867281, "trialdata": {"rt": 558, "stimulus": "<p id='stroop-text' class='stroop-red'>RED</p>", "response": "r", "stimulus-type": "congruent", "word": "red", "color": "red", "correct_response": "r", "trial_id": "stroop-trial-1-congruent-22", "trial_type": "html-keyboard-response", "trial_index": 220, "time_elapsed": 373684, "internal_node_id": "0.0-8.0-34.0"}}, {"uniqueid": "w55311035:a45910616", "current_trial": 221, "dateTime": 1664562868862, "trialdata": {"rt": 1078, "stimulus": "<p id='stroop-text' class='stroop-green'>BLUE</p>", "response": "g", "stimulus-type": "incongruent", "word": "blue", "color": "green", "correct_response": "g", "trial_id": "stroop-trial-1-incongruent-15", "trial_type": "html-keyboard-response", "trial_index": 221, "time_elapsed": 375265, "internal_node_id": "0.0-8.0-35.0"}}, {"uniqueid": "w55311035:a45910616", "current_trial": 222, "dateTime": 1664562870260, "trialdata": {"rt": 896, "stimulus": "<p id='stroop-text' class='stroop-blue'>RED</p>", "response": "r", "stimulus-type": "incongruent", "word": "red", "color": "blue", "correct_response": "b", "trial_id": "stroop-trial-1-incongruent-19"