{"condition": 0, "counterbalance": 0, "assignmentId": "a37612928", "workerId": "w29331844", "hitId": "h10395466", "currenttrial": 959, "bonus": 0, "data": [{"uniqueid": "w29331844:a37612928", "current_trial": 0, "dateTime": 1664555095369, "trialdata": {"success": true, "trial_type": "fullscreen", "trial_index": 0, "time_elapsed": 4636, "internal_node_id": "0.0-0.0"}}, {"uniqueid": "w29331844:a37612928", "current_trial": 1, "dateTime": 1664555105405, "trialdata": {"view_history": [{"page_index": 0, "viewing_time": 10030}], "rt": 10031, "trial_id": "exp_instructions_distractor", "trial_type": "instructions", "trial_index": 1, "time_elapsed": 14673, "internal_node_id": "0.0-1.0"}}, {"uniqueid": "w29331844:a37612928", "current_trial": 2, "dateTime": 1664555115345, "trialdata": {"view_history": [{"page_index": 0, "viewing_time": 9938}], "rt": 9938, "trial_id": "color_game_instructions", "trial_type": "instructions", "trial_index": 2, "time_elapsed": 24613, "internal_node_id": "0.0-2.0"}}, {"uniqueid": "w29331844:a37612928", "current_trial": 3, "dateTime": 1664555123110, "trialdata": {"rt": 7762, "stimulus": "<h1> Get ready to start the game! </h1>\n\nThank you for reading the instructions. Get ready start with the first of 5 block(s) of this game.\n<br><br>\nIn this first block, you will complete 90 rounds of this game before moving on.\n<br><br>\nRemember, the better you perform, the bigger your bonus will be!\n<br><br>\n<div style='text-align: center;'>Press <code>space</code> to begin.</div>", "response": " ", "trial_id": "stroop_1_ready_1", "trial_type": "html-keyboard-response", "trial_index": 3, "time_elapsed": 32378, "internal_node_id": "0.0-3.0"}}, {"uniqueid": "w29331844:a37612928", "current_trial": 4, "dateTime": 1664555124382, "trialdata": {"rt": 1257, "stimulus": "<p id='stroop-text' class='stroop-yellow'>BLUE</p>", "response": "y", "stimulus-type": "incongruent", "word": "blue", "color": "yellow", "correct_response": "y", "trial_id": "stroop-trial-1-incongruent-18", "trial_type": "html-keyboard-response", "trial_index": 4, "time_elapsed": 33648, "internal_node_id": "0.0-4.0-0.0"}}, {"uniqueid": "w29331844:a37612928", "current_trial": 5, "dateTime": 1664555126284, "trialdata": {"rt": 1397, "stimulus": "<p id='stroop-text' class='stroop-green'>YELLOW</p>", "response": "g", "stimulus-type": "incongruent", "word": "yellow", "color": "green", "correct_response": "g", "trial_id": "stroop-trial-1-incongruent-8", "trial_type": "html-keyboard-response", "trial_index": 5, "time_elapsed": 35551, "internal_node_id": "0.0-4.0-1.0"}}, {"uniqueid": "w29331844:a37612928", "current_trial": 6, "dateTime": 1664555127868, "trialdata": {"rt": 1079, "stimulus": "<p id='stroop-text' class='stroop-red'>RED</p>", "response": "r", "stimulus-type": "congruent", "word": "red", "color": "red", "correct_response": "r", "trial_id": "stroop-trial-1-congruent-25", "trial_type": "html-keyboard-response", "trial_index": 6, "time_elapsed": 37135, "internal_node_id": "0.0-4.0-2.0"}}, {"uniqueid": "w29331844:a37612928", "current_trial": 7, "dateTime": 1664555129268, "trialdata": {"rt": 895, "stimulus": "<p id='stroop-text' class='stroop-red'>GREEN</p>", "response": "g", "stimulus-type": "incongruent", "word": "green", "color": "red", "correct_response": "r", "trial_id": "stroop-trial-1-incongruent-1", "trial_type": "html-keyboard-response", "trial_index": 7, "time_elapsed": 38535, "internal_node_id": "0.0-4.0-3.0"}}, {"uniqueid": "w29331844:a37612928", "current_trial": 8, "dateTime": 1664555130932, "trialdata": {"rt": 1159, "stimulus": "<p id='stroop-text' class='stroop-yellow'>GREEN</p>", "response": "y", "stimulus-type": "incongruent", "word": "green", "color": "yellow", "correct_response": "y", "trial_id": "stroop-trial-1-incongruent-29", "trial_type": "html-keyboard-response", "trial_index": 8, "time_elapsed": 40199, "internal_node_id": "0.0-4.0-4.0"}}, {"uniqueid": "w29331844:a37612928", "current_trial": 9, "dateTime": 1664555132628, "trialdata": {"rt": 1191, "stimulus": "<p id='stroop-text' class='stroop-blue'>RED</p>", "response": "b", "stimulus-type": "incongruent", "word": "red", "color": "blue", "correct_response": "b", "trial_id": "stroop-trial-1-incongruent-4", "trial_type": "html-keyboard-response", "trial_index": 9, "time_elapsed": 41895, "internal_node_id": "0.0-4.0-5.0"}}, {"uniqueid": "w29331844:a37612928", "current_trial": 10, "dateTime": 1664555134366, "trialdata": {"rt": 1233, "stimulus": "<p id='stroop-text' class='stroop-red'>RED</p>", "response": "r", "stimulus-type": "congruent", "word": "red", "color": "red", "correct_response": "r", "trial_id": "stroop-trial-1-congruent-16", "trial_type": "html-keyboard-response", "trial_index": 10, "time_elapsed": 43633, "internal_node_id": "0.0-4.0-6.0"}}, {"uniqueid": "w29331844:a37612928", "current_trial": 11, "dateTime": 1664555135884, "trialdata": {"rt": 1013, "stimulus": "<p id='stroop-text' class='stroop-blue'>STONE</p>", "response": "b", "stimulus-type": "unrelated", "word": "STONE", "color": "blue", "correct_response": "b", "trial_id": "stroop-trial-1-unrelated-28", "trial_type": "html-keyboard-response", "trial_index": 11, "time_elapsed": 45152, "internal_node_id": "0.0-4.0-7.0"}}, {"uniqueid": "w29331844:a37612928", "current_trial": 12, "dateTime": 1664555137764, "trialdata": {"rt": 1374, "stimulus": "<p id='stroop-text' class='stroop-yellow'>BOTTLE</p>", "response": "y", "stimulus-type": "unrelated", "word": "BOTTLE", "color": "yellow", "correct_response": "y", "trial_id": "stroop-trial-1-unrelated-9", "trial_type": "html-keyboard-response", "trial_index": 12, "time_elapsed": 47031, "internal_node_id": "0.0-4.0-8.0"}}, {"uniqueid": "w29331844:a37612928", "current_trial": 13, "dateTime": 1664555139706, "trialdata": {"rt": 1437, "stimulus": "<p id='stroop-text' class='stroop-green'>GREEN</p>", "response": "g", "stimulus-type": "congruent", "word": "green", "color": "green", "correct_response": "g", "trial_id": "stroop-trial-1-congruent-7", "trial_type": "html-keyboard-response", "trial_index": 13, "time_elapsed": 48974, "internal_node_id": "0.0-4.0-9.0"}}, {"uniqueid": "w29331844:a37612928", "current_trial": 14, "dateTime": 1664555141476, "trialdata": {"rt": 1267, "stimulus": "<p id='stroop-text' class='stroop-yellow'>RED</p>", "response": "y", "stimulus-type": "incongruent", "word": "red", "color": "yellow", "correct_response": "y", "trial_id": "stroop-trial-1-incongruent-25", "trial_type": "html-keyboard-response", "trial_index": 14, "time_elapsed": 50743, "internal_node_id": "0.0-4.0-10.0"}}, {"uniqueid": "w29331844:a37612928", "current_trial": 15, "dateTime": 1664555143594, "trialdata": {"rt": 1614, "stimulus": "<p id='stroop-text' class='stroop-yellow'>DOG</p>", "response": "y", "stimulus-type": "unrelated", "word": "DOG", "color": "yellow", "correct_response": "y", "trial_id": "stroop-trial-1-unrelated-16", "trial_type": "html-keyboard-response", "trial_index": 15, "time_elapsed": 52862, "internal_node_id": "0.0-4.0-11.0"}}, {"uniqueid": "w29331844:a37612928", "current_trial": 16, "dateTime": 1664555145083, "trialdata": {"rt": 985, "stimulus": "<p id='stroop-text' class='stroop-green'>BOAT</p>", "response": "g", "stimulus-type": "unrelated", "word": "BOAT", "color": "green", "correct_response": "g", "trial_id": "stroop-trial-1-unrelated-30", "trial_type": "html-keyboard-response", "trial_index": 16, "time_elapsed": 54351, "internal_node_id": "0.0-4.0-12.0"}}, {"uniqueid": "w29331844:a37612928", "current_trial": 17, "dateTime": 1664555146250, "trialdata": {"rt": 665, "stimulus": "<p id='stroop-text' class='stroop-yellow'>CHAIR</p>", "response": "y", "stimulus-type": "unrelated", "word": "CHAIR", "color": "yellow", "correct_response": "y", "trial_id": "stroop-trial-1-unrelated-14", "trial_type": "html-keyboard-response", "trial_index": 17, "time_elapsed": 55518, "internal_node_id": "0.0-4.0-13.0"}}, {"uniqueid": "w29331844:a37612928", "current_trial": 18, "dateTime": 1664555147428, "trialdata": {"rt": 673, "stimulus": "<p id='stroop-text' class='stroop-yellow'>YELLOW</p>", "response": "y", "stimulus-type": "congruent", "word": "yellow", "color": "yellow", "correct_response": "y", "trial_id": "stroop-trial-1-congruent-26", "trial_type": "html-keyboard-response", "trial_index": 18, "time_elapsed": 56695, "internal_node_id": "0.0-4.0-14.0"}}, {"uniqueid": "w29331844:a37612928", "current_trial": 19, "dateTime": 1664555149148, "trialdata": {"rt": 1213, "stimulus": "<p id='stroop-text' class='stroop-red'>RED</p>", "response": "r", "stimulus-type": "congruent", "word": "red", "color": "red", "correct_response": "r", "trial_id": "stroop-trial-1-congruent-10", "trial_type": "html-keyboard-response", "trial_index": 19, "time_elapsed": 58415, "internal_node_id": "0.0-4.0-15.0"}}, {"uniqueid": "w29331844:a37612928", "current_trial": 20, "dateTime": 1664555150428, "trialdata": {"rt": 776, "stimulus": "<p id='stroop-text' class='stroop-red'>STONE</p>", "response": "r", "stimulus-type": "unrelated", "word": "STONE", "color": "red", "correct_response": "r", "trial_id": "stroop-trial-1-unrelated-24", "trial_type": "html-keyboard-response", "trial_index": 20, "time_elapsed": 59695, "internal_node_id": "0.0-4.0-16.0"}}, {"uniqueid": "w29331844:a37612928", "current_trial": 21, "dateTime": 1664555152156, "trialdata": {"rt": 1223, "stimulus": "<p id='stroop-text' class='stroop-green'>BLUE</p>", "response": "g", "stimulus-type": "incongruent", "word": "blue", "color": "green", "correct_response": "g", "trial_id": "stroop-trial-1-incongruent-27", "trial_type": "html-keyboard-response", "trial_index": 21, "time_elapsed": 61424, "internal_node_id": "0.0-4.0-17.0"}}, {"uniqueid": "w29331844:a37612928", "current_trial": 22, "dateTime": 1664555153837, "trialdata": {"rt": 1174, "stimulus": "<p id='stroop-text' class='stroop-red'>GREEN</p>", "response": "r", "stimulus-type": "incongruent", "word": "green", "color": "red", "correct_response": "r", "trial_id": "stroop-trial-1-incongruent-10", "trial_type": "html-keyboard-response", "trial_index": 22, "time_elapsed": 63104, "internal_node_id": "0.0-4.0-18.0"}}, {"uniqueid": "w29331844:a37612928", "current_trial": 23, "dateTime": 1664555156197, "trialdata": {"rt": 1855, "stimulus": "<p id='stroop-text' class='stroop-blue'>WINDOW</p>", "response": "b", "stimulus-type": "unrelated", "word": "WINDOW", "color": "blue", "correct_response": "b", "trial_id": "stroop-trial-1-unrelated-25", "trial_type": "html-keyboard-response", "trial_index": 23, "time_elapsed": 65464, "internal_node_id": "0.0-4.0-19.0"}}, {"uniqueid": "w29331844:a37612928", "current_trial": 24, "dateTime": 1664555157539, "trialdata": {"rt": 837, "stimulus": "<p id='stroop-text' class='stroop-blue'>BLUE</p>", "response": "b", "stimulus-type": "congruent", "word": "blue", "color": "blue", "correct_response": "b", "trial_id": "stroop-trial-1-congruent-15", "trial_type": "html-keyboard-response", "trial_index": 24, "time_elapsed": 66807, "internal_node_id": "0.0-4.0-20.0"}}, {"uniqueid": "w29331844:a37612928", "current_trial": 25, "dateTime": 1664555158603, "trialdata": {"rt": 559, "stimulus": "<p id='stroop-text' class='stroop-blue'>YELLOW</p>", "response": "b", "stimulus-type": "incongruent", "word": "yellow", "color": "blue", "correct_response": "b", "trial_id": "stroop-trial-1-incongruent-21", "trial_type": "html-keyboard-response", "trial_index": 25, "time_elapsed": 67871, "internal_node_id": "0.0-4.0-21.0"}}, {"uniqueid": "w29331844:a37612928", "current_trial": 26, "dateTime": 1664555159802, "trialdata": {"rt": 691, "stimulus": "<p id='stroop-text' class='stroop-green'>GREEN</p>", "response": "g", "stimulus-type": "congruent", "word": "green", "color": "green", "correct_response": "g", "trial_id": "stroop-trial-1-congruent-3", "trial_type": "html-keyboard-response", "trial_index": 26, "time_elapsed": 69070, "internal_node_id": "0.0-4.0-22.0"}}, {"uniqueid": "w29331844:a37612928", "current_trial": 27, "dateTime": 1664555160819, "trialdata": {"rt": 513, "stimulus": "<p id='stroop-text' class='stroop-green'>BOAT</p>", "response": "g", "stimulus-type": "unrelated", "word": "BOAT", "color": "green", "correct_response": "g", "trial_id": "stroop-trial-1-unrelated-8", "trial_type": "html-keyboard-response", "trial_index": 27, "time_elapsed": 70087, "internal_node_id": "0.0-4.0-23.0"}}, {"uniqueid": "w29331844:a37612928", "current_trial": 28, "dateTime": 1664555161987, "trialdata": {"rt": 664, "stimulus": "<p id='stroop-text' class='stroop-red'>GREEN</p>", "response": "r", "stimulus-type": "incongruent", "word": "green", "color": "red", "correct_response": "r", "trial_id": "stroop-trial-1-incongruent-17", "trial_type": "html-keyboard-response", "trial_index": 28, "time_elapsed": 71255, "internal_node_id": "0.0-4.0-24.0"}}, {"uniqueid": "w29331844:a37612928", "current_trial": 29, "dateTime": 1664555163148, "trialdata": {"rt": 655, "stimulus": "<p id='stroop-text' class='stroop-red'>FORK</p>", "response": "r", "stimulus-type": "unrelated", "word": "FORK", "color": "red", "correct_response": "r", "trial_id": "stroop-trial-1-unrelated-17", "trial_type": "html-keyboard-response", "trial_index": 29, "time_elapsed": 72415, "internal_node_id": "0.0-4.0-25.0"}}, {"uniqueid": "w29331844:a37612928", "current_trial": 30, "dateTime": 1664555164235, "trialdata": {"rt": 583, "stimulus": "<p id='stroop-text' class='stroop-red'>RED</p>", "response": "r", "stimulus-type": "congruent", "word": "red", "color": "red", "correct_response": "r", "trial_id": "stroop-trial-1-congruent-8", "trial_type": "html-keyboard-response", "trial_index": 30, "time_elapsed": 73503, "internal_node_id": "0.0-4.0-26.0"}}, {"uniqueid": "w29331844:a37612928", "current_trial": 31, "dateTime": 1664555165587, "trialdata": {"rt": 845, "stimulus": "<p id='stroop-text' class='stroop-yellow'>GREEN</p>", "response": "y", "stimulus-type": "incongruent", "word": "green", "color": "yellow", "correct_response": "y", "trial_id": "stroop-trial-1-incongruent-11", "trial_type": "html-keyboard-response", "trial_index": 31, "time_elapsed": 74855, "internal_node_id": "0.0-4.0-27.0"}}, {"uniqueid": "w29331844:a37612928", "current_trial": 32, "dateTime": 1664555167133, "trialdata": {"rt": 1040, "stimulus": "<p id='stroop-text' class='stroop-yellow'>BLUE</p>", "response": "y", "stimulus-type": "incongruent", "word": "blue", "color": "yellow", "correct_response": "y", "trial_id": "stroop-trial-1-incongruent-3", "trial_type": "html-keyboard-response", "trial_index": 32, "time_elapsed": 76400, "internal_node_id": "0.0-4.0-28.0"}}, {"uniqueid": "w29331844:a37612928", "current_trial": 33, "dateTime": 1664555168108, "trialdata": {"rt": 472, "stimulus": "<p id='stroop-text' class='stroop-yellow'>BRAIN</p>", "response": "y", "stimulus-type": "unrelated", "word": "BRAIN", "color": "yellow", "correct_response": "y", "trial_id": "stroop-trial-1-unrelated-7", "trial_type": "html-keyboard-response", "trial_index": 33, "time_elapsed": 77376, "internal_node_id": "0.0-4.0-29.0"}}, {"uniqueid": "w29331844:a37612928", "current_trial": 34, "dateTime": 1664555169482, "trialdata": {"rt": 869, "stimulus": "<p id='stroop-text' class='stroop-red'>BRAIN</p>", "response": "r", "stimulus-type": "unrelated", "word": "BRAIN", "color": "red", "correct_response": "r", "trial_id": "stroop-trial-1-unrelated-20", "trial_type": "html-keyboard-response", "trial_index": 34, "time_elapsed": 78750, "internal_node_id": "0.0-4.0-30.0"}}, {"uniqueid": "w29331844:a37612928", "current_trial": 35, "dateTime": 1664555170954, "trialdata": {"rt": 967, "stimulus": "<p id='stroop-text' class='stroop-blue'>GREEN</p>", "response": "b", "stimulus-type": "incongruent", "word": "green", "color": "blue", "correct_response": "b", "trial_id": "stroop-trial-1-incongruent-15", "trial_type": "html-keyboard-response", "trial_index": 35, "time_elapsed": 80221, "internal_node_id": "0.0-4.0-31.0"}}, {"uniqueid": "w29331844:a37612928", "current_trial": 36, "dateTime": 1664555172450, "trialdata": {"rt": 992, "stimulus": "<p id='stroop-text' class='stroop-green'>RED</p>", "response": "g", "stimulus-type": "incongruent", "word": "red", "color": "green", "correct_response": "g", "trial_id": "stroop-trial-1-incongruent-19", "trial_type": "html-keyboard-response", "trial_index": 36, "time_elapsed": 81718, "internal_node_id": "0.0-4.0-32.0"}}, {"uniqueid": "w29331844:a37612928", "current_trial": 37, "dateTime": 1664555173851, "trialdata": {"rt": 897, "stimulus": "<p id='stroop-text' class='stroop-red'>RED</p>", "response": "r", "stimulus-type": "congruent", "word": "red", "color": "red", "correct_response": "r", "trial_id": "stroop-trial-1-congruent-20", "trial_type": "html-keyboard-response", "trial_index": 37, "time_elapsed": 83118, "internal_node_id": "0.0-4.0-33.0"}}, {"uniqueid": "w29331844:a37612928", "current_trial": 38, "dateTime": 1664555175179, "trialdata": {"rt": 823, "stimulus": "<p id='stroop-text' class='stroop-blue'>STONE</p>", "response": "b", "stimulus-type": "unrelated", "word": "STONE", "color": "blue", "correct_response": "b", "trial_id": "stroop-trial-1-unrelated-26", "trial_type": "html-keyboard-response", "trial_index": 38, "time_elapsed": 84446, "internal_node_id": "0.0-4.0-34.0"}}, {"uniqueid": "w29331844:a37612928", "current_trial": 39, "dateTime": 1664555177346, "trialdata": {"rt": 1657, "stimulus": "<p id='stroop-text' class='stroop-red'>WINDOW</p>", "response": "r", "stimulus-type": "unrelated", "word": "WINDOW", "color": "red", "correct_response": "r", "trial_id": "stroop-trial-1-unrelated-21", "trial_type": "html-keyboard-response", "trial_index": 39, "time_elapsed": 86614, "internal_node_id": "0.0-4.0-35.0"}}, {"uniqueid": "w29331844:a37612928", "current_trial": 40, "dateTime": 1664555179123, "trialdata": {"rt": 1275, "stimulus": "<p id='stroop-text' class='stroop-yellow'>YELLOW</p>", "response": "y", "stimulus-type": "congruent", "word": "yellow", "color": "yellow", "correct_response": "y", "trial_id": "stroop-trial-1-congruent-5", "trial_type": "html-keyboard-response", "trial_index": 40, "time_elapsed": 88390, "internal_node_id": "0.0-4.0-36.0"}}, {"uniqueid": "w29331844:a37612928", "current_trial": 41, "dateTime": 1664555180593, "trialdata": {"rt": 965, "stimulus": "<p id='stroop-text' class='stroop-green'>STONE</p>", "response": "g", "stimulus-type": "unrelated", "word": "STONE", "color": "green", "correct_response": "g", "trial_id": "stroop-trial-1-unrelated-10", "trial_type": "html-keyboard-response", "trial_index": 41, "time_elapsed": 89861, "internal_node_id": "0.0-4.0-37.0"}}, {"uniqueid": "w29331844:a37612928", "current_trial": 42, "dateTime": 1664555181980, "trialdata": {"rt": 883, "stimulus": "<p id='stroop-text' class='stroop-yellow'>BLUE</p>", "response": "y", "stimulus-type": "incongruent", "word": "blue", "color": "yellow", "correct_response": "y", "trial_id": "stroop-trial-1-incongruent-12", "trial_type": "html-keyboard-response", "trial_index": 42, "time_elapsed": 91248, "internal_node_id": "0.0-4.0-38.0"}}, {"uniqueid": "w29331844:a37612928", "current_trial": 43, "dateTime": 1664555183385, "trialdata": {"rt": 901, "stimulus": "<p id='stroop-text' class='stroop-blue'>RED</p>", "response": "b", "stimulus-type": "incongruent", "word": "red", "color": "blue", "correct_response": "b", "trial_id": "stroop-trial-1-incongruent-20", "trial_type": "html-keyboard-response", "trial_index": 43, "time_elapsed": 92653, "internal_node_id": "0.0-4.0-39.0"}}, {"uniqueid": "w29331844:a37612928", "current_trial": 44, "dateTime": 1664555184665, "trialdata": {"rt": 776, "stimulus": "<p id='stroop-text' class='stroop-green'>FORK</p>", "response": "g", "stimulus-type": "unrelated", "word": "FORK", "color": "green", "correct_response": "g", "trial_id": "stroop-trial-1-unrelated-15", "trial_type": "html-keyboard-response", "trial_index": 44, "time_elapsed": 93933, "internal_node_id": "0.0-4.0-40.0"}}, {"uniqueid": "w29331844:a37612928", "current_trial": 45, "dateTime": 1664555186267, "trialdata": {"rt": 1097, "stimulus": "<p id='stroop-text' class='stroop-green'>MONKEY</p>", "response": "g", "stimulus-type": "unrelated", "word": "MONKEY", "color": "green", "correct_response": "g", "trial_id": "stroop-trial-1-unrelated-23", "trial_type": "html-keyboard-response", "trial_index": 45, "time_elapsed": 95534, "internal_node_id": "0.0-4.0-41.0"}}, {"uniqueid": "w29331844:a37612928", "current_trial": 46, "dateTime": 1664555187219, "trialdata": {"rt": 446, "stimulus": "<p id='stroop-text' class='stroop-green'>SHIP</p>", "response": "g", "stimulus-type": "unrelated", "word": "SHIP", "color": "green", "correct_response": "g", "trial_id": "stroop-trial-1-unrelated-18", "trial_type": "html-keyboard-response", "trial_index": 46, "time_elapsed": 96486, "internal_node_id": "0.0-4.0-42.0"}}, {"uniqueid": "w29331844:a37612928", "current_trial": 47, "dateTime": 1664555188645, "trialdata": {"rt": 920, "stimulus": "<p id='stroop-text' class='stroop-red'>DOG</p>", "response": "r", "stimulus-type": "unrelated", "word": "DOG", "color": "red", "correct_response": "r", "trial_id": "stroop-trial-1-unrelated-29", "trial_type": "html-keyboard-response", "trial_index": 47, "time_elapsed": 97912, "internal_node_id": "0.0-4.0-43.0"}}, {"uniqueid": "w29331844:a37612928", "current_trial": 48, "dateTime": 1664555190027, "trialdata": {"rt": 878, "stimulus": "<p id='stroop-text' class='stroop-green'>RED</p>", "response": "g", "stimulus-type": "incongruent", "word": "red", "color": "green", "correct_response": "g", "trial_id": "stroop-trial-1-incongruent-28", "trial_type": "html-keyboard-response", "trial_index": 48, "time_elapsed": 99295, "internal_node_id": "0.0-4.0-44.0"}}, {"uniqueid": "w29331844:a37612928", "current_trial": 49, "dateTime": 1664555191356, "trialdata": {"rt": 824, "stimulus": "<p id='stroop-text' class='stroop-blue'>BOAT</p>", "response": "b", "stimulus-type": "unrelated", "word": "BOAT", "color": "blue", "correct_response": "b", "trial_id": "stroop-trial-1-unrelated-12", "trial_type": "html-keyboard-response", "trial_index": 49, "time_elapsed": 100623, "internal_node_id": "0.0-4.0-45.0"}}, {"uniqueid": "w29331844:a37612928", "current_trial": 50, "dateTime": 1664555192697, "trialdata": {"rt": 836, "stimulus": "<p id='stroop-text' class='stroop-yellow'>YELLOW</p>", "response": "y", "stimulus-type": "congruent", "word": "yellow", "color": "yellow", "correct_response": "y", "trial_id": "stroop-trial-1-congruent-2", "trial_type": "html-keyboard-response", "trial_index": 50, "time_elapsed": 101965, "internal_node_id": "0.0-4.0-46.0"}}, {"uniqueid": "w29331844:a37612928", "current_trial": 51, "dateTime": 1664555193972, "trialdata": {"rt": 772, "stimulus": "<p id='stroop-text' class='stroop-red'>YELLOW</p>", "response": "r", "stimulus-type": "incongruent", "word": "yellow", "color": "red", "correct_response": "r", "trial_id": "stroop-trial-1-incongruent-22", "trial_type": "html-keyboard-response", "trial_index": 51, "time_elapsed": 103239, "internal_node_id": "0.0-4.0-47.0"}}, {"uniqueid": "w29331844:a37612928", "current_trial": 52, "dateTime": 1664555195273, "trialdata": {"rt": 794, "stimulus": "<p id='stroop-text' class='stroop-blue'>STONE</p>", "response": "b", "stimulus-type": "unrelated", "word": "STONE", "color": "blue", "correct_response": "b", "trial_id": "stroop-trial-1-unrelated-19", "trial_type": "html-keyboard-response", "trial_index": 52, "time_elapsed": 104541, "internal_node_id": "0.0-4.0-48.0"}}, {"uniqueid": "w29331844:a37612928", "current_trial": 53, "dateTime": 1664555196331, "trialdata": {"rt": 553, "stimulus": "<p id='stroop-text' class='stroop-blue'>RED</p>", "response": "b", "stimulus-type": "incongruent", "word": "red", "color": "blue", "correct_response": "b", "trial_id": "stroop-trial-1-incongruent-14", "trial_type": "html-keyboard-response", "trial_index": 53, "time_elapsed": 105598, "internal_node_id": "0.0-4.0-49.0"}}, {"uniqueid": "w29331844:a37612928", "current_trial": 54, "dateTime": 1664555197569, "trialdata": {"rt": 732, "stimulus": "<p id='stroop-text' class='stroop-red'>MONKEY</p>", "response": "r", "stimulus-type": "unrelated", "word": "MONKEY", "color": "red", "correct_response": "r", "trial_id": "stroop-trial-1-unrelated-6", "trial_type": "html-keyboard-response", "trial_index": 54, "time_elapsed": 106837, "internal_node_id": "0.0-4.0-50.0"}}, {"uniqueid": "w29331844:a37612928", "current_trial": 55, "dateTime": 1664555199173, "trialdata": {"rt": 1099, "stimulus": "<p id='stroop-text' class='stroop-blue'>GREEN</p>", "response": "b", "stimulus-type": "incongruent", "word": "green", "color": "blue", "correct_response": "b", "trial_id": "stroop-trial-1-incongruent-7", "trial_type": "html-keyboard-response", "trial_index": 55, "time_elapsed": 108440, "internal_node_id": "0.0-4.0-51.0"}}, {"uniqueid": "w29331844:a37612928", "current_trial": 56, "dateTime": 1664555200458, "trialdata": {"rt": 780, "stimulus": "<p id='stroop-text' class='stroop-red'>SHIP</p>", "response": "r", "stimulus-type": "unrelated", "word": "SHIP", "color": "red", "correct_response": "r", "trial_id": "stroop-trial-1-unrelated-27", "trial_type": "html-keyboard-response", "trial_index": 56, "time_elapsed": 109725, "internal_node_id": "0.0-4.0-52.0"}}, {"uniqueid": "w29331844:a37612928", "current_trial": 57, "dateTime": 1664555201723, "trialdata": {"rt": 761, "stimulus": "<p id='stroop-text' class='stroop-green'>BRAIN</p>", "response": "g", "stimulus-type": "unrelated", "word": "BRAIN", "color": "green", "correct_response": "g", "trial_id": "stroop-trial-1-unrelated-22", "trial_type": "html-keyboard-response", "trial_index": 57, "time_elapsed": 110990, "internal_node_id": "0.0-4.0-53.0"}}, {"uniqueid": "w29331844:a37612928", "current_trial": 58, "dateTime": 1664555203257, "trialdata": {"rt": 1030, "stimulus": "<p id='stroop-text' class='stroop-red'>BLUE</p>", "response": "r", "stimulus-type": "incongruent", "word": "blue", "color": "red", "correct_response": "r", "trial_id": "stroop-trial-1-incongruent-16", "trial_type": "html-keyboard-response", "trial_index": 58, "time_elapsed": 112525, "internal_node_id": "0.0-4.0-54.0"}}, {"uniqueid": "w29331844:a37612928", "current_trial": 59, "dateTime": 1664555204412, "trialdata": {"rt": 650, "stimulus": "<p id='stroop-text' class='stroop-red'>RED</p>", "response": "r", "stimulus-type": "congruent", "word": "red", "color": "red", "correct_response": "r", "trial_id": "stroop-trial-1-congruent-22", "trial_type": "html-keyboard-response", "trial_index": 59, "time_elapsed": 113679, "internal_node_id": "0.0-4.0-55.0"}}, {"uniqueid": "w29331844:a37612928", "current_trial": 60, "dateTime": 1664555206315, "trialdata": {"rt": 1399, "stimulus": "<p id='stroop-text' class='stroop-red'>YELLOW</p>", "response": "r", "stimulus-type": "incongruent", "word": "yellow", "color": "red", "correct_response": "r", "trial_id": "stroop-trial-1-incongruent-5", "trial_type": "html-keyboard-response", "trial_index": 60, "time_elapsed": 115583, "internal_node_id": "0.0-4.0-56.0"}}, {"uniqueid": "w29331844:a37612928", "current_trial": 61, "dateTime": 1664555208028, "trialdata": {"rt": 1204, "stimulus": "<p id='stroop-text' class='stroop-green'>GREEN</p>", "response": "g", "stimulus-type": "congruent", "word": "green", "color": "green", "correct_response": "g", "trial_id": "stroop-trial-1-congruent-13", "trial_type": "html-keyboard-response", "trial_index": 61, "time_elapsed": 117296, "internal_node_id": "0.0-4.0-57.0"}}, {"uniqueid": "w29331844:a37612928", "current_trial": 62, "dateTime": 1664555209316, "trialdata": {"rt": 783, "stimulus": "<p id='stroop-text' class='stroop-red'>DOG</p>", "response": "r", "stimulus-type": "unrelated", "word": "DOG", "color": "red", "correct_response": "r", "trial_id": "stroop-trial-1-unrelated-1", "trial_type": "html-keyboard-response", "trial_index": 62, "time_elapsed": 118584, "internal_node_id": "0.0-4.0-58.0"}}, {"uniqueid": "w29331844:a37612928", "current_trial": 63, "dateTime": 1664555210547, "trialdata": {"rt": 725, "stimulus": "<p id='stroop-text' class='stroop-green'>MONKEY</p>", "response": "g", "stimulus-type": "unrelated", "word": "MONKEY", "color": "green", "correct_response": "g", "trial_id": "stroop-trial-1-unrelated-13", "trial_type": "html-keyboard-response", "trial_index": 63, "time_elapsed": 119814, "internal_node_id": "0.0-4.0-59.0"}}, {"uniqueid": "w29331844:a37612928", "current_trial": 64, "dateTime": 1664555211818, "trialdata": {"rt": 766, "stimulus": "<p id='stroop-text' class='stroop-red'>RED</p>", "response": "r", "stimulus-type": "congruent", "word": "red", "color": "red", "correct_response": "r", "trial_id": "stroop-trial-1-congruent-4", "trial_type": "html-keyboard-response", "trial_index": 64, "time_elapsed": 121085, "internal_node_id": "0.0-4.0-60.0"}}, {"uniqueid": "w29331844:a37612928", "current_trial": 65, "dateTime": 1664555212930, "trialdata": {"rt": 607, "stimulus": "<p id='stroop-text' class='stroop-green'>GREEN</p>", "response": "g", "stimulus-type": "congruent", "word": "green", "color": "green", "correct_response": "g", "trial_id": "stroop-trial-1-congruent-18", "trial_type": "html-keyboard-response", "trial_index": 65, "time_elapsed": 122197, "internal_node_id": "0.0-4.0-61.0"}}, {"uniqueid": "w29331844:a37612928", "current_trial": 66, "dateTime": 1664555214307, "trialdata": {"rt": 871, "stimulus": "<p id='stroop-text' class='stroop-yellow'>GREEN</p>", "response": "y", "stimulus-type": "incongruent", "word": "green", "color": "yellow", "correct_response": "y", "trial_id": "stroop-trial-1-incongruent-13", "trial_type": "html-keyboard-response", "trial_index": 66, "time_elapsed": 123574, "internal_node_id": "0.0-4.0-62.0"}}, {"uniqueid": "w29331844:a37612928", "current_trial": 67, "dateTime": 1664555215609, "trialdata": {"rt": 798, "stimulus": "<p id='stroop-text' class='stroop-green'>GREEN</p>", "response": "g", "stimulus-type": "congruent", "word": "green", "color": "green", "correct_response": "g", "trial_id": "stroop-trial-1-congruent-24", "trial_type": "html-keyboard-response", "trial_index": 67, "time_elapsed": 124877, "internal_node_id": "0.0-4.0-63.0"}}, {"uniqueid": "w29331844:a37612928", "current_trial": 68, "dateTime": 1664555216963, "trialdata": {"rt": 849, "stimulus": "<p id='stroop-text' class='stroop-green'>RED</p>", "response": "g", "stimulus-type": "incongruent", "word": "red", "color": "green", "correct_response": "g", "trial_id": "stroop-trial-1-incongruent-26", "trial_type": "html-keyboard-response", "trial_index": 68, "time_elapsed": 126230, "internal_node_id": "0.0-4.0-64.0"}}, {"uniqueid": "w29331844:a37612928", "current_trial": 69, "dateTime": 1664555218179, "trialdata": {"rt": 710, "stimulus": "<p id='stroop-text' class='stroop-red'>RED</p>", "response": "r", "stimulus-type": "congruent", "word": "red", "color": "red", "correct_response": "r", "trial_id": "stroop-trial-1-congruent-19", "trial_type": "html-keyboard-response", "trial_index": 69, "time_elapsed": 127446, "internal_node_id": "0.0-4.0-65.0"}}, {"uniqueid": "w29331844:a37612928", "current_trial": 70, "dateTime": 1664555219554, "trialdata": {"rt": 870, "stimulus": "<p id='stroop-text' class='stroop-blue'>BLUE</p>", "response": "b", "stimulus-type": "congruent", "word": "blue", "color": "blue", "correct_response": "b", "trial_id": "stroop-trial-1-congruent-9", "trial_type": "html-keyboard-response", "trial_index": 70, "time_elapsed": 128821, "internal_node_id": "0.0-4.0-66.0"}}, {"uniqueid": "w29331844:a37612928", "current_trial": 71, "dateTime": 1664555220938, "trialdata": {"rt": 876, "stimulus": "<p id='stroop-text' class='stroop-green'>DOG</p>", "response": "g", "stimulus-type": "unrelated", "word": "DOG", "color": "green", "correct_response": "g", "trial_id": "stroop-trial-1-unrelated-2", "trial_type": "html-keyboard-response", "trial_index": 71, "time_elapsed": 130206, "internal_node_id": "0.0-4.0-67.0"}}, {"uniqueid": "w29331844:a37612928", "current_trial": 72, "dateTime": 1664555222393, "trialdata": {"rt": 951, "stimulus": "<p id='stroop-text' class='stroop-blue'>BLUE</p>", "response": "b", "stimulus-type": "congruent", "word": "blue", "color": "blue", "correct_response": "b", "trial_id": "stroop-trial-1-congruent-14", "trial_type": "html-keyboard-response", "trial_index": 72, "time_elapsed": 131660, "internal_node_id": "0.0-4.0-68.0"}}, {"uniqueid": "w29331844:a37612928", "current_trial": 73, "dateTime": 1664555223681, "trialdata": {"rt": 786, "stimulus": "<p id='stroop-text' class='stroop-green'>GREEN</p>", "response": "g", "stimulus-type": "congruent", "word": "green", "color": "green", "correct_response": "g", "trial_id": "stroop-trial-1-congruent-11", "trial_type": "html-keyboard-response", "trial_index": 73, "time_elapsed": 132949, "internal_node_id": "0.0-4.0-69.0"}}, {"uniqueid": "w29331844:a37612928", "current_trial": 74, "dateTime": 1664555224865, "trialdata": {"rt": 680, "stimulus": "<p id='stroop-text' class='stroop-blue'>BLUE</p>", "response": "b", "stimulus-type": "congruent", "word": "blue", "color": "blue", "correct_response": "b", "trial_id": "stroop-trial-1-congruent-23", "trial_type": "html-keyboard-response", "trial_index": 74, "time_elapsed": 134133, "internal_node_id": "0.0-4.0-70.0"}}, {"uniqueid": "w29331844:a37612928", "current_trial": 75, "dateTime": 1664555226282, "trialdata": {"rt": 913, "stimulus": "<p id='stroop-text' class='stroop-green'>BLUE</p>", "response": "g", "stimulus-type": "incongruent", "word": "blue", "color": "green", "correct_response": "g", "trial_id": "stroop-trial-1-incongruent-24", "trial_type": "html-keyboard-response", "trial_index": 75, "time_elapsed": 135550, "internal_node_id": "0.0-4.0-71.0"}}, {"uniqueid": "w29331844:a37612928", "current_trial": 76, "dateTime": 1664555227529, "trialdata": {"rt": 742, "stimulus": "<p id='stroop-text' class='stroop-blue'>BLUE</p>", "response": "b", "stimulus-type": "congruent", "word": "blue", "color": "blue", "correct_response": "b", "trial_id": "stroop-trial-1-congruent-30", "trial_type": "html-keyboard-response", "trial_index": 76, "time_elapsed": 136797, "internal_node_id": "0.0-4.0-72.0"}}, {"uniqueid": "w29331844:a37612928", "current_trial": 77, "dateTime": 1664555228643, "trialdata": {"rt": 609, "stimulus": "<p id='stroop-text' class='stroop-green'>BLUE</p>", "response": "g", "stimulus-type": "incongruent", "word": "blue", "color": "green", "correct_response": "g", "trial_id": "stroop-trial-1-incongruent-30", "trial_type": "html-keyboard-response", "trial_index": 77, "time_elapsed": 137910, "internal_node_id": "0.0-4.0-73.0"}}, {"uniqueid": "w29331844:a37612928", "current_trial": 78, "dateTime": 1664555229858, "trialdata": {"rt": 710, "stimulus": "<p id='stroop-text' class='stroop-green'>BLUE</p>", "response": "g", "stimulus-type": "incongruent", "word": "blue", "color": "green", "correct_response": "g", "trial_id": "stroop-trial-1-incongruent-9", "trial_type": "html-keyboard-response", "trial_index": 78, "time_elapsed": 139125, "internal_node_id": "0.0-4.0-74.0"}}, {"uniqueid": "w29331844:a37612928", "current_trial": 79, "dateTime": 1664555231187, "trialdata": {"rt": 825, "stimulus": "<p id='stroop-text' class='stroop-blue'>BLUE</p>", "response": "b", "stimulus-type": "congruent", "word": "blue", "color": "blue", "correct_response": "b", "trial_id": "stroop-trial-1-congruent-27", "trial_type": "html-keyboard-response", "trial_index": 79, "time_elapsed": 140454, "internal_node_id": "0.0-4.0-75.0"}}, {"uniqueid": "w29331844:a37612928", "current_trial": 80, "dateTime": 1664555232706, "trialdata": {"rt": 1013, "stimulus": "<p id='stroop-text' class='stroop-red'>RED</p>", "response": "r", "stimulus-type": "congruent", "word": "red", "color": "red", "correct_response": "r", "trial_id": "stroop-trial-1-congruent-28", "trial_type": "html-keyboard-response", "trial_index": 80, "time_elapsed": 141973, "internal_node_id": "0.0-4.0-76.0"}}, {"uniqueid": "w29331844:a37612928", "current_trial": 81, "dateTime": 1664555233953, "trialdata": {"rt": 741, "stimulus": "<p id='stroop-text' class='stroop-yellow'>RED</p>", "response": "r", "stimulus-type": "incongruent", "word": "red", "color": "yellow", "correct_response": "y", "trial_id": "stroop-trial-1-incongruent-23", "trial_type": "html-keyboard-response", "trial_index": 81, "time_elapsed": 143220, "internal_node_id": "0.0-4.0-77.0"}}, {"uniqueid": "w29331844:a37612928", "current_trial": 82, "dateTime": 1664555236778, "trialdata": {"rt": 2323, "stimulus": "<p id='stroop-text' class='stroop-blue'>BLUE</p>", "response": "b", "stimulus-type": "congruent", "word": "blue", "color": "blue", "correct_response": "b", "trial_id": "stroop-trial-1-congruent-17", "trial_type": "html-keyboard-response", "trial_index": 82, "time_elapsed": 146046, "internal_node_id": "0.0-4.0-78.0"}}, {"uniqueid": "w29331844:a37612928", "current_trial": 83, "dateTime": 1664555238202, "trialdata": {"rt": 917, "stimulus": "<p id='stroop-text' class='stroop-red'>RED</p>", "response": "r", "stimulus-type": "congruent", "word": "red", "color": "red", "correct_response": "r", "trial_id": "stroop-trial-1-congruent-12", "trial_type": "html-keyboard-response", "trial_index": 83, "time_elapsed": 147469, "internal_node_id": "0.0-4.0-79.0"}}, {"uniqueid": "w29331844:a37612928", "current_trial": 84, "dateTime": 1664555239465, "trialdata": {"rt": 759, "stimulus": "<p id='stroop-text' class='stroop-yellow'>YELLOW</p>", "response": "y", "stimulus-type": "congruent", "word": "yellow", "color": "yellow", "correct_response": "y", "trial_id": "stroop-trial-1-congruent-29", "trial_type": "html-keyboard-response", "trial_index": 84, "time_elapsed": 148733, "internal_node_id": "0.0-4.0-80.0"}}, {"uniqueid": "w29331844:a37612928", "current_trial": 85, "dateTime": 1664555240787, "trialdata": {"rt": 819, "stimulus": "<p id='stroop-text' class='stroop-red'>FORK</p>", "response": "r", "stimulus-type": "unrelated", "word": "FORK", "color": "red", "correct_response": "r", "trial_id": "stroop-trial-1-unrelated-11", "trial_type": "html-keyboard-response", "trial_index": 85, "time_elapsed": 150055, "internal_node_id": "0.0-4.0-81.0"}}, {"uniqueid": "w29331844:a37612928", "current_trial": 86, "dateTime": 1664555242290, "trialdata": {"rt": 985, "stimulus": "<p id='stroop-text' class='stroop-blue'>BOTTLE</p>", "response": "b", "stimulus-type": "unrelated", "word": "BOTTLE", "color": "blue", "correct_response": "b", "trial_id": "stroop-trial-1-unrelated-4", "trial_type": "html-keyboard-response", "trial_index": 86, "time_elapsed": 151558, "internal_node_id": "0.0-4.0-82.0"}}, {"uniqueid": "w29331844:a37612928", "current_trial": 87, "dateTime": 1664555243698, "trialdata": {"rt": 902, "stimulus": "<p id='stroop-text' class='stroop-yellow'>BOAT</p>", "response": "y", "stimulus-type": "unrelated", "word": "BOAT", "color": "yellow", "correct_response": "y", "trial_id": "stroop-trial-1-unrelated-3", "trial_type": "html-keyboard-response", "trial_index": 87, "time_elapsed": 152966, "internal_node_id": "0.0-4.0-83.0"}}, {"uniqueid": "w29331844:a37612928", "current_trial": 88, "dateTime": 1664555245162, "trialdata": {"rt": 955, "stimulus": "<p id='stroop-text' class='stroop-red'>YELLOW</p>", "response": "r", "stimulus-type": "incongruent", "word": "yellow", "color": "red", "correct_response": "r", "trial_id": "stroop-trial-1-incongruent-6", "trial_type": "html-keyboard-response", "trial_index": 88, "time_elapsed": 154430, "internal_node_id": "0.0-4.0-84.0"}}, {"uniqueid": "w29331844:a37612928", "current_trial": 89, "dateTime": 1664555246257, "trialdata": {"rt": 589, "stimulus": "<p id='stroop-text' class='stroop-red'>RED</p>", "response": "r", "stimulus-type": "congruent", "word": "red", "color": "red", "correct_response": "r", "trial_id": "stroop-trial-1-congruent-6", "trial_type": "html-keyboard-response", "trial_index": 89, "time_elapsed": 155525, "internal_node_id": "0.0-4.0-85.0"}}, {"uniqueid": "w29331844:a37612928", "current_trial": 90, "dateTime": 1664555248276, "trialdata": {"rt": 1512, "stimulus": "<p id='stroop-text' class='stroop-blue'>RED</p>", "response": "b", "stimulus-type": "incongruent", "word": "red", "color": "blue", "correct_response": "b", "trial_id": "stroop-trial-1-incongruent-2", "trial_type": "html-keyboard-response", "trial_index": 90, "time_elapsed": 157543, "internal_node_id": "0.0-4.0-86.0"}}, {"uniqueid": "w29331844:a37612928", "current_trial": 91, "dateTime": 1664555249482, "trialdata": {"rt": 699, "stimulus": "<p id='stroop-text' class='stroop-green'>STONE</p>", "response": "g", "stimulus-type": "unrelated", "word": "STONE", "color": "green", "correct_response": "g", "trial_id": "stroop-trial-1-unrelated-5", "trial_type": "html-keyboard-response", "trial_index": 91, "time_elapsed": 158750, "internal_node_id": "0.0-4.0-87.0"}}, {"uniqueid": "w29331844:a37612928", "current_trial": 92, "dateTime": 1664555250594, "trialdata": {"rt": 606, "stimulus": "<p id='stroop-text' class='stroop-yellow'>YELLOW</p>", "response": "y", "stimulus-type": "congruent", "word": "yellow", "color": "yellow", "correct_response": "y", "trial_id": "stroop-trial-1-congruent-21", "trial_type": "html-keyboard-response", "trial_index": 92, "time_elapsed": 159861, "internal_node_id": "0.0-4.0-88.0"}}, {"uniqueid": "w29331844:a37612928", "current_trial": 93, "dateTime": 1664555252373, "trialdata": {"rt": 1271, "stimulus": "<p id='stroop-text' class='stroop-blue'>BLUE</p>", "response": "b", "stimulus-type": "congruent", "word": "blue", "color": "blue", "correct_response": "b", "trial_id": "stroop-trial-1-congruent-1", "trial_type": "html-keyboard-response", "trial_index": 93, "time_elapsed": 161640, "internal_node_id": "0.0-4.0-89.0"}}, {"uniqueid": "w29331844:a37612928", "current_trial": 94, "dateTime": 1664555267878, "trialdata": {"rt": 14997, "stimulus": "  <h1> End of block! </h1>\n\n  You have reached the end of the block 1/5. If you need a short break, feel free to take one now before moving on.\n\n  <br><br>\n  In the next block, you will complete another 90 rounds of this game.\n\n  <br><br>\n  <div style='text-align: center;'>Press <code>space</code> to begin.</div>\n  <br><br>\n<div style='text-align: center;'>(If the experiment doesn't continue, try clicking on the text and then pressing <code>space</code>.)</div>", "response": " ", "trial_id": "stroop_1_ready_2", "trial_type": "html-keyboard-response", "trial_index": 94, "time_elapsed": 177146, "internal_node_id": "0.0-5.0"}}, {"uniqueid": "w29331844:a37612928", "current_trial": 95, "dateTime": 1664555268786, "trialdata": {"rt": 902, "stimulus": "<p id='stroop-text' class='stroop-red'>FORK</p>", "response": "r", "stimulus-type": "unrelated", "word": "FORK", "color": "red", "correct_response": "r", "trial_id": "stroop-trial-1-unrelated-22", "trial_type": "html-keyboard-response", "trial_index": 95, "time_elapsed": 178054, "internal_node_id": "0.0-6.0-0.0"}}, {"uniqueid": "w29331844:a37612928", "current_trial": 96, "dateTime": 1664555270187, "trialdata": {"rt": 890, "stimulus": "<p id='stroop-text' class='stroop-green'>GREEN</p>", "response": "g", "stimulus-type": "congruent", "word": "green", "color": "green", "correct_response": "g", "trial_id": "stroop-trial-1-congruent-19", "trial_type": "html-keyboard-response", "trial_index": 96, "time_elapsed": 179454, "internal_node_id": "0.0-6.0-1.0"}}, {"uniqueid": "w29331844:a37612928", "current_trial": 97, "dateTime": 1664555271361, "trialdata": {"rt": 669, "stimulus": "<p id='stroop-text' class='stroop-green'>BOTTLE</p>", "response": "g", "stimulus-type": "unrelated", "word": "BOTTLE", "color": "green", "correct_response": "g", "trial_id": "stroop-trial-1-unrelated-30", "trial_type": "html-keyboard-response", "trial_index": 97, "time_elapsed": 180629, "internal_node_id": "0.0-6.0-2.0"}}, {"uniqueid": "w29331844:a37612928", "current_trial": 98, "dateTime": 1664555273146, "trialdata": {"rt": 1280, "stimulus": "<p id='stroop-text' class='stroop-yellow'>SHIP</p>", "response": "y", "stimulus-type": "unrelated", "word": "SHIP", "color": "yellow", "correct_response": "y", "trial_id": "stroop-trial-1-unrelated-16", "trial_type": "html-keyboard-response", "trial_index": 98, "time_elapsed": 182414, "internal_node_id": "0.0-6.0-3.0"}}, {"uniqueid": "w29331844:a37612928", "current_trial": 99, "dateTime": 1664555274553, "trialdata": {"rt": 897, "stimulus": "<p id='stroop-text' class='stroop-blue'>BLUE</p>", "response": "b", "stimulus-type": "congruent", "word": "blue", "color": "blue", "correct_response": "b", "trial_id": "stroop-trial-1-congruent-3", "trial_type": "html-keyboard-response", "trial_index": 99, "time_elapsed": 183821, "internal_node_id": "0.0-6.0-4.0"}}, {"uniqueid": "w29331844:a37612928", "current_trial": 100, "dateTime": 1664555275762, "trialdata": {"rt": 705, "stimulus": "<p id='stroop-text' class='stroop-red'>GREEN</p>", "response": "r", "stimulus-type": "incongruent", "word": "green", "color": "red", "correct_response": "r", "trial_id": "stroop-trial-1-incongruent-24", "trial_type": "html-keyboard-response", "trial_index": 100, "time_elapsed": 185030, "internal_node_id": "0.0-6.0-5.0"}}, {"uniqueid": "w29331844:a37612928", "current_trial": 101, "dateTime": 1664555276804, "trialdata": {"rt": 530, "stimulus": "<p id='stroop-text' class='stroop-green'>GREEN</p>", "response": "g", "stimulus-type": "congruent", "word": "green", "color": "green", "correct_response": "g", "trial_id": "stroop-trial-1-congruent-26", "trial_type": "html-keyboard-response", "trial_index": 101, "time_elapsed": 186071, "internal_node_id": "0.0-6.0-6.0"}}, {"uniqueid": "w29331844:a37612928", "current_trial": 102, "dateTime": 1664555277842, "trialdata": {"rt": 532, "stimulus": "<p id='stroop-text' class='stroop-green'>RED</p>", "response": "g", "stimulus-type": "incongruent", "word": "red", "color": "green", "correct_response": "g", "trial_id": "stroop-trial-1-incongruent-15", "trial_type": "html-keyboard-response", "trial_index": 102, "time_elapsed": 187109, "internal_node_id": "0.0-6.0-7.0"}}, {"uniqueid": "w29331844:a37612928", "current_trial": 103, "dateTime": 1664555278826, "trialdata": {"rt": 476, "stimulus": "<p id='stroop-text' class='stroop-green'>GREEN</p>", "response": "g", "stimulus-type": "congruent", "word": "green", "color": "green", "correct_response": "g", "trial_id": "stroop-trial-1-congruent-25", "trial_type": "html-keyboard-response", "trial_index": 103, "time_elapsed": 188094, "internal_node_id": "0.0-6.0-8.0"}}, {"uniqueid": "w29331844:a37612928", "current_trial": 104, "dateTime": 1664555280217, "trialdata": {"rt": 885, "stimulus": "<p id='stroop-text' class='stroop-blue'>GREEN</p>", "response": "b", "stimulus-type": "incongruent", "word": "green", "color": "blue", "correct_response": "b", "trial_id": "stroop-trial-1-incongruent-5", "trial_type": "html-keyboard-response", "trial_index": 104, "time_elapsed": 189485, "internal_node_id": "0.0-6.0-9.0"}}, {"uniqueid": "w29331844:a37612928", "current_trial": 105, "dateTime": 1664555281402, "trialdata": {"rt": 679, "stimulus": "<p id='stroop-text' class='stroop-blue'>BLUE</p>", "response": "b", "stimulus-type": "congruent", "word": "blue", "color": "blue", "correct_response": "b", "trial_id": "stroop-trial-1-congruent-18", "trial_type": "html-keyboard-response", "trial_index": 105, "time_elapsed": 190670, "internal_node_id": "0.0-6.0-10.0"}}, {"uniqueid": "w29331844:a37612928", "current_trial": 106, "dateTime": 1664555282820, "trialdata": {"rt": 911, "stimulus": "<p id='stroop-text' class='stroop-red'>GREEN</p>", "response": "r", "stimulus-type": "incongruent", "word": "green", "color": "red", "correct_response": "r", "trial_id": "stroop-trial-1-incongruent-26", "trial_type": "html-keyboard-response", "trial_index": 106, "time_elapsed": 192087, "internal_node_id": "0.0-6.0-11.0"}}, {"uniqueid": "w29331844:a37612928", "current_trial": 107, "dateTime": 1664555284291, "trialdata": {"rt": 964, "stimulus": "<p id='stroop-text' class='stroop-blue'>YELLOW</p>", "response": "y", "stimulus-type": "incongruent", "word": "yellow", "color": "blue", "correct_response": "b", "trial_id": "stroop-trial-1-incongruent-29", "trial_type": "html-keyboard-response", "trial_index": 107, "time_elapsed": 193558, "internal_node_id": "0.0-6.0-12.0"}}, {"uniqueid": "w29331844:a37612928", "current_trial": 108, "dateTime": 1664555286353, "trialdata": {"rt": 1555, "stimulus": "<p id='stroop-text' class='stroop-yellow'>RED</p>", "response": "y", "stimulus-type": "incongruent", "word": "red", "color": "yellow", "correct_response": "y", "trial_id": "stroop-trial-1-incongruent-8", "trial_type": "html-keyboard-response", "trial_index": 108, "time_elapsed": 195620, "internal_node_id": "0.0-6.0-13.0"}}, {"uniqueid": "w29331844:a37612928", "current_trial": 109, "dateTime": 1664555287954, "trialdata": {"rt": 1097, "stimulus": "<p id='stroop-text' class='stroop-yellow'>BOTTLE</p>", "response": "y", "stimulus-type": "unrelated", "word": "BOTTLE", "color": "yellow", "correct_response": "y", "trial_id": "stroop-trial-1-unrelated-9", "trial_type": "html-keyboard-response", "trial_index": 109, "time_elapsed": 197222, "internal_node_id": "0.0-6.0-14.0"}}, {"uniqueid": "w29331844:a37612928", "current_trial": 110, "dateTime": 1664555289077, "trialdata": {"rt": 615, "stimulus": "<p id='stroop-text' class='stroop-yellow'>FORK</p>", "response": "y", "stimulus-type": "unrelated", "word": "FORK", "color": "yellow", "correct_response": "y", "trial_id": "stroop-trial-1-unrelated-5", "trial_type": "html-keyboard-response", "trial_index": 110, "time_elapsed": 198345, "internal_node_id": "0.0-6.0-15.0"}}, {"uniqueid": "w29331844:a37612928", "current_trial": 111, "dateTime": 1664555290354, "trialdata": {"rt": 771, "stimulus": "<p id='stroop-text' class='stroop-red'>DOG</p>", "response": "r", "stimulus-type": "unrelated", "word": "DOG", "color": "red", "correct_response": "r", "trial_id": "stroop-trial-1-unrelated-8", "trial_type": "html-keyboard-response", "trial_index": 111, "time_elapsed": 199622, "internal_node_id": "0.0-6.0-16.0"}}, {"uniqueid": "w29331844:a37612928", "current_trial": 112, "dateTime": 1664555291802, "trialdata": {"rt": 940, "stimulus": "<p id='stroop-text' class='stroop-green'>SHIP</p>", "response": "g", "stimulus-type": "unrelated", "word": "SHIP", "color": "green", "correct_response": "g", "trial_id": "stroop-trial-1-unrelated-14", "trial_type": "html-keyboard-response", "trial_index": 112, "time_elapsed": 201070, "internal_node_id": "0.0-6.0-17.0"}}, {"uniqueid": "w29331844:a37612928", "current_trial": 113, "dateTime": 1664555293203, "trialdata": {"rt": 894, "stimulus": "<p id='stroop-text' class='stroop-red'>RED</p>", "response": "r", "stimulus-type": "congruent", "word": "red", "color": "red", "correct_response": "r", "trial_id": "stroop-trial-1-congruent-7", "trial_type": "html-keyboard-response", "trial_index": 113, "time_elapsed": 202469, "internal_node_id": "0.0-6.0-18.0"}}, {"uniqueid": "w29331844:a37612928", "current_trial": 114, "dateTime": 1664555294578, "trialdata": {"rt": 867, "stimulus": "<p id='stroop-text' class='stroop-yellow'>GREEN</p>", "response": "y", "stimulus-type": "incongruent", "word": "green", "color": "yellow", "correct_response": "y", "trial_id": "stroop-trial-1-incongruent-12", "trial_type": "html-keyboard-response", "trial_index": 114, "time_elapsed": 203846, "internal_node_id": "0.0-6.0-19.0"}}, {"uniqueid": "w29331844:a37612928", "current_trial": 115, "dateTime": 1664555295762, "trialdata": {"rt": 678, "stimulus": "<p id='stroop-text' class='stroop-red'>RED</p>", "response": "r", "stimulus-type": "congruent", "word": "red", "color": "red", "correct_response": "r", "trial_id": "stroop-trial-1-congruent-29", "trial_type": "html-keyboard-response", "trial_index": 115, "time_elapsed": 205030, "internal_node_id": "0.0-6.0-20.0"}}, {"uniqueid": "w29331844:a37612928", "current_trial": 116, "dateTime": 1664555297203, "trialdata": {"rt": 931, "stimulus": "<p id='stroop-text' class='stroop-red'>BLUE</p>", "response": "b", "stimulus-type": "incongruent", "word": "blue", "color": "red", "correct_response": "r", "trial_id": "stroop-trial-1-incongruent-1", "trial_type": "html-keyboard-response", "trial_index": 116, "time_elapsed": 206470, "internal_node_id": "0.0-6.0-21.0"}}, {"uniqueid": "w29331844:a37612928", "current_trial": 117, "dateTime": 1664555298586, "trialdata": {"rt": 876, "stimulus": "<p id='stroop-text' class='stroop-green'>GREEN</p>", "response": "y", "stimulus-type": "congruent", "word": "green", "color": "green", "correct_response": "g", "trial_id": "stroop-trial-1-congruent-24", "trial_type": "html-keyboard-response", "trial_index": 117, "time_elapsed": 207853, "internal_node_id": "0.0-6.0-22.0"}}, {"uniqueid": "w29331844:a37612928", "current_trial": 118, "dateTime": 1664555300349, "trialdata": {"rt": 1256, "stimulus": "<p id='stroop-text' class='stroop-blue'>BLUE</p>", "response": "b", "stimulus-type": "congruent", "word": "blue", "color": "blue", "correct_response": "b", "trial_id": "stroop-trial-1-congruent-10", "trial_type": "html-keyboard-response", "trial_index": 118, "time_elapsed": 209616, "internal_node_id": "0.0-6.0-23.0"}}, {"uniqueid": "w29331844:a37612928", "current_trial": 119, "dateTime": 1664555301538, "trialdata": {"rt": 681, "stimulus": "<p id='stroop-text' class='stroop-yellow'>RED</p>", "response": "y", "stimulus-type": "incongruent", "word": "red", "color": "yellow", "correct_response": "y", "trial_id": "stroop-trial-1-incongruent-19", "trial_type": "html-keyboard-response", "trial_index": 119, "time_elapsed": 210806, "internal_node_id": "0.0-6.0-24.0"}}, {"uniqueid": "w29331844:a37612928", "current_trial": 120, "dateTime": 1664555303634, "trialdata": {"rt": 1589, "stimulus": "<p id='stroop-text' class='stroop-blue'>SHIP</p>", "response": "b", "stimulus-type": "unrelated", "word": "SHIP", "color": "blue", "correct_response": "b", "trial_id": "stroop-trial-1-unrelated-21", "trial_type": "html-keyboard-response", "trial_index": 120, "time_elapsed": 212901, "internal_node_id": "0.0-6.0-25.0"}}, {"uniqueid": "w29331844:a37612928", "current_trial": 121, "dateTime": 1664555305250, "trialdata": {"rt": 1105, "stimulus": "<p id='stroop-text' class='stroop-green'>GREEN</p>", "response": "g", "stimulus-type": "congruent", "word": "green", "color": "green", "correct_response": "g", "trial_id": "stroop-trial-1-congruent-28", "trial_type": "html-keyboard-response", "trial_index": 121, "time_elapsed": 214517, "internal_node_id": "0.0-6.0-26.0"}}, {"uniqueid": "w29331844:a37612928", "current_trial": 122, "dateTime": 1664555307362, "trialdata": {"rt": 1607, "stimulus": "<p id='stroop-text' class='stroop-red'>SHIP</p>", "response": "r", "stimulus-type": "unrelated", "word": "SHIP", "color": "red", "correct_response": "r", "trial_id": "stroop-trial-1-unrelated-7", "trial_type": "html-keyboard-response", "trial_index": 122, "time_elapsed": 216630, "internal_node_id": "0.0-6.0-27.0"}}, {"uniqueid": "w29331844:a37612928", "current_trial": 123, "dateTime": 1664555308859, "trialdata": {"rt": 988, "stimulus": "<p id='stroop-text' class='stroop-yellow'>GREEN</p>", "response": "y", "stimulus-type": "incongruent", "word": "green", "color": "yellow", "correct_response": "y", "trial_id": "stroop-trial-1-incongruent-2", "trial_type": "html-keyboard-response", "trial_index": 123, "time_elapsed": 218127, "internal_node_id": "0.0-6.0-28.0"}}, {"uniqueid": "w29331844:a37612928", "current_trial": 124, "dateTime": 1664555309841, "trialdata": {"rt": 476, "stimulus": "<p id='stroop-text' class='stroop-yellow'>YELLOW</p>", "response": "y", "stimulus-type": "congruent", "word": "yellow", "color": "yellow", "correct_response": "y", "trial_id": "stroop-trial-1-congruent-14", "trial_type": "html-keyboard-response", "trial_index": 124, "time_elapsed": 219108, "internal_node_id": "0.0-6.0-29.0"}}, {"uniqueid": "w29331844:a37612928", "current_trial": 125, "dateTime": 1664555310973, "trialdata": {"rt": 626, "stimulus": "<p id='stroop-text' class='stroop-blue'>BRIDGE</p>", "response": "b", "stimulus-type": "unrelated", "word": "BRIDGE", "color": "blue", "correct_response": "b", "trial_id": "stroop-trial-1-unrelated-27", "trial_type": "html-keyboard-response", "trial_index": 125, "time_elapsed": 220240, "internal_node_id": "0.0-6.0-30.0"}}, {"uniqueid": "w29331844:a37612928", "current_trial": 126, "dateTime": 1664555312356, "trialdata": {"rt": 876, "stimulus": "<p id='stroop-text' class='stroop-red'>YELLOW</p>", "response": "r", "stimulus-type": "incongruent", "word": "yellow", "color": "red", "correct_response": "r", "trial_id": "stroop-trial-1-incongruent-16", "trial_type": "html-keyboard-response", "trial_index": 126, "time_elapsed": 221623, "internal_node_id": "0.0-6.0-31.0"}}, {"uniqueid": "w29331844:a37612928", "current_trial": 127, "dateTime": 1664555314050, "trialdata": {"rt": 1185, "stimulus": "<p id='stroop-text' class='stroop-blue'>CHAIR</p>", "response": "b", "stimulus-type": "unrelated", "word": "CHAIR", "color": "blue", "correct_response": "b", "trial_id": "stroop-trial-1-unrelated-13", "trial_type": "html-keyboard-response", "trial_index": 127, "time_elapsed": 223317, "internal_node_id": "0.0-6.0-32.0"}}, {"uniqueid": "w29331844:a37612928", "current_trial": 128, "dateTime": 1664555315104, "trialdata": {"rt": 544, "stimulus": "<p id='stroop-text' class='stroop-blue'>BLUE</p>", "response": "b", "stimulus-type": "congruent", "word": "blue", "color": "blue", "correct_response": "b", "trial_id": "stroop-trial-1-congruent-2", "trial_type": "html-keyboard-response", "trial_index": 128, "time_elapsed": 224372, "internal_node_id": "0.0-6.0-33.0"}}, {"uniqueid": "w29331844:a37612928", "current_trial": 129, "dateTime": 1664555316498, "trialdata": {"rt": 889, "stimulus": "<p id='stroop-text' class='stroop-yellow'>YELLOW</p>", "response": "y", "stimulus-type": "congruent", "word": "yellow", "color": "yellow", "correct_response": "y", "trial_id": "stroop-trial-1-congruent-13", "trial_type": "html-keyboard-response", "trial_index": 129, "time_elapsed": 225765, "internal_node_id": "0.0-6.0-34.0"}}, {"uniqueid": "w29331844:a37612928", "current_trial": 130, "dateTime": 1664555318010, "trialdata": {"rt": 1005, "stimulus": "<p id='stroop-text' class='stroop-blue'>CHAIR</p>", "response": "b", "stimulus-type": "unrelated", "word": "CHAIR", "color": "blue", "correct_response": "b", "trial_id": "stroop-trial-1-unrelated-4", "trial_type": "html-keyboard-response", "trial_index": 130, "time_elapsed": 227277, "internal_node_id": "0.0-6.0-35.0"}}, {"uniqueid": "w29331844:a37612928", "current_trial": 131, "dateTime": 1664555319578, "trialdata": {"rt": 1059, "stimulus": "<p id='stroop-text' class='stroop-red'>BLUE</p>", "response": "r", "stimulus-type": "incongruent", "word": "blue", "color": "red", "correct_response": "r", "trial_id": "stroop-trial-1-incongruent-22", "trial_type": "html-keyboard-response", "trial_index": 131, "time_elapsed": 228845, "internal_node_id": "0.0-6.0-36.0"}}, {"uniqueid": "w29331844:a37612928", "current_trial": 132, "dateTime": 1664555321060, "trialdata": {"rt": 974, "stimulus": "<p id='stroop-text' class='stroop-blue'>GREEN</p>", "response": "b", "stimulus-type": "incongruent", "word": "green", "color": "blue", "correct_response": "b", "trial_id": "stroop-trial-1-incongruent-30", "trial_type": "html-keyboard-response", "trial_index": 132, "time_elapsed": 230327, "internal_node_id": "0.0-6.0-37.0"}}, {"uniqueid": "w29331844:a37612928", "current_trial": 133, "dateTime": 1664555322554, "trialdata": {"rt": 989, "stimulus": "<p id='stroop-text' class='stroop-red'>BOTTLE</p>", "response": "r", "stimulus-type": "unrelated", "word": "BOTTLE", "color": "red", "correct_response": "r", "trial_id": "stroop-trial-1-unrelated-3", "trial_type": "html-keyboard-response", "trial_index": 133, "time_elapsed": 231821, "internal_node_id": "0.0-6.0-38.0"}}, {"uniqueid": "w29331844:a37612928", "current_trial": 134, "dateTime": 1664555324153, "trialdata": {"rt": 1092, "stimulus": "<p id='stroop-text' class='stroop-blue'>FORK</p>", "response": "b", "stimulus-type": "unrelated", "word": "FORK", "color": "blue", "correct_response": "b", "trial_id": "stroop-trial-1-unrelated-26", "trial_type": "html-keyboard-response", "trial_index": 134, "time_elapsed": 233421, "internal_node_id": "0.0-6.0-39.0"}}, {"uniqueid": "w29331844:a37612928", "current_trial": 135, "dateTime": 1664555325537, "trialdata": {"rt": 878, "stimulus": "<p id='stroop-text' class='stroop-green'>BRAIN</p>", "response": "g", "stimulus-type": "unrelated", "word": "BRAIN", "color": "green", "correct_response": "g", "trial_id": "stroop-trial-1-unrelated-19", "trial_type": "html-keyboard-response", "trial_index": 135, "time_elapsed": 234805, "internal_node_id": "0.0-6.0-40.0"}}, {"uniqueid": "w29331844:a37612928", "current_trial": 136, "dateTime": 1664555326627, "trialdata": {"rt": 580, "stimulus": "<p id='stroop-text' class='stroop-green'>YELLOW</p>", "response": "g", "stimulus-type": "incongruent", "word": "yellow", "color": "green", "correct_response": "g", "trial_id": "stroop-trial-1-incongruent-17", "trial_type": "html-keyboard-response", "trial_index": 136, "time_elapsed": 235894, "internal_node_id": "0.0-6.0-41.0"}}, {"uniqueid": "w29331844:a37612928", "current_trial": 137, "dateTime": 1664555327545, "trialdata": {"rt": 412, "stimulus": "<p id='stroop-text' class='stroop-green'>SHIP</p>", "response": "g", "stimulus-type": "unrelated", "word": "SHIP", "color": "green", "correct_response": "g", "trial_id": "stroop-trial-1-unrelated-10", "trial_type": "html-keyboard-response", "trial_index": 137, "time_elapsed": 236813, "internal_node_id": "0.0-6.0-42.0"}}, {"uniqueid": "w29331844:a37612928", "current_trial": 138, "dateTime": 1664555328705, "trialdata": {"rt": 653, "stimulus": "<p id='stroop-text' class='stroop-red'>RED</p>", "response": "r", "stimulus-type": "congruent", "word": "red", "color": "red", "correct_response": "r", "trial_id": "stroop-trial-1-congruent-23", "trial_type": "html-keyboard-response", "trial_index": 138, "time_elapsed": 237973, "internal_node_id": "0.0-6.0-43.0"}}, {"uniqueid": "w29331844:a37612928", "current_trial": 139, "dateTime": 1664555329792, "trialdata": {"rt": 576, "stimulus": "<p id='stroop-text' class='stroop-red'>BRIDGE</p>", "response": "r", "stimulus-type": "unrelated", "word": "BRIDGE", "color": "red", "correct_response": "r", "trial_id": "stroop-trial-1-unrelated-28", "trial_type": "html-keyboard-response", "trial_index": 139, "time_elapsed": 239060, "internal_node_id": "0.0-6.0-44.0"}}, {"uniqueid": "w29331844:a37612928", "current_trial": 140, "dateTime": 1664555331457, "trialdata": {"rt": 1161, "stimulus": "<p id='stroop-text' class='stroop-yellow'>RED</p>", "response": "y", "stimulus-type": "incongruent", "word": "red", "color": "yellow", "correct_response": "y", "trial_id": "stroop-trial-1-incongruent-3", "trial_type": "html-keyboard-response", "trial_index": 140, "time_elapsed": 240724, "internal_node_id": "0.0-6.0-45.0"}}, {"uniqueid": "w29331844:a37612928", "current_trial": 141, "dateTime": 1664555332618, "trialdata": {"rt": 658, "stimulus": "<p id='stroop-text' class='stroop-yellow'>BLUE</p>", "response": "y", "stimulus-type": "incongruent", "word": "blue", "color": "yellow", "correct_response": "y", "trial_id": "stroop-trial-1-incongruent-11", "trial_type": "html-keyboard-response", "trial_index": 141, "time_elapsed": 241885, "internal_node_id": "0.0-6.0-46.0"}}, {"uniqueid": "w29331844:a37612928", "current_trial": 142, "dateTime": 1664555333913, "trialdata": {"rt": 786, "stimulus": "<p id='stroop-text' class='stroop-green'>BRIDGE</p>", "response": "g", "stimulus-type": "unrelated", "word": "BRIDGE", "color": "green", "correct_response": "g", "trial_id": "stroop-trial-1-unrelated-11", "trial_type": "html-keyboard-response", "trial_index": 142, "time_elapsed": 243181, "internal_node_id": "0.0-6.0-47.0"}}, {"uniqueid": "w29331844:a37612928", "current_trial": 143, "dateTime": 1664555334840, "trialdata": {"rt": 420, "stimulus": "<p id='stroop-text' class='stroop-green'>GREEN</p>", "response": "g", "stimulus-type": "congruent", "word": "green", "color": "green", "correct_response": "g", "trial_id": "stroop-trial-1-congruent-17", "trial_type": "html-keyboard-response", "trial_index": 143, "time_elapsed": 244107, "internal_node_id": "0.0-6.0-48.0"}}, {"uniqueid": "w29331844:a37612928", "current_trial": 144, "dateTime": 1664555335937, "trialdata": {"rt": 593, "stimulus": "<p id='stroop-text' class='stroop-blue'>BLUE</p>", "response": "b", "stimulus-type": "congruent", "word": "blue", "color": "blue", "correct_response": "b", "trial_id": "stroop-trial-1-congruent-6", "trial_type": "html-keyboard-response", "trial_index": 144, "time_elapsed": 245205, "internal_node_id": "0.0-6.0-49.0"}}, {"uniqueid": "w29331844:a37612928", "current_trial": 145, "dateTime": 1664555337145, "trialdata": {"rt": 700, "stimulus": "<p id='stroop-text' class='stroop-red'>GREEN</p>", "response": "r", "stimulus-type": "incongruent", "word": "green", "color": "red", "correct_response": "r", "trial_id": "stroop-trial-1-incongruent-18", "trial_type": "html-keyboard-response", "trial_index": 145, "time_elapsed": 246413, "internal_node_id": "0.0-6.0-50.0"}}, {"uniqueid": "w29331844:a37612928", "current_trial": 146, "dateTime": 1664555338305, "trialdata": {"rt": 652, "stimulus": "<p id='stroop-text' class='stroop-green'>GREEN</p>", "response": "g", "stimulus-type": "congruent", "word": "green", "color": "green", "correct_response": "g", "trial_id": "stroop-trial-1-congruent-5", "trial_type": "html-keyboard-response", "trial_index": 146, "time_elapsed": 247573, "internal_node_id": "0.0-6.0-51.0"}}, {"uniqueid": "w29331844:a37612928", "current_trial": 147, "dateTime": 1664555339426, "trialdata": {"rt": 613, "stimulus": "<p id='stroop-text' class='stroop-green'>STONE</p>", "response": "g", "stimulus-type": "unrelated", "word": "STONE", "color": "green", "correct_response": "g", "trial_id": "stroop-trial-1-unrelated-17", "trial_type": "html-keyboard-response", "trial_index": 147, "time_elapsed": 248693, "internal_node_id": "0.0-6.0-52.0"}}, {"uniqueid": "w29331844:a37612928", "current_trial": 148, "dateTime": 1664555340721, "trialdata": {"rt": 788, "stimulus": "<p id='stroop-text' class='stroop-red'>CHAIR</p>", "response": "r", "stimulus-type": "unrelated", "word": "CHAIR", "color": "red", "correct_response": "r", "trial_id": "stroop-trial-1-unrelated-1", "trial_type": "html-keyboard-response", "trial_index": 148, "time_elapsed": 249989, "internal_node_id": "0.0-6.0-53.0"}}, {"uniqueid": "w29331844:a37612928", "current_trial": 149, "dateTime": 1664555342017, "trialdata": {"rt": 789, "stimulus": "<p id='stroop-text' class='stroop-blue'>SHIP</p>", "response": "b", "stimulus-type": "unrelated", "word": "SHIP", "color": "blue", "correct_response": "b", "trial_id": "stroop-trial-1-unrelated-23", "trial_type": "html-keyboard-response", "trial_index": 149, "time_elapsed": 251285, "internal_node_id": "0.0-6.0-54.0"}}, {"uniqueid": "w29331844:a37612928", "current_trial": 150, "dateTime": 1664555343305, "trialdata": {"rt": 783, "stimulus": "<p id='stroop-text' class='stroop-red'>RED</p>", "response": "r", "stimulus-type": "congruent", "word": "red", "color": "red", "correct_response": "r", "trial_id": "stroop-trial-1-congruent-27", "trial_type": "html-keyboard-response", "trial_index": 150, "time_elapsed": 252573, "internal_node_id": "0.0-6.0-55.0"}}, {"uniqueid": "w29331844:a37612928", "current_trial": 151, "dateTime": 1664555344530, "trialdata": {"rt": 713, "stimulus": "<p id='stroop-text' class='stroop-green'>FORK</p>", "response": "g", "stimulus-type": "unrelated", "word": "FORK", "color": "green", "correct_response": "g", "trial_id": "stroop-trial-1-unrelated-25", "trial_type": "html-keyboard-response", "trial_index": 151, "time_elapsed": 253797, "internal_node_id": "0.0-6.0-56.0"}}, {"uniqueid": "w29331844:a37612928", "current_trial": 152, "dateTime": 1664555346227, "trialdata": {"rt": 1190, "stimulus": "<p id='stroop-text' class='stroop-red'>SHIP</p>", "response": "r", "stimulus-type": "unrelated", "word": "SHIP", "color": "red", "correct_response": "r", "trial_id": "stroop-trial-1-unrelated-2", "trial_type": "html-keyboard-response", "trial_index": 152, "time_elapsed": 255494, "internal_node_id": "0.0-6.0-57.0"}}, {"uniqueid": "w29331844:a37612928", "current_trial": 153, "dateTime": 1664555347943, "trialdata": {"rt": 1211, "stimulus": "<p id='stroop-text' class='stroop-red'>GREEN</p>", "response": "g", "stimulus-type": "incongruent", "word": "green", "color": "red", "correct_response": "r", "trial_id": "stroop-trial-1-incongruent-23", "trial_type": "html-keyboard-response", "trial_index": 153, "time_elapsed": 257211, "internal_node_id": "0.0-6.0-58.0"}}, {"uniqueid": "w29331844:a37612928", "current_trial": 154, "dateTime": 1664555350890, "trialdata": {"rt": 2443, "stimulus": "<p id='stroop-text' class='stroop-yellow'>BLUE</p>", "response": "y", "stimulus-type": "incongruent", "word": "blue", "color": "yellow", "correct_response": "y", "trial_id": "stroop-trial-1-incongruent-6", "trial_type": "html-keyboard-response", "trial_index": 154, "time_elapsed": 260158, "internal_node_id": "0.0-6.0-59.0"}}, {"uniqueid": "w29331844:a37612928", "current_trial": 155, "dateTime": 1664555352235, "trialdata": {"rt": 838, "stimulus": "<p id='stroop-text' class='stroop-blue'>BRAIN</p>", "response": "b", "stimulus-type": "unrelated", "word": "BRAIN", "color": "blue", "correct_response": "b", "trial_id": "stroop-trial-1-unrelated-15", "trial_type": "html-keyboard-response", "trial_index": 155, "time_elapsed": 261502, "internal_node_id": "0.0-6.0-60.0"}}, {"uniqueid": "w29331844:a37612928", "current_trial": 156, "dateTime": 1664555353402, "trialdata": {"rt": 656, "stimulus": "<p id='stroop-text' class='stroop-green'>GREEN</p>", "response": "g", "stimulus-type": "congruent", "word": "green", "color": "green", "correct_response": "g", "trial_id": "stroop-trial-1-congruent-12", "trial_type": "html-keyboard-response", "trial_index": 156, "time_elapsed": 262669, "internal_node_id": "0.0-6.0-61.0"}}, {"uniqueid": "w29331844:a37612928", "current_trial": 157, "dateTime": 1664555354481, "trialdata": {"rt": 568, "stimulus": "<p id='stroop-text' class='stroop-green'>YELLOW</p>", "response": "g", "stimulus-type": "incongruent", "word": "yellow", "color": "green", "correct_response": "g", "trial_id": "stroop-trial-1-incongruent-14", "trial_type": "html-keyboard-response", "trial_index": 157, "time_elapsed": 263749, "internal_node_id": "0.0-6.0-62.0"}}, {"uniqueid": "w29331844:a37612928", "current_trial": 158, "dateTime": 1664555355802, "trialdata": {"rt": 814, "stimulus": "<p id='stroop-text' class='stroop-yellow'>BRIDGE</p>", "response": "y", "stimulus-type": "unrelated", "word": "BRIDGE", "color": "yellow", "correct_response": "y", "trial_id": "stroop-trial-1-unrelated-18", "trial_type": "html-keyboard-response", "trial_index": 158, "time_elapsed": 265070, "internal_node_id": "0.0-6.0-63.0"}}, {"uniqueid": "w29331844:a37612928", "current_trial": 159, "dateTime": 1664555356761, "trialdata": {"rt": 452, "stimulus": "<p id='stroop-text' class='stroop-yellow'>YELLOW</p>", "response": "y", "stimulus-type": "congruent", "word": "yellow", "color": "yellow", "correct_response": "y", "trial_id": "stroop-trial-1-congruent-9", "trial_type": "html-keyboard-response", "trial_index": 159, "time_elapsed": 266028, "internal_node_id": "0.0-6.0-64.0"}}, {"uniqueid": "w29331844:a37612928", "current_trial": 160, "dateTime": 1664555358559, "trialdata": {"rt": 1289, "stimulus": "<p id='stroop-text' class='stroop-blue'>GREEN</p>", "response": "b", "stimulus-type": "incongruent", "word": "green", "color": "blue", "correct_response": "b", "trial_id": "stroop-trial-1-incongruent-4", "trial_type": "html-keyboard-response", "trial_index": 160, "time_elapsed": 267827, "internal_node_id": "0.0-6.0-65.0"}}, {"uniqueid": "w29331844:a37612928", "current_trial": 161, "dateTime": 1664555359807, "trialdata": {"rt": 746, "stimulus": "<p id='stroop-text' class='stroop-green'>CHAIR</p>", "response": "g", "stimulus-type": "unrelated", "word": "CHAIR", "color": "green", "correct_response": "g", "trial_id": "stroop-trial-1-unrelated-29", "trial_type": "html-keyboard-response", "trial_index": 161, "time_elapsed": 269075, "internal_node_id": "0.0-6.0-66.0"}}, {"uniqueid": "w29331844:a37612928", "current_trial": 162, "dateTime": 1664555361153, "trialdata": {"rt": 842, "stimulus": "<p id='stroop-text' class='stroop-blue'>RED</p>", "response": "b", "stimulus-type": "incongruent", "word": "red", "color": "blue", "correct_response": "b", "trial_id": "stroop-trial-1-incongruent-27", "trial_type": "html-keyboard-response", "trial_index": 162, "time_elapsed": 270420, "internal_node_id": "0.0-6.0-67.0"}}, {"uniqueid": "w29331844:a37612928", "current_trial": 163, "dateTime": 1664555362434, "trialdata": {"rt": 773, "stimulus": "<p id='stroop-text' class='stroop-green'>GREEN</p>", "response": "g", "stimulus-type": "congruent", "word": "green", "color": "green", "correct_response": "g", "trial_id": "stroop-trial-1-congruent-21", "trial_type": "html-keyboard-response", "trial_index": 163, "time_elapsed": 271702, "internal_node_id": "0.0-6.0-68.0"}}, {"uniqueid": "w29331844:a37612928", "current_trial": 164, "dateTime": 1664555363489, "trialdata": {"rt": 548, "stimulus": "<p id='stroop-text' class='stroop-green'>BLUE</p>", "response": "g", "stimulus-type": "incongruent", "word": "blue", "color": "green", "correct_response": "g", "trial_id": "stroop-trial-1-incongruent-21", "trial_type": "html-keyboard-response", "trial_index": 164, "time_elapsed": 272757, "internal_node_id": "0.0-6.0-69.0"}}, {"uniqueid": "w29331844:a37612928", "current_trial": 165, "dateTime": 1664555365008, "trialdata": {"rt": 1015, "stimulus": "<p id='stroop-text' class='stroop-red'>YELLOW</p>", "response": "r", "stimulus-type": "incongruent", "word": "yellow", "color": "red", "correct_response": "r", "trial_id": "stroop-trial-1-incongruent-7", "trial_type": "html-keyboard-response", "trial_index": 165, "time_elapsed": 274276, "internal_node_id": "0.0-6.0-70.0"}}, {"uniqueid": "w29331844:a37612928", "current_trial": 166, "dateTime": 1664555365968, "trialdata": {"rt": 452, "stimulus": "<p id='stroop-text' class='stroop-green'>BLUE</p>", "response": "r", "stimulus-type": "incongruent", "word": "blue", "color": "green", "correct_response": "g", "trial_id": "stroop-trial-1-incongruent-20", "trial_type": "html-keyboard-response", "trial_index": 166, "time_elapsed": 275236, "internal_node_id": "0.0-6.0-71.0"}}, {"uniqueid": "w29331844:a37612928", "current_trial": 167, "dateTime": 1664555367103, "trialdata": {"rt": 630, "stimulus": "<p id='stroop-text' class='stroop-red'>RED</p>", "response": "r", "stimulus-type": "congruent", "word": "red", "color": "red", "correct_response": "r", "trial_id": "stroop-trial-1-congruent-15", "trial_type": "html-keyboard-response", "trial_index": 167, "time_elapsed": 276371, "internal_node_id": "0.0-6.0-72.0"}}, {"uniqueid": "w29331844:a37612928", "current_trial": 168, "dateTime": 1664555368233, "trialdata": {"rt": 624, "stimulus": "<p id='stroop-text' class='stroop-yellow'>YELLOW</p>", "response": "y", "stimulus-type": "congruent", "word": "yellow", "color": "yellow", "correct_response": "y", "trial_id": "stroop-trial-1-congruent-22", "trial_type": "html-keyboard-response", "trial_index": 168, "time_elapsed": 277501, "internal_node_id": "0.0-6.0-73.0"}}, {"uniqueid": "w29331844:a37612928", "current_trial": 169, "dateTime": 1664555369235, "trialdata": {"rt": 491, "stimulus": "<p id='stroop-text' class='stroop-yellow'>MONKEY</p>", "response": "y", "stimulus-type": "unrelated", "word": "MONKEY", "color": "yellow", "correct_response": "y", "trial_id": "stroop-trial-1-unrelated-20", "trial_type": "html-keyboard-response", "trial_index": 169, "time_elapsed": 278502, "internal_node_id": "0.0-6.0-74.0"}}, {"uniqueid": "w29331844:a37612928", "current_trial": 170, "dateTime": 1664555370458, "trialdata": {"rt": 716, "stimulus": "<p id='stroop-text' class='stroop-green'>GREEN</p>", "response": "g", "stimulus-type": "congruent", "word": "green", "color": "green", "correct_response": "g", "trial_id": "stroop-trial-1-congruent-20", "trial_type": "html-keyboard-response", "trial_index": 170, "time_elapsed": 279725, "internal_node_id": "0.0-6.0-75.0"}}, {"uniqueid": "w29331844:a37612928", "current_trial": 171, "dateTime": 1664555371938, "trialdata": {"rt": 972, "stimulus": "<p id='stroop-text' class='stroop-red'>RED</p>", "response": "r", "stimulus-type": "congruent", "word": "red", "color": "red", "correct_response": "r", "trial_id": "stroop-trial-1-congruent-4", "trial_type": "html-keyboard-response", "trial_index": 171, "time_elapsed": 281206, "internal_node_id": "0.0-6.0-76.0"}}, {"uniqueid": "w29331844:a37612928", "current_trial": 172, "dateTime": 1664555373208, "trialdata": {"rt": 760, "stimulus": "<p id='stroop-text' class='stroop-green'>GREEN</p>", "response": "g", "stimulus-type": "congruent", "word": "green", "color": "green", "correct_response": "g", "trial_id": "stroop-trial-1-congruent-8", "trial_type": "html-keyboard-response", "trial_index": 172, "time_elapsed": 282476, "internal_node_id": "0.0-6.0-77.0"}}, {"uniqueid": "w29331844:a37612928", "current_trial": 173, "dateTime": 1664555374375, "trialdata": {"rt": 663, "stimulus": "<p id='stroop-text' class='stroop-yellow'>GREEN</p>", "response": "y", "stimulus-type": "incongruent", "word": "green", "color": "yellow", "correct_response": "y", "trial_id": "stroop-trial-1-incongruent-25", "trial_type": "html-keyboard-response", "trial_index": 173, "time_elapsed": 283643, "internal_node_id": "0.0-6.0-78.0"}}, {"uniqueid": "w29331844:a37612928", "current_trial": 174, "dateTime": 1664555375786, "trialdata": {"rt": 905, "stimulus": "<p id='stroop-text' class='stroop-blue'>BRAIN</p>", "response": "b", "stimulus-type": "unrelated", "word": "BRAIN", "color": "blue", "correct_response": "b", "trial_id": "stroop-trial-1-unrelated-24", "trial_type": "html-keyboard-response", "trial_index": 174, "time_elapsed": 285053, "internal_node_id": "0.0-6.0-79.0"}}, {"uniqueid": "w29331844:a37612928", "current_trial": 175, "dateTime": 1664555377065, "trialdata": {"rt": 769, "stimulus": "<p id='stroop-text' class='stroop-red'>RED</p>", "response": "r", "stimulus-type": "congruent", "word": "red", "color": "red", "correct_response": "r", "trial_id": "stroop-trial-1-congruent-11", "trial_type": "html-keyboard-response", "trial_index": 175, "time_elapsed": 286332, "internal_node_id": "0.0-6.0-80.0"}}, {"uniqueid": "w29331844:a37612928", "current_trial": 176, "dateTime": 1664555378209, "trialdata": {"rt": 635, "stimulus": "<p id='stroop-text' class='stroop-yellow'>YELLOW</p>", "response": "y", "stimulus-type": "congruent", "word": "yellow", "color": "yellow", "correct_response": "y", "trial_id": "stroop-trial-1-congruent-16", "trial_type": "html-keyboard-response", "trial_index": 176, "time_elapsed": 287476, "internal_node_id": "0.0-6.0-81.0"}}, {"uniqueid": "w29331844:a37612928", "current_trial": 177, "dateTime": 1664555379393, "trialdata": {"rt": 678, "stimulus": "<p id='stroop-text' class='stroop-yellow'>DOG</p>", "response": "y", "stimulus-type": "unrelated", "word": "DOG", "color": "yellow", "correct_response": "y", "trial_id": "stroop-trial-1-unrelated-6", "trial_type": "html-keyboard-response", "trial_index": 177, "time_elapsed": 288660, "internal_node_id": "0.0-6.0-82.0"}}, {"uniqueid": "w29331844:a37612928", "current_trial": 178, "dateTime": 1664555380937, "trialdata": {"rt": 1034, "stimulus": "<p id='stroop-text' class='stroop-red'>GREEN</p>", "response": "r", "stimulus-type": "incongruent", "word": "green", "color": "red", "correct_response": "r", "trial_id": "stroop-trial-1-incongruent-9", "trial_type": "html-keyboard-response", "trial_index": 178, "time_elapsed": 290204, "internal_node_id": "0.0-6.0-83.0"}}, {"uniqueid": "w29331844:a37612928", "current_trial": 179, "dateTime": 1664555382401, "trialdata": {"rt": 957, "stimulus": "<p id='stroop-text' class='stroop-red'>GREEN</p>", "response": "r", "stimulus-type": "incongruent", "word": "green", "color": "red", "correct_response": "r", "trial_id": "stroop-trial-1-incongruent-28", "trial_type": "html-keyboard-response", "trial_index": 179, "time_elapsed": 291668, "internal_node_id": "0.0-6.0-84.0"}}, {"uniqueid": "w29331844:a37612928", "current_trial": 180, "dateTime": 1664555384219, "trialdata": {"rt": 1309, "stimulus": "<p id='stroop-text' class='stroop-green'>BLUE</p>", "response": "g", "stimulus-type": "incongruent", "word": "blue", "color": "green", "correct_response": "g", "trial_id": "stroop-trial-1-incongruent-13", "trial_type": "html-keyboard-response", "trial_index": 180, "time_elapsed": 293486, "internal_node_id": "0.0-6.0-85.0"}}, {"uniqueid": "w29331844:a37612928", "current_trial": 181, "dateTime": 1664555385369, "trialdata": {"rt": 640, "stimulus": "<p id='stroop-text' class='stroop-red'>RED</p>", "response": "r", "stimulus-type": "congruent", "word": "red", "color": "red", "correct_response": "r", "trial_id": "stroop-trial-1-congruent-1", "trial_type": "html-keyboard-response", "trial_index": 181, "time_elapsed": 294636, "internal_node_id": "0.0-6.0-86.0"}}, {"uniqueid": "w29331844:a37612928", "current_trial": 182, "dateTime": 1664555386610, "trialdata": {"rt": 732, "stimulus": "<p id='stroop-text' class='stroop-green'>GREEN</p>", "response": "g", "stimulus-type": "congruent", "word": "green", "color": "green", "correct_response": "g", "trial_id": "stroop-trial-1-congruent-30", "trial_type": "html-keyboard-response", "trial_index": 182, "time_elapsed": 295878, "internal_node_id": "0.0-6.0-87.0"}}, {"uniqueid": "w29331844:a37612928", "current_trial": 183, "dateTime": 1664555388137, "trialdata": {"rt": 1019, "stimulus": "<p id='stroop-text' class='stroop-blue'>SHIP</p>", "response": "b", "stimulus-type": "unrelated", "word": "SHIP", "color": "blue", "correct_response": "b", "trial_id": "stroop-trial-1-unrelated-12", "trial_type": "html-keyboard-response", "trial_index": 183, "time_elapsed": 297404, "internal_node_id": "0.0-6.0-88.0"}}, {"uniqueid": "w29331844:a37612928", "current_trial": 184, "dateTime": 1664555390506, "trialdata": {"rt": 1860, "stimulus": "<p id='stroop-text' class='stroop-green'>YELLOW</p>", "response": "g", "stimulus-type": "incongruent", "word": "yellow", "color": "green", "correct_response": "g", "trial_id": "stroop-trial-1-incongruent-10", "trial_type": "html-keyboard-response", "trial_index": 184, "time_elapsed": 299773, "internal_node_id": "0.0-6.0-89.0"}}, {"uniqueid": "w29331844:a37612928", "current_trial": 185, "dateTime": 1664555412307, "trialdata": {"rt": 21294, "stimulus": "  <h1> End of block! </h1>\n\n  You have reached the end of the block 2/5. If you need a short break, feel free to take one now before moving on.\n\n  <br><br>\n  In the next block, you will complete another 90 rounds of this game.\n\n  <br><br>\n  <div style='text-align: center;'>Press <code>space</code> to begin.</div>\n  <br><br>\n<div style='text-align: center;'>(If the experiment doesn't continue, try clicking on the text and then pressing <code>space</code>.)</div>", "response": " ", "trial_id": "stroop_1_ready_3", "trial_type": "html-keyboard-response", "trial_index": 185, "time_elapsed": 321575, "internal_node_id": "0.0-7.0"}}, {"uniqueid": "w29331844:a37612928", "current_trial": 186, "dateTime": 1664555413697, "trialdata": {"rt": 1381, "stimulus": "<p id='stroop-text' class='stroop-blue'>FORK</p>", "response": "b", "stimulus-type": "unrelated", "word": "FORK", "color": "blue", "correct_response": "b", "trial_id": "stroop-trial-1-unrelated-6", "trial_type": "html-keyboard-response", "trial_index": 186, "time_elapsed": 322964, "internal_node_id": "0.0-8.0-0.0"}}, {"uniqueid": "w29331844:a37612928", "current_trial": 187, "dateTime": 1664555415024, "trialdata": {"rt": 820, "stimulus": "<p id='stroop-text' class='stroop-red'>RED</p>", "response": "r", "stimulus-type": "congruent", "word": "red", "color": "red", "correct_response": "r", "trial_id": "stroop-trial-1-congruent-21", "trial_type": "html-keyboard-response", "trial_index": 187, "time_elapsed": 324292, "internal_node_id": "0.0-8.0-1.0"}}, {"uniqueid": "w29331844:a37612928", "current_trial": 188, "dateTime": 1664555416401, "trialdata": {"rt": 869, "stimulus": "<p id='stroop-text' class='stroop-blue'>RED</p>", "response": "b", "stimulus-type": "incongruent", "word": "red", "color": "blue", "correct_response": "b", "trial_id": "stroop-trial-1-incongruent-12", "trial_type": "html-keyboard-response", "trial_index": 188, "time_elapsed": 325669, "internal_node_id": "0.0-8.0-2.0"}}, {"uniqueid": "w29331844:a37612928", "current_trial": 189, "dateTime": 1664555417624, "trialdata": {"rt": 714, "stimulus": "<p id='stroop-text' class='stroop-yellow'>BOTTLE</p>", "response": "y", "stimulus-type": "unrelated", "word": "BOTTLE", "color": "yellow", "correct_response": "y", "trial_id": "stroop-trial-1-unrelated-5", "trial_type": "html-keyboard-response", "trial_index": 189, "time_elapsed": 326892, "internal_node_id": "0.0-8.0-3.0"}}, {"uniqueid": "w29331844:a37612928", "current_trial": 190, "dateTime": 1664555419159, "trialdata": {"rt": 1028, "stimulus": "<p id='stroop-text' class='stroop-blue'>YELLOW</p>", "response": "b", "stimulus-type": "incongruent", "word": "yellow", "color": "blue", "correct_response": "b", "trial_id": "stroop-trial-1-incongruent-19", "trial_type": "html-keyboard-response", "trial_index": 190, "time_elapsed": 328426, "internal_node_id": "0.0-8.0-4.0"}}, {"uniqueid": "w29331844:a37612928", "current_trial": 191, "dateTime": 1664555420175, "trialdata": {"rt": 512, "stimulus": "<p id='stroop-text' class='stroop-blue'>BLUE</p>", "response": "b", "stimulus-type": "congruent", "word": "blue", "color": "blue", "correct_response": "b", "trial_id": "stroop-trial-1-congruent-7", "trial_type": "html-keyboard-response", "trial_index": 191, "time_elapsed": 329442, "internal_node_id": "0.0-8.0-5.0"}}, {"uniqueid": "w29331844:a37612928", "current_trial": 192, "dateTime": 1664555421160, "trialdata": {"rt": 482, "stimulus": "<p id='stroop-text' class='stroop-blue'>DOG</p>", "response": "b", "stimulus-type": "unrelated", "word": "DOG", "color": "blue", "correct_response": "b", "trial_id": "stroop-trial-1-unrelated-27", "trial_type": "html-keyboard-response", "trial_index": 192, "time_elapsed": 330428, "internal_node_id": "0.0-8.0-6.0"}}, {"uniqueid": "w29331844:a37612928", "current_trial": 193, "dateTime": 1664555422417, "trialdata": {"rt": 748, "stimulus": "<p id='stroop-text' class='stroop-green'>GREEN</p>", "response": "g", "stimulus-type": "congruent", "word": "green", "color": "green", "correct_response": "g", "trial_id": "stroop-trial-1-congruent-5", "trial_type": "html-keyboard-response", "trial_index": 193, "time_elapsed": 331685, "internal_node_id": "0.0-8.0-7.0"}}, {"uniqueid": "w29331844:a37612928", "current_trial": 194, "dateTime": 1664555423825, "trialdata": {"rt": 902, "stimulus": "<p id='stroop-text' class='stroop-red'>BRIDGE</p>", "response": "r", "stimulus-type": "unrelated", "word": "BRIDGE", "color": "red", "correct_response": "r", "trial_id": "stroop-trial-1-unrelated-23", "trial_type": "html-keyboard-response", "trial_index": 194, "time_elapsed": 333092, "internal_node_id": "0.0-8.0-8.0"}}, {"uniqueid": "w29331844:a37612928", "current_trial": 195, "dateTime": 1664555425351, "trialdata": {"rt": 1018, "stimulus": "<p id='stroop-text' class='stroop-blue'>RED</p>", "response": "b", "stimulus-type": "incongruent", "word": "red", "color": "blue", "correct_response": "b", "trial_id": "stroop-trial-1-incongruent-23", "trial_type": "html-keyboard-response", "trial_index": 195, "time_elapsed": 334618, "internal_node_id": "0.0-8.0-9.0"}}, {"uniqueid": "w29331844:a37612928", "current_trial": 196, "dateTime": 1664555426777, "trialdata": {"rt": 921, "stimulus": "<p id='stroop-text' class='stroop-red'>WINDOW</p>", "response": "r", "stimulus-type": "unrelated", "word": "WINDOW", "color": "red", "correct_response": "r", "trial_id": "stroop-trial-1-unrelated-21", "trial_type": "html-keyboard-response", "trial_index": 196, "time_elapsed": 336044, "internal_node_id": "0.0-8.0-10.0"}}, {"uniqueid": "w29331844:a37612928", "current_trial": 197, "dateTime": 1664555427779, "trialdata": {"rt": 496, "stimulus": "<p id='stroop-text' class='stroop-red'>BOAT</p>", "response": "r", "stimulus-type": "unrelated", "word": "BOAT", "color": "red", "correct_response": "r", "trial_id": "stroop-trial-1-unrelated-22", "trial_type": "html-keyboard-response", "trial_index": 197, "time_elapsed": 337046, "internal_node_id": "0.0-8.0-11.0"}}, {"uniqueid": "w29331844:a37612928", "current_trial": 198, "dateTime": 1664555428744, "trialdata": {"rt": 457, "stimulus": "<p id='stroop-text' class='stroop-red'>GREEN</p>", "response": "r", "stimulus-type": "incongruent", "word": "green", "color": "red", "correct_response": "r", "trial_id": "stroop-trial-1-incongruent-22", "trial_type": "html-keyboard-response", "trial_index": 198, "time_elapsed": 338012, "internal_node_id": "0.0-8.0-12.0"}}, {"uniqueid": "w29331844:a37612928", "current_trial": 199, "dateTime": 1664555430095, "trialdata": {"rt": 842, "stimulus": "<p id='stroop-text' class='stroop-blue'>MONKEY</p>", "response": "b", "stimulus-type": "unrelated", "word": "MONKEY", "color": "blue", "correct_response": "b", "trial_id": "stroop-trial-1-unrelated-7", "trial_type": "html-keyboard-response", "trial_index": 199, "time_elapsed": 339363, "internal_node_id": "0.0-8.0-13.0"}}, {"uniqueid": "w29331844:a37612928", "current_trial": 200, "dateTime": 1664555431296, "trialdata": {"rt": 696, "stimulus": "<p id='stroop-text' class='stroop-green'>MONKEY</p>", "response": "g", "stimulus-type": "unrelated", "word": "MONKEY", "color": "green", "correct_response": "g", "trial_id": "stroop-trial-1-unrelated-25", "trial_type": "html-keyboard-response", "trial_index": 200, "time_elapsed": 340564, "internal_node_id": "0.0-8.0-14.0"}}, {"uniqueid": "w29331844:a37612928", "current_trial": 201, "dateTime": 1664555432587, "trialdata": {"rt": 783, "stimulus": "<p id='stroop-text' class='stroop-red'>BLUE</p>", "response": "r", "stimulus-type": "incongruent", "word": "blue", "color": "red", "correct_response": "r", "trial_id": "stroop-trial-1-incongruent-10", "trial_type": "html-keyboard-response", "trial_index": 201, "time_elapsed": 341854, "internal_node_id": "0.0-8.0-15.0"}}, {"uniqueid": "w29331844:a37612928", "current_trial": 202, "dateTime": 1664555433871, "trialdata": {"rt": 774, "stimulus": "<p id='stroop-text' class='stroop-red'>YELLOW</p>", "response": "r", "stimulus-type": "incongruent", "word": "yellow", "color": "red", "correct_response": "r", "trial_id": "stroop-trial-1-incongruent-28", "trial_type": "html-keyboard-response", "trial_index": 202, "time_elapsed": 343139, "internal_node_id": "0.0-8.0-16.0"}}, {"uniqueid": "w29331844:a37612928", "current_trial": 203, "dateTime": 1664555434840, "trialdata": {"rt": 465, "stimulus": "<p id='stroop-text' class='stroop-red'>WINDOW</p>", "response": "r", "stimulus-type": "unrelated", "word": "WINDOW", "color": "red", "correct_response": "r", "trial_id": "stroop-trial-1-unrelated-28", "trial_type": "html-keyboard-response", "trial_index": 203, "time_elapsed": 344108, "internal_node_id": "0.0-8.0-17.0"}}, {"uniqueid": "w29331844:a37612928", "current_trial": 204, "dateTime": 1664555436009, "trialdata": {"rt": 661, "stimulus": "<p id='stroop-text' class='stroop-yellow'>BLUE</p>", "response": "y", "stimulus-type": "incongruent", "word": "blue", "color": "yellow", "correct_response": "y", "trial_id": "stroop-trial-1-incongruent-16", "trial_type": "html-keyboard-response", "trial_index": 204, "time_elapsed": 345276, "internal_node_id": "0.0-8.0-18.0"}}, {"uniqueid": "w29331844:a37612928", "current_trial": 205, "dateTime": 1664555437040, "trialdata": {"rt": 521, "stimulus": "<p id='stroop-text' class='stroop-yellow'>GREEN</p>", "response": "y", "stimulus-type": "incongruent", "word": "green", "color": "yellow", "correct_response": "y", "trial_id": "stroop-trial-1-incongruent-20", "trial_type": "html-keyboard-response", "trial_index": 205, "time_elapsed": 346308, "internal_node_id": "0.0-8.0-19.0"}}, {"uniqueid": "w29331844:a37612928", "current_trial": 206, "dateTime": 1664555438376, "trialdata": {"rt": 828, "stimulus": "<p id='stroop-text' class='stroop-red'>BOAT</p>", "response": "r", "stimulus-type": "unrelated", "word": "BOAT", "color": "red", "correct_response": "r", "trial_id": "stroop-trial-1-unrelated-9", "trial_type": "html-keyboard-response", "trial_index": 206, "time_elapsed": 347644, "internal_node_id": "0.0-8.0-20.0"}}, {"uniqueid": "w29331844:a37612928", "current_trial": 207, "dateTime": 1664555439336, "trialdata": {"rt": 452, "stimulus": "<p id='stroop-text' class='stroop-red'>RED</p>", "response": "r", "stimulus-type": "congruent", "word": "red", "color": "red", "correct_response": "r", "trial_id": "stroop-trial-1-congruent-27", "trial_type": "html-keyboard-response", "trial_index": 207, "time_elapsed": 348604, "internal_node_id": "0.0-8.0-21.0"}}, {"uniqueid": "w29331844:a37612928", "current_trial": 208, "dateTime": 1664555440247, "trialdata": {"rt": 403, "stimulus": "<p id='stroop-text' class='stroop-red'>RED</p>", "response": "r", "stimulus-type": "congruent", "word": "red", "color": "red", "correct_response": "r", "trial_id": "stroop-trial-1-congruent-25", "trial_type": "html-keyboard-response", "trial_index": 208, "time_elapsed": 349515, "internal_node_id": "0.0-8.0-22.0"}}, {"uniqueid": "w29331844:a37612928", "current_trial": 209, "dateTime": 1664555441281, "trialdata": {"rt": 528, "stimulus": "<p id='stroop-text' class='stroop-red'>RED</p>", "response": "r", "stimulus-type": "congruent", "word": "red", "color": "red", "correct_response": "r", "trial_id": "stroop-trial-1-congruent-26", "trial_type": "html-keyboard-response", "trial_index": 209, "time_elapsed": 350549, "internal_node_id": "0.0-8.0-23.0"}}, {"uniqueid": "w29331844:a37612928", "current_trial": 210, "dateTime": 1664555442497, "trialdata": {"rt": 709, "stimulus": "<p id='stroop-text' class='stroop-red'>YELLOW</p>", "response": "r", "stimulus-type": "incongruent", "word": "yellow", "color": "red", "correct_response": "r", "trial_id": "stroop-trial-1-incongruent-3", "trial_type": "html-keyboard-response", "trial_index": 210, "time_elapsed": 351764, "internal_node_id": "0.0-8.0-24.0"}}, {"uniqueid": "w29331844:a37612928", "current_trial": 211, "dateTime": 1664555444361, "trialdata": {"rt": 1354, "stimulus": "<p id='stroop-text' class='stroop-green'>GREEN</p>", "response": "g", "stimulus-type": "congruent", "word": "green", "color": "green", "correct_response": "g", "trial_id": "stroop-trial-1-congruent-12", "trial_type": "html-keyboard-response", "trial_index": 211, "time_elapsed": 353629, "internal_node_id": "0.0-8.0-25.0"}}, {"uniqueid": "w29331844:a37612928", "current_trial": 212, "dateTime": 1664555445593, "trialdata": {"rt": 722, "stimulus": "<p id='stroop-text' class='stroop-blue'>GREEN</p>", "response": "b", "stimulus-type": "incongruent", "word": "green", "color": "blue", "correct_response": "b", "trial_id": "stroop-trial-1-incongruent-11", "trial_type": "html-keyboard-response", "trial_index": 212, "time_elapsed": 354860, "internal_node_id": "0.0-8.0-26.0"}}, {"uniqueid": "w29331844:a37612928", "current_trial": 213, "dateTime": 1664555447510, "trialdata": {"rt": 1410, "stimulus": "<p id='stroop-text' class='stroop-red'>SHIP</p>", "response": "r", "stimulus-type": "unrelated", "word": "SHIP", "color": "red", "correct_response": "r", "trial_id": "stroop-trial-1-unrelated-4", "trial_type": "html-keyboard-response", "trial_index": 213, "time_elapsed": 356778, "internal_node_id": "0.0-8.0-27.0"}}, {"uniqueid": "w29331844:a37612928", "current_trial": 214, "dateTime": 1664555448799, "trialdata": {"rt": 784, "stimulus": "<p id='stroop-text' class='stroop-green'>GREEN</p>", "response": "g", "stimulus-type": "congruent", "word": "green", "color": "green", "correct_response": "g", "trial_id": "stroop-trial-1-congruent-28", "trial_type": "html-keyboard-response", "trial_index": 214, "time_elapsed": 358067, "internal_node_id": "0.0-8.0-28.0"}}, {"uniqueid": "w29331844:a37612928", "current_trial": 215, "dateTime": 1664555449730, "trialdata": {"rt": 424, "stimulus": "<p id='stroop-text' class='stroop-green'>BOAT</p>", "response": "g", "stimulus-type": "unrelated", "word": "BOAT", "color": "green", "correct_response": "g", "trial_id": "stroop-trial-1-unrelated-14", "trial_type": "html-keyboard-response", "trial_index": 215, "time_elapsed": 358997, "internal_node_id": "0.0-8.0-29.0"}}, {"uniqueid": "w29331844:a37612928", "current_trial": 216, "dateTime": 1664555451392, "trialdata": {"rt": 1152, "stimulus": "<p id='stroop-text' class='stroop-blue'>BRAIN</p>", "response": "b", "stimulus-type": "unrelated", "word": "BRAIN", "color": "blue", "correct_response": "b", "trial_id": "stroop-trial-1-unrelated-24", "trial_type": "html-keyboard-response", "trial_index": 216, "time_elapsed": 360660, "internal_node_id": "0.0-8.0-30.0"}}, {"uniqueid": "w29331844:a37612928", "current_trial": 217, "dateTime": 1664555453208, "trialdata": {"rt": 1287, "stimulus": "<p id='stroop-text' class='stroop-green'>WINDOW</p>", "response": "g", "stimulus-type": "unrelated", "word": "WINDOW", "color": "green", "correct_response": "g", "trial_id": "stroop-trial-1-unrelated-18", "trial_type": "html-keyboard-response", "trial_index": 217, "time_elapsed": 362476, "internal_node_id": "0.0-8.0-31.0"}}, {"uniqueid": "w29331844:a37612928", "current_trial": 218, "dateTime": 1664555454403, "trialdata": {"rt": 685, "stimulus": "<p id='stroop-text' class='stroop-red'>MONKEY</p>", "response": "r", "stimulus-type": "unrelated", "word": "MONKEY", "color": "red", "correct_response": "r", "trial_id": "stroop-trial-1-unrelated-29", "trial_type": "html-keyboard-response", "trial_index": 218, "time_elapsed": 363671, "internal_node_id": "0.0-8.0-32.0"}}, {"uniqueid": "w29331844:a37612928", "current_trial": 219, "dateTime": 1664555456144, "trialdata": {"rt": 1232, "stimulus": "<p id='stroop-text' class='stroop-yellow'>GREEN</p>", "response": "y", "stimulus-type": "incongruent", "word": "green", "color": "yellow", "correct_response": "y", "trial_id": "stroop-trial-1-incongruent-18", "trial_type": "html-keyboard-response", "trial_index": 219, "time_elapsed": 365411, "internal_node_id": "0.0-8.0-33.0"}}, {"uniqueid": "w29331844:a37612928", "current_trial": 220, "dateTime": 1664555457863, "trialdata": {"rt": 1208, "stimulus": "<p id='stroop-text' class='stroop-green'>RED</p>", "response": "g", "stimulus-type": "incongruent", "word": "red", "color": "green", "correct_response": "g", "trial_id": "stroop-trial-1-incongruent-17", "trial_type": "html-keyboard-response", "trial_index": 220, "time_elapsed": 367131, "internal_node_id": "0.0-8.0-34.0"}}, {"uniqueid": "w29331844:a37612928", "current_trial": 221, "dateTime": 1664555459224, "trialdata": {"rt": 855, "stimulus": "<p id='stroop-text' class='stroop-blue'>YELLOW</p>", "response": "b", "stimulus-type": "incongruent", "word": "yellow", "color": "blue", "correct_response": "b", "trial_id": "stroop-trial-1-incongruent-1", "trial_type": "html-keyboard-response", "trial_index": 221, "time_elapsed": 368491, "internal_node_id": "0.0-8.0-35.0"}}, {"uniqueid": "w29331844:a37612928", "current_trial": 222, "dateTime": 1664555460376, "trialdata": {"rt": 643, "stimulus": "<p id='stroop-text' class='stroop-green'>BOAT</p>", "response": "g", "stimulus-type": "unrelated", "word": "BOAT", "color": "green", "correct_response": "g", "trial_id": "stroop-trial-1-unrelated-10", "trial_type": "html-keyboard-response", "trial_index": 222, "time_elapsed": 369643, "internal_node_id": "0.0-8.0-36.0"}}, {"uniqueid": "w29331844:a37612928", "current_trial": 