{"condition": 0, "counterbalance": 0, "assignmentId": "a36575253", "workerId": "w77983020", "hitId": "h58725062", "currenttrial": 959, "bonus": 0, "data": [{"uniqueid": "w77983020:a36575253", "current_trial": 0, "dateTime": 1664464309040, "trialdata": {"success": true, "trial_type": "fullscreen", "trial_index": 0, "time_elapsed": 109871, "internal_node_id": "0.0-0.0"}}, {"uniqueid": "w77983020:a36575253", "current_trial": 1, "dateTime": 1664464358692, "trialdata": {"view_history": [{"page_index": 0, "viewing_time": 49637}], "rt": 49641, "trial_id": "exp_instructions_distractor", "trial_type": "instructions", "trial_index": 1, "time_elapsed": 159524, "internal_node_id": "0.0-1.0"}}, {"uniqueid": "w77983020:a36575253", "current_trial": 2, "dateTime": 1664464425268, "trialdata": {"view_history": [{"page_index": 0, "viewing_time": 66570}], "rt": 66571, "trial_id": "color_game_instructions", "trial_type": "instructions", "trial_index": 2, "time_elapsed": 226100, "internal_node_id": "0.0-2.0"}}, {"uniqueid": "w77983020:a36575253", "current_trial": 3, "dateTime": 1664464453135, "trialdata": {"rt": 27863, "stimulus": "<h1> Get ready to start the game! </h1>\n\nThank you for reading the instructions. Get ready start with the first of 5 block(s) of this game.\n<br><br>\nIn this first block, you will complete 90 rounds of this game before moving on.\n<br><br>\nRemember, the better you perform, the bigger your bonus will be!\n<br><br>\n<div style='text-align: center;'>Press <code>space</code> to begin.</div>", "response": " ", "trial_id": "stroop_1_ready_1", "trial_type": "html-keyboard-response", "trial_index": 3, "time_elapsed": 253966, "internal_node_id": "0.0-3.0"}}, {"uniqueid": "w77983020:a36575253", "current_trial": 4, "dateTime": 1664464454942, "trialdata": {"rt": 1776, "stimulus": "<p id='stroop-text' class='stroop-yellow'>MONKEY</p>", "response": "y", "stimulus-type": "unrelated", "word": "MONKEY", "color": "yellow", "correct_response": "y", "trial_id": "stroop-trial-1-unrelated-16", "trial_type": "html-keyboard-response", "trial_index": 4, "time_elapsed": 255773, "internal_node_id": "0.0-4.0-0.0"}}, {"uniqueid": "w77983020:a36575253", "current_trial": 5, "dateTime": 1664464456429, "trialdata": {"rt": 982, "stimulus": "<p id='stroop-text' class='stroop-yellow'>GREEN</p>", "response": "y", "stimulus-type": "incongruent", "word": "green", "color": "yellow", "correct_response": "y", "trial_id": "stroop-trial-1-incongruent-21", "trial_type": "html-keyboard-response", "trial_index": 5, "time_elapsed": 257261, "internal_node_id": "0.0-4.0-1.0"}}, {"uniqueid": "w77983020:a36575253", "current_trial": 6, "dateTime": 1664464458013, "trialdata": {"rt": 1080, "stimulus": "<p id='stroop-text' class='stroop-red'>BOTTLE</p>", "response": "r", "stimulus-type": "unrelated", "word": "BOTTLE", "color": "red", "correct_response": "r", "trial_id": "stroop-trial-1-unrelated-17", "trial_type": "html-keyboard-response", "trial_index": 6, "time_elapsed": 258845, "internal_node_id": "0.0-4.0-2.0"}}, {"uniqueid": "w77983020:a36575253", "current_trial": 7, "dateTime": 1664464459598, "trialdata": {"rt": 1081, "stimulus": "<p id='stroop-text' class='stroop-blue'>BOTTLE</p>", "response": "b", "stimulus-type": "unrelated", "word": "BOTTLE", "color": "blue", "correct_response": "b", "trial_id": "stroop-trial-1-unrelated-13", "trial_type": "html-keyboard-response", "trial_index": 7, "time_elapsed": 260429, "internal_node_id": "0.0-4.0-3.0"}}, {"uniqueid": "w77983020:a36575253", "current_trial": 8, "dateTime": 1664464461126, "trialdata": {"rt": 1024, "stimulus": "<p id='stroop-text' class='stroop-blue'>WINDOW</p>", "response": "b", "stimulus-type": "unrelated", "word": "WINDOW", "color": "blue", "correct_response": "b", "trial_id": "stroop-trial-1-unrelated-21", "trial_type": "html-keyboard-response", "trial_index": 8, "time_elapsed": 261957, "internal_node_id": "0.0-4.0-4.0"}}, {"uniqueid": "w77983020:a36575253", "current_trial": 9, "dateTime": 1664464462965, "trialdata": {"rt": 1333, "stimulus": "<p id='stroop-text' class='stroop-blue'>YELLOW</p>", "response": "b", "stimulus-type": "incongruent", "word": "yellow", "color": "blue", "correct_response": "b", "trial_id": "stroop-trial-1-incongruent-5", "trial_type": "html-keyboard-response", "trial_index": 9, "time_elapsed": 263797, "internal_node_id": "0.0-4.0-5.0"}}, {"uniqueid": "w77983020:a36575253", "current_trial": 10, "dateTime": 1664464464917, "trialdata": {"rt": 1449, "stimulus": "<p id='stroop-text' class='stroop-green'>YELLOW</p>", "response": "g", "stimulus-type": "incongruent", "word": "yellow", "color": "green", "correct_response": "g", "trial_id": "stroop-trial-1-incongruent-7", "trial_type": "html-keyboard-response", "trial_index": 10, "time_elapsed": 265749, "internal_node_id": "0.0-4.0-6.0"}}, {"uniqueid": "w77983020:a36575253", "current_trial": 11, "dateTime": 1664464466373, "trialdata": {"rt": 952, "stimulus": "<p id='stroop-text' class='stroop-red'>MONKEY</p>", "response": "r", "stimulus-type": "unrelated", "word": "MONKEY", "color": "red", "correct_response": "r", "trial_id": "stroop-trial-1-unrelated-6", "trial_type": "html-keyboard-response", "trial_index": 11, "time_elapsed": 267205, "internal_node_id": "0.0-4.0-7.0"}}, {"uniqueid": "w77983020:a36575253", "current_trial": 12, "dateTime": 1664464467749, "trialdata": {"rt": 871, "stimulus": "<p id='stroop-text' class='stroop-blue'>BRAIN</p>", "response": "b", "stimulus-type": "unrelated", "word": "BRAIN", "color": "blue", "correct_response": "b", "trial_id": "stroop-trial-1-unrelated-12", "trial_type": "html-keyboard-response", "trial_index": 12, "time_elapsed": 268581, "internal_node_id": "0.0-4.0-8.0"}}, {"uniqueid": "w77983020:a36575253", "current_trial": 13, "dateTime": 1664464469549, "trialdata": {"rt": 1297, "stimulus": "<p id='stroop-text' class='stroop-green'>BLUE</p>", "response": "g", "stimulus-type": "incongruent", "word": "blue", "color": "green", "correct_response": "g", "trial_id": "stroop-trial-1-incongruent-30", "trial_type": "html-keyboard-response", "trial_index": 13, "time_elapsed": 270381, "internal_node_id": "0.0-4.0-9.0"}}, {"uniqueid": "w77983020:a36575253", "current_trial": 14, "dateTime": 1664464470864, "trialdata": {"rt": 810, "stimulus": "<p id='stroop-text' class='stroop-yellow'>YELLOW</p>", "response": "y", "stimulus-type": "congruent", "word": "yellow", "color": "yellow", "correct_response": "y", "trial_id": "stroop-trial-1-congruent-18", "trial_type": "html-keyboard-response", "trial_index": 14, "time_elapsed": 271695, "internal_node_id": "0.0-4.0-10.0"}}, {"uniqueid": "w77983020:a36575253", "current_trial": 15, "dateTime": 1664464473358, "trialdata": {"rt": 1989, "stimulus": "<p id='stroop-text' class='stroop-green'>GREEN</p>", "response": "g", "stimulus-type": "congruent", "word": "green", "color": "green", "correct_response": "g", "trial_id": "stroop-trial-1-congruent-26", "trial_type": "html-keyboard-response", "trial_index": 15, "time_elapsed": 274189, "internal_node_id": "0.0-4.0-11.0"}}, {"uniqueid": "w77983020:a36575253", "current_trial": 16, "dateTime": 1664464474557, "trialdata": {"rt": 693, "stimulus": "<p id='stroop-text' class='stroop-green'>RED</p>", "response": "g", "stimulus-type": "incongruent", "word": "red", "color": "green", "correct_response": "g", "trial_id": "stroop-trial-1-incongruent-26", "trial_type": "html-keyboard-response", "trial_index": 16, "time_elapsed": 275389, "internal_node_id": "0.0-4.0-12.0"}}, {"uniqueid": "w77983020:a36575253", "current_trial": 17, "dateTime": 1664464476253, "trialdata": {"rt": 1189, "stimulus": "<p id='stroop-text' class='stroop-red'>RED</p>", "response": "r", "stimulus-type": "congruent", "word": "red", "color": "red", "correct_response": "r", "trial_id": "stroop-trial-1-congruent-16", "trial_type": "html-keyboard-response", "trial_index": 17, "time_elapsed": 277085, "internal_node_id": "0.0-4.0-13.0"}}, {"uniqueid": "w77983020:a36575253", "current_trial": 18, "dateTime": 1664464477614, "trialdata": {"rt": 857, "stimulus": "<p id='stroop-text' class='stroop-blue'>FORK</p>", "response": "b", "stimulus-type": "unrelated", "word": "FORK", "color": "blue", "correct_response": "b", "trial_id": "stroop-trial-1-unrelated-8", "trial_type": "html-keyboard-response", "trial_index": 18, "time_elapsed": 278446, "internal_node_id": "0.0-4.0-14.0"}}, {"uniqueid": "w77983020:a36575253", "current_trial": 19, "dateTime": 1664464479461, "trialdata": {"rt": 1343, "stimulus": "<p id='stroop-text' class='stroop-yellow'>YELLOW</p>", "response": "y", "stimulus-type": "congruent", "word": "yellow", "color": "yellow", "correct_response": "y", "trial_id": "stroop-trial-1-congruent-9", "trial_type": "html-keyboard-response", "trial_index": 19, "time_elapsed": 280293, "internal_node_id": "0.0-4.0-15.0"}}, {"uniqueid": "w77983020:a36575253", "current_trial": 20, "dateTime": 1664464481022, "trialdata": {"rt": 1057, "stimulus": "<p id='stroop-text' class='stroop-yellow'>GREEN</p>", "response": "y", "stimulus-type": "incongruent", "word": "green", "color": "yellow", "correct_response": "y", "trial_id": "stroop-trial-1-incongruent-4", "trial_type": "html-keyboard-response", "trial_index": 20, "time_elapsed": 281853, "internal_node_id": "0.0-4.0-16.0"}}, {"uniqueid": "w77983020:a36575253", "current_trial": 21, "dateTime": 1664464482701, "trialdata": {"rt": 1177, "stimulus": "<p id='stroop-text' class='stroop-green'>BLUE</p>", "response": "g", "stimulus-type": "incongruent", "word": "blue", "color": "green", "correct_response": "g", "trial_id": "stroop-trial-1-incongruent-14", "trial_type": "html-keyboard-response", "trial_index": 21, "time_elapsed": 283533, "internal_node_id": "0.0-4.0-17.0"}}, {"uniqueid": "w77983020:a36575253", "current_trial": 22, "dateTime": 1664464483989, "trialdata": {"rt": 783, "stimulus": "<p id='stroop-text' class='stroop-green'>MONKEY</p>", "response": "b", "stimulus-type": "unrelated", "word": "MONKEY", "color": "green", "correct_response": "g", "trial_id": "stroop-trial-1-unrelated-15", "trial_type": "html-keyboard-response", "trial_index": 22, "time_elapsed": 284821, "internal_node_id": "0.0-4.0-18.0"}}, {"uniqueid": "w77983020:a36575253", "current_trial": 23, "dateTime": 1664464485613, "trialdata": {"rt": 1119, "stimulus": "<p id='stroop-text' class='stroop-yellow'>BRIDGE</p>", "response": "y", "stimulus-type": "unrelated", "word": "BRIDGE", "color": "yellow", "correct_response": "y", "trial_id": "stroop-trial-1-unrelated-26", "trial_type": "html-keyboard-response", "trial_index": 23, "time_elapsed": 286445, "internal_node_id": "0.0-4.0-19.0"}}, {"uniqueid": "w77983020:a36575253", "current_trial": 24, "dateTime": 1664464487101, "trialdata": {"rt": 984, "stimulus": "<p id='stroop-text' class='stroop-blue'>CHAIR</p>", "response": "b", "stimulus-type": "unrelated", "word": "CHAIR", "color": "blue", "correct_response": "b", "trial_id": "stroop-trial-1-unrelated-19", "trial_type": "html-keyboard-response", "trial_index": 24, "time_elapsed": 287933, "internal_node_id": "0.0-4.0-20.0"}}, {"uniqueid": "w77983020:a36575253", "current_trial": 25, "dateTime": 1664464488549, "trialdata": {"rt": 945, "stimulus": "<p id='stroop-text' class='stroop-red'>YELLOW</p>", "response": "r", "stimulus-type": "incongruent", "word": "yellow", "color": "red", "correct_response": "r", "trial_id": "stroop-trial-1-incongruent-13", "trial_type": "html-keyboard-response", "trial_index": 25, "time_elapsed": 289381, "internal_node_id": "0.0-4.0-21.0"}}, {"uniqueid": "w77983020:a36575253", "current_trial": 26, "dateTime": 1664464489957, "trialdata": {"rt": 905, "stimulus": "<p id='stroop-text' class='stroop-blue'>FORK</p>", "response": "b", "stimulus-type": "unrelated", "word": "FORK", "color": "blue", "correct_response": "b", "trial_id": "stroop-trial-1-unrelated-7", "trial_type": "html-keyboard-response", "trial_index": 26, "time_elapsed": 290789, "internal_node_id": "0.0-4.0-22.0"}}, {"uniqueid": "w77983020:a36575253", "current_trial": 27, "dateTime": 1664464491246, "trialdata": {"rt": 785, "stimulus": "<p id='stroop-text' class='stroop-yellow'>FORK</p>", "response": "y", "stimulus-type": "unrelated", "word": "FORK", "color": "yellow", "correct_response": "y", "trial_id": "stroop-trial-1-unrelated-11", "trial_type": "html-keyboard-response", "trial_index": 27, "time_elapsed": 292077, "internal_node_id": "0.0-4.0-23.0"}}, {"uniqueid": "w77983020:a36575253", "current_trial": 28, "dateTime": 1664464492636, "trialdata": {"rt": 884, "stimulus": "<p id='stroop-text' class='stroop-blue'>BLUE</p>", "response": "b", "stimulus-type": "congruent", "word": "blue", "color": "blue", "correct_response": "b", "trial_id": "stroop-trial-1-congruent-4", "trial_type": "html-keyboard-response", "trial_index": 28, "time_elapsed": 293468, "internal_node_id": "0.0-4.0-24.0"}}, {"uniqueid": "w77983020:a36575253", "current_trial": 29, "dateTime": 1664464493973, "trialdata": {"rt": 833, "stimulus": "<p id='stroop-text' class='stroop-red'>FORK</p>", "response": "r", "stimulus-type": "unrelated", "word": "FORK", "color": "red", "correct_response": "r", "trial_id": "stroop-trial-1-unrelated-18", "trial_type": "html-keyboard-response", "trial_index": 29, "time_elapsed": 294804, "internal_node_id": "0.0-4.0-25.0"}}, {"uniqueid": "w77983020:a36575253", "current_trial": 30, "dateTime": 1664464494997, "trialdata": {"rt": 521, "stimulus": "<p id='stroop-text' class='stroop-green'>BLUE</p>", "response": "g", "stimulus-type": "incongruent", "word": "blue", "color": "green", "correct_response": "g", "trial_id": "stroop-trial-1-incongruent-29", "trial_type": "html-keyboard-response", "trial_index": 30, "time_elapsed": 295829, "internal_node_id": "0.0-4.0-26.0"}}, {"uniqueid": "w77983020:a36575253", "current_trial": 31, "dateTime": 1664464496492, "trialdata": {"rt": 992, "stimulus": "<p id='stroop-text' class='stroop-red'>BOAT</p>", "response": "r", "stimulus-type": "unrelated", "word": "BOAT", "color": "red", "correct_response": "r", "trial_id": "stroop-trial-1-unrelated-1", "trial_type": "html-keyboard-response", "trial_index": 31, "time_elapsed": 297324, "internal_node_id": "0.0-4.0-27.0"}}, {"uniqueid": "w77983020:a36575253", "current_trial": 32, "dateTime": 1664464498253, "trialdata": {"rt": 1256, "stimulus": "<p id='stroop-text' class='stroop-green'>BRIDGE</p>", "response": "g", "stimulus-type": "unrelated", "word": "BRIDGE", "color": "green", "correct_response": "g", "trial_id": "stroop-trial-1-unrelated-23", "trial_type": "html-keyboard-response", "trial_index": 32, "time_elapsed": 299084, "internal_node_id": "0.0-4.0-28.0"}}, {"uniqueid": "w77983020:a36575253", "current_trial": 33, "dateTime": 1664464499477, "trialdata": {"rt": 719, "stimulus": "<p id='stroop-text' class='stroop-green'>DOG</p>", "response": "g", "stimulus-type": "unrelated", "word": "DOG", "color": "green", "correct_response": "g", "trial_id": "stroop-trial-1-unrelated-9", "trial_type": "html-keyboard-response", "trial_index": 33, "time_elapsed": 300308, "internal_node_id": "0.0-4.0-29.0"}}, {"uniqueid": "w77983020:a36575253", "current_trial": 34, "dateTime": 1664464500693, "trialdata": {"rt": 712, "stimulus": "<p id='stroop-text' class='stroop-blue'>FORK</p>", "response": "b", "stimulus-type": "unrelated", "word": "FORK", "color": "blue", "correct_response": "b", "trial_id": "stroop-trial-1-unrelated-24", "trial_type": "html-keyboard-response", "trial_index": 34, "time_elapsed": 301524, "internal_node_id": "0.0-4.0-30.0"}}, {"uniqueid": "w77983020:a36575253", "current_trial": 35, "dateTime": 1664464501750, "trialdata": {"rt": 542, "stimulus": "<p id='stroop-text' class='stroop-blue'>BLUE</p>", "response": "b", "stimulus-type": "congruent", "word": "blue", "color": "blue", "correct_response": "b", "trial_id": "stroop-trial-1-congruent-7", "trial_type": "html-keyboard-response", "trial_index": 35, "time_elapsed": 302582, "internal_node_id": "0.0-4.0-31.0"}}, {"uniqueid": "w77983020:a36575253", "current_trial": 36, "dateTime": 1664464503053, "trialdata": {"rt": 794, "stimulus": "<p id='stroop-text' class='stroop-yellow'>RED</p>", "response": "y", "stimulus-type": "incongruent", "word": "red", "color": "yellow", "correct_response": "y", "trial_id": "stroop-trial-1-incongruent-11", "trial_type": "html-keyboard-response", "trial_index": 36, "time_elapsed": 303884, "internal_node_id": "0.0-4.0-32.0"}}, {"uniqueid": "w77983020:a36575253", "current_trial": 37, "dateTime": 1664464504415, "trialdata": {"rt": 855, "stimulus": "<p id='stroop-text' class='stroop-red'>DOG</p>", "response": "r", "stimulus-type": "unrelated", "word": "DOG", "color": "red", "correct_response": "r", "trial_id": "stroop-trial-1-unrelated-5", "trial_type": "html-keyboard-response", "trial_index": 37, "time_elapsed": 305245, "internal_node_id": "0.0-4.0-33.0"}}, {"uniqueid": "w77983020:a36575253", "current_trial": 38, "dateTime": 1664464505918, "trialdata": {"rt": 997, "stimulus": "<p id='stroop-text' class='stroop-blue'>YELLOW</p>", "response": "b", "stimulus-type": "incongruent", "word": "yellow", "color": "blue", "correct_response": "b", "trial_id": "stroop-trial-1-incongruent-16", "trial_type": "html-keyboard-response", "trial_index": 38, "time_elapsed": 306748, "internal_node_id": "0.0-4.0-34.0"}}, {"uniqueid": "w77983020:a36575253", "current_trial": 39, "dateTime": 1664464508061, "trialdata": {"rt": 1639, "stimulus": "<p id='stroop-text' class='stroop-red'>RED</p>", "response": "r", "stimulus-type": "congruent", "word": "red", "color": "red", "correct_response": "r", "trial_id": "stroop-trial-1-congruent-1", "trial_type": "html-keyboard-response", "trial_index": 39, "time_elapsed": 308892, "internal_node_id": "0.0-4.0-35.0"}}, {"uniqueid": "w77983020:a36575253", "current_trial": 40, "dateTime": 1664464509277, "trialdata": {"rt": 712, "stimulus": "<p id='stroop-text' class='stroop-red'>RED</p>", "response": "r", "stimulus-type": "congruent", "word": "red", "color": "red", "correct_response": "r", "trial_id": "stroop-trial-1-congruent-23", "trial_type": "html-keyboard-response", "trial_index": 40, "time_elapsed": 310109, "internal_node_id": "0.0-4.0-36.0"}}, {"uniqueid": "w77983020:a36575253", "current_trial": 41, "dateTime": 1664464510509, "trialdata": {"rt": 728, "stimulus": "<p id='stroop-text' class='stroop-yellow'>RED</p>", "response": "y", "stimulus-type": "incongruent", "word": "red", "color": "yellow", "correct_response": "y", "trial_id": "stroop-trial-1-incongruent-17", "trial_type": "html-keyboard-response", "trial_index": 41, "time_elapsed": 311340, "internal_node_id": "0.0-4.0-37.0"}}, {"uniqueid": "w77983020:a36575253", "current_trial": 42, "dateTime": 1664464511725, "trialdata": {"rt": 713, "stimulus": "<p id='stroop-text' class='stroop-red'>RED</p>", "response": "r", "stimulus-type": "congruent", "word": "red", "color": "red", "correct_response": "r", "trial_id": "stroop-trial-1-congruent-6", "trial_type": "html-keyboard-response", "trial_index": 42, "time_elapsed": 312556, "internal_node_id": "0.0-4.0-38.0"}}, {"uniqueid": "w77983020:a36575253", "current_trial": 43, "dateTime": 1664464512957, "trialdata": {"rt": 726, "stimulus": "<p id='stroop-text' class='stroop-yellow'>RED</p>", "response": "y", "stimulus-type": "incongruent", "word": "red", "color": "yellow", "correct_response": "y", "trial_id": "stroop-trial-1-incongruent-25", "trial_type": "html-keyboard-response", "trial_index": 43, "time_elapsed": 313789, "internal_node_id": "0.0-4.0-39.0"}}, {"uniqueid": "w77983020:a36575253", "current_trial": 44, "dateTime": 1664464514389, "trialdata": {"rt": 919, "stimulus": "<p id='stroop-text' class='stroop-blue'>GREEN</p>", "response": "b", "stimulus-type": "incongruent", "word": "green", "color": "blue", "correct_response": "b", "trial_id": "stroop-trial-1-incongruent-1", "trial_type": "html-keyboard-response", "trial_index": 44, "time_elapsed": 315220, "internal_node_id": "0.0-4.0-40.0"}}, {"uniqueid": "w77983020:a36575253", "current_trial": 45, "dateTime": 1664464515685, "trialdata": {"rt": 794, "stimulus": "<p id='stroop-text' class='stroop-blue'>BLUE</p>", "response": "b", "stimulus-type": "congruent", "word": "blue", "color": "blue", "correct_response": "b", "trial_id": "stroop-trial-1-congruent-21", "trial_type": "html-keyboard-response", "trial_index": 45, "time_elapsed": 316516, "internal_node_id": "0.0-4.0-41.0"}}, {"uniqueid": "w77983020:a36575253", "current_trial": 46, "dateTime": 1664464516941, "trialdata": {"rt": 753, "stimulus": "<p id='stroop-text' class='stroop-red'>YELLOW</p>", "response": "r", "stimulus-type": "incongruent", "word": "yellow", "color": "red", "correct_response": "r", "trial_id": "stroop-trial-1-incongruent-10", "trial_type": "html-keyboard-response", "trial_index": 46, "time_elapsed": 317772, "internal_node_id": "0.0-4.0-42.0"}}, {"uniqueid": "w77983020:a36575253", "current_trial": 47, "dateTime": 1664464518325, "trialdata": {"rt": 879, "stimulus": "<p id='stroop-text' class='stroop-blue'>GREEN</p>", "response": "b", "stimulus-type": "incongruent", "word": "green", "color": "blue", "correct_response": "b", "trial_id": "stroop-trial-1-incongruent-12", "trial_type": "html-keyboard-response", "trial_index": 47, "time_elapsed": 319157, "internal_node_id": "0.0-4.0-43.0"}}, {"uniqueid": "w77983020:a36575253", "current_trial": 48, "dateTime": 1664464519351, "trialdata": {"rt": 522, "stimulus": "<p id='stroop-text' class='stroop-green'>BOAT</p>", "response": "g", "stimulus-type": "unrelated", "word": "BOAT", "color": "green", "correct_response": "g", "trial_id": "stroop-trial-1-unrelated-29", "trial_type": "html-keyboard-response", "trial_index": 48, "time_elapsed": 320182, "internal_node_id": "0.0-4.0-44.0"}}, {"uniqueid": "w77983020:a36575253", "current_trial": 49, "dateTime": 1664464521285, "trialdata": {"rt": 1431, "stimulus": "<p id='stroop-text' class='stroop-red'>BLUE</p>", "response": "r", "stimulus-type": "incongruent", "word": "blue", "color": "red", "correct_response": "r", "trial_id": "stroop-trial-1-incongruent-15", "trial_type": "html-keyboard-response", "trial_index": 49, "time_elapsed": 322116, "internal_node_id": "0.0-4.0-45.0"}}, {"uniqueid": "w77983020:a36575253", "current_trial": 50, "dateTime": 1664464522661, "trialdata": {"rt": 873, "stimulus": "<p id='stroop-text' class='stroop-red'>CHAIR</p>", "response": "r", "stimulus-type": "unrelated", "word": "CHAIR", "color": "red", "correct_response": "r", "trial_id": "stroop-trial-1-unrelated-4", "trial_type": "html-keyboard-response", "trial_index": 50, "time_elapsed": 323492, "internal_node_id": "0.0-4.0-46.0"}}, {"uniqueid": "w77983020:a36575253", "current_trial": 51, "dateTime": 1664464523957, "trialdata": {"rt": 793, "stimulus": "<p id='stroop-text' class='stroop-red'>RED</p>", "response": "r", "stimulus-type": "congruent", "word": "red", "color": "red", "correct_response": "r", "trial_id": "stroop-trial-1-congruent-28", "trial_type": "html-keyboard-response", "trial_index": 51, "time_elapsed": 324788, "internal_node_id": "0.0-4.0-47.0"}}, {"uniqueid": "w77983020:a36575253", "current_trial": 52, "dateTime": 1664464525085, "trialdata": {"rt": 625, "stimulus": "<p id='stroop-text' class='stroop-red'>BRAIN</p>", "response": "r", "stimulus-type": "unrelated", "word": "BRAIN", "color": "red", "correct_response": "r", "trial_id": "stroop-trial-1-unrelated-28", "trial_type": "html-keyboard-response", "trial_index": 52, "time_elapsed": 325916, "internal_node_id": "0.0-4.0-48.0"}}, {"uniqueid": "w77983020:a36575253", "current_trial": 53, "dateTime": 1664464527285, "trialdata": {"rt": 1697, "stimulus": "<p id='stroop-text' class='stroop-green'>BLUE</p>", "response": "g", "stimulus-type": "incongruent", "word": "blue", "color": "green", "correct_response": "g", "trial_id": "stroop-trial-1-incongruent-22", "trial_type": "html-keyboard-response", "trial_index": 53, "time_elapsed": 328117, "internal_node_id": "0.0-4.0-49.0"}}, {"uniqueid": "w77983020:a36575253", "current_trial": 54, "dateTime": 1664464528357, "trialdata": {"rt": 568, "stimulus": "<p id='stroop-text' class='stroop-green'>GREEN</p>", "response": "g", "stimulus-type": "congruent", "word": "green", "color": "green", "correct_response": "g", "trial_id": "stroop-trial-1-congruent-14", "trial_type": "html-keyboard-response", "trial_index": 54, "time_elapsed": 329189, "internal_node_id": "0.0-4.0-50.0"}}, {"uniqueid": "w77983020:a36575253", "current_trial": 55, "dateTime": 1664464529550, "trialdata": {"rt": 682, "stimulus": "<p id='stroop-text' class='stroop-red'>RED</p>", "response": "r", "stimulus-type": "congruent", "word": "red", "color": "red", "correct_response": "r", "trial_id": "stroop-trial-1-congruent-27", "trial_type": "html-keyboard-response", "trial_index": 55, "time_elapsed": 330382, "internal_node_id": "0.0-4.0-51.0"}}, {"uniqueid": "w77983020:a36575253", "current_trial": 56, "dateTime": 1664464531413, "trialdata": {"rt": 1357, "stimulus": "<p id='stroop-text' class='stroop-green'>YELLOW</p>", "response": "g", "stimulus-type": "incongruent", "word": "yellow", "color": "green", "correct_response": "g", "trial_id": "stroop-trial-1-incongruent-28", "trial_type": "html-keyboard-response", "trial_index": 56, "time_elapsed": 332244, "internal_node_id": "0.0-4.0-52.0"}}, {"uniqueid": "w77983020:a36575253", "current_trial": 57, "dateTime": 1664464532509, "trialdata": {"rt": 590, "stimulus": "<p id='stroop-text' class='stroop-blue'>RED</p>", "response": "b", "stimulus-type": "incongruent", "word": "red", "color": "blue", "correct_response": "b", "trial_id": "stroop-trial-1-incongruent-23", "trial_type": "html-keyboard-response", "trial_index": 57, "time_elapsed": 333341, "internal_node_id": "0.0-4.0-53.0"}}, {"uniqueid": "w77983020:a36575253", "current_trial": 58, "dateTime": 1664464533551, "trialdata": {"rt": 515, "stimulus": "<p id='stroop-text' class='stroop-blue'>BLUE</p>", "response": "b", "stimulus-type": "congruent", "word": "blue", "color": "blue", "correct_response": "b", "trial_id": "stroop-trial-1-congruent-3", "trial_type": "html-keyboard-response", "trial_index": 58, "time_elapsed": 334382, "internal_node_id": "0.0-4.0-54.0"}}, {"uniqueid": "w77983020:a36575253", "current_trial": 59, "dateTime": 1664464535119, "trialdata": {"rt": 1063, "stimulus": "<p id='stroop-text' class='stroop-green'>CHAIR</p>", "response": "g", "stimulus-type": "unrelated", "word": "CHAIR", "color": "green", "correct_response": "g", "trial_id": "stroop-trial-1-unrelated-14", "trial_type": "html-keyboard-response", "trial_index": 59, "time_elapsed": 335950, "internal_node_id": "0.0-4.0-55.0"}}, {"uniqueid": "w77983020:a36575253", "current_trial": 60, "dateTime": 1664464536309, "trialdata": {"rt": 684, "stimulus": "<p id='stroop-text' class='stroop-green'>GREEN</p>", "response": "g", "stimulus-type": "congruent", "word": "green", "color": "green", "correct_response": "g", "trial_id": "stroop-trial-1-congruent-22", "trial_type": "html-keyboard-response", "trial_index": 60, "time_elapsed": 337140, "internal_node_id": "0.0-4.0-56.0"}}, {"uniqueid": "w77983020:a36575253", "current_trial": 61, "dateTime": 1664464537661, "trialdata": {"rt": 849, "stimulus": "<p id='stroop-text' class='stroop-red'>RED</p>", "response": "r", "stimulus-type": "congruent", "word": "red", "color": "red", "correct_response": "r", "trial_id": "stroop-trial-1-congruent-12", "trial_type": "html-keyboard-response", "trial_index": 61, "time_elapsed": 338492, "internal_node_id": "0.0-4.0-57.0"}}, {"uniqueid": "w77983020:a36575253", "current_trial": 62, "dateTime": 1664464538845, "trialdata": {"rt": 681, "stimulus": "<p id='stroop-text' class='stroop-red'>GREEN</p>", "response": "r", "stimulus-type": "incongruent", "word": "green", "color": "red", "correct_response": "r", "trial_id": "stroop-trial-1-incongruent-24", "trial_type": "html-keyboard-response", "trial_index": 62, "time_elapsed": 339677, "internal_node_id": "0.0-4.0-58.0"}}, {"uniqueid": "w77983020:a36575253", "current_trial": 63, "dateTime": 1664464539981, "trialdata": {"rt": 633, "stimulus": "<p id='stroop-text' class='stroop-yellow'>YELLOW</p>", "response": "y", "stimulus-type": "congruent", "word": "yellow", "color": "yellow", "correct_response": "y", "trial_id": "stroop-trial-1-congruent-11", "trial_type": "html-keyboard-response", "trial_index": 63, "time_elapsed": 340812, "internal_node_id": "0.0-4.0-59.0"}}, {"uniqueid": "w77983020:a36575253", "current_trial": 64, "dateTime": 1664464541236, "trialdata": {"rt": 751, "stimulus": "<p id='stroop-text' class='stroop-yellow'>YELLOW</p>", "response": "y", "stimulus-type": "congruent", "word": "yellow", "color": "yellow", "correct_response": "y", "trial_id": "stroop-trial-1-congruent-10", "trial_type": "html-keyboard-response", "trial_index": 64, "time_elapsed": 342068, "internal_node_id": "0.0-4.0-60.0"}}, {"uniqueid": "w77983020:a36575253", "current_trial": 65, "dateTime": 1664464542525, "trialdata": {"rt": 785, "stimulus": "<p id='stroop-text' class='stroop-blue'>DOG</p>", "response": "b", "stimulus-type": "unrelated", "word": "DOG", "color": "blue", "correct_response": "b", "trial_id": "stroop-trial-1-unrelated-10", "trial_type": "html-keyboard-response", "trial_index": 65, "time_elapsed": 343357, "internal_node_id": "0.0-4.0-61.0"}}, {"uniqueid": "w77983020:a36575253", "current_trial": 66, "dateTime": 1664464544189, "trialdata": {"rt": 1160, "stimulus": "<p id='stroop-text' class='stroop-yellow'>YELLOW</p>", "response": "y", "stimulus-type": "congruent", "word": "yellow", "color": "yellow", "correct_response": "y", "trial_id": "stroop-trial-1-congruent-5", "trial_type": "html-keyboard-response", "trial_index": 66, "time_elapsed": 345021, "internal_node_id": "0.0-4.0-62.0"}}, {"uniqueid": "w77983020:a36575253", "current_trial": 67, "dateTime": 1664464546045, "trialdata": {"rt": 1351, "stimulus": "<p id='stroop-text' class='stroop-green'>GREEN</p>", "response": "g", "stimulus-type": "congruent", "word": "green", "color": "green", "correct_response": "g", "trial_id": "stroop-trial-1-congruent-29", "trial_type": "html-keyboard-response", "trial_index": 67, "time_elapsed": 346877, "internal_node_id": "0.0-4.0-63.0"}}, {"uniqueid": "w77983020:a36575253", "current_trial": 68, "dateTime": 1664464547301, "trialdata": {"rt": 751, "stimulus": "<p id='stroop-text' class='stroop-green'>YELLOW</p>", "response": "y", "stimulus-type": "incongruent", "word": "yellow", "color": "green", "correct_response": "g", "trial_id": "stroop-trial-1-incongruent-18", "trial_type": "html-keyboard-response", "trial_index": 68, "time_elapsed": 348132, "internal_node_id": "0.0-4.0-64.0"}}, {"uniqueid": "w77983020:a36575253", "current_trial": 69, "dateTime": 1664464548629, "trialdata": {"rt": 825, "stimulus": "<p id='stroop-text' class='stroop-blue'>BLUE</p>", "response": "b", "stimulus-type": "congruent", "word": "blue", "color": "blue", "correct_response": "b", "trial_id": "stroop-trial-1-congruent-2", "trial_type": "html-keyboard-response", "trial_index": 69, "time_elapsed": 349461, "internal_node_id": "0.0-4.0-65.0"}}, {"uniqueid": "w77983020:a36575253", "current_trial": 70, "dateTime": 1664464550717, "trialdata": {"rt": 1586, "stimulus": "<p id='stroop-text' class='stroop-red'>MONKEY</p>", "response": "r", "stimulus-type": "unrelated", "word": "MONKEY", "color": "red", "correct_response": "r", "trial_id": "stroop-trial-1-unrelated-30", "trial_type": "html-keyboard-response", "trial_index": 70, "time_elapsed": 351549, "internal_node_id": "0.0-4.0-66.0"}}, {"uniqueid": "w77983020:a36575253", "current_trial": 71, "dateTime": 1664464552285, "trialdata": {"rt": 1062, "stimulus": "<p id='stroop-text' class='stroop-green'>GREEN</p>", "response": "g", "stimulus-type": "congruent", "word": "green", "color": "green", "correct_response": "g", "trial_id": "stroop-trial-1-congruent-25", "trial_type": "html-keyboard-response", "trial_index": 71, "time_elapsed": 353117, "internal_node_id": "0.0-4.0-67.0"}}, {"uniqueid": "w77983020:a36575253", "current_trial": 72, "dateTime": 1664464553725, "trialdata": {"rt": 936, "stimulus": "<p id='stroop-text' class='stroop-red'>SHIP</p>", "response": "r", "stimulus-type": "unrelated", "word": "SHIP", "color": "red", "correct_response": "r", "trial_id": "stroop-trial-1-unrelated-20", "trial_type": "html-keyboard-response", "trial_index": 72, "time_elapsed": 354557, "internal_node_id": "0.0-4.0-68.0"}}, {"uniqueid": "w77983020:a36575253", "current_trial": 73, "dateTime": 1664464554973, "trialdata": {"rt": 745, "stimulus": "<p id='stroop-text' class='stroop-red'>BLUE</p>", "response": "r", "stimulus-type": "incongruent", "word": "blue", "color": "red", "correct_response": "r", "trial_id": "stroop-trial-1-incongruent-20", "trial_type": "html-keyboard-response", "trial_index": 73, "time_elapsed": 355805, "internal_node_id": "0.0-4.0-69.0"}}, {"uniqueid": "w77983020:a36575253", "current_trial": 74, "dateTime": 1664464556230, "trialdata": {"rt": 753, "stimulus": "<p id='stroop-text' class='stroop-yellow'>BLUE</p>", "response": "y", "stimulus-type": "incongruent", "word": "blue", "color": "yellow", "correct_response": "y", "trial_id": "stroop-trial-1-incongruent-2", "trial_type": "html-keyboard-response", "trial_index": 74, "time_elapsed": 357061, "internal_node_id": "0.0-4.0-70.0"}}, {"uniqueid": "w77983020:a36575253", "current_trial": 75, "dateTime": 1664464557469, "trialdata": {"rt": 733, "stimulus": "<p id='stroop-text' class='stroop-blue'>BRAIN</p>", "response": "b", "stimulus-type": "unrelated", "word": "BRAIN", "color": "blue", "correct_response": "b", "trial_id": "stroop-trial-1-unrelated-27", "trial_type": "html-keyboard-response", "trial_index": 75, "time_elapsed": 358301, "internal_node_id": "0.0-4.0-71.0"}}, {"uniqueid": "w77983020:a36575253", "current_trial": 76, "dateTime": 1664464558845, "trialdata": {"rt": 872, "stimulus": "<p id='stroop-text' class='stroop-blue'>STONE</p>", "response": "b", "stimulus-type": "unrelated", "word": "STONE", "color": "blue", "correct_response": "b", "trial_id": "stroop-trial-1-unrelated-3", "trial_type": "html-keyboard-response", "trial_index": 76, "time_elapsed": 359676, "internal_node_id": "0.0-4.0-72.0"}}, {"uniqueid": "w77983020:a36575253", "current_trial": 77, "dateTime": 1664464560406, "trialdata": {"rt": 1057, "stimulus": "<p id='stroop-text' class='stroop-red'>RED</p>", "response": "r", "stimulus-type": "congruent", "word": "red", "color": "red", "correct_response": "r", "trial_id": "stroop-trial-1-congruent-30", "trial_type": "html-keyboard-response", "trial_index": 77, "time_elapsed": 361238, "internal_node_id": "0.0-4.0-73.0"}}, {"uniqueid": "w77983020:a36575253", "current_trial": 78, "dateTime": 1664464562093, "trialdata": {"rt": 1183, "stimulus": "<p id='stroop-text' class='stroop-blue'>BLUE</p>", "response": "b", "stimulus-type": "congruent", "word": "blue", "color": "blue", "correct_response": "b", "trial_id": "stroop-trial-1-congruent-24", "trial_type": "html-keyboard-response", "trial_index": 78, "time_elapsed": 362925, "internal_node_id": "0.0-4.0-74.0"}}, {"uniqueid": "w77983020:a36575253", "current_trial": 79, "dateTime": 1664464563438, "trialdata": {"rt": 841, "stimulus": "<p id='stroop-text' class='stroop-yellow'>CHAIR</p>", "response": "y", "stimulus-type": "unrelated", "word": "CHAIR", "color": "yellow", "correct_response": "y", "trial_id": "stroop-trial-1-unrelated-25", "trial_type": "html-keyboard-response", "trial_index": 79, "time_elapsed": 364270, "internal_node_id": "0.0-4.0-75.0"}}, {"uniqueid": "w77983020:a36575253", "current_trial": 80, "dateTime": 1664464564688, "trialdata": {"rt": 741, "stimulus": "<p id='stroop-text' class='stroop-yellow'>YELLOW</p>", "response": "y", "stimulus-type": "congruent", "word": "yellow", "color": "yellow", "correct_response": "y", "trial_id": "stroop-trial-1-congruent-20", "trial_type": "html-keyboard-response", "trial_index": 80, "time_elapsed": 365519, "internal_node_id": "0.0-4.0-76.0"}}, {"uniqueid": "w77983020:a36575253", "current_trial": 81, "dateTime": 1664464566165, "trialdata": {"rt": 974, "stimulus": "<p id='stroop-text' class='stroop-blue'>GREEN</p>", "response": "b", "stimulus-type": "incongruent", "word": "green", "color": "blue", "correct_response": "b", "trial_id": "stroop-trial-1-incongruent-27", "trial_type": "html-keyboard-response", "trial_index": 81, "time_elapsed": 366997, "internal_node_id": "0.0-4.0-77.0"}}, {"uniqueid": "w77983020:a36575253", "current_trial": 82, "dateTime": 1664464567662, "trialdata": {"rt": 990, "stimulus": "<p id='stroop-text' class='stroop-yellow'>GREEN</p>", "response": "y", "stimulus-type": "incongruent", "word": "green", "color": "yellow", "correct_response": "y", "trial_id": "stroop-trial-1-incongruent-19", "trial_type": "html-keyboard-response", "trial_index": 82, "time_elapsed": 368493, "internal_node_id": "0.0-4.0-78.0"}}, {"uniqueid": "w77983020:a36575253", "current_trial": 83, "dateTime": 1664464569271, "trialdata": {"rt": 1106, "stimulus": "<p id='stroop-text' class='stroop-red'>RED</p>", "response": "r", "stimulus-type": "congruent", "word": "red", "color": "red", "correct_response": "r", "trial_id": "stroop-trial-1-congruent-17", "trial_type": "html-keyboard-response", "trial_index": 83, "time_elapsed": 370103, "internal_node_id": "0.0-4.0-79.0"}}, {"uniqueid": "w77983020:a36575253", "current_trial": 84, "dateTime": 1664464570622, "trialdata": {"rt": 846, "stimulus": "<p id='stroop-text' class='stroop-red'>BOTTLE</p>", "response": "r", "stimulus-type": "unrelated", "word": "BOTTLE", "color": "red", "correct_response": "r", "trial_id": "stroop-trial-1-unrelated-22", "trial_type": "html-keyboard-response", "trial_index": 84, "time_elapsed": 371453, "internal_node_id": "0.0-4.0-80.0"}}, {"uniqueid": "w77983020:a36575253", "current_trial": 85, "dateTime": 1664464572429, "trialdata": {"rt": 1302, "stimulus": "<p id='stroop-text' class='stroop-blue'>RED</p>", "response": "b", "stimulus-type": "incongruent", "word": "red", "color": "blue", "correct_response": "b", "trial_id": "stroop-trial-1-incongruent-8", "trial_type": "html-keyboard-response", "trial_index": 85, "time_elapsed": 373261, "internal_node_id": "0.0-4.0-81.0"}}, {"uniqueid": "w77983020:a36575253", "current_trial": 86, "dateTime": 1664464573789, "trialdata": {"rt": 855, "stimulus": "<p id='stroop-text' class='stroop-red'>RED</p>", "response": "r", "stimulus-type": "congruent", "word": "red", "color": "red", "correct_response": "r", "trial_id": "stroop-trial-1-congruent-15", "trial_type": "html-keyboard-response", "trial_index": 86, "time_elapsed": 374621, "internal_node_id": "0.0-4.0-82.0"}}, {"uniqueid": "w77983020:a36575253", "current_trial": 87, "dateTime": 1664464575581, "trialdata": {"rt": 1288, "stimulus": "<p id='stroop-text' class='stroop-green'>GREEN</p>", "response": "g", "stimulus-type": "congruent", "word": "green", "color": "green", "correct_response": "g", "trial_id": "stroop-trial-1-congruent-19", "trial_type": "html-keyboard-response", "trial_index": 87, "time_elapsed": 376413, "internal_node_id": "0.0-4.0-83.0"}}, {"uniqueid": "w77983020:a36575253", "current_trial": 88, "dateTime": 1664464576781, "trialdata": {"rt": 694, "stimulus": "<p id='stroop-text' class='stroop-blue'>RED</p>", "response": "b", "stimulus-type": "incongruent", "word": "red", "color": "blue", "correct_response": "b", "trial_id": "stroop-trial-1-incongruent-9", "trial_type": "html-keyboard-response", "trial_index": 88, "time_elapsed": 377613, "internal_node_id": "0.0-4.0-84.0"}}, {"uniqueid": "w77983020:a36575253", "current_trial": 89, "dateTime": 1664464578254, "trialdata": {"rt": 970, "stimulus": "<p id='stroop-text' class='stroop-green'>BRAIN</p>", "response": "g", "stimulus-type": "unrelated", "word": "BRAIN", "color": "green", "correct_response": "g", "trial_id": "stroop-trial-1-unrelated-2", "trial_type": "html-keyboard-response", "trial_index": 89, "time_elapsed": 379086, "internal_node_id": "0.0-4.0-85.0"}}, {"uniqueid": "w77983020:a36575253", "current_trial": 90, "dateTime": 1664464579405, "trialdata": {"rt": 647, "stimulus": "<p id='stroop-text' class='stroop-green'>GREEN</p>", "response": "g", "stimulus-type": "congruent", "word": "green", "color": "green", "correct_response": "g", "trial_id": "stroop-trial-1-congruent-13", "trial_type": "html-keyboard-response", "trial_index": 90, "time_elapsed": 380237, "internal_node_id": "0.0-4.0-86.0"}}, {"uniqueid": "w77983020:a36575253", "current_trial": 91, "dateTime": 1664464580581, "trialdata": {"rt": 671, "stimulus": "<p id='stroop-text' class='stroop-red'>RED</p>", "response": "r", "stimulus-type": "congruent", "word": "red", "color": "red", "correct_response": "r", "trial_id": "stroop-trial-1-congruent-8", "trial_type": "html-keyboard-response", "trial_index": 91, "time_elapsed": 381413, "internal_node_id": "0.0-4.0-87.0"}}, {"uniqueid": "w77983020:a36575253", "current_trial": 92, "dateTime": 1664464582029, "trialdata": {"rt": 945, "stimulus": "<p id='stroop-text' class='stroop-yellow'>RED</p>", "response": "y", "stimulus-type": "incongruent", "word": "red", "color": "yellow", "correct_response": "y", "trial_id": "stroop-trial-1-incongruent-6", "trial_type": "html-keyboard-response", "trial_index": 92, "time_elapsed": 382861, "internal_node_id": "0.0-4.0-88.0"}}, {"uniqueid": "w77983020:a36575253", "current_trial": 93, "dateTime": 1664464583197, "trialdata": {"rt": 665, "stimulus": "<p id='stroop-text' class='stroop-yellow'>RED</p>", "response": "y", "stimulus-type": "incongruent", "word": "red", "color": "yellow", "correct_response": "y", "trial_id": "stroop-trial-1-incongruent-3", "trial_type": "html-keyboard-response", "trial_index": 93, "time_elapsed": 384029, "internal_node_id": "0.0-4.0-89.0"}}, {"uniqueid": "w77983020:a36575253", "current_trial": 94, "dateTime": 1664464761173, "trialdata": {"rt": 177470, "stimulus": "  <h1> End of block! </h1>\n\n  You have reached the end of the block 1/5. If you need a short break, feel free to take one now before moving on.\n\n  <br><br>\n  In the next block, you will complete another 90 rounds of this game.\n\n  <br><br>\n  <div style='text-align: center;'>Press <code>space</code> to begin.</div>\n  <br><br>\n<div style='text-align: center;'>(If the experiment doesn't continue, try clicking on the text and then pressing <code>space</code>.)</div>", "response": " ", "trial_id": "stroop_1_ready_2", "trial_type": "html-keyboard-response", "trial_index": 94, "time_elapsed": 562005, "internal_node_id": "0.0-5.0"}}, {"uniqueid": "w77983020:a36575253", "current_trial": 95, "dateTime": 1664464762261, "trialdata": {"rt": 1084, "stimulus": "<p id='stroop-text' class='stroop-yellow'>STONE</p>", "response": "y", "stimulus-type": "unrelated", "word": "STONE", "color": "yellow", "correct_response": "y", "trial_id": "stroop-trial-1-unrelated-20", "trial_type": "html-keyboard-response", "trial_index": 95, "time_elapsed": 563093, "internal_node_id": "0.0-6.0-0.0"}}, {"uniqueid": "w77983020:a36575253", "current_trial": 96, "dateTime": 1664464763973, "trialdata": {"rt": 1208, "stimulus": "<p id='stroop-text' class='stroop-red'>BOTTLE</p>", "response": "r", "stimulus-type": "unrelated", "word": "BOTTLE", "color": "red", "correct_response": "r", "trial_id": "stroop-trial-1-unrelated-28", "trial_type": "html-keyboard-response", "trial_index": 96, "time_elapsed": 564805, "internal_node_id": "0.0-6.0-1.0"}}, {"uniqueid": "w77983020:a36575253", "current_trial": 97, "dateTime": 1664464765293, "trialdata": {"rt": 815, "stimulus": "<p id='stroop-text' class='stroop-yellow'>BRAIN</p>", "response": "y", "stimulus-type": "unrelated", "word": "BRAIN", "color": "yellow", "correct_response": "y", "trial_id": "stroop-trial-1-unrelated-27", "trial_type": "html-keyboard-response", "trial_index": 97, "time_elapsed": 566125, "internal_node_id": "0.0-6.0-2.0"}}, {"uniqueid": "w77983020:a36575253", "current_trial": 98, "dateTime": 1664464766693, "trialdata": {"rt": 896, "stimulus": "<p id='stroop-text' class='stroop-yellow'>GREEN</p>", "response": "y", "stimulus-type": "incongruent", "word": "green", "color": "yellow", "correct_response": "y", "trial_id": "stroop-trial-1-incongruent-27", "trial_type": "html-keyboard-response", "trial_index": 98, "time_elapsed": 567525, "internal_node_id": "0.0-6.0-3.0"}}, {"uniqueid": "w77983020:a36575253", "current_trial": 99, "dateTime": 1664464768414, "trialdata": {"rt": 1217, "stimulus": "<p id='stroop-text' class='stroop-green'>DOG</p>", "response": "g", "stimulus-type": "unrelated", "word": "DOG", "color": "green", "correct_response": "g", "trial_id": "stroop-trial-1-unrelated-2", "trial_type": "html-keyboard-response", "trial_index": 99, "time_elapsed": 569245, "internal_node_id": "0.0-6.0-4.0"}}, {"uniqueid": "w77983020:a36575253", "current_trial": 100, "dateTime": 1664464769573, "trialdata": {"rt": 652, "stimulus": "<p id='stroop-text' class='stroop-red'>YELLOW</p>", "response": "r", "stimulus-type": "incongruent", "word": "yellow", "color": "red", "correct_response": "r", "trial_id": "stroop-trial-1-incongruent-6", "trial_type": "html-keyboard-response", "trial_index": 100, "time_elapsed": 570405, "internal_node_id": "0.0-6.0-5.0"}}, {"uniqueid": "w77983020:a36575253", "current_trial": 101, "dateTime": 1664464770861, "trialdata": {"rt": 784, "stimulus": "<p id='stroop-text' class='stroop-red'>GREEN</p>", "response": "r", "stimulus-type": "incongruent", "word": "green", "color": "red", "correct_response": "r", "trial_id": "stroop-trial-1-incongruent-4", "trial_type": "html-keyboard-response", "trial_index": 101, "time_elapsed": 571693, "internal_node_id": "0.0-6.0-6.0"}}, {"uniqueid": "w77983020:a36575253", "current_trial": 102, "dateTime": 1664464772021, "trialdata": {"rt": 652, "stimulus": "<p id='stroop-text' class='stroop-yellow'>MONKEY</p>", "response": "y", "stimulus-type": "unrelated", "word": "MONKEY", "color": "yellow", "correct_response": "y", "trial_id": "stroop-trial-1-unrelated-22", "trial_type": "html-keyboard-response", "trial_index": 102, "time_elapsed": 572853, "internal_node_id": "0.0-6.0-7.0"}}, {"uniqueid": "w77983020:a36575253", "current_trial": 103, "dateTime": 1664464773261, "trialdata": {"rt": 737, "stimulus": "<p id='stroop-text' class='stroop-green'>GREEN</p>", "response": "g", "stimulus-type": "congruent", "word": "green", "color": "green", "correct_response": "g", "trial_id": "stroop-trial-1-congruent-27", "trial_type": "html-keyboard-response", "trial_index": 103, "time_elapsed": 574093, "internal_node_id": "0.0-6.0-8.0"}}, {"uniqueid": "w77983020:a36575253", "current_trial": 104, "dateTime": 1664464774358, "trialdata": {"rt": 589, "stimulus": "<p id='stroop-text' class='stroop-green'>MONKEY</p>", "response": "g", "stimulus-type": "unrelated", "word": "MONKEY", "color": "green", "correct_response": "g", "trial_id": "stroop-trial-1-unrelated-19", "trial_type": "html-keyboard-response", "trial_index": 104, "time_elapsed": 575189, "internal_node_id": "0.0-6.0-9.0"}}, {"uniqueid": "w77983020:a36575253", "current_trial": 105, "dateTime": 1664464775418, "trialdata": {"rt": 551, "stimulus": "<p id='stroop-text' class='stroop-green'>GREEN</p>", "response": "g", "stimulus-type": "congruent", "word": "green", "color": "green", "correct_response": "g", "trial_id": "stroop-trial-1-congruent-12", "trial_type": "html-keyboard-response", "trial_index": 105, "time_elapsed": 576249, "internal_node_id": "0.0-6.0-10.0"}}, {"uniqueid": "w77983020:a36575253", "current_trial": 106, "dateTime": 1664464776535, "trialdata": {"rt": 612, "stimulus": "<p id='stroop-text' class='stroop-yellow'>YELLOW</p>", "response": "y", "stimulus-type": "congruent", "word": "yellow", "color": "yellow", "correct_response": "y", "trial_id": "stroop-trial-1-congruent-24", "trial_type": "html-keyboard-response", "trial_index": 106, "time_elapsed": 577367, "internal_node_id": "0.0-6.0-11.0"}}, {"uniqueid": "w77983020:a36575253", "current_trial": 107, "dateTime": 1664464777669, "trialdata": {"rt": 629, "stimulus": "<p id='stroop-text' class='stroop-red'>RED</p>", "response": "r", "stimulus-type": "congruent", "word": "red", "color": "red", "correct_response": "r", "trial_id": "stroop-trial-1-congruent-2", "trial_type": "html-keyboard-response", "trial_index": 107, "time_elapsed": 578501, "internal_node_id": "0.0-6.0-12.0"}}, {"uniqueid": "w77983020:a36575253", "current_trial": 108, "dateTime": 1664464778750, "trialdata": {"rt": 576, "stimulus": "<p id='stroop-text' class='stroop-red'>SHIP</p>", "response": "r", "stimulus-type": "unrelated", "word": "SHIP", "color": "red", "correct_response": "r", "trial_id": "stroop-trial-1-unrelated-17", "trial_type": "html-keyboard-response", "trial_index": 108, "time_elapsed": 579581, "internal_node_id": "0.0-6.0-13.0"}}, {"uniqueid": "w77983020:a36575253", "current_trial": 109, "dateTime": 1664464780109, "trialdata": {"rt": 856, "stimulus": "<p id='stroop-text' class='stroop-green'>GREEN</p>", "response": "g", "stimulus-type": "congruent", "word": "green", "color": "green", "correct_response": "g", "trial_id": "stroop-trial-1-congruent-8", "trial_type": "html-keyboard-response", "trial_index": 109, "time_elapsed": 580941, "internal_node_id": "0.0-6.0-14.0"}}, {"uniqueid": "w77983020:a36575253", "current_trial": 110, "dateTime": 1664464781301, "trialdata": {"rt": 683, "stimulus": "<p id='stroop-text' class='stroop-red'>BLUE</p>", "response": "r", "stimulus-type": "incongruent", "word": "blue", "color": "red", "correct_response": "r", "trial_id": "stroop-trial-1-incongruent-24", "trial_type": "html-keyboard-response", "trial_index": 110, "time_elapsed": 582133, "internal_node_id": "0.0-6.0-15.0"}}, {"uniqueid": "w77983020:a36575253", "current_trial": 111, "dateTime": 1664464782318, "trialdata": {"rt": 512, "stimulus": "<p id='stroop-text' class='stroop-red'>RED</p>", "response": "r", "stimulus-type": "congruent", "word": "red", "color": "red", "correct_response": "r", "trial_id": "stroop-trial-1-congruent-3", "trial_type": "html-keyboard-response", "trial_index": 111, "time_elapsed": 583149, "internal_node_id": "0.0-6.0-16.0"}}, {"uniqueid": "w77983020:a36575253", "current_trial": 112, "dateTime": 1664464783285, "trialdata": {"rt": 464, "stimulus": "<p id='stroop-text' class='stroop-red'>SHIP</p>", "response": "r", "stimulus-type": "unrelated", "word": "SHIP", "color": "red", "correct_response": "r", "trial_id": "stroop-trial-1-unrelated-12", "trial_type": "html-keyboard-response", "trial_index": 112, "time_elapsed": 584117, "internal_node_id": "0.0-6.0-17.0"}}, {"uniqueid": "w77983020:a36575253", "current_trial": 113, "dateTime": 1664464784591, "trialdata": {"rt": 802, "stimulus": "<p id='stroop-text' class='stroop-green'>WINDOW</p>", "response": "g", "stimulus-type": "unrelated", "word": "WINDOW", "color": "green", "correct_response": "g", "trial_id": "stroop-trial-1-unrelated-16", "trial_type": "html-keyboard-response", "trial_index": 113, "time_elapsed": 585423, "internal_node_id": "0.0-6.0-18.0"}}, {"uniqueid": "w77983020:a36575253", "current_trial": 114, "dateTime": 1664464785951, "trialdata": {"rt": 853, "stimulus": "<p id='stroop-text' class='stroop-blue'>YELLOW</p>", "response": "b", "stimulus-type": "incongruent", "word": "yellow", "color": "blue", "correct_response": "b", "trial_id": "stroop-trial-1-incongruent-25", "trial_type": "html-keyboard-response", "trial_index": 114, "time_elapsed": 586782, "internal_node_id": "0.0-6.0-19.0"}}, {"uniqueid": "w77983020:a36575253", "current_trial": 115, "dateTime": 1664464787166, "trialdata": {"rt": 707, "stimulus": "<p id='stroop-text' class='stroop-yellow'>YELLOW</p>", "response": "y", "stimulus-type": "congruent", "word": "yellow", "color": "yellow", "correct_response": "y", "trial_id": "stroop-trial-1-congruent-25", "trial_type": "html-keyboard-response", "trial_index": 115, "time_elapsed": 587998, "internal_node_id": "0.0-6.0-20.0"}}, {"uniqueid": "w77983020:a36575253", "current_trial": 116, "dateTime": 1664464788230, "trialdata": {"rt": 559, "stimulus": "<p id='stroop-text' class='stroop-yellow'>YELLOW</p>", "response": "y", "stimulus-type": "congruent", "word": "yellow", "color": "yellow", "correct_response": "y", "trial_id": "stroop-trial-1-congruent-18", "trial_type": "html-keyboard-response", "trial_index": 116, "time_elapsed": 589061, "internal_node_id": "0.0-6.0-21.0"}}, {"uniqueid": "w77983020:a36575253", "current_trial": 117, "dateTime": 1664464789373, "trialdata": {"rt": 638, "stimulus": "<p id='stroop-text' class='stroop-red'>RED</p>", "response": "r", "stimulus-type": "congruent", "word": "red", "color": "red", "correct_response": "r", "trial_id": "stroop-trial-1-congruent-21", "trial_type": "html-keyboard-response", "trial_index": 117, "time_elapsed": 590205, "internal_node_id": "0.0-6.0-22.0"}}, {"uniqueid": "w77983020:a36575253", "current_trial": 118, "dateTime": 1664464790597, "trialdata": {"rt": 721, "stimulus": "<p id='stroop-text' class='stroop-green'>RED</p>", "response": "g", "stimulus-type": "incongruent", "word": "red", "color": "green", "correct_response": "g", "trial_id": "stroop-trial-1-incongruent-13", "trial_type": "html-keyboard-response", "trial_index": 118, "time_elapsed": 591429, "internal_node_id": "0.0-6.0-23.0"}}, {"uniqueid": "w77983020:a36575253", "current_trial": 119, "dateTime": 1664464792086, "trialdata": {"rt": 984, "stimulus": "<p id='stroop-text' class='stroop-yellow'>BLUE</p>", "response": "y", "stimulus-type": "incongruent", "word": "blue", "color": "yellow", "correct_response": "y", "trial_id": "stroop-trial-1-incongruent-22", "trial_type": "html-keyboard-response", "trial_index": 119, "time_elapsed": 592918, "internal_node_id": "0.0-6.0-24.0"}}, {"uniqueid": "w77983020:a36575253", "current_trial": 120, "dateTime": 1664464793510, "trialdata": {"rt": 921, "stimulus": "<p id='stroop-text' class='stroop-green'>GREEN</p>", "response": "g", "stimulus-type": "congruent", "word": "green", "color": "green", "correct_response": "g", "trial_id": "stroop-trial-1-congruent-22", "trial_type": "html-keyboard-response", "trial_index": 120, "time_elapsed": 594341, "internal_node_id": "0.0-6.0-25.0"}}, {"uniqueid": "w77983020:a36575253", "current_trial": 121, "dateTime": 1664464795397, "trialdata": {"rt": 1383, "stimulus": "<p id='stroop-text' class='stroop-yellow'>BRAIN</p>", "response": "y", "stimulus-type": "unrelated", "word": "BRAIN", "color": "yellow", "correct_response": "y", "trial_id": "stroop-trial-1-unrelated-18", "trial_type": "html-keyboard-response", "trial_index": 121, "time_elapsed": 596229, "internal_node_id": "0.0-6.0-26.0"}}, {"uniqueid": "w77983020:a36575253", "current_trial": 122, "dateTime": 1664464796613, "trialdata": {"rt": 712, "stimulus": "<p id='stroop-text' class='stroop-blue'>YELLOW</p>", "response": "b", "stimulus-type": "incongruent", "word": "yellow", "color": "blue", "correct_response": "b", "trial_id": "stroop-trial-1-incongruent-15", "trial_type": "html-keyboard-response", "trial_index": 122, "time_elapsed": 597445, "internal_node_id": "0.0-6.0-27.0"}}, {"uniqueid": "w77983020:a36575253", "current_trial": 123, "dateTime": 1664464797910, "trialdata": {"rt": 790, "stimulus": "<p id='stroop-text' class='stroop-blue'>WINDOW</p>", "response": "b", "stimulus-type": "unrelated", "word": "WINDOW", "color": "blue", "correct_response": "b", "trial_id": "stroop-trial-1-unrelated-26", "trial_type": "html-keyboard-response", "trial_index": 123, "time_elapsed": 598741, "internal_node_id": "0.0-6.0-28.0"}}, {"uniqueid": "w77983020:a36575253", "current_trial": 124, "dateTime": 1664464799014, "trialdata": {"rt": 587, "stimulus": "<p id='stroop-text' class='stroop-blue'>BOTTLE</p>", "response": "b", "stimulus-type": "unrelated", "word": "BOTTLE", "color": "blue", "correct_response": "b", "trial_id": "stroop-trial-1-unrelated-1", "trial_type": "html-keyboard-response", "trial_index": 124, "time_elapsed": 599845, "internal_node_id": "0.0-6.0-29.0"}}, {"uniqueid": "w77983020:a36575253", "current_trial": 125, "dateTime": 1664464799997, "trialdata": {"rt": 478, "stimulus": "<p id='stroop-text' class='stroop-red'>RED</p>", "response": "r", "stimulus-type": "congruent", "word": "red", "color": "red", "correct_response": "r", "trial_id": "stroop-trial-1-congruent-6", "trial_type": "html-keyboard-response", "trial_index": 125, "time_elapsed": 600829, "internal_node_id": "0.0-6.0-30.0"}}, {"uniqueid": "w77983020:a36575253", "current_trial": 126, "dateTime": 1664464801125, "trialdata": {"rt": 621, "stimulus": "<p id='stroop-text' class='stroop-green'>YELLOW</p>", "response": "g", "stimulus-type": "incongruent", "word": "yellow", "color": "green", "correct_response": "g", "trial_id": "stroop-trial-1-incongruent-18", "trial_type": "html-keyboard-response", "trial_index": 126, "time_elapsed": 601957, "internal_node_id": "0.0-6.0-31.0"}}, {"uniqueid": "w77983020:a36575253", "current_trial": 127, "dateTime": 1664464803141, "trialdata": {"rt": 1512, "stimulus": "<p id='stroop-text' class='stroop-red'>BLUE</p>", "response": "r", "stimulus-type": "incongruent", "word": "blue", "color": "red", "correct_response": "r", "trial_id": "stroop-trial-1-incongruent-29", "trial_type": "html-keyboard-response", "trial_index": 127, "time_elapsed": 603973, "internal_node_id": "0.0-6.0-32.0"}}, {"uniqueid": "w77983020:a36575253", "current_trial": 128, "dateTime": 1664464804237, "trialdata": {"rt": 593, "stimulus": "<p id='stroop-text' class='stroop-red'>BRIDGE</p>", "response": "r", "stimulus-type": "unrelated", "word": "BRIDGE", "color": "red", "correct_response": "r", "trial_id": "stroop-trial-1-unrelated-30", "trial_type": "html-keyboard-response", "trial_index": 128, "time_elapsed": 605069, "internal_node_id": "0.0-6.0-33.0"}}, {"uniqueid": "w77983020:a36575253", "current_trial": 129, "dateTime": 1664464805549, "trialdata": {"rt": 806, "stimulus": "<p id='stroop-text' class='stroop-blue'>FORK</p>", "response": "b", "stimulus-type": "unrelated", "word": "FORK", "color": "blue", "correct_response": "b", "trial_id": "stroop-trial-1-unrelated-4", "trial_type": "html-keyboard-response", "trial_index": 129, "time_elapsed": 606381, "internal_node_id": "0.0-6.0-34.0"}}, {"uniqueid": "w77983020:a36575253", "current_trial": 130, "dateTime": 1664464806773, "trialdata": {"rt": 720, "stimulus": "<p id='stroop-text' class='stroop-red'>RED</p>", "response": "r", "stimulus-type": "congruent", "word": "red", "color": "red", "correct_response": "r", "trial_id": "stroop-trial-1-congruent-14", "trial_type": "html-keyboard-response", "trial_index": 130, "time_elapsed": 607605, "internal_node_id": "0.0-6.0-35.0"}}, {"uniqueid": "w77983020:a36575253", "current_trial": 131, "dateTime": 1664464808437, "trialdata": {"rt": 1160, "stimulus": "<p id='stroop-text' class='stroop-blue'>GREEN</p>", "response": "b", "stimulus-type": "incongruent", "word": "green", "color": "blue", "correct_response": "b", "trial_id": "stroop-trial-1-incongruent-5", "trial_type": "html-keyboard-response", "trial_index": 131, "time_elapsed": 609269, "internal_node_id": "0.0-6.0-36.0"}}, {"uniqueid": "w77983020:a36575253", "current_trial": 132, "dateTime": 1664464809949, "trialdata": {"rt": 1009, "stimulus": "<p id='stroop-text' class='stroop-red'>YELLOW</p>", "response": "r", "stimulus-type": "incongruent", "word": "yellow", "color": "red", "correct_response": "r", "trial_id": "stroop-trial-1-incongruent-30", "trial_type": "html-keyboard-response", "trial_index": 132, "time_elapsed": 610781, "internal_node_id": "0.0-6.0-37.0"}}, {"uniqueid": "w77983020:a36575253", "current_trial": 133, "dateTime": 1664464811557, "trialdata": {"rt": 1087, "stimulus": "<p id='stroop-text' class='stroop-green'>CHAIR</p>", "response": "g", "stimulus-type": "unrelated", "word": "CHAIR", "color": "green", "correct_response": "g", "trial_id": "stroop-trial-1-unrelated-7", "trial_type": "html-keyboard-response", "trial_index": 133, "time_elapsed": 612389, "internal_node_id": "0.0-6.0-38.0"}}, {"uniqueid": "w77983020:a36575253", "current_trial": 134, "dateTime": 1664464812718, "trialdata": {"rt": 656, "stimulus": "<p id='stroop-text' class='stroop-yellow'>BLUE</p>", "response": "y", "stimulus-type": "incongruent", "word": "blue", "color": "yellow", "correct_response": "y", "trial_id": "stroop-trial-1-incongruent-19", "trial_type": "html-keyboard-response", "trial_index": 134, "time_elapsed": 613549, "internal_node_id": "0.0-6.0-39.0"}}, {"uniqueid": "w77983020:a36575253", "current_trial": 135, "dateTime": 1664464814470, "trialdata": {"rt": 1248, "stimulus": "<p id='stroop-text' class='stroop-red'>MONKEY</p>", "response": "r", "stimulus-type": "unrelated", "word": "MONKEY", "color": "red", "correct_response": "r", "trial_id": "stroop-trial-1-unrelated-8", "trial_type": "html-keyboard-response", "trial_index": 135, "time_elapsed": 615302, "internal_node_id": "0.0-6.0-40.0"}}, {"uniqueid": "w77983020:a36575253", "current_trial": 136, "dateTime": 1664464816277, "trialdata": {"rt": 1303, "stimulus": "<p id='stroop-text' class='stroop-yellow'>YELLOW</p>", "response": "y", "stimulus-type": "congruent", "word": "yellow", "color": "yellow", "correct_response": "y", "trial_id": "stroop-trial-1-congruent-9", "trial_type": "html-keyboard-response", "trial_index": 136, "time_elapsed": 617109, "internal_node_id": "0.0-6.0-41.0"}}, {"uniqueid": "w77983020:a36575253", "current_trial": 137, "dateTime": 1664464817670, "trialdata": {"rt": 889, "stimulus": "<p id='stroop-text' class='stroop-green'>GREEN</p>", "response": "g", "stimulus-type": "congruent", "word": "green", "color": "green", "correct_response": "g", "trial_id": "stroop-trial-1-congruent-28", "trial_type": "html-keyboard-response", "trial_index": 137, "time_elapsed": 618502, "internal_node_id": "0.0-6.0-42.0"}}, {"uniqueid": "w77983020:a36575253", "current_trial": 138, "dateTime": 1664464819029, "trialdata": {"rt": 855, "stimulus": "<p id='stroop-text' class='stroop-yellow'>BOAT</p>", "response": "y", "stimulus-type": "unrelated", "word": "BOAT", "color": "yellow", "correct_response": "y", "trial_id": "stroop-trial-1-unrelated-14", "trial_type": "html-keyboard-response", "trial_index": 138, "time_elapsed": 619861, "internal_node_id": "0.0-6.0-43.0"}}, {"uniqueid": "w77983020:a36575253", "current_trial": 139, "dateTime": 1664464820389, "trialdata": {"rt": 856, "stimulus": "<p id='stroop-text' class='stroop-green'>GREEN</p>", "response": "g", "stimulus-type": "congruent", "word": "green", "color": "green", "correct_response": "g", "trial_id": "stroop-trial-1-congruent-19", "trial_type": "html-keyboard-response", "trial_index": 139, "time_elapsed": 621221, "internal_node_id": "0.0-6.0-44.0"}}, {"uniqueid": "w77983020:a36575253", "current_trial": 140, "dateTime": 1664464821517, "trialdata": {"rt": 624, "stimulus": "<p id='stroop-text' class='stroop-blue'>BLUE</p>", "response": "b", "stimulus-type": "congruent", "word": "blue", "color": "blue", "correct_response": "b", "trial_id": "stroop-trial-1-congruent-7", "trial_type": "html-keyboard-response", "trial_index": 140, "time_elapsed": 622349, "internal_node_id": "0.0-6.0-45.0"}}, {"uniqueid": "w77983020:a36575253", "current_trial": 141, "dateTime": 1664464822670, "trialdata": {"rt": 645, "stimulus": "<p id='stroop-text' class='stroop-blue'>BLUE</p>", "response": "b", "stimulus-type": "congruent", "word": "blue", "color": "blue", "correct_response": "b", "trial_id": "stroop-trial-1-congruent-17", "trial_type": "html-keyboard-response", "trial_index": 141, "time_elapsed": 623502, "internal_node_id": "0.0-6.0-46.0"}}, {"uniqueid": "w77983020:a36575253", "current_trial": 142, "dateTime": 1664464823797, "trialdata": {"rt": 624, "stimulus": "<p id='stroop-text' class='stroop-green'>SHIP</p>", "response": "r", "stimulus-type": "unrelated", "word": "SHIP", "color": "green", "correct_response": "g", "trial_id": "stroop-trial-1-unrelated-24", "trial_type": "html-keyboard-response", "trial_index": 142, "time_elapsed": 624629, "internal_node_id": "0.0-6.0-47.0"}}, {"uniqueid": "w77983020:a36575253", "current_trial": 143, "dateTime": 1664464825213, "trialdata": {"rt": 910, "stimulus": "<p id='stroop-text' class='stroop-green'>YELLOW</p>", "response": "g", "stimulus-type": "incongruent", "word": "yellow", "color": "green", "correct_response": "g", "trial_id": "stroop-trial-1-incongruent-28", "trial_type": "html-keyboard-response", "trial_index": 143, "time_elapsed": 626045, "internal_node_id": "0.0-6.0-48.0"}}, {"uniqueid": "w77983020:a36575253", "current_trial": 144, "dateTime": 1664464826333, "trialdata": {"rt": 616, "stimulus": "<p id='stroop-text' class='stroop-red'>BOAT</p>", "response": "r", "stimulus-type": "unrelated", "word": "BOAT", "color": "red", "correct_response": "r", "trial_id": "stroop-trial-1-unrelated-13", "trial_type": "html-keyboard-response", "trial_index": 144, "time_elapsed": 627165, "internal_node_id": "0.0-6.0-49.0"}}, {"uniqueid": "w77983020:a36575253", "current_trial": 145, "dateTime": 1664464827421, "trialdata": {"rt": 581, "stimulus": "<p id='stroop-text' class='stroop-red'>RED</p>", "response": "r", "stimulus-type": "congruent", "word": "red", "color": "red", "correct_response": "r", "trial_id": "stroop-trial-1-congruent-1", "trial_type": "html-keyboard-response", "trial_index": 145, "time_elapsed": 628253, "internal_node_id": "0.0-6.0-50.0"}}, {"uniqueid": "w77983020:a36575253", "current_trial": 146, "dateTime": 1664464829189, "trialdata": {"rt": 1263, "stimulus": "<p id='stroop-text' class='stroop-green'>YELLOW</p>", "response": "g", "stimulus-type": "incongruent", "word": "yellow", "color": "green", "correct_response": "g", "trial_id": "stroop-trial-1-incongruent-8", "trial_type": "html-keyboard-response", "trial_index": 146, "time_elapsed": 630021, "internal_node_id": "0.0-6.0-51.0"}}, {"uniqueid": "w77983020:a36575253", "current_trial": 147, "dateTime": 1664464830317, "trialdata": {"rt": 624, "stimulus": "<p id='stroop-text' class='stroop-blue'>GREEN</p>", "response": "b", "stimulus-type": "incongruent", "word": "green", "color": "blue", "correct_response": "b", "trial_id": "stroop-trial-1-incongruent-3", "trial_type": "html-keyboard-response", "trial_index": 147, "time_elapsed": 631149, "internal_node_id": "0.0-6.0-52.0"}}, {"uniqueid": "w77983020:a36575253", "current_trial": 148, "dateTime": 1664464833086, "trialdata": {"rt": 2235, "stimulus": "<p id='stroop-text' class='stroop-green'>YELLOW</p>", "response": "g", "stimulus-type": "incongruent", "word": "yellow", "color": "green", "correct_response": "g", "trial_id": "stroop-trial-1-incongruent-21", "trial_type": "html-keyboard-response", "trial_index": 148, "time_elapsed": 633917, "internal_node_id": "0.0-6.0-53.0"}}, {"uniqueid": "w77983020:a36575253", "current_trial": 149, "dateTime": 1664464834309, "trialdata": {"rt": 716, "stimulus": "<p id='stroop-text' class='stroop-blue'>BLUE</p>", "response": "b", "stimulus-type": "congruent", "word": "blue", "color": "blue", "correct_response": "b", "trial_id": "stroop-trial-1-congruent-15", "trial_type": "html-keyboard-response", "trial_index": 149, "time_elapsed": 635141, "internal_node_id": "0.0-6.0-54.0"}}, {"uniqueid": "w77983020:a36575253", "current_trial": 150, "dateTime": 1664464835381, "trialdata": {"rt": 567, "stimulus": "<p id='stroop-text' class='stroop-blue'>BLUE</p>", "response": "b", "stimulus-type": "congruent", "word": "blue", "color": "blue", "correct_response": "b", "trial_id": "stroop-trial-1-congruent-11", "trial_type": "html-keyboard-response", "trial_index": 150, "time_elapsed": 636213, "internal_node_id": "0.0-6.0-55.0"}}, {"uniqueid": "w77983020:a36575253", "current_trial": 151, "dateTime": 1664464836471, "trialdata": {"rt": 583, "stimulus": "<p id='stroop-text' class='stroop-green'>YELLOW</p>", "response": "g", "stimulus-type": "incongruent", "word": "yellow", "color": "green", "correct_response": "g", "trial_id": "stroop-trial-1-incongruent-7", "trial_type": "html-keyboard-response", "trial_index": 151, "time_elapsed": 637301, "internal_node_id": "0.0-6.0-56.0"}}, {"uniqueid": "w77983020:a36575253", "current_trial": 152, "dateTime": 1664464837773, "trialdata": {"rt": 790, "stimulus": "<p id='stroop-text' class='stroop-blue'>BLUE</p>", "response": "b", "stimulus-type": "congruent", "word": "blue", "color": "blue", "correct_response": "b", "trial_id": "stroop-trial-1-congruent-5", "trial_type": "html-keyboard-response", "trial_index": 152, "time_elapsed": 638605, "internal_node_id": "0.0-6.0-57.0"}}, {"uniqueid": "w77983020:a36575253", "current_trial": 153, "dateTime": 1664464839061, "trialdata": {"rt": 784, "stimulus": "<p id='stroop-text' class='stroop-green'>DOG</p>", "response": "g", "stimulus-type": "unrelated", "word": "DOG", "color": "green", "correct_response": "g", "trial_id": "stroop-trial-1-unrelated-29", "trial_type": "html-keyboard-response", "trial_index": 153, "time_elapsed": 639893, "internal_node_id": "0.0-6.0-58.0"}}, {"uniqueid": "w77983020:a36575253", "current_trial": 154, "dateTime": 1664464841254, "trialdata": {"rt": 1687, "stimulus": "<p id='stroop-text' class='stroop-blue'>SHIP</p>", "response": "b", "stimulus-type": "unrelated", "word": "SHIP", "color": "blue", "correct_response": "b", "trial_id": "stroop-trial-1-unrelated-23", "trial_type": "html-keyboard-response", "trial_index": 154, "time_elapsed": 642085, "internal_node_id": "0.0-6.0-59.0"}}, {"uniqueid": "w77983020:a36575253", "current_trial": 155, "dateTime": 1664464842829, "trialdata": {"rt": 1072, "stimulus": "<p id='stroop-text' class='stroop-green'>BOAT</p>", "response": "g", "stimulus-type": "unrelated", "word": "BOAT", "color": "green", "correct_response": "g", "trial_id": "stroop-trial-1-unrelated-5", "trial_type": "html-keyboard-response", "trial_index": 155, "time_elapsed": 643661, "internal_node_id": "0.0-6.0-60.0"}}, {"uniqueid": "w77983020:a36575253", "current_trial": 156, "dateTime": 1664464844013, "trialdata": {"rt": 680, "stimulus": "<p id='stroop-text' class='stroop-blue'>WINDOW</p>", "response": "b", "stimulus-type": "unrelated", "word": "WINDOW", "color": "blue", "correct_response": "b", "trial_id": "stroop-trial-1-unrelated-6", "trial_type": "html-keyboard-response", "trial_index": 156, "time_elapsed": 644845, "internal_node_id": "0.0-6.0-61.0"}}, {"uniqueid": "w77983020:a36575253", "current_trial": 157, "dateTime": 1664464845173, "trialdata": {"rt": 655, "stimulus": "<p id='stroop-text' class='stroop-red'>GREEN</p>", "response": "r", "stimulus-type": "incongruent", "word": "green", "color": "red", "correct_response": "r", "trial_id": "stroop-trial-1-incongruent-14", "trial_type": "html-keyboard-response", "trial_index": 157, "time_elapsed": 646005, "internal_node_id": "0.0-6.0-62.0"}}, {"uniqueid": "w77983020:a36575253", "current_trial": 158, "dateTime": 1664464846646, "trialdata": {"rt": 969, "stimulus": "<p id='stroop-text' class='stroop-green'>BLUE</p>", "response": "g", "stimulus-type": "incongruent", "word": "blue", "color": "green", "correct_response": "g", "trial_id": "stroop-trial-1-incongruent-10", "trial_type": "html-keyboard-response", "trial_index": 158, "time_elapsed": 647477, "internal_node_id": "0.0-6.0-63.0"}}, {"uniqueid": "w77983020:a36575253", "current_trial": 159, "dateTime": 1664464848373, "trialdata": {"rt": 1224, "stimulus": "<p id='stroop-text' class='stroop-red'>CHAIR</p>", "response": "r", "stimulus-type": "unrelated", "word": "CHAIR", "color": "red", "correct_response": "r", "trial_id": "stroop-trial-1-unrelated-21", "trial_type": "html-keyboard-response", "trial_index": 159, "time_elapsed": 649205, "internal_node_id": "0.0-6.0-64.0"}}, {"uniqueid": "w77983020:a36575253", "current_trial": 160, "dateTime": 1664464849757, "trialdata": {"rt": 880, "stimulus": "<p id='stroop-text' class='stroop-blue'>YELLOW</p>", "response": "b", "stimulus-type": "incongruent", "word": "yellow", "color": "blue", "correct_response": "b", "trial_id": "stroop-trial-1-incongruent-12", "trial_type": "html-keyboard-response", "trial_index": 160, "time_elapsed": 650589, "internal_node_id": "0.0-6.0-65.0"}}, {"uniqueid": "w77983020:a36575253", "current_trial": 161, "dateTime": 1664464851749, "trialdata": {"rt": 1487, "stimulus": "<p id='stroop-text' class='stroop-green'>BOTTLE</p>", "response": "g", "stimulus-type": "unrelated", "word": "BOTTLE", "color": "green", "correct_response": "g", "trial_id": "stroop-trial-1-unrelated-15", "trial_type": "html-keyboard-response", "trial_index": 161, "time_elapsed": 652581, "internal_node_id": "0.0-6.0-66.0"}}, {"uniqueid": "w77983020:a36575253", "current_trial": 162, "dateTime": 1664464853125, "trialdata": {"rt": 873, "stimulus": "<p id='stroop-text' class='stroop-green'>MONKEY</p>", "response": "g", "stimulus-type": "unrelated", "word": "MONKEY", "color": "green", "correct_response": "g", "trial_id": "stroop-trial-1-unrelated-10", "trial_type": "html-keyboard-response", "trial_index": 162, "time_elapsed": 653957, "internal_node_id": "0.0-6.0-67.0"}}, {"uniqueid": "w77983020:a36575253", "current_trial": 163, "dateTime": 1664464854469, "trialdata": {"rt": 838, "stimulus": "<p id='stroop-text' class='stroop-red'>RED</p>", "response": "r", "stimulus-type": "congruent", "word": "red", "color": "red", "correct_response": "r", "trial_id": "stroop-trial-1-congruent-29", "trial_type": "html-keyboard-response", "trial_index": 163, "time_elapsed": 655301, "internal_node_id": "0.0-6.0-68.0"}}, {"uniqueid": "w77983020:a36575253", "current_trial": 164, "dateTime": 1664464859053, "trialdata": {"rt": 4075, "stimulus": "<p id='stroop-text' class='stroop-green'>YELLOW</p>", "response": "g", "stimulus-type": "incongruent", "word": "yellow", "color": "green", "correct_response": "g", "trial_id": "stroop-trial-1-incongruent-20", "trial_type": "html-keyboard-response", "trial_index": 164, "time_elapsed": 659885, "internal_node_id": "0.0-6.0-69.0"}}, {"uniqueid": "w77983020:a36575253", "current_trial": 165, "dateTime": 1664464860213, "trialdata": {"rt": 655, "stimulus": "<p id='stroop-text' class='stroop-blue'>BLUE</p>", "response": "b", "stimulus-type": "congruent", "word": "blue", "color": "blue", "correct_response": "b", "trial_id": "stroop-trial-1-congruent-16", "trial_type": "html-keyboard-response", "trial_index": 165, "time_elapsed": 661045, "internal_node_id": "0.0-6.0-70.0"}}, {"uniqueid": "w77983020:a36575253", "current_trial": 166, "dateTime": 1664464861758, "trialdata": {"rt": 1039, "stimulus": "<p id='stroop-text' class='stroop-red'>BOAT</p>", "response": "r", "stimulus-type": "unrelated", "word": "BOAT", "color": "red", "correct_response": "r", "trial_id": "stroop-trial-1-unrelated-11", "trial_type": "html-keyboard-response", "trial_index": 166, "time_elapsed": 662590, "internal_node_id": "0.0-6.0-71.0"}}, {"uniqueid": "w77983020:a36575253", "current_trial": 167, "dateTime": 1664464863333, "trialdata": {"rt": 1069, "stimulus": "<p id='stroop-text' class='stroop-yellow'>BLUE</p>", "response": "y", "stimulus-type": "incongruent", "word": "blue", "color": "yellow", "correct_response": "y", "trial_id": "stroop-trial-1-incongruent-23", "trial_type": "html-keyboard-response", "trial_index": 167, "time_elapsed": 664165, "internal_node_id": "0.0-6.0-72.0"}}, {"uniqueid": "w77983020:a36575253", "current_trial": 168, "dateTime": 1664464864422, "trialdata": {"rt": 580, "stimulus": "<p id='stroop-text' class='stroop-yellow'>WINDOW</p>", "response": "y", "stimulus-type": "unrelated", "word": "WINDOW", "color": "yellow", "correct_response": "y", "trial_id": "stroop-trial-1-unrelated-9", "trial_type": "html-keyboard-response", "trial_index": 168, "time_elapsed": 665253, "internal_node_id": "0.0-6.0-73.0"}}, {"uniqueid": "w77983020:a36575253", "current_trial": 169, "dateTime": 1664464866149, "trialdata": {"rt": 1220, "stimulus": "<p id='stroop-text' class='stroop-blue'>GREEN</p>", "response": "b", "stimulus-type": "incongruent", "word": "green", "color": "blue", "correct_response": "b", "trial_id": "stroop-trial-1-incongruent-26", "trial_type": "html-keyboard-response", "trial_index": 169, "time_elapsed": 666981, "internal_node_id": "0.0-6.0-74.0"}}, {"uniqueid": "w77983020:a36575253", "current_trial": 170, "dateTime": 1664464867437, "trialdata": {"rt": 773, "stimulus": "<p id='stroop-text' class='stroop-yellow'>YELLOW</p>", "response": "y", "stimulus-type": "congruent", "word": "yellow", "color": "yellow", "correct_response": "y", "trial_id": "stroop-trial-1-congruent-10", "trial_type": "html-keyboard-response", "trial_index": 170, "time_elapsed": 668268, "internal_node_id": "0.0-6.0-75.0"}}, {"uniqueid": "w77983020:a36575253", "current_trial": 171, "dateTime": 1664464869093, "trialdata": {"rt": 1151, "stimulus": "<p id='stroop-text' class='stroop-red'>RED</p>", "response": "r", "stimulus-type": "congruent", "word": "red", "color": "red", "correct_response": "r", "trial_id": "stroop-trial-1-congruent-20", "trial_type": "html-keyboard-response", "trial_index": 171, "time_elapsed": 669925, "internal_node_id": "0.0-6.0-76.0"}}, {"uniqueid": "w77983020:a36575253", "current_trial": 172, "dateTime": 1664464870157, "trialdata": {"rt": 558, "stimulus": "<p id='stroop-text' class='stroop-blue'>BLUE</p>", "response": "b", "stimulus-type": "congruent", "word": "blue", "color": "blue", "correct_response": "b", "trial_id": "stroop-trial-1-congruent-13", "trial_type": "html-keyboard-response", "trial_index": 172, "time_elapsed": 670989, "internal_node_id": "0.0-6.0-77.0"}}, {"uniqueid": "w77983020:a36575253", "current_trial": 173, "dateTime": 1664464871341, "trialdata": {"rt": 680, "stimulus": "<p id='stroop-text' class='stroop-yellow'>RED</p>", "response": "y", "stimulus-type": "incongruent", "word": "red", "color": "yellow", "correct_response": "y", "trial_id": "stroop-trial-1-incongruent-2", "trial_type": "html-keyboard-response", "trial_index": 173, "time_elapsed": 672173, "internal_node_id": "0.0-6.0-78.0"}}, {"uniqueid": "w77983020:a36575253", "current_trial": 174, "dateTime": 1664464872533, "trialdata": {"rt": 688, "stimulus": "<p id='stroop-text' class='stroop-red'>YELLOW</p>", "response": "r", "stimulus-type": "incongruent", "word": "yellow", "color": "red", "correct_response": "r", "trial_id": "stroop-trial-1-incongruent-1", "trial_type": "html-keyboard-response", "trial_index": 174, "time_elapsed": 673365, "internal_node_id": "0.0-6.0-79.0"}}, {"uniqueid": "w77983020:a36575253", "current_trial": 175, "dateTime": 1664464875133, "trialdata": {"rt": 2097, "stimulus": "<p id='stroop-text' class='stroop-red'>GREEN</p>", "response": "r", "stimulus-type": "incongruent", "word": "green", "color": "red", "correct_response": "r", "trial_id": "stroop-trial-1-incongruent-9", "trial_type": "html-keyboard-response", "trial_index": 175, "time_elapsed": 675965, "internal_node_id": "0.0-6.0-80.0"}}, {"uniqueid": "w77983020:a36575253", "current_trial": 176, "dateTime": 1664464876917, "trialdata": {"rt": 1280, "stimulus": "<p id='stroop-text' class='stroop-green'>GREEN</p>", "response": "g", "stimulus-type": "congruent", "word": "green", "color": "green", "correct_response": "g", "trial_id": "stroop-trial-1-congruent-30", "trial_type": "html-keyboard-response", "trial_index": 176, "time_elapsed": 677748, "internal_node_id": "0.0-6.0-81.0"}}, {"uniqueid": "w77983020:a36575253", "current_trial": 177, "dateTime": 1664464878157, "trialdata": {"rt": 736, "stimulus": "<p id='stroop-text' class='stroop-red'>RED</p>", "response": "r", "stimulus-type": "congruent", "word": "red", "color": "red", "correct_response": "r", "trial_id": "stroop-trial-1-congruent-23", "trial_type": "html-keyboard-response", "trial_index": 177, "time_elapsed": 678989, "internal_node_id": "0.0-6.0-82.0"}}, {"uniqueid": "w77983020:a36575253", "current_trial": 178, "dateTime": 1664464879901, "trialdata": {"rt": 1239, "stimulus": "<p id='stroop-text' class='stroop-green'>BRIDGE</p>", "response": "g", "stimulus-type": "unrelated", "word": "BRIDGE", "color": "green", "correct_response": "g", "trial_id": "stroop-trial-1-unrelated-3", "trial_type": "html-keyboard-response", "trial_index": 178, "time_elapsed": 680733, "internal_node_id": "0.0-6.0-83.0"}}, {"uniqueid": "w77983020:a36575253", "current_trial": 179, "dateTime": 1664464881797, "trialdata": {"rt": 1389, "stimulus": "<p id='stroop-text' class='stroop-blue'>YELLOW</p>", "response": "b", "stimulus-type": "incongruent", "word": "yellow", "color": "blue", "correct_response": "b", "trial_id": "stroop-trial-1-incongruent-17", "trial_type": "html-keyboard-response", "trial_index": 179, "time_elapsed": 682628, "internal_node_id": "0.0-6.0-84.0"}}, {"uniqueid": "w77983020:a36575253", "current_trial": 180, "dateTime": 1664464883389, "trialdata": {"rt": 1088, "stimulus": "<p id='stroop-text' class='stroop-green'>BLUE</p>", "response": "g", "stimulus-type": "incongruent", "word": "blue", "color": "green", "correct_response": "g", "trial_id": "stroop-trial-1-incongruent-16", "trial_type": "html-keyboard-response", "trial_index": 180, "time_elapsed": 684221, "internal_node_id": "0.0-6.0-85.0"}}, {"uniqueid": "w77983020:a36575253", "current_trial": 181, "dateTime": 1664464884542, "trialdata": {"rt": 645, "stimulus": "<p id='stroop-text' class='stroop-red'>RED</p>", "response": "r", "stimulus-type": "congruent", "word": "red", "color": "red", "correct_response": "r", "trial_id": "stroop-trial-1-congruent-26", "trial_type": "html-keyboard-response", "trial_index": 181, "time_elapsed": 685374, "internal_node_id": "0.0-6.0-86.0"}}, {"uniqueid": "w77983020:a36575253", "current_trial": 182, "dateTime": 1664464885701, "trialdata": {"rt": 655, "stimulus": "<p id='stroop-text' class='stroop-blue'>SHIP</p>", "response": "b", "stimulus-type": "unrelated", "word": "SHIP", "color": "blue", "correct_response": "b", "trial_id": "stroop-trial-1-unrelated-25", "trial_type": "html-keyboard-response", "trial_index": 182, "time_elapsed": 686533, "internal_node_id": "0.0-6.0-87.0"}}, {"uniqueid": "w77983020:a36575253", "current_trial": 183, "dateTime": 1664464886942, "trialdata": {"rt": 733, "stimulus": "<p id='stroop-text' class='stroop-red'>RED</p>", "response": "r", "stimulus-type": "congruent", "word": "red", "color": "red", "correct_response": "r", "trial_id": "stroop-trial-1-congruent-4", "trial_type": "html-keyboard-response", "trial_index": 183, "time_elapsed": 687773, "internal_node_id": "0.0-6.0-88.0"}}, {"uniqueid": "w77983020:a36575253", "current_trial": 184, "dateTime": 1664464888053, "trialdata": {"rt": 607, "stimulus": "<p id='stroop-text' class='stroop-red'>GREEN</p>", "response": "r", "stimulus-type": "incongruent", "word": "green", "color": "red", "correct_response": "r", "trial_id": "stroop-trial-1-incongruent-11", "trial_type": "html-keyboard-response", "trial_index": 184, "time_elapsed": 688884, "internal_node_id": "0.0-6.0-89.0"}}, {"uniqueid": "w77983020:a36575253", "current_trial": 185, "dateTime": 1664464905525, "trialdata": {"rt": 16966, "stimulus": "  <h1> End of block! </h1>\n\n  You have reached the end of the block 2/5. If you need a short break, feel free to take one now before moving on.\n\n  <br><br>\n  In the next block, you will complete another 90 rounds of this game.\n\n  <br><br>\n  <div style='text-align: center;'>Press <code>space</code> to begin.</div>\n  <br><br>\n<div style='text-align: center;'>(If the experiment doesn't continue, try clicking on the text and then pressing <code>space</code>.)</div>", "response": " ", "trial_id": "stroop_1_ready_3", "trial_type": "html-keyboard-response", "trial_index": 185, "time_elapsed": 706357, "internal_node_id": "0.0-7.0"}}, {"uniqueid": "w77983020:a36575253", "current_trial": 186, "dateTime": 1664464907037, "trialdata": {"rt": 1507, "stimulus": "<p id='stroop-text' class='stroop-blue'>BRAIN</p>", "response": "b", "stimulus-type": "unrelated", "word": "BRAIN", "color": "blue", "correct_response": "b", "trial_id": "stroop-trial-1-unrelated-13", "trial_type": "html-keyboard-response", "trial_index": 186, "time_elapsed": 707868, "internal_node_id": "0.0-8.0-0.0"}}, {"uniqueid": "w77983020:a36575253", "current_trial": 187, "dateTime": 1664464909110, "trialdata": {"rt": 1567, "stimulus": "<p id='stroop-text' class='stroop-green'>CHAIR</p>", "response": "g", "stimulus-type": "unrelated", "word": "CHAIR", "color": "green", "correct_response": "g", "trial_id": "stroop-trial-1-unrelated-16", "trial_type": "html-keyboard-response", "trial_index": 187, "time_elapsed": 709941, "internal_node_id": "0.0-8.0-1.0"}}, {"uniqueid": "w77983020:a36575253", "current_trial": 188, "dateTime": 1664464910678, "trialdata": {"rt": 1064, "stimulus": "<p id='stroop-text' class='stroop-yellow'>YELLOW</p>", "response": "y", "stimulus-type": "congruent", "word": "yellow", "color": "yellow", "correct_response": "y", "trial_id": "stroop-trial-1-congruent-6", "trial_type": "html-keyboard-response", "trial_index": 188, "time_elapsed": 711509, "internal_node_id": "0.0-8.0-2.0"}}, {"uniqueid": "w77983020:a36575253", "current_trial": 189, "dateTime": 1664464912821, "trialdata": {"rt": 1639, "stimulus": "<p id='stroop-text' class='stroop-green'>WINDOW</p>", "response": "g", "stimulus-type": "unrelated", "word": "WINDOW", "color": "green", "correct_response": "g", "trial_id": "stroop-trial-1-unrelated-23", "trial_type": "html-keyboard-response", "trial_index": 189, "time_elapsed": 713653, "internal_node_id": "0.0-8.0-3.0"}}, {"uniqueid": "w77983020:a36575253", "current_trial": 190, "dateTime": 1664464913845, "trialdata": {"rt": 520, "stimulus": "<p id='stroop-text' class='stroop-green'>GREEN</p>", "response": "g", "stimulus-type": "congruent", "word": "green", "color": "green", "correct_response": "g", "trial_id": "stroop-trial-1-congruent-13", "trial_type": "html-keyboard-response", "trial_index": 190, "time_elapsed": 714677, "internal_node_id": "0.0-8.0-4.0"}}, {"uniqueid": "w77983020:a36575253", "current_trial": 191, "dateTime": 1664464915037, "trialdata": {"rt": 686, "stimulus": "<p id='stroop-text' class='stroop-green'>RED</p>", "response": "g", "stimulus-type": "incongruent", "word": "red", "color": "green", "correct_response": "g", "trial_id": "stroop-trial-1-incongruent-9", "trial_type": "html-keyboard-response", "trial_index": 191, "time_elapsed": 715869, "internal_node_id": "0.0-8.0-5.0"}}, {"uniqueid": "w77983020:a36575253", "current_trial": 192, "dateTime": 1664464916310, "trialdata": {"rt": 767, "stimulus": "<p id='stroop-text' class='stroop-red'>BLUE</p>", "response": "r", "stimulus-type": "incongruent", "word": "blue", "color": "red", "correct_response": "r", "trial_id": "stroop-trial-1-incongruent-10", "trial_type": "html-keyboard-response", "trial_index": 192, "time_elapsed": 717142, "internal_node_id": "0.0-8.0-6.0"}}, {"uniqueid": "w77983020:a36575253", "current_trial": 193, "dateTime": 1664464918661, "trialdata": {"rt": 1846, "stimulus": "<p id='stroop-text' class='stroop-green'>BRIDGE</p>", "response": "b", "stimulus-type": "unrelated", "word": "BRIDGE", "color": "green", "correct_response": "g", "trial_id": "stroop-trial-1-unrelated-6", "trial_type": "html-keyboard-response", "trial_index": 193, "time_elapsed": 719492, "internal_node_id": "0.0-8.0-7.0"}}, {"uniqueid": "w77983020:a36575253", "current_trial": 194, "dateTime": 1664464920469, "trialdata": {"rt": 1304, "stimulus": "<p id='stroop-text' class='stroop-green'>BLUE</p>", "response": "g", "stimulus-type": "incongruent", "word": "blue", "color": "green", "correct_response": "g", "trial_id": "stroop-trial-1-incongruent-24", "trial_type": "html-keyboard-response", "trial_index": 194, "time_elapsed": 721301, "internal_node_id": "0.0-8.0-8.0"}}, {"uniqueid": "w77983020:a36575253", "current_trial": 195, "dateTime": 1664464922101, "trialdata": {"rt": 1128, "stimulus": "<p id='stroop-text' class='stroop-blue'>WINDOW</p>", "response": "b", "stimulus-type": "unrelated", "word": "WINDOW", "color": "blue", "correct_response": "b", "trial_id": "stroop-trial-1-unrelated-5", "trial_type": "html-keyboard-response", "trial_index": 195, "time_elapsed": 722933, "internal_node_id": "0.0-8.0-9.0"}}, {"uniqueid": "w77983020:a36575253", "current_trial": 196, "dateTime": 1664464923317, "trialdata": {"rt": 705, "stimulus": "<p id='stroop-text' class='stroop-yellow'>GREEN</p>", "response": "y", "stimulus-type": "incongruent", "word": "green", "color": "yellow", "correct_response": "y", "trial_id": "stroop-trial-1-incongruent-21", "trial_type": "html-keyboard-response", "trial_index": 196, "time_elapsed": 724149, "internal_node_id": "0.0-8.0-10.0"}}, {"uniqueid": "w77983020:a36575253", "current_trial": 197, "dateTime": 1664464924821, "trialdata": {"rt": 999, "stimulus": "<p id='stroop-text' class='stroop-blue'>BLUE</p>", "response": "b", "stimulus-type": "congruent", "word": "blue", "color": "blue", "correct_response": "b", "trial_id": "stroop-trial-1-congruent-9", "trial_type": "html-keyboard-response", "trial_index": 197, "time_elapsed": 725653, "internal_node_id": "0.0-8.0-11.0"}}, {"uniqueid": "w77983020:a36575253", "current_trial": 198, "dateTime": 1664464927526, "trialdata": {"rt": 2201, "stimulus": "<p id='stroop-text' class='stroop-green'>CHAIR</p>", "response": "g", "stimulus-type": "unrelated", "word": "CHAIR", "color": "green", "correct_response": "g", "trial_id": "stroop-trial-1-unrelated-2", "trial_type": "html-keyboard-response", "trial_index": 198, "time_elapsed": 728358, "internal_node_id": "0.0-8.0-12.0"}}, {"uniqueid": "w77983020:a36575253", "current_trial": 199, "dateTime": 1664464928717, "trialdata": {"rt": 686, "stimulus": "<p id='stroop-text' class='stroop-blue'>BLUE</p>", "response": "b", "stimulus-type": "congruent", "word": "blue", "color": "blue", "correct_response": "b", "trial_id": "stroop-trial-1-congruent-27", "trial_type": "html-keyboard-response", "trial_index": 199, "time_elapsed": 729549, "internal_node_id": "0.0-8.0-13.0"}}, {"uniqueid": "w77983020:a36575253", "current_trial": 200, "dateTime": 1664464930326, "trialdata": {"rt": 1102, "stimulus": "<p id='stroop-text' class='stroop-yellow'>SHIP</p>", "response": "y", "stimulus-type": "unrelated", "word": "SHIP", "color": "yellow", "correct_response": "y", "trial_id": "stroop-trial-1-unrelated-15", "trial_type": "html-keyboard-response", "trial_index": 200, "time_elapsed": 731158, "internal_node_id": "0.0-8.0-14.0"}}, {"uniqueid": "w77983020:a36575253", "current_trial": 201, "dateTime": 1664464932389, "trialdata": {"rt": 1559, "stimulus": "<p id='stroop-text' class='stroop-green'>FORK</p>", "response": "g", "stimulus-type": "unrelated", "word": "FORK", "color": "green", "correct_response": "g", "trial_id": "stroop-trial-1-unrelated-3", "trial_type": "html-keyboard-response", "trial_index": 201, "time_elapsed": 733221, "internal_node_id": "0.0-8.0-15.0"}}, {"uniqueid": "w77983020:a36575253", "current_trial": 202, "dateTime": 1664464933479, "trialdata": {"rt": 578, "stimulus": "<p id='stroop-text' class='stroop-green'>SHIP</p>", "response": "g", "stimulus-type": "unrelated", "word": "SHIP", "color": "green", "correct_response": "g", "trial_id": "stroop-trial-1-unrelated-20", "trial_type": "html-keyboard-response", "trial_index": 202, "time_elapsed": 734310, "internal_node_id": "0.0-8.0-16.0"}}, {"uniqueid": "w77983020:a36575253", "current_trial": 203, "dateTime": 1664464934679, "trialdata": {"rt": 695, "stimulus": "<p id='stroop-text' class='stroop-blue'>FORK</p>", "response": "b", "stimulus-type": "unrelated", "word": "FORK", "color": "blue", "correct_response": "b", "trial_id": "stroop-trial-1-unrelated-30", "trial_type": "html-keyboard-response", "trial_index": 203, "time_elapsed": 735510, "internal_node_id": "0.0-8.0-17.0"}}, {"uniqueid": "w77983020:a36575253", "current_trial": 204, "dateTime": 1664464935701, "trialdata": {"rt": 518, "stimulus": "<p id='stroop-text' class='stroop-blue'>BLUE</p>", "response": "b", "stimulus-type": "congruent", "word": "blue", "color": "blue", "correct_response": "b", "trial_id": "stroop-trial-1-congruent-25", "trial_type": "html-keyboard-response", "trial_index": 204, "time_elapsed": 736533, "internal_node_id": "0.0-8.0-18.0"}}, {"uniqueid": "w77983020:a36575253", "current_trial": 205, "dateTime": 1664464936773, "trialdata": {"rt": 568, "stimulus": "<p id='stroop-text' class='stroop-yellow'>FORK</p>", "response": "y", "stimulus-type": "unrelated", "word": "FORK", "color": "yellow", "correct_response": "y", "trial_id": "stroop-trial-1-unrelated-22", "trial_type": "html-keyboard-response", "trial_index": 205, "time_elapsed": 737605, "internal_node_id": "0.0-8.0-19.0"}}, {"uniqueid": "w77983020:a36575253", "current_trial": 206, "dateTime": 1664464938206, "trialdata": {"rt": 925, "stimulus": "<p id='stroop-text' class='stroop-green'>GREEN</p>", "response": "g", "stimulus-type": "congruent", "word": "green", "color": "green", "correct_response": "g", "trial_id": "stroop-trial-1-congruent-7", "trial_type": "html-keyboard-response", "trial_index": 206, "time_elapsed": 739037, "internal_node_id": "0.0-8.0-20.0"}}, {"uniqueid": "w77983020:a36575253", "current_trial": 207, "dateTime": 1664464939893, "trialdata": {"rt": 1182, "stimulus": "<p id='stroop-text' class='stroop-green'>FORK</p>", "response": "g", "stimulus-type": "unrelated", "word": "FORK", "color": "green", "correct_response": "g", "trial_id": "stroop-trial-1-unrelated-4", "trial_type": "html-keyboard-response", "trial_index": 207, "time_elapsed": 740725, "internal_node_id": "0.0-8.0-21.0"}}, {"uniqueid": "w77983020:a36575253", "current_trial": 208, "dateTime": 1664464940861, "trialdata": {"rt": 462, "stimulus": "<p id='stroop-text' class='stroop-green'>YELLOW</p>", "response": "g", "stimulus-type": "incongruent", "word": "yellow", "color": "green", "correct_response": "g", "trial_id": "stroop-trial-1-incongruent-29", "trial_type": "html-keyboard-response", "trial_index": 208, "time_elapsed": 741693, "internal_node_id": "0.0-8.0-22.0"}}, {"uniqueid": "w77983020:a36575253", "current_trial": 209, "dateTime": 1664464941974, "trialdata": {"rt": 608, "stimulus": "<p id='stroop-text' class='stroop-red'>RED</p>", "response": "r", "stimulus-type": "congruent", "word": "red", "color": "red", "correct_response": "r", "trial_id": "stroop-trial-1-congruent-1", "trial_type": "html-keyboard-response", "trial_index": 209, "time_elapsed": 742805, "internal_node_id": "0.0-8.0-23.0"}}, {"uniqueid": "w77983020:a36575253", "current_trial": 210, "dateTime": 1664464943069, "trialdata": {"rt": 589, "stimulus": "<p id='stroop-text' class='stroop-blue'>BRAIN</p>", "response": "b", "stimulus-type": "unrelated", "word": "BRAIN", "color": "blue", "correct_response": "b", "trial_id": "stroop-trial-1-unrelated-12", "trial_type": "html-keyboard-response", "trial_index": 210, "time_elapsed": 743901, "internal_node_id": "0.0-8.0-24.0"}}, {"uniqueid": "w77983020:a36575253", "current_trial": 211, "dateTime": 1664464944261, "trialdata": {"rt": 687, "stimulus": "<p id='stroop-text' class='stroop-green'>BOTTLE</p>", "response": "g", "stimulus-type": "unrelated", "word": "BOTTLE", "color": "green", "correct_response": "g", "trial_id": "stroop-trial-1-unrelated-21", "trial_type": "html-keyboard-response", "trial_index": 211, "time_elapsed": 745093, "internal_node_id": "0.0-8.0-25.0"}}, {"uniqueid": "w77983020:a36575253", "current_trial": 212, "dateTime": 1664464945933, "trialdata": {"rt": 1167, "stimulus": "<p id='stroop-text' class='stroop-blue'>DOG</p>", "response": "b", "stimulus-type": "unrelated", "word": "DOG", "color": "blue", "correct_response": "b", "trial_id": "stroop-trial-1-unrelated-26", "trial_type": "html-keyboard-response", "trial_index": 212, "time_elapsed": 746765, "internal_node_id": "0.0-8.0-26.0"}}, {"uniqueid": "w77983020:a36575253", "current_trial": 213, "dateTime": 1664464948941, "trialdata": {"rt": 2504, "stimulus": "<p id='stroop-text' class='stroop-green'>YELLOW</p>", "response": "g", "stimulus-type": "incongruent", "word": "yellow", "color": "green", "correct_response": "g", "trial_id": "stroop-trial-1-incongruent-2", "trial_type": "html-keyboard-response", "trial_index": 213, "time_elapsed": 749773, "internal_node_id": "0.0-8.0-27.0"}}, {"uniqueid": "w77983020:a36575253", "current_trial": 214, "dateTime": 1664464950373, "trialdata": {"rt": 926, "stimulus": "<p id='stroop-text' class='stroop-yellow'>YELLOW</p>", "response": "y", "stimulus-type": "congruent", "word": "yellow", "color": "yellow", "correct_response": "y", "trial_id": "stroop-trial-1-congruent-3", "trial_type": "html-keyboard-response", "trial_index": 214, "time_elapsed": 751205, "internal_node_id": "0.0-8.0-28.0"}}, {"uniqueid": "w77983020:a36575253", "current_trial": 215, "dateTime": 1664464951917, "trialdata": {"rt": 1037, "stimulus": "<p id='stroop-text' class='stroop-blue'>BLUE</p>", "response": "b", "stimulus-type": "congruent", "word": "blue", "color": "blue", "correct_response": "b", "trial_id": "stroop-trial-1-congruent-30", "trial_type": "html-keyboard-response", "trial_index": 215, "time_elapsed": 752749, "internal_node_id": "0.0-8.0-29.0"}}, {"uniqueid": "w77983020:a36575253", "current_trial": 216, "dateTime": 1664464953837, "trialdata": {"rt": 1414, "stimulus": "<p id='stroop-text' class='stroop-blue'>RED</p>", "response": "b", "stimulus-type": "incongruent", "word": "red", "color": "blue", "correct_response": "b", "trial_id": "stroop-trial-1-incongruent-23", "trial_type": "html-keyboard-response", "trial_index": 216, "time_elapsed": 754669, "internal_node_id": "0.0-8.0-30.0"}}, {"uniqueid": "w77983020:a36575253", "current_trial": 217, "dateTime": 1664464955093, "trialdata": {"rt": 750, "stimulus": "<p id='stroop-text' class='stroop-blue'>BLUE</p>", "response": "b", "stimulus-type": "congruent", "word": "blue", "color": "blue", "correct_response": "b", "trial_id": "stroop-trial-1-congruent-18", "trial_type": "html-keyboard-response", "trial_index": 217, "time_elapsed": 755925, "internal_node_id": "0.0-8.0-31.0"}}, {"uniqueid": "w77983020:a36575253", "current_trial": 218, "dateTime": 1664464956647, "trialdata": {"rt": 1047, "stimulus": "<p id='stroop-text' class='stroop-yellow'>GREEN</p>", "response": "y", "stimulus-type": "incongruent", "word": "green", "color": "yellow", "correct_response": "y", "trial_id": "stroop-trial-1-incongruent-14", "trial_type": "html-keyboard-response", "trial_index": 218, "time_elapsed": 757478, "internal_node_id": "0.0-8.0-32.0"}}, {"uniqueid": "w77983020:a36575253", "current_trial": 219, "dateTime": 1664464957749, "trialdata": {"rt": 598, "stimulus": "<p id='stroop-text' class='stroop-red'>RED</p>", "response": "r", "stimulus-type": "congruent", "word": "red", "color": "red", "correct_response": "r", "trial_id": "stroop-trial-1-congruent-23", "trial_type": "html-keyboard-response", "trial_index": 219, "time_elapsed": 758581, "internal_node_id": "0.0-8.0-33.0"}}, {"uniqueid": "w77983020:a36575253", "current_trial": 220, "dateTime": 1664464959270, "trialdata": {"rt": 1016, "stimulus": "<p id='stroop-text' class='stroop-blue'>YELLOW</p>", "response": "b", "stimulus-type": "incongruent", "word": "yellow", "color": "blue", "correct_response": "b", "trial_id": "stroop-trial-1-incongruent-15", "trial_type": "html-keyboard-response", "trial_index": 220, "time_elapsed": 760101, "internal_node_id": "0.0-8.0-34.0"}}, {"uniqueid": "w77983020:a36575253", "current_trial": 221, "dateTime": 1664464960973, "trialdata": {"rt": 1200, "stimulus": "<p id='stroop-text' class='stroop-red'>WINDOW</p>", "response": "r", "stimulus-type": "unrelated", "word": "WINDOW", "color": "red", "correct_response": "r", "trial_id": "stroop-trial-1-unrelated-24", "trial_type": "html-keyboard-response", "trial_index": 221, "time_elapsed": 761805, "internal_node_id": "0.0-8.0-35.0"}}, {"uniqueid": "w77983020:a36575253", "current_trial": 222, "dateTime": 1664464962397, "trialdata": {"rt": 917, "stimulus": "<p id='stroop-text' class='stroop-blue'>YELLOW</p>", "response": "b", "stimulus-type": "incongruent", "word": "yellow", "color": "blue", "correct_response": "b", "trial_id": "stroop-trial-1-incongruent-20", "trial_type": "html-keyboard-response", "trial_in