{"condition": 0, "counterbalance": 0, "assignmentId": "a36948857", "workerId": "w25757197", "hitId": "h69633725", "currenttrial": 965, "bonus": 0, "data": [{"uniqueid": "w25757197:a36948857", "current_trial": 0, "dateTime": 1664368036575, "trialdata": {"success": true, "trial_type": "fullscreen", "trial_index": 0, "time_elapsed": 11343, "internal_node_id": "0.0-0.0"}}, {"uniqueid": "w25757197:a36948857", "current_trial": 1, "dateTime": 1664368039532, "trialdata": {"view_history": [{"page_index": 0, "viewing_time": 2950}], "rt": 2951, "trial_id": "exp_instructions_distractor", "trial_type": "instructions", "trial_index": 1, "time_elapsed": 14301, "internal_node_id": "0.0-1.0"}}, {"uniqueid": "w25757197:a36948857", "current_trial": 2, "dateTime": 1664368083147, "trialdata": {"view_history": [{"page_index": 0, "viewing_time": 43613}], "rt": 43614, "trial_id": "color_game_instructions", "trial_type": "instructions", "trial_index": 2, "time_elapsed": 57916, "internal_node_id": "0.0-2.0"}}, {"uniqueid": "w25757197:a36948857", "current_trial": 3, "dateTime": 1664368085194, "trialdata": {"rt": 2044, "stimulus": "<h1> Get ready to start the game! </h1>\n\nThank you for reading the instructions. Get ready start with the first of 5 block(s) of this game.\n<br><br>\nIn this first block, you will complete 90 rounds of this game before moving on.\n<br><br>\nRemember, the better you perform, the bigger your bonus will be!\n<br><br>\n<div style='text-align: center;'>Press <code>space</code> to begin.</div>", "response": " ", "trial_id": "stroop_1_ready_1", "trial_type": "html-keyboard-response", "trial_index": 3, "time_elapsed": 59962, "internal_node_id": "0.0-3.0"}}, {"uniqueid": "w25757197:a36948857", "current_trial": 4, "dateTime": 1664368087080, "trialdata": {"rt": 1880, "stimulus": "<p id='stroop-text' class='stroop-yellow'>DOG</p>", "response": "y", "stimulus-type": "unrelated", "word": "DOG", "color": "yellow", "correct_response": "y", "trial_id": "stroop-trial-1-unrelated-10", "trial_type": "html-keyboard-response", "trial_index": 4, "time_elapsed": 61848, "internal_node_id": "0.0-4.0-0.0"}}, {"uniqueid": "w25757197:a36948857", "current_trial": 5, "dateTime": 1664368088452, "trialdata": {"rt": 869, "stimulus": "<p id='stroop-text' class='stroop-green'>RED</p>", "response": "g", "stimulus-type": "incongruent", "word": "red", "color": "green", "correct_response": "g", "trial_id": "stroop-trial-1-incongruent-18", "trial_type": "html-keyboard-response", "trial_index": 5, "time_elapsed": 63220, "internal_node_id": "0.0-4.0-1.0"}}, {"uniqueid": "w25757197:a36948857", "current_trial": 6, "dateTime": 1664368089738, "trialdata": {"rt": 782, "stimulus": "<p id='stroop-text' class='stroop-green'>WINDOW</p>", "response": "g", "stimulus-type": "unrelated", "word": "WINDOW", "color": "green", "correct_response": "g", "trial_id": "stroop-trial-1-unrelated-15", "trial_type": "html-keyboard-response", "trial_index": 6, "time_elapsed": 64507, "internal_node_id": "0.0-4.0-2.0"}}, {"uniqueid": "w25757197:a36948857", "current_trial": 7, "dateTime": 1664368091328, "trialdata": {"rt": 1086, "stimulus": "<p id='stroop-text' class='stroop-green'>BLUE</p>", "response": "g", "stimulus-type": "incongruent", "word": "blue", "color": "green", "correct_response": "g", "trial_id": "stroop-trial-1-incongruent-6", "trial_type": "html-keyboard-response", "trial_index": 7, "time_elapsed": 66096, "internal_node_id": "0.0-4.0-3.0"}}, {"uniqueid": "w25757197:a36948857", "current_trial": 8, "dateTime": 1664368092424, "trialdata": {"rt": 592, "stimulus": "<p id='stroop-text' class='stroop-green'>BOTTLE</p>", "response": "g", "stimulus-type": "unrelated", "word": "BOTTLE", "color": "green", "correct_response": "g", "trial_id": "stroop-trial-1-unrelated-23", "trial_type": "html-keyboard-response", "trial_index": 8, "time_elapsed": 67192, "internal_node_id": "0.0-4.0-4.0"}}, {"uniqueid": "w25757197:a36948857", "current_trial": 9, "dateTime": 1664368094028, "trialdata": {"rt": 1100, "stimulus": "<p id='stroop-text' class='stroop-blue'>CHAIR</p>", "response": "b", "stimulus-type": "unrelated", "word": "CHAIR", "color": "blue", "correct_response": "b", "trial_id": "stroop-trial-1-unrelated-5", "trial_type": "html-keyboard-response", "trial_index": 9, "time_elapsed": 68797, "internal_node_id": "0.0-4.0-5.0"}}, {"uniqueid": "w25757197:a36948857", "current_trial": 10, "dateTime": 1664368095522, "trialdata": {"rt": 990, "stimulus": "<p id='stroop-text' class='stroop-yellow'>GREEN</p>", "response": "y", "stimulus-type": "incongruent", "word": "green", "color": "yellow", "correct_response": "y", "trial_id": "stroop-trial-1-incongruent-14", "trial_type": "html-keyboard-response", "trial_index": 10, "time_elapsed": 70290, "internal_node_id": "0.0-4.0-6.0"}}, {"uniqueid": "w25757197:a36948857", "current_trial": 11, "dateTime": 1664368097278, "trialdata": {"rt": 1252, "stimulus": "<p id='stroop-text' class='stroop-blue'>YELLOW</p>", "response": "b", "stimulus-type": "incongruent", "word": "yellow", "color": "blue", "correct_response": "b", "trial_id": "stroop-trial-1-incongruent-2", "trial_type": "html-keyboard-response", "trial_index": 11, "time_elapsed": 72047, "internal_node_id": "0.0-4.0-7.0"}}, {"uniqueid": "w25757197:a36948857", "current_trial": 12, "dateTime": 1664368099051, "trialdata": {"rt": 1270, "stimulus": "<p id='stroop-text' class='stroop-green'>BLUE</p>", "response": "b", "stimulus-type": "incongruent", "word": "blue", "color": "green", "correct_response": "g", "trial_id": "stroop-trial-1-incongruent-15", "trial_type": "html-keyboard-response", "trial_index": 12, "time_elapsed": 73820, "internal_node_id": "0.0-4.0-8.0"}}, {"uniqueid": "w25757197:a36948857", "current_trial": 13, "dateTime": 1664368102096, "trialdata": {"rt": 2541, "stimulus": "<p id='stroop-text' class='stroop-green'>BLUE</p>", "response": "g", "stimulus-type": "incongruent", "word": "blue", "color": "green", "correct_response": "g", "trial_id": "stroop-trial-1-incongruent-25", "trial_type": "html-keyboard-response", "trial_index": 13, "time_elapsed": 76864, "internal_node_id": "0.0-4.0-9.0"}}, {"uniqueid": "w25757197:a36948857", "current_trial": 14, "dateTime": 1664368103597, "trialdata": {"rt": 997, "stimulus": "<p id='stroop-text' class='stroop-blue'>BLUE</p>", "response": "b", "stimulus-type": "congruent", "word": "blue", "color": "blue", "correct_response": "b", "trial_id": "stroop-trial-1-congruent-18", "trial_type": "html-keyboard-response", "trial_index": 14, "time_elapsed": 78365, "internal_node_id": "0.0-4.0-10.0"}}, {"uniqueid": "w25757197:a36948857", "current_trial": 15, "dateTime": 1664368105307, "trialdata": {"rt": 1207, "stimulus": "<p id='stroop-text' class='stroop-red'>WINDOW</p>", "response": "r", "stimulus-type": "unrelated", "word": "WINDOW", "color": "red", "correct_response": "r", "trial_id": "stroop-trial-1-unrelated-18", "trial_type": "html-keyboard-response", "trial_index": 15, "time_elapsed": 80076, "internal_node_id": "0.0-4.0-11.0"}}, {"uniqueid": "w25757197:a36948857", "current_trial": 16, "dateTime": 1664368106829, "trialdata": {"rt": 1019, "stimulus": "<p id='stroop-text' class='stroop-blue'>YELLOW</p>", "response": "b", "stimulus-type": "incongruent", "word": "yellow", "color": "blue", "correct_response": "b", "trial_id": "stroop-trial-1-incongruent-11", "trial_type": "html-keyboard-response", "trial_index": 16, "time_elapsed": 81597, "internal_node_id": "0.0-4.0-12.0"}}, {"uniqueid": "w25757197:a36948857", "current_trial": 17, "dateTime": 1664368108539, "trialdata": {"rt": 1207, "stimulus": "<p id='stroop-text' class='stroop-green'>GREEN</p>", "response": "g", "stimulus-type": "congruent", "word": "green", "color": "green", "correct_response": "g", "trial_id": "stroop-trial-1-congruent-24", "trial_type": "html-keyboard-response", "trial_index": 17, "time_elapsed": 83307, "internal_node_id": "0.0-4.0-13.0"}}, {"uniqueid": "w25757197:a36948857", "current_trial": 18, "dateTime": 1664368110632, "trialdata": {"rt": 1590, "stimulus": "<p id='stroop-text' class='stroop-blue'>BLUE</p>", "response": "b", "stimulus-type": "congruent", "word": "blue", "color": "blue", "correct_response": "b", "trial_id": "stroop-trial-1-congruent-23", "trial_type": "html-keyboard-response", "trial_index": 18, "time_elapsed": 85400, "internal_node_id": "0.0-4.0-14.0"}}, {"uniqueid": "w25757197:a36948857", "current_trial": 19, "dateTime": 1664368111920, "trialdata": {"rt": 784, "stimulus": "<p id='stroop-text' class='stroop-red'>RED</p>", "response": "r", "stimulus-type": "congruent", "word": "red", "color": "red", "correct_response": "r", "trial_id": "stroop-trial-1-congruent-16", "trial_type": "html-keyboard-response", "trial_index": 19, "time_elapsed": 86688, "internal_node_id": "0.0-4.0-15.0"}}, {"uniqueid": "w25757197:a36948857", "current_trial": 20, "dateTime": 1664368113688, "trialdata": {"rt": 1265, "stimulus": "<p id='stroop-text' class='stroop-green'>MONKEY</p>", "response": "g", "stimulus-type": "unrelated", "word": "MONKEY", "color": "green", "correct_response": "g", "trial_id": "stroop-trial-1-unrelated-25", "trial_type": "html-keyboard-response", "trial_index": 20, "time_elapsed": 88457, "internal_node_id": "0.0-4.0-16.0"}}, {"uniqueid": "w25757197:a36948857", "current_trial": 21, "dateTime": 1664368114887, "trialdata": {"rt": 696, "stimulus": "<p id='stroop-text' class='stroop-yellow'>YELLOW</p>", "response": "y", "stimulus-type": "congruent", "word": "yellow", "color": "yellow", "correct_response": "y", "trial_id": "stroop-trial-1-congruent-15", "trial_type": "html-keyboard-response", "trial_index": 21, "time_elapsed": 89656, "internal_node_id": "0.0-4.0-17.0"}}, {"uniqueid": "w25757197:a36948857", "current_trial": 22, "dateTime": 1664368116214, "trialdata": {"rt": 824, "stimulus": "<p id='stroop-text' class='stroop-yellow'>RED</p>", "response": "y", "stimulus-type": "incongruent", "word": "red", "color": "yellow", "correct_response": "y", "trial_id": "stroop-trial-1-incongruent-12", "trial_type": "html-keyboard-response", "trial_index": 22, "time_elapsed": 90983, "internal_node_id": "0.0-4.0-18.0"}}, {"uniqueid": "w25757197:a36948857", "current_trial": 23, "dateTime": 1664368118671, "trialdata": {"rt": 1953, "stimulus": "<p id='stroop-text' class='stroop-green'>BLUE</p>", "response": "g", "stimulus-type": "incongruent", "word": "blue", "color": "green", "correct_response": "g", "trial_id": "stroop-trial-1-incongruent-27", "trial_type": "html-keyboard-response", "trial_index": 23, "time_elapsed": 93439, "internal_node_id": "0.0-4.0-19.0"}}, {"uniqueid": "w25757197:a36948857", "current_trial": 24, "dateTime": 1664368120064, "trialdata": {"rt": 891, "stimulus": "<p id='stroop-text' class='stroop-blue'>RED</p>", "response": "b", "stimulus-type": "incongruent", "word": "red", "color": "blue", "correct_response": "b", "trial_id": "stroop-trial-1-incongruent-3", "trial_type": "html-keyboard-response", "trial_index": 24, "time_elapsed": 94833, "internal_node_id": "0.0-4.0-20.0"}}, {"uniqueid": "w25757197:a36948857", "current_trial": 25, "dateTime": 1664368122000, "trialdata": {"rt": 1433, "stimulus": "<p id='stroop-text' class='stroop-blue'>BLUE</p>", "response": "b", "stimulus-type": "congruent", "word": "blue", "color": "blue", "correct_response": "b", "trial_id": "stroop-trial-1-congruent-4", "trial_type": "html-keyboard-response", "trial_index": 25, "time_elapsed": 96769, "internal_node_id": "0.0-4.0-21.0"}}, {"uniqueid": "w25757197:a36948857", "current_trial": 26, "dateTime": 1664368123935, "trialdata": {"rt": 1430, "stimulus": "<p id='stroop-text' class='stroop-yellow'>RED</p>", "response": "y", "stimulus-type": "incongruent", "word": "red", "color": "yellow", "correct_response": "y", "trial_id": "stroop-trial-1-incongruent-10", "trial_type": "html-keyboard-response", "trial_index": 26, "time_elapsed": 98703, "internal_node_id": "0.0-4.0-22.0"}}, {"uniqueid": "w25757197:a36948857", "current_trial": 27, "dateTime": 1664368126018, "trialdata": {"rt": 1580, "stimulus": "<p id='stroop-text' class='stroop-red'>DOG</p>", "response": "r", "stimulus-type": "unrelated", "word": "DOG", "color": "red", "correct_response": "r", "trial_id": "stroop-trial-1-unrelated-19", "trial_type": "html-keyboard-response", "trial_index": 27, "time_elapsed": 100786, "internal_node_id": "0.0-4.0-23.0"}}, {"uniqueid": "w25757197:a36948857", "current_trial": 28, "dateTime": 1664368127166, "trialdata": {"rt": 645, "stimulus": "<p id='stroop-text' class='stroop-red'>CHAIR</p>", "response": "r", "stimulus-type": "unrelated", "word": "CHAIR", "color": "red", "correct_response": "r", "trial_id": "stroop-trial-1-unrelated-8", "trial_type": "html-keyboard-response", "trial_index": 28, "time_elapsed": 101934, "internal_node_id": "0.0-4.0-24.0"}}, {"uniqueid": "w25757197:a36948857", "current_trial": 29, "dateTime": 1664368129364, "trialdata": {"rt": 1695, "stimulus": "<p id='stroop-text' class='stroop-blue'>GREEN</p>", "response": "b", "stimulus-type": "incongruent", "word": "green", "color": "blue", "correct_response": "b", "trial_id": "stroop-trial-1-incongruent-5", "trial_type": "html-keyboard-response", "trial_index": 29, "time_elapsed": 104132, "internal_node_id": "0.0-4.0-25.0"}}, {"uniqueid": "w25757197:a36948857", "current_trial": 30, "dateTime": 1664368130501, "trialdata": {"rt": 634, "stimulus": "<p id='stroop-text' class='stroop-green'>BRAIN</p>", "response": "g", "stimulus-type": "unrelated", "word": "BRAIN", "color": "green", "correct_response": "g", "trial_id": "stroop-trial-1-unrelated-30", "trial_type": "html-keyboard-response", "trial_index": 30, "time_elapsed": 105269, "internal_node_id": "0.0-4.0-26.0"}}, {"uniqueid": "w25757197:a36948857", "current_trial": 31, "dateTime": 1664368131780, "trialdata": {"rt": 776, "stimulus": "<p id='stroop-text' class='stroop-blue'>BLUE</p>", "response": "b", "stimulus-type": "congruent", "word": "blue", "color": "blue", "correct_response": "b", "trial_id": "stroop-trial-1-congruent-25", "trial_type": "html-keyboard-response", "trial_index": 31, "time_elapsed": 106548, "internal_node_id": "0.0-4.0-27.0"}}, {"uniqueid": "w25757197:a36948857", "current_trial": 32, "dateTime": 1664368133116, "trialdata": {"rt": 832, "stimulus": "<p id='stroop-text' class='stroop-green'>GREEN</p>", "response": "g", "stimulus-type": "congruent", "word": "green", "color": "green", "correct_response": "g", "trial_id": "stroop-trial-1-congruent-9", "trial_type": "html-keyboard-response", "trial_index": 32, "time_elapsed": 107884, "internal_node_id": "0.0-4.0-28.0"}}, {"uniqueid": "w25757197:a36948857", "current_trial": 33, "dateTime": 1664368134662, "trialdata": {"rt": 1043, "stimulus": "<p id='stroop-text' class='stroop-red'>MONKEY</p>", "response": "r", "stimulus-type": "unrelated", "word": "MONKEY", "color": "red", "correct_response": "r", "trial_id": "stroop-trial-1-unrelated-12", "trial_type": "html-keyboard-response", "trial_index": 33, "time_elapsed": 109431, "internal_node_id": "0.0-4.0-29.0"}}, {"uniqueid": "w25757197:a36948857", "current_trial": 34, "dateTime": 1664368135706, "trialdata": {"rt": 542, "stimulus": "<p id='stroop-text' class='stroop-yellow'>GREEN</p>", "response": "y", "stimulus-type": "incongruent", "word": "green", "color": "yellow", "correct_response": "y", "trial_id": "stroop-trial-1-incongruent-9", "trial_type": "html-keyboard-response", "trial_index": 34, "time_elapsed": 110475, "internal_node_id": "0.0-4.0-30.0"}}, {"uniqueid": "w25757197:a36948857", "current_trial": 35, "dateTime": 1664368137187, "trialdata": {"rt": 978, "stimulus": "<p id='stroop-text' class='stroop-blue'>RED</p>", "response": "b", "stimulus-type": "incongruent", "word": "red", "color": "blue", "correct_response": "b", "trial_id": "stroop-trial-1-incongruent-1", "trial_type": "html-keyboard-response", "trial_index": 35, "time_elapsed": 111955, "internal_node_id": "0.0-4.0-31.0"}}, {"uniqueid": "w25757197:a36948857", "current_trial": 36, "dateTime": 1664368138913, "trialdata": {"rt": 1222, "stimulus": "<p id='stroop-text' class='stroop-red'>MONKEY</p>", "response": "r", "stimulus-type": "unrelated", "word": "MONKEY", "color": "red", "correct_response": "r", "trial_id": "stroop-trial-1-unrelated-9", "trial_type": "html-keyboard-response", "trial_index": 36, "time_elapsed": 113681, "internal_node_id": "0.0-4.0-32.0"}}, {"uniqueid": "w25757197:a36948857", "current_trial": 37, "dateTime": 1664368140284, "trialdata": {"rt": 868, "stimulus": "<p id='stroop-text' class='stroop-blue'>BLUE</p>", "response": "b", "stimulus-type": "congruent", "word": "blue", "color": "blue", "correct_response": "b", "trial_id": "stroop-trial-1-congruent-21", "trial_type": "html-keyboard-response", "trial_index": 37, "time_elapsed": 115052, "internal_node_id": "0.0-4.0-33.0"}}, {"uniqueid": "w25757197:a36948857", "current_trial": 38, "dateTime": 1664368142076, "trialdata": {"rt": 1290, "stimulus": "<p id='stroop-text' class='stroop-red'>CHAIR</p>", "response": "r", "stimulus-type": "unrelated", "word": "CHAIR", "color": "red", "correct_response": "r", "trial_id": "stroop-trial-1-unrelated-26", "trial_type": "html-keyboard-response", "trial_index": 38, "time_elapsed": 116845, "internal_node_id": "0.0-4.0-34.0"}}, {"uniqueid": "w25757197:a36948857", "current_trial": 39, "dateTime": 1664368143443, "trialdata": {"rt": 863, "stimulus": "<p id='stroop-text' class='stroop-green'>BLUE</p>", "response": "g", "stimulus-type": "incongruent", "word": "blue", "color": "green", "correct_response": "g", "trial_id": "stroop-trial-1-incongruent-29", "trial_type": "html-keyboard-response", "trial_index": 39, "time_elapsed": 118212, "internal_node_id": "0.0-4.0-35.0"}}, {"uniqueid": "w25757197:a36948857", "current_trial": 40, "dateTime": 1664368144425, "trialdata": {"rt": 479, "stimulus": "<p id='stroop-text' class='stroop-green'>BLUE</p>", "response": "g", "stimulus-type": "incongruent", "word": "blue", "color": "green", "correct_response": "g", "trial_id": "stroop-trial-1-incongruent-19", "trial_type": "html-keyboard-response", "trial_index": 40, "time_elapsed": 119193, "internal_node_id": "0.0-4.0-36.0"}}, {"uniqueid": "w25757197:a36948857", "current_trial": 41, "dateTime": 1664368145614, "trialdata": {"rt": 685, "stimulus": "<p id='stroop-text' class='stroop-blue'>BLUE</p>", "response": "b", "stimulus-type": "congruent", "word": "blue", "color": "blue", "correct_response": "b", "trial_id": "stroop-trial-1-congruent-26", "trial_type": "html-keyboard-response", "trial_index": 41, "time_elapsed": 120382, "internal_node_id": "0.0-4.0-37.0"}}, {"uniqueid": "w25757197:a36948857", "current_trial": 42, "dateTime": 1664368146473, "trialdata": {"rt": 356, "stimulus": "<p id='stroop-text' class='stroop-blue'>BOTTLE</p>", "response": "b", "stimulus-type": "unrelated", "word": "BOTTLE", "color": "blue", "correct_response": "b", "trial_id": "stroop-trial-1-unrelated-16", "trial_type": "html-keyboard-response", "trial_index": 42, "time_elapsed": 121241, "internal_node_id": "0.0-4.0-38.0"}}, {"uniqueid": "w25757197:a36948857", "current_trial": 43, "dateTime": 1664368148081, "trialdata": {"rt": 1105, "stimulus": "<p id='stroop-text' class='stroop-green'>YELLOW</p>", "response": "g", "stimulus-type": "incongruent", "word": "yellow", "color": "green", "correct_response": "g", "trial_id": "stroop-trial-1-incongruent-22", "trial_type": "html-keyboard-response", "trial_index": 43, "time_elapsed": 122850, "internal_node_id": "0.0-4.0-39.0"}}, {"uniqueid": "w25757197:a36948857", "current_trial": 44, "dateTime": 1664368149556, "trialdata": {"rt": 971, "stimulus": "<p id='stroop-text' class='stroop-yellow'>GREEN</p>", "response": "y", "stimulus-type": "incongruent", "word": "green", "color": "yellow", "correct_response": "y", "trial_id": "stroop-trial-1-incongruent-23", "trial_type": "html-keyboard-response", "trial_index": 44, "time_elapsed": 124324, "internal_node_id": "0.0-4.0-40.0"}}, {"uniqueid": "w25757197:a36948857", "current_trial": 45, "dateTime": 1664368150771, "trialdata": {"rt": 710, "stimulus": "<p id='stroop-text' class='stroop-green'>FORK</p>", "response": "g", "stimulus-type": "unrelated", "word": "FORK", "color": "green", "correct_response": "g", "trial_id": "stroop-trial-1-unrelated-28", "trial_type": "html-keyboard-response", "trial_index": 45, "time_elapsed": 125539, "internal_node_id": "0.0-4.0-41.0"}}, {"uniqueid": "w25757197:a36948857", "current_trial": 46, "dateTime": 1664368152087, "trialdata": {"rt": 812, "stimulus": "<p id='stroop-text' class='stroop-green'>GREEN</p>", "response": "g", "stimulus-type": "congruent", "word": "green", "color": "green", "correct_response": "g", "trial_id": "stroop-trial-1-congruent-12", "trial_type": "html-keyboard-response", "trial_index": 46, "time_elapsed": 126856, "internal_node_id": "0.0-4.0-42.0"}}, {"uniqueid": "w25757197:a36948857", "current_trial": 47, "dateTime": 1664368153434, "trialdata": {"rt": 843, "stimulus": "<p id='stroop-text' class='stroop-red'>BLUE</p>", "response": "r", "stimulus-type": "incongruent", "word": "blue", "color": "red", "correct_response": "r", "trial_id": "stroop-trial-1-incongruent-21", "trial_type": "html-keyboard-response", "trial_index": 47, "time_elapsed": 128203, "internal_node_id": "0.0-4.0-43.0"}}, {"uniqueid": "w25757197:a36948857", "current_trial": 48, "dateTime": 1664368156443, "trialdata": {"rt": 2505, "stimulus": "<p id='stroop-text' class='stroop-green'>GREEN</p>", "response": "g", "stimulus-type": "congruent", "word": "green", "color": "green", "correct_response": "g", "trial_id": "stroop-trial-1-congruent-19", "trial_type": "html-keyboard-response", "trial_index": 48, "time_elapsed": 131211, "internal_node_id": "0.0-4.0-44.0"}}, {"uniqueid": "w25757197:a36948857", "current_trial": 49, "dateTime": 1664368157488, "trialdata": {"rt": 541, "stimulus": "<p id='stroop-text' class='stroop-green'>YELLOW</p>", "response": "g", "stimulus-type": "incongruent", "word": "yellow", "color": "green", "correct_response": "g", "trial_id": "stroop-trial-1-incongruent-8", "trial_type": "html-keyboard-response", "trial_index": 49, "time_elapsed": 132256, "internal_node_id": "0.0-4.0-45.0"}}, {"uniqueid": "w25757197:a36948857", "current_trial": 50, "dateTime": 1664368158715, "trialdata": {"rt": 713, "stimulus": "<p id='stroop-text' class='stroop-blue'>BLUE</p>", "response": "b", "stimulus-type": "congruent", "word": "blue", "color": "blue", "correct_response": "b", "trial_id": "stroop-trial-1-congruent-17", "trial_type": "html-keyboard-response", "trial_index": 50, "time_elapsed": 133483, "internal_node_id": "0.0-4.0-46.0"}}, {"uniqueid": "w25757197:a36948857", "current_trial": 51, "dateTime": 1664368159975, "trialdata": {"rt": 757, "stimulus": "<p id='stroop-text' class='stroop-yellow'>BRIDGE</p>", "response": "y", "stimulus-type": "unrelated", "word": "BRIDGE", "color": "yellow", "correct_response": "y", "trial_id": "stroop-trial-1-unrelated-22", "trial_type": "html-keyboard-response", "trial_index": 51, "time_elapsed": 134744, "internal_node_id": "0.0-4.0-47.0"}}, {"uniqueid": "w25757197:a36948857", "current_trial": 52, "dateTime": 1664368161188, "trialdata": {"rt": 708, "stimulus": "<p id='stroop-text' class='stroop-yellow'>GREEN</p>", "response": "y", "stimulus-type": "incongruent", "word": "green", "color": "yellow", "correct_response": "y", "trial_id": "stroop-trial-1-incongruent-24", "trial_type": "html-keyboard-response", "trial_index": 52, "time_elapsed": 135956, "internal_node_id": "0.0-4.0-48.0"}}, {"uniqueid": "w25757197:a36948857", "current_trial": 53, "dateTime": 1664368163005, "trialdata": {"rt": 1313, "stimulus": "<p id='stroop-text' class='stroop-blue'>BLUE</p>", "response": "b", "stimulus-type": "congruent", "word": "blue", "color": "blue", "correct_response": "b", "trial_id": "stroop-trial-1-congruent-5", "trial_type": "html-keyboard-response", "trial_index": 53, "time_elapsed": 137773, "internal_node_id": "0.0-4.0-49.0"}}, {"uniqueid": "w25757197:a36948857", "current_trial": 54, "dateTime": 1664368164400, "trialdata": {"rt": 890, "stimulus": "<p id='stroop-text' class='stroop-yellow'>YELLOW</p>", "response": "y", "stimulus-type": "congruent", "word": "yellow", "color": "yellow", "correct_response": "y", "trial_id": "stroop-trial-1-congruent-14", "trial_type": "html-keyboard-response", "trial_index": 54, "time_elapsed": 139169, "internal_node_id": "0.0-4.0-50.0"}}, {"uniqueid": "w25757197:a36948857", "current_trial": 55, "dateTime": 1664368166071, "trialdata": {"rt": 1168, "stimulus": "<p id='stroop-text' class='stroop-blue'>BLUE</p>", "response": "b", "stimulus-type": "congruent", "word": "blue", "color": "blue", "correct_response": "b", "trial_id": "stroop-trial-1-congruent-3", "trial_type": "html-keyboard-response", "trial_index": 55, "time_elapsed": 140839, "internal_node_id": "0.0-4.0-51.0"}}, {"uniqueid": "w25757197:a36948857", "current_trial": 56, "dateTime": 1664368167559, "trialdata": {"rt": 984, "stimulus": "<p id='stroop-text' class='stroop-red'>BRAIN</p>", "response": "r", "stimulus-type": "unrelated", "word": "BRAIN", "color": "red", "correct_response": "r", "trial_id": "stroop-trial-1-unrelated-20", "trial_type": "html-keyboard-response", "trial_index": 56, "time_elapsed": 142327, "internal_node_id": "0.0-4.0-52.0"}}, {"uniqueid": "w25757197:a36948857", "current_trial": 57, "dateTime": 1664368168569, "trialdata": {"rt": 506, "stimulus": "<p id='stroop-text' class='stroop-red'>BLUE</p>", "response": "r", "stimulus-type": "incongruent", "word": "blue", "color": "red", "correct_response": "r", "trial_id": "stroop-trial-1-incongruent-4", "trial_type": "html-keyboard-response", "trial_index": 57, "time_elapsed": 143337, "internal_node_id": "0.0-4.0-53.0"}}, {"uniqueid": "w25757197:a36948857", "current_trial": 58, "dateTime": 1664368171264, "trialdata": {"rt": 2191, "stimulus": "<p id='stroop-text' class='stroop-green'>YELLOW</p>", "response": "g", "stimulus-type": "incongruent", "word": "yellow", "color": "green", "correct_response": "g", "trial_id": "stroop-trial-1-incongruent-16", "trial_type": "html-keyboard-response", "trial_index": 58, "time_elapsed": 146033, "internal_node_id": "0.0-4.0-54.0"}}, {"uniqueid": "w25757197:a36948857", "current_trial": 59, "dateTime": 1664368172345, "trialdata": {"rt": 578, "stimulus": "<p id='stroop-text' class='stroop-green'>CHAIR</p>", "response": "g", "stimulus-type": "unrelated", "word": "CHAIR", "color": "green", "correct_response": "g", "trial_id": "stroop-trial-1-unrelated-14", "trial_type": "html-keyboard-response", "trial_index": 59, "time_elapsed": 147114, "internal_node_id": "0.0-4.0-55.0"}}, {"uniqueid": "w25757197:a36948857", "current_trial": 60, "dateTime": 1664368173610, "trialdata": {"rt": 762, "stimulus": "<p id='stroop-text' class='stroop-yellow'>CHAIR</p>", "response": "y", "stimulus-type": "unrelated", "word": "CHAIR", "color": "yellow", "correct_response": "y", "trial_id": "stroop-trial-1-unrelated-6", "trial_type": "html-keyboard-response", "trial_index": 60, "time_elapsed": 148379, "internal_node_id": "0.0-4.0-56.0"}}, {"uniqueid": "w25757197:a36948857", "current_trial": 61, "dateTime": 1664368174997, "trialdata": {"rt": 883, "stimulus": "<p id='stroop-text' class='stroop-red'>BOAT</p>", "response": "r", "stimulus-type": "unrelated", "word": "BOAT", "color": "red", "correct_response": "r", "trial_id": "stroop-trial-1-unrelated-29", "trial_type": "html-keyboard-response", "trial_index": 61, "time_elapsed": 149766, "internal_node_id": "0.0-4.0-57.0"}}, {"uniqueid": "w25757197:a36948857", "current_trial": 62, "dateTime": 1664368176056, "trialdata": {"rt": 554, "stimulus": "<p id='stroop-text' class='stroop-red'>BOAT</p>", "response": "r", "stimulus-type": "unrelated", "word": "BOAT", "color": "red", "correct_response": "r", "trial_id": "stroop-trial-1-unrelated-21", "trial_type": "html-keyboard-response", "trial_index": 62, "time_elapsed": 150825, "internal_node_id": "0.0-4.0-58.0"}}, {"uniqueid": "w25757197:a36948857", "current_trial": 63, "dateTime": 1664368177177, "trialdata": {"rt": 616, "stimulus": "<p id='stroop-text' class='stroop-red'>RED</p>", "response": "r", "stimulus-type": "congruent", "word": "red", "color": "red", "correct_response": "r", "trial_id": "stroop-trial-1-congruent-13", "trial_type": "html-keyboard-response", "trial_index": 63, "time_elapsed": 151945, "internal_node_id": "0.0-4.0-59.0"}}, {"uniqueid": "w25757197:a36948857", "current_trial": 64, "dateTime": 1664368178371, "trialdata": {"rt": 690, "stimulus": "<p id='stroop-text' class='stroop-blue'>RED</p>", "response": "b", "stimulus-type": "incongruent", "word": "red", "color": "blue", "correct_response": "b", "trial_id": "stroop-trial-1-incongruent-28", "trial_type": "html-keyboard-response", "trial_index": 64, "time_elapsed": 153139, "internal_node_id": "0.0-4.0-60.0"}}, {"uniqueid": "w25757197:a36948857", "current_trial": 65, "dateTime": 1664368179649, "trialdata": {"rt": 775, "stimulus": "<p id='stroop-text' class='stroop-yellow'>YELLOW</p>", "response": "y", "stimulus-type": "congruent", "word": "yellow", "color": "yellow", "correct_response": "y", "trial_id": "stroop-trial-1-congruent-8", "trial_type": "html-keyboard-response", "trial_index": 65, "time_elapsed": 154417, "internal_node_id": "0.0-4.0-61.0"}}, {"uniqueid": "w25757197:a36948857", "current_trial": 66, "dateTime": 1664368181088, "trialdata": {"rt": 935, "stimulus": "<p id='stroop-text' class='stroop-yellow'>BRIDGE</p>", "response": "y", "stimulus-type": "unrelated", "word": "BRIDGE", "color": "yellow", "correct_response": "y", "trial_id": "stroop-trial-1-unrelated-11", "trial_type": "html-keyboard-response", "trial_index": 66, "time_elapsed": 155857, "internal_node_id": "0.0-4.0-62.0"}}, {"uniqueid": "w25757197:a36948857", "current_trial": 67, "dateTime": 1664368182546, "trialdata": {"rt": 955, "stimulus": "<p id='stroop-text' class='stroop-red'>YELLOW</p>", "response": "r", "stimulus-type": "incongruent", "word": "yellow", "color": "red", "correct_response": "r", "trial_id": "stroop-trial-1-incongruent-20", "trial_type": "html-keyboard-response", "trial_index": 67, "time_elapsed": 157315, "internal_node_id": "0.0-4.0-63.0"}}, {"uniqueid": "w25757197:a36948857", "current_trial": 68, "dateTime": 1664368183809, "trialdata": {"rt": 760, "stimulus": "<p id='stroop-text' class='stroop-yellow'>YELLOW</p>", "response": "y", "stimulus-type": "congruent", "word": "yellow", "color": "yellow", "correct_response": "y", "trial_id": "stroop-trial-1-congruent-2", "trial_type": "html-keyboard-response", "trial_index": 68, "time_elapsed": 158578, "internal_node_id": "0.0-4.0-64.0"}}, {"uniqueid": "w25757197:a36948857", "current_trial": 69, "dateTime": 1664368185380, "trialdata": {"rt": 1067, "stimulus": "<p id='stroop-text' class='stroop-red'>BRIDGE</p>", "response": "r", "stimulus-type": "unrelated", "word": "BRIDGE", "color": "red", "correct_response": "r", "trial_id": "stroop-trial-1-unrelated-7", "trial_type": "html-keyboard-response", "trial_index": 69, "time_elapsed": 160148, "internal_node_id": "0.0-4.0-65.0"}}, {"uniqueid": "w25757197:a36948857", "current_trial": 70, "dateTime": 1664368186762, "trialdata": {"rt": 879, "stimulus": "<p id='stroop-text' class='stroop-blue'>FORK</p>", "response": "b", "stimulus-type": "unrelated", "word": "FORK", "color": "blue", "correct_response": "b", "trial_id": "stroop-trial-1-unrelated-27", "trial_type": "html-keyboard-response", "trial_index": 70, "time_elapsed": 161530, "internal_node_id": "0.0-4.0-66.0"}}, {"uniqueid": "w25757197:a36948857", "current_trial": 71, "dateTime": 1664368190405, "trialdata": {"rt": 3140, "stimulus": "<p id='stroop-text' class='stroop-blue'>YELLOW</p>", "response": "b", "stimulus-type": "incongruent", "word": "yellow", "color": "blue", "correct_response": "b", "trial_id": "stroop-trial-1-incongruent-7", "trial_type": "html-keyboard-response", "trial_index": 71, "time_elapsed": 165174, "internal_node_id": "0.0-4.0-67.0"}}, {"uniqueid": "w25757197:a36948857", "current_trial": 72, "dateTime": 1664368191474, "trialdata": {"rt": 559, "stimulus": "<p id='stroop-text' class='stroop-blue'>BLUE</p>", "response": "b", "stimulus-type": "congruent", "word": "blue", "color": "blue", "correct_response": "b", "trial_id": "stroop-trial-1-congruent-20", "trial_type": "html-keyboard-response", "trial_index": 72, "time_elapsed": 166243, "internal_node_id": "0.0-4.0-68.0"}}, {"uniqueid": "w25757197:a36948857", "current_trial": 73, "dateTime": 1664368192860, "trialdata": {"rt": 882, "stimulus": "<p id='stroop-text' class='stroop-yellow'>FORK</p>", "response": "y", "stimulus-type": "unrelated", "word": "FORK", "color": "yellow", "correct_response": "y", "trial_id": "stroop-trial-1-unrelated-1", "trial_type": "html-keyboard-response", "trial_index": 73, "time_elapsed": 167628, "internal_node_id": "0.0-4.0-69.0"}}, {"uniqueid": "w25757197:a36948857", "current_trial": 74, "dateTime": 1664368194106, "trialdata": {"rt": 742, "stimulus": "<p id='stroop-text' class='stroop-green'>BLUE</p>", "response": "g", "stimulus-type": "incongruent", "word": "blue", "color": "green", "correct_response": "g", "trial_id": "stroop-trial-1-incongruent-26", "trial_type": "html-keyboard-response", "trial_index": 74, "time_elapsed": 168875, "internal_node_id": "0.0-4.0-70.0"}}, {"uniqueid": "w25757197:a36948857", "current_trial": 75, "dateTime": 1664368195239, "trialdata": {"rt": 629, "stimulus": "<p id='stroop-text' class='stroop-red'>CHAIR</p>", "response": "r", "stimulus-type": "unrelated", "word": "CHAIR", "color": "red", "correct_response": "r", "trial_id": "stroop-trial-1-unrelated-2", "trial_type": "html-keyboard-response", "trial_index": 75, "time_elapsed": 170008, "internal_node_id": "0.0-4.0-71.0"}}, {"uniqueid": "w25757197:a36948857", "current_trial": 76, "dateTime": 1664368198794, "trialdata": {"rt": 3041, "stimulus": "<p id='stroop-text' class='stroop-green'>GREEN</p>", "response": "g", "stimulus-type": "congruent", "word": "green", "color": "green", "correct_response": "g", "trial_id": "stroop-trial-1-congruent-10", "trial_type": "html-keyboard-response", "trial_index": 76, "time_elapsed": 173563, "internal_node_id": "0.0-4.0-72.0"}}, {"uniqueid": "w25757197:a36948857", "current_trial": 77, "dateTime": 1664368200469, "trialdata": {"rt": 1172, "stimulus": "<p id='stroop-text' class='stroop-red'>RED</p>", "response": "r", "stimulus-type": "congruent", "word": "red", "color": "red", "correct_response": "r", "trial_id": "stroop-trial-1-congruent-27", "trial_type": "html-keyboard-response", "trial_index": 77, "time_elapsed": 175238, "internal_node_id": "0.0-4.0-73.0"}}, {"uniqueid": "w25757197:a36948857", "current_trial": 78, "dateTime": 1664368201876, "trialdata": {"rt": 892, "stimulus": "<p id='stroop-text' class='stroop-blue'>BLUE</p>", "response": "b", "stimulus-type": "congruent", "word": "blue", "color": "blue", "correct_response": "b", "trial_id": "stroop-trial-1-congruent-22", "trial_type": "html-keyboard-response", "trial_index": 78, "time_elapsed": 176644, "internal_node_id": "0.0-4.0-74.0"}}, {"uniqueid": "w25757197:a36948857", "current_trial": 79, "dateTime": 1664368203752, "trialdata": {"rt": 1372, "stimulus": "<p id='stroop-text' class='stroop-green'>CHAIR</p>", "response": "g", "stimulus-type": "unrelated", "word": "CHAIR", "color": "green", "correct_response": "g", "trial_id": "stroop-trial-1-unrelated-24", "trial_type": "html-keyboard-response", "trial_index": 79, "time_elapsed": 178521, "internal_node_id": "0.0-4.0-75.0"}}, {"uniqueid": "w25757197:a36948857", "current_trial": 80, "dateTime": 1664368204899, "trialdata": {"rt": 643, "stimulus": "<p id='stroop-text' class='stroop-yellow'>YELLOW</p>", "response": "y", "stimulus-type": "congruent", "word": "yellow", "color": "yellow", "correct_response": "y", "trial_id": "stroop-trial-1-congruent-28", "trial_type": "html-keyboard-response", "trial_index": 80, "time_elapsed": 179667, "internal_node_id": "0.0-4.0-76.0"}}, {"uniqueid": "w25757197:a36948857", "current_trial": 81, "dateTime": 1664368205988, "trialdata": {"rt": 584, "stimulus": "<p id='stroop-text' class='stroop-yellow'>WINDOW</p>", "response": "y", "stimulus-type": "unrelated", "word": "WINDOW", "color": "yellow", "correct_response": "y", "trial_id": "stroop-trial-1-unrelated-3", "trial_type": "html-keyboard-response", "trial_index": 81, "time_elapsed": 180757, "internal_node_id": "0.0-4.0-77.0"}}, {"uniqueid": "w25757197:a36948857", "current_trial": 82, "dateTime": 1664368207020, "trialdata": {"rt": 528, "stimulus": "<p id='stroop-text' class='stroop-red'>RED</p>", "response": "r", "stimulus-type": "congruent", "word": "red", "color": "red", "correct_response": "r", "trial_id": "stroop-trial-1-congruent-30", "trial_type": "html-keyboard-response", "trial_index": 82, "time_elapsed": 181788, "internal_node_id": "0.0-4.0-78.0"}}, {"uniqueid": "w25757197:a36948857", "current_trial": 83, "dateTime": 1664368208189, "trialdata": {"rt": 665, "stimulus": "<p id='stroop-text' class='stroop-green'>WINDOW</p>", "response": "g", "stimulus-type": "unrelated", "word": "WINDOW", "color": "green", "correct_response": "g", "trial_id": "stroop-trial-1-unrelated-13", "trial_type": "html-keyboard-response", "trial_index": 83, "time_elapsed": 182958, "internal_node_id": "0.0-4.0-79.0"}}, {"uniqueid": "w25757197:a36948857", "current_trial": 84, "dateTime": 1664368209181, "trialdata": {"rt": 487, "stimulus": "<p id='stroop-text' class='stroop-blue'>BRIDGE</p>", "response": "b", "stimulus-type": "unrelated", "word": "BRIDGE", "color": "blue", "correct_response": "b", "trial_id": "stroop-trial-1-unrelated-17", "trial_type": "html-keyboard-response", "trial_index": 84, "time_elapsed": 183949, "internal_node_id": "0.0-4.0-80.0"}}, {"uniqueid": "w25757197:a36948857", "current_trial": 85, "dateTime": 1664368210306, "trialdata": {"rt": 621, "stimulus": "<p id='stroop-text' class='stroop-red'>RED</p>", "response": "r", "stimulus-type": "congruent", "word": "red", "color": "red", "correct_response": "r", "trial_id": "stroop-trial-1-congruent-6", "trial_type": "html-keyboard-response", "trial_index": 85, "time_elapsed": 185074, "internal_node_id": "0.0-4.0-81.0"}}, {"uniqueid": "w25757197:a36948857", "current_trial": 86, "dateTime": 1664368212096, "trialdata": {"rt": 1286, "stimulus": "<p id='stroop-text' class='stroop-blue'>BLUE</p>", "response": "b", "stimulus-type": "congruent", "word": "blue", "color": "blue", "correct_response": "b", "trial_id": "stroop-trial-1-congruent-11", "trial_type": "html-keyboard-response", "trial_index": 86, "time_elapsed": 186864, "internal_node_id": "0.0-4.0-82.0"}}, {"uniqueid": "w25757197:a36948857", "current_trial": 87, "dateTime": 1664368213431, "trialdata": {"rt": 830, "stimulus": "<p id='stroop-text' class='stroop-blue'>YELLOW</p>", "response": "b", "stimulus-type": "incongruent", "word": "yellow", "color": "blue", "correct_response": "b", "trial_id": "stroop-trial-1-incongruent-17", "trial_type": "html-keyboard-response", "trial_index": 87, "time_elapsed": 188199, "internal_node_id": "0.0-4.0-83.0"}}, {"uniqueid": "w25757197:a36948857", "current_trial": 88, "dateTime": 1664368214356, "trialdata": {"rt": 421, "stimulus": "<p id='stroop-text' class='stroop-blue'>BLUE</p>", "response": "b", "stimulus-type": "congruent", "word": "blue", "color": "blue", "correct_response": "b", "trial_id": "stroop-trial-1-congruent-1", "trial_type": "html-keyboard-response", "trial_index": 88, "time_elapsed": 189124, "internal_node_id": "0.0-4.0-84.0"}}, {"uniqueid": "w25757197:a36948857", "current_trial": 89, "dateTime": 1664368215402, "trialdata": {"rt": 545, "stimulus": "<p id='stroop-text' class='stroop-green'>GREEN</p>", "response": "g", "stimulus-type": "congruent", "word": "green", "color": "green", "correct_response": "g", "trial_id": "stroop-trial-1-congruent-7", "trial_type": "html-keyboard-response", "trial_index": 89, "time_elapsed": 190171, "internal_node_id": "0.0-4.0-85.0"}}, {"uniqueid": "w25757197:a36948857", "current_trial": 90, "dateTime": 1664368216624, "trialdata": {"rt": 718, "stimulus": "<p id='stroop-text' class='stroop-red'>YELLOW</p>", "response": "r", "stimulus-type": "incongruent", "word": "yellow", "color": "red", "correct_response": "r", "trial_id": "stroop-trial-1-incongruent-13", "trial_type": "html-keyboard-response", "trial_index": 90, "time_elapsed": 191392, "internal_node_id": "0.0-4.0-86.0"}}, {"uniqueid": "w25757197:a36948857", "current_trial": 91, "dateTime": 1664368217695, "trialdata": {"rt": 567, "stimulus": "<p id='stroop-text' class='stroop-blue'>BLUE</p>", "response": "b", "stimulus-type": "congruent", "word": "blue", "color": "blue", "correct_response": "b", "trial_id": "stroop-trial-1-congruent-29", "trial_type": "html-keyboard-response", "trial_index": 91, "time_elapsed": 192463, "internal_node_id": "0.0-4.0-87.0"}}, {"uniqueid": "w25757197:a36948857", "current_trial": 92, "dateTime": 1664368218881, "trialdata": {"rt": 683, "stimulus": "<p id='stroop-text' class='stroop-blue'>DOG</p>", "response": "b", "stimulus-type": "unrelated", "word": "DOG", "color": "blue", "correct_response": "b", "trial_id": "stroop-trial-1-unrelated-4", "trial_type": "html-keyboard-response", "trial_index": 92, "time_elapsed": 193650, "internal_node_id": "0.0-4.0-88.0"}}, {"uniqueid": "w25757197:a36948857", "current_trial": 93, "dateTime": 1664368220443, "trialdata": {"rt": 1057, "stimulus": "<p id='stroop-text' class='stroop-red'>YELLOW</p>", "response": "r", "stimulus-type": "incongruent", "word": "yellow", "color": "red", "correct_response": "r", "trial_id": "stroop-trial-1-incongruent-30", "trial_type": "html-keyboard-response", "trial_index": 93, "time_elapsed": 195212, "internal_node_id": "0.0-4.0-89.0"}}, {"uniqueid": "w25757197:a36948857", "current_trial": 94, "dateTime": 1664368229534, "trialdata": {"rt": 8586, "stimulus": "  <h1> End of block! </h1>\n\n  You have reached the end of the block 1/5. If you need a short break, feel free to take one now before moving on.\n\n  <br><br>\n  In the next block, you will complete another 90 rounds of this game.\n\n  <br><br>\n  <div style='text-align: center;'>Press <code>space</code> to begin.</div>\n  <br><br>\n<div style='text-align: center;'>(If the experiment doesn't continue, try clicking on the text and then pressing <code>space</code>.)</div>", "response": " ", "trial_id": "stroop_1_ready_2", "trial_type": "html-keyboard-response", "trial_index": 94, "time_elapsed": 204303, "internal_node_id": "0.0-5.0"}}, {"uniqueid": "w25757197:a36948857", "current_trial": 95, "dateTime": 1664368232025, "trialdata": {"rt": 2487, "stimulus": "<p id='stroop-text' class='stroop-yellow'>YELLOW</p>", "response": "y", "stimulus-type": "congruent", "word": "yellow", "color": "yellow", "correct_response": "y", "trial_id": "stroop-trial-1-congruent-25", "trial_type": "html-keyboard-response", "trial_index": 95, "time_elapsed": 206794, "internal_node_id": "0.0-6.0-0.0"}}, {"uniqueid": "w25757197:a36948857", "current_trial": 96, "dateTime": 1664368233376, "trialdata": {"rt": 846, "stimulus": "<p id='stroop-text' class='stroop-green'>GREEN</p>", "response": "g", "stimulus-type": "congruent", "word": "green", "color": "green", "correct_response": "g", "trial_id": "stroop-trial-1-congruent-14", "trial_type": "html-keyboard-response", "trial_index": 96, "time_elapsed": 208145, "internal_node_id": "0.0-6.0-1.0"}}, {"uniqueid": "w25757197:a36948857", "current_trial": 97, "dateTime": 1664368234281, "trialdata": {"rt": 401, "stimulus": "<p id='stroop-text' class='stroop-green'>GREEN</p>", "response": "g", "stimulus-type": "congruent", "word": "green", "color": "green", "correct_response": "g", "trial_id": "stroop-trial-1-congruent-29", "trial_type": "html-keyboard-response", "trial_index": 97, "time_elapsed": 209049, "internal_node_id": "0.0-6.0-2.0"}}, {"uniqueid": "w25757197:a36948857", "current_trial": 98, "dateTime": 1664368235457, "trialdata": {"rt": 670, "stimulus": "<p id='stroop-text' class='stroop-blue'>MONKEY</p>", "response": "b", "stimulus-type": "unrelated", "word": "MONKEY", "color": "blue", "correct_response": "b", "trial_id": "stroop-trial-1-unrelated-9", "trial_type": "html-keyboard-response", "trial_index": 98, "time_elapsed": 210226, "internal_node_id": "0.0-6.0-3.0"}}, {"uniqueid": "w25757197:a36948857", "current_trial": 99, "dateTime": 1664368237472, "trialdata": {"rt": 1511, "stimulus": "<p id='stroop-text' class='stroop-blue'>BLUE</p>", "response": "b", "stimulus-type": "congruent", "word": "blue", "color": "blue", "correct_response": "b", "trial_id": "stroop-trial-1-congruent-8", "trial_type": "html-keyboard-response", "trial_index": 99, "time_elapsed": 212241, "internal_node_id": "0.0-6.0-4.0"}}, {"uniqueid": "w25757197:a36948857", "current_trial": 100, "dateTime": 1664368238711, "trialdata": {"rt": 733, "stimulus": "<p id='stroop-text' class='stroop-yellow'>BLUE</p>", "response": "y", "stimulus-type": "incongruent", "word": "blue", "color": "yellow", "correct_response": "y", "trial_id": "stroop-trial-1-incongruent-12", "trial_type": "html-keyboard-response", "trial_index": 100, "time_elapsed": 213479, "internal_node_id": "0.0-6.0-5.0"}}, {"uniqueid": "w25757197:a36948857", "current_trial": 101, "dateTime": 1664368240091, "trialdata": {"rt": 878, "stimulus": "<p id='stroop-text' class='stroop-red'>RED</p>", "response": "r", "stimulus-type": "congruent", "word": "red", "color": "red", "correct_response": "r", "trial_id": "stroop-trial-1-congruent-12", "trial_type": "html-keyboard-response", "trial_index": 101, "time_elapsed": 214860, "internal_node_id": "0.0-6.0-6.0"}}, {"uniqueid": "w25757197:a36948857", "current_trial": 102, "dateTime": 1664368241601, "trialdata": {"rt": 1006, "stimulus": "<p id='stroop-text' class='stroop-blue'>BRIDGE</p>", "response": "b", "stimulus-type": "unrelated", "word": "BRIDGE", "color": "blue", "correct_response": "b", "trial_id": "stroop-trial-1-unrelated-21", "trial_type": "html-keyboard-response", "trial_index": 102, "time_elapsed": 216369, "internal_node_id": "0.0-6.0-7.0"}}, {"uniqueid": "w25757197:a36948857", "current_trial": 103, "dateTime": 1664368242844, "trialdata": {"rt": 738, "stimulus": "<p id='stroop-text' class='stroop-green'>YELLOW</p>", "response": "g", "stimulus-type": "incongruent", "word": "yellow", "color": "green", "correct_response": "g", "trial_id": "stroop-trial-1-incongruent-20", "trial_type": "html-keyboard-response", "trial_index": 103, "time_elapsed": 217612, "internal_node_id": "0.0-6.0-8.0"}}, {"uniqueid": "w25757197:a36948857", "current_trial": 104, "dateTime": 1664368244078, "trialdata": {"rt": 732, "stimulus": "<p id='stroop-text' class='stroop-yellow'>BOAT</p>", "response": "y", "stimulus-type": "unrelated", "word": "BOAT", "color": "yellow", "correct_response": "y", "trial_id": "stroop-trial-1-unrelated-11", "trial_type": "html-keyboard-response", "trial_index": 104, "time_elapsed": 218847, "internal_node_id": "0.0-6.0-9.0"}}, {"uniqueid": "w25757197:a36948857", "current_trial": 105, "dateTime": 1664368245042, "trialdata": {"rt": 458, "stimulus": "<p id='stroop-text' class='stroop-yellow'>YELLOW</p>", "response": "y", "stimulus-type": "congruent", "word": "yellow", "color": "yellow", "correct_response": "y", "trial_id": "stroop-trial-1-congruent-30", "trial_type": "html-keyboard-response", "trial_index": 105, "time_elapsed": 219811, "internal_node_id": "0.0-6.0-10.0"}}, {"uniqueid": "w25757197:a36948857", "current_trial": 106, "dateTime": 1664368246218, "trialdata": {"rt": 672, "stimulus": "<p id='stroop-text' class='stroop-green'>YELLOW</p>", "response": "g", "stimulus-type": "incongruent", "word": "yellow", "color": "green", "correct_response": "g", "trial_id": "stroop-trial-1-incongruent-25", "trial_type": "html-keyboard-response", "trial_index": 106, "time_elapsed": 220987, "internal_node_id": "0.0-6.0-11.0"}}, {"uniqueid": "w25757197:a36948857", "current_trial": 107, "dateTime": 1664368247167, "trialdata": {"rt": 445, "stimulus": "<p id='stroop-text' class='stroop-yellow'>SHIP</p>", "response": "y", "stimulus-type": "unrelated", "word": "SHIP", "color": "yellow", "correct_response": "y", "trial_id": "stroop-trial-1-unrelated-22", "trial_type": "html-keyboard-response", "trial_index": 107, "time_elapsed": 221936, "internal_node_id": "0.0-6.0-12.0"}}, {"uniqueid": "w25757197:a36948857", "current_trial": 108, "dateTime": 1664368248344, "trialdata": {"rt": 672, "stimulus": "<p id='stroop-text' class='stroop-blue'>STONE</p>", "response": "b", "stimulus-type": "unrelated", "word": "STONE", "color": "blue", "correct_response": "b", "trial_id": "stroop-trial-1-unrelated-6", "trial_type": "html-keyboard-response", "trial_index": 108, "time_elapsed": 223112, "internal_node_id": "0.0-6.0-13.0"}}, {"uniqueid": "w25757197:a36948857", "current_trial": 109, "dateTime": 1664368249495, "trialdata": {"rt": 648, "stimulus": "<p id='stroop-text' class='stroop-red'>BLUE</p>", "response": "r", "stimulus-type": "incongruent", "word": "blue", "color": "red", "correct_response": "r", "trial_id": "stroop-trial-1-incongruent-22", "trial_type": "html-keyboard-response", "trial_index": 109, "time_elapsed": 224264, "internal_node_id": "0.0-6.0-14.0"}}, {"uniqueid": "w25757197:a36948857", "current_trial": 110, "dateTime": 1664368252237, "trialdata": {"rt": 2237, "stimulus": "<p id='stroop-text' class='stroop-blue'>BLUE</p>", "response": "b", "stimulus-type": "congruent", "word": "blue", "color": "blue", "correct_response": "b", "trial_id": "stroop-trial-1-congruent-6", "trial_type": "html-keyboard-response", "trial_index": 110, "time_elapsed": 227006, "internal_node_id": "0.0-6.0-15.0"}}, {"uniqueid": "w25757197:a36948857", "current_trial": 111, "dateTime": 1664368253487, "trialdata": {"rt": 746, "stimulus": "<p id='stroop-text' class='stroop-yellow'>BLUE</p>", "response": "y", "stimulus-type": "incongruent", "word": "blue", "color": "yellow", "correct_response": "y", "trial_id": "stroop-trial-1-incongruent-16", "trial_type": "html-keyboard-response", "trial_index": 111, "time_elapsed": 228255, "internal_node_id": "0.0-6.0-16.0"}}, {"uniqueid": "w25757197:a36948857", "current_trial": 112, "dateTime": 1664368254874, "trialdata": {"rt": 883, "stimulus": "<p id='stroop-text' class='stroop-blue'>BLUE</p>", "response": "b", "stimulus-type": "congruent", "word": "blue", "color": "blue", "correct_response": "b", "trial_id": "stroop-trial-1-congruent-24", "trial_type": "html-keyboard-response", "trial_index": 112, "time_elapsed": 229643, "internal_node_id": "0.0-6.0-17.0"}}, {"uniqueid": "w25757197:a36948857", "current_trial": 113, "dateTime": 1664368256644, "trialdata": {"rt": 1267, "stimulus": "<p id='stroop-text' class='stroop-blue'>GREEN</p>", "response": "b", "stimulus-type": "incongruent", "word": "green", "color": "blue", "correct_response": "b", "trial_id": "stroop-trial-1-incongruent-6", "trial_type": "html-keyboard-response", "trial_index": 113, "time_elapsed": 231413, "internal_node_id": "0.0-6.0-18.0"}}, {"uniqueid": "w25757197:a36948857", "current_trial": 114, "dateTime": 1664368258422, "trialdata": {"rt": 1274, "stimulus": "<p id='stroop-text' class='stroop-yellow'>BOAT</p>", "response": "y", "stimulus-type": "unrelated", "word": "BOAT", "color": "yellow", "correct_response": "y", "trial_id": "stroop-trial-1-unrelated-23", "trial_type": "html-keyboard-response", "trial_index": 114, "time_elapsed": 233191, "internal_node_id": "0.0-6.0-19.0"}}, {"uniqueid": "w25757197:a36948857", "current_trial": 115, "dateTime": 1664368259674, "trialdata": {"rt": 747, "stimulus": "<p id='stroop-text' class='stroop-blue'>BLUE</p>", "response": "b", "stimulus-type": "congruent", "word": "blue", "color": "blue", "correct_response": "b", "trial_id": "stroop-trial-1-congruent-9", "trial_type": "html-keyboard-response", "trial_index": 115, "time_elapsed": 234442, "internal_node_id": "0.0-6.0-20.0"}}, {"uniqueid": "w25757197:a36948857", "current_trial": 116, "dateTime": 1664368260860, "trialdata": {"rt": 683, "stimulus": "<p id='stroop-text' class='stroop-blue'>RED</p>", "response": "b", "stimulus-type": "incongruent", "word": "red", "color": "blue", "correct_response": "b", "trial_id": "stroop-trial-1-incongruent-19", "trial_type": "html-keyboard-response", "trial_index": 116, "time_elapsed": 235629, "internal_node_id": "0.0-6.0-21.0"}}, {"uniqueid": "w25757197:a36948857", "current_trial": 117, "dateTime": 1664368262016, "trialdata": {"rt": 651, "stimulus": "<p id='stroop-text' class='stroop-yellow'>YELLOW</p>", "response": "y", "stimulus-type": "congruent", "word": "yellow", "color": "yellow", "correct_response": "y", "trial_id": "stroop-trial-1-congruent-1", "trial_type": "html-keyboard-response", "trial_index": 117, "time_elapsed": 236785, "internal_node_id": "0.0-6.0-22.0"}}, {"uniqueid": "w25757197:a36948857", "current_trial": 118, "dateTime": 1664368263291, "trialdata": {"rt": 771, "stimulus": "<p id='stroop-text' class='stroop-green'>WINDOW</p>", "response": "g", "stimulus-type": "unrelated", "word": "WINDOW", "color": "green", "correct_response": "g", "trial_id": "stroop-trial-1-unrelated-8", "trial_type": "html-keyboard-response", "trial_index": 118, "time_elapsed": 238059, "internal_node_id": "0.0-6.0-23.0"}}, {"uniqueid": "w25757197:a36948857", "current_trial": 119, "dateTime": 1664368264357, "trialdata": {"rt": 563, "stimulus": "<p id='stroop-text' class='stroop-green'>GREEN</p>", "response": "g", "stimulus-type": "congruent", "word": "green", "color": "green", "correct_response": "g", "trial_id": "stroop-trial-1-congruent-7", "trial_type": "html-keyboard-response", "trial_index": 119, "time_elapsed": 239125, "internal_node_id": "0.0-6.0-24.0"}}, {"uniqueid": "w25757197:a36948857", "current_trial": 120, "dateTime": 1664368265824, "trialdata": {"rt": 962, "stimulus": "<p id='stroop-text' class='stroop-red'>RED</p>", "response": "r", "stimulus-type": "congruent", "word": "red", "color": "red", "correct_response": "r", "trial_id": "stroop-trial-1-congruent-17", "trial_type": "html-keyboard-response", "trial_index": 120, "time_elapsed": 240593, "internal_node_id": "0.0-6.0-25.0"}}, {"uniqueid": "w25757197:a36948857", "current_trial": 121, "dateTime": 1664368267162, "trialdata": {"rt": 832, "stimulus": "<p id='stroop-text' class='stroop-green'>YELLOW</p>", "response": "g", "stimulus-type": "incongruent", "word": "yellow", "color": "green", "correct_response": "g", "trial_id": "stroop-trial-1-incongruent-11", "trial_type": "html-keyboard-response", "trial_index": 121, "time_elapsed": 241929, "internal_node_id": "0.0-6.0-26.0"}}, {"uniqueid": "w25757197:a36948857", "current_trial": 122, "dateTime": 1664368268572, "trialdata": {"rt": 906, "stimulus": "<p id='stroop-text' class='stroop-blue'>RED</p>", "response": "b", "stimulus-type": "incongruent", "word": "red", "color": "blue", "correct_response": "b", "trial_id": "stroop-trial-1-incongruent-3", "trial_type": "html-keyboard-response", "trial_index": 122, "time_elapsed": 243340, "internal_node_id": "0.0-6.0-27.0"}}, {"uniqueid": "w25757197:a36948857", "current_trial": 123, "dateTime": 1664368269724, "trialdata": {"rt": 649, "stimulus": "<p id='stroop-text' class='stroop-yellow'>BOAT</p>", "response": "y", "stimulus-type": "unrelated", "word": "BOAT", "color": "yellow", "correct_response": "y", "trial_id": "stroop-trial-1-unrelated-24", "trial_type": "html-keyboard-response", "trial_index": 123, "time_elapsed": 244493, "internal_node_id": "0.0-6.0-28.0"}}, {"uniqueid": "w25757197:a36948857", "current_trial": 124, "dateTime": 1664368270633, "trialdata": {"rt": 404, "stimulus": "<p id='stroop-text' class='stroop-yellow'>BLUE</p>", "response": "y", "stimulus-type": "incongruent", "word": "blue", "color": "yellow", "correct_response": "y", "trial_id": "stroop-trial-1-incongruent-29", "trial_type": "html-keyboard-response", "trial_index": 124, "time_elapsed": 245401, "internal_node_id": "0.0-6.0-29.0"}}, {"uniqueid": "w25757197:a36948857", "current_trial": 125, "dateTime": 1664368271754, "trialdata": {"rt": 617, "stimulus": "<p id='stroop-text' class='stroop-green'>YELLOW</p>", "response": "g", "stimulus-type": "incongruent", "word": "yellow", "color": "green", "correct_response": "g", "trial_id": "stroop-trial-1-incongruent-9", "trial_type": "html-keyboard-response", "trial_index": 125, "time_elapsed": 246522, "internal_node_id": "0.0-6.0-30.0"}}, {"uniqueid": "w25757197:a36948857", "current_trial": 126, "dateTime": 1664368272952, "trialdata": {"rt": 691, "stimulus": "<p id='stroop-text' class='stroop-red'>MONKEY</p>", "response": "r", "stimulus-type": "unrelated", "word": "MONKEY", "color": "red", "correct_response": "r", "trial_id": "stroop-trial-1-unrelated-27", "trial_type": "html-keyboard-response", "trial_index": 126, "time_elapsed": 247720, "internal_node_id": "0.0-6.0-31.0"}}, {"uniqueid": "w25757197:a36948857", "current_trial": 127, "dateTime": 1664368274031, "trialdata": {"rt": 575, "stimulus": "<p id='stroop-text' class='stroop-green'>FORK</p>", "response": "g", "stimulus-type": "unrelated", "word": "FORK", "color": "green", "correct_response": "g", "trial_id": "stroop-trial-1-unrelated-3", "trial_type": "html-keyboard-response", "trial_index": 127, "time_elapsed": 248800, "internal_node_id": "0.0-6.0-32.0"}}, {"uniqueid": "w25757197:a36948857", "current_trial": 128, "dateTime": 1664368275301, "trialdata": {"rt": 765, "stimulus": "<p id='stroop-text' class='stroop-yellow'>GREEN</p>", "response": "y", "stimulus-type": "incongruent", "word": "green", "color": "yellow", "correct_response": "y", "trial_id": "stroop-trial-1-incongruent-24", "trial_type": "html-keyboard-response", "trial_index": 128, "time_elapsed": 250070, "internal_node_id": "0.0-6.0-33.0"}}, {"uniqueid": "w25757197:a36948857", "current_trial": 129, "dateTime": 1664368276517, "trialdata": {"rt": 712, "stimulus": "<p id='stroop-text' class='stroop-green'>BOAT</p>", "response": "g", "stimulus-type": "unrelated", "word": "BOAT", "color": "green", "correct_response": "g", "trial_id": "stroop-trial-1-unrelated-25", "trial_type": "html-keyboard-response", "trial_index": 129, "time_elapsed": 251285, "internal_node_id": "0.0-6.0-34.0"}}, {"uniqueid": "w25757197:a36948857", "current_trial": 130, "dateTime": 1664368278043, "trialdata": {"rt": 1021, "stimulus": "<p id='stroop-text' class='stroop-red'>YELLOW</p>", "response": "r", "stimulus-type": "incongruent", "word": "yellow", "color": "red", "correct_response": "r", "trial_id": "stroop-trial-1-incongruent-17", "trial_type": "html-keyboard-response", "trial_index": 130, "time_elapsed": 252812, "internal_node_id": "0.0-6.0-35.0"}}, {"uniqueid": "w25757197:a36948857", "current_trial": 131, "dateTime": 1664368279498, "trialdata": {"rt": 953, "stimulus": "<p id='stroop-text' class='stroop-green'>BLUE</p>", "response": "g", "stimulus-type": "incongruent", "word": "blue", "color": "green", "correct_response": "g", "trial_id": "stroop-trial-1-incongruent-13", "trial_type": "html-keyboard-response", "trial_index": 131, "time_elapsed": 254267, "internal_node_id": "0.0-6.0-36.0"}}, {"uniqueid": "w25757197:a36948857", "current_trial": 132, "dateTime": 1664368280713, "trialdata": {"rt": 711, "stimulus": "<p id='stroop-text' class='stroop-blue'>STONE</p>", "response": "b", "stimulus-type": "unrelated", "word": "STONE", "color": "blue", "correct_response": "b", "trial_id": "stroop-trial-1-unrelated-17", "trial_type": "html-keyboard-response", "trial_index": 132, "time_elapsed": 255482, "internal_node_id": "0.0-6.0-37.0"}}, {"uniqueid": "w25757197:a36948857", "current_trial": 133, "dateTime": 1664368282126, "trialdata": {"rt": 908, "stimulus": "<p id='stroop-text' class='stroop-green'>DOG</p>", "response": "g", "stimulus-type": "unrelated", "word": "DOG", "color": "green", "correct_response": "g", "trial_id": "stroop-trial-1-unrelated-18", "trial_type": "html-keyboard-response", "trial_index": 133, "time_elapsed": 256894, "internal_node_id": "0.0-6.0-38.0"}}, {"uniqueid": "w25757197:a36948857", "current_trial": 134, "dateTime": 1664368283407, "trialdata": {"rt": 776, "stimulus": "<p id='stroop-text' class='stroop-red'>RED</p>", "response": "r", "stimulus-type": "congruent", "word": "red", "color": "red", "correct_response": "r", "trial_id": "stroop-trial-1-congruent-22", "trial_type": "html-keyboard-response", "trial_index": 134, "time_elapsed": 258176, "internal_node_id": "0.0-6.0-39.0"}}, {"uniqueid": "w25757197:a36948857", "current_trial": 135, "dateTime": 1664368284561, "trialdata": {"rt": 649, "stimulus": "<p id='stroop-text' class='stroop-blue'>MONKEY</p>", "response": "b", "stimulus-type": "unrelated", "word": "MONKEY", "color": "blue", "correct_response": "b", "trial_id": "stroop-trial-1-unrelated-10", "trial_type": "html-keyboard-response", "trial_index": 135, "time_elapsed": 259329, "internal_node_id": "0.0-6.0-40.0"}}, {"uniqueid": "w25757197:a36948857", "current_trial": 136, "dateTime": 1664368287959, "trialdata": {"rt": 2892, "stimulus": "<p id='stroop-text' class='stroop-red'>BLUE</p>", "response": "r", "stimulus-type": "incongruent", "word": "blue", "color": "red", "correct_response": "r", "trial_id": "stroop-trial-1-incongruent-5", "trial_type": "html-keyboard-response", "trial_index": 136, "time_elapsed": 262728, "internal_node_id": "0.0-6.0-41.0"}}, {"uniqueid": "w25757197:a36948857", "current_trial": 137, "dateTime": 1664368289191, "trialdata": {"rt": 728, "stimulus": "<p id='stroop-text' class='stroop-yellow'>RED</p>", "response": "y", "stimulus-type": "incongruent", "word": "red", "color": "yellow", "correct_response": "y", "trial_id": "stroop-trial-1-incongruent-26", "trial_type": "html-keyboard-response", "trial_index": 137, "time_elapsed": 263959, "internal_node_id": "0.0-6.0-42.0"}}, {"uniqueid": "w25757197:a36948857", "current_trial": 138, "dateTime": 1664368290315, "trialdata": {"rt": 620, "stimulus": "<p id='stroop-text' class='stroop-yellow'>STONE</p>", "response": "y", "stimulus-type": "unrelated", "word": "STONE", "color": "yellow", "correct_response": "y", "trial_id": "stroop-trial-1-unrelated-4", "trial_type": "html-keyboard-response", "trial_index": 138, "time_elapsed": 265084, "internal_node_id": "0.0-6.0-43.0"}}, {"uniqueid": "w25757197:a36948857", "current_trial": 139, "dateTime": 1664368291567, "trialdata": {"rt": 748, "stimulus": "<p id='stroop-text' class='stroop-green'>YELLOW</p>", "response": "g", "stimulus-type": "incongruent", "word": "yellow", "color": "green", "correct_response": "g", "trial_id": "stroop-trial-1-incongruent-27", "trial_type": "html-keyboard-response", "trial_index": 139, "time_elapsed": 266336, "internal_node_id": "0.0-6.0-44.0"}}, {"uniqueid": "w25757197:a36948857", "current_trial": 140, "dateTime": 1664368292467, "trialdata": {"rt": 394, "stimulus": "<p id='stroop-text' class='stroop-green'>GREEN</p>", "response": "g", "stimulus-type": "congruent", "word": "green", "color": "green", "correct_response": "g", "trial_id": "stroop-trial-1-congruent-2", "trial_type": "html-keyboard-response", "trial_index": 140, "time_elapsed": 267236, "internal_node_id": "0.0-6.0-45.0"}}, {"uniqueid": "w25757197:a36948857", "current_trial": 141, "dateTime": 1664368293814, "trialdata": {"rt": 841, "stimulus": "<p id='stroop-text' class='stroop-yellow'>YELLOW</p>", "response": "y", "stimulus-type": "congruent", "word": "yellow", "color": "yellow", "correct_response": "y", "trial_id": "stroop-trial-1-congruent-11", "trial_type": "html-keyboard-response", "trial_index": 141, "time_elapsed": 268582, "internal_node_id": "0.0-6.0-46.0"}}, {"uniqueid": "w25757197:a36948857", "current_trial": 142, "dateTime": 1664368294920, "trialdata": {"rt": 600, "stimulus": "<p id='stroop-text' class='stroop-green'>FORK</p>", "response": "g", "stimulus-type": "unrelated", "word": "FORK", "color": "green", "correct_response": "g", "trial_id": "stroop-trial-1-unrelated-16", "trial_type": "html-keyboard-response", "trial_index": 142, "time_elapsed": 269688, "internal_node_id": "0.0-6.0-47.0"}}, {"uniqueid": "w25757197:a36948857", "current_trial": 143, "dateTime": 1664368296384, "trialdata": {"rt": 960, "stimulus": "<p id='stroop-text' class='stroop-green'>WINDOW</p>", "response": "g", "stimulus-type": "unrelated", "word": "WINDOW", "color": "green", "correct_response": "g", "trial_id": "stroop-trial-1-unrelated-14", "trial_type": "html-keyboard-response", "trial_index": 143, "time_elapsed": 271152, "internal_node_id": "0.0-6.0-48.0"}}, {"uniqueid": "w25757197:a36948857", "current_trial": 144, "dateTime": 1664368297295, "trialdata": {"rt": 408, "stimulus": "<p id='stroop-text' class='stroop-green'>WINDOW</p>", "response": "g", "stimulus-type": "unrelated", "word": "WINDOW", "color": "green", "correct_response": "g", "trial_id": "stroop-trial-1-unrelated-19", "trial_type": "html-keyboard-response", "trial_index": 144, "time_elapsed": 272064, "internal_node_id": "0.0-6.0-49.0"}}, {"uniqueid": "w25757197:a36948857", "current_trial": 145, "dateTime": 1664368298339, "trialdata": {"rt": 540, "stimulus": "<p id='stroop-text' class='stroop-green'>GREEN</p>", "response": "g", "stimulus-type": "congruent", "word": "green", "color": "green", "correct_response": "g", "trial_id": "stroop-trial-1-congruent-21", "trial_type": "html-keyboard-response", "trial_index": 145, "time_elapsed": 273108, "internal_node_id": "0.0-6.0-50.0"}}, {"uniqueid": "w25757197:a36948857", "current_trial": 146, "dateTime": 1664368299257, "trialdata": {"rt": 403, "stimulus": "<p id='stroop-text' class='stroop-green'>BOTTLE</p>", "response": "g", "stimulus-type": "unrelated", "word": "BOTTLE", "color": "green", "correct_response": "g", "trial_id": "stroop-trial-1-unrelated-15", "trial_type": "html-keyboard-response", "trial_index": 146, "time_elapsed": 274026, "internal_node_id": "0.0-6.0-51.0"}}, {"uniqueid": "w25757197:a36948857", "current_trial": 147, "dateTime": 1664368300778, "trialdata": {"rt": 1016, "stimulus": "<p id='stroop-text' class='stroop-yellow'>RED</p>", "response": "y", "stimulus-type": "incongruent", "word": "red", "color": "yellow", "correct_response": "y", "trial_id": "stroop-trial-1-incongruent-15", "trial_type": "html-keyboard-response", "trial_index": 147, "time_elapsed": 275547, "internal_node_id": "0.0-6.0-52.0"}}, {"uniqueid": "w25757197:a36948857", "current_trial": 148, "dateTime": 1664368301682, "trialdata": {"rt": 399, "stimulus": "<p id='stroop-text' class='stroop-yellow'>RED</p>", "response": "y", "stimulus-type": "incongruent", "word": "red", "color": "yellow", "correct_response": "y", "trial_id": "stroop-trial-1-incongruent-4", "trial_type": "html-keyboard-response", "trial_index": 148, "time_elapsed": 276451, "internal_node_id": "0.0-6.0-53.0"}}, {"uniqueid": "w25757197:a36948857", "current_trial": 149, "dateTime": 1664368302534, "trialdata": {"rt": 348, "stimulus": "<p id='stroop-text' class='stroop-yellow'>RED</p>", "response": "r", "stimulus-type": "incongruent", "word": "red", "color": "yellow", "correct_response": "y", "trial_id": "stroop-trial-1-incongruent-28", "trial_type": "html-keyboard-response", "trial_index": 149, "time_elapsed": 277303, "internal_node_id": "0.0-6.0-54.0"}}, {"uniqueid": "w25757197:a36948857", "current_trial": 150, "dateTime": 1664368304737, "trialdata": {"rt": 1699, "stimulus": "<p id='stroop-text' class='stroop-green'>YELLOW</p>", "response": "g", "stimulus-type": "incongruent", "word": "yellow", "color": "green", "correct_response": "g", "trial_id": "stroop-trial-1-incongruent-14", "trial_type": "html-keyboard-response", "trial_index": 150, "time_elapsed": 279506, "internal_node_id": "0.0-6.0-55.0"}}, {"uniqueid": "w25757197:a36948857", "current_trial": 151, "dateTime": 1664368306041, "trialdata": {"rt": 799, "stimulus": "<p id='stroop-text' class='stroop-yellow'>YELLOW</p>", "response": "y", "stimulus-type": "congruent", "word": "yellow", "color": "yellow", "correct_response": "y", "trial_id": "stroop-trial-1-congruent-23", "trial_type": "html-keyboard-response", "trial_index": 151, "time_elapsed": 280810, "internal_node_id": "0.0-6.0-56.0"}}, {"uniqueid": "w25757197:a36948857", "current_trial": 152, "dateTime": 1664368307656, "trialdata": {"rt": 1110, "stimulus": "<p id='stroop-text' class='stroop-red'>RED</p>", "response": "r", "stimulus-type": "congruent", "word": "red", "color": "red", "correct_response": "r", "trial_id": "stroop-trial-1-congruent-16", "trial_type": "html-keyboard-response", "trial_index": 152, "time_elapsed": 282425, "internal_node_id": "0.0-6.0-57.0"}}, {"uniqueid": "w25757197:a36948857", "current_trial": 153, "dateTime": 1664368308891, "trialdata": {"rt": 731, "stimulus": "<p id='stroop-text' class='stroop-yellow'>SHIP</p>", "response": "y", "stimulus-type": "unrelated", "word": "SHIP", "color": "yellow", "correct_response": "y", "trial_id": "stroop-trial-1-unrelated-26", "trial_type": "html-keyboard-response", "trial_index": 153, "time_elapsed": 283660, "internal_node_id": "0.0-6.0-58.0"}}, {"uniqueid": "w25757197:a36948857", "current_trial": 154, "dateTime": 1664368310327, "trialdata": {"rt": 931, "stimulus": "<p id='stroop-text' class='stroop-blue'>BLUE</p>", "response": "b", "stimulus-type": "congruent", "word": "blue", "color": "blue", "correct_response": "b", "trial_id": "stroop-trial-1-congruent-3", "trial_type": "html-keyboard-response", "trial_index": 154, "time_elapsed": 285095, "internal_node_id": "0.0-6.0-59.0"}}, {"uniqueid": "w25757197:a36948857", "current_trial": 155, "dateTime": 1664368311541, "trialdata": {"rt": 710, "stimulus": "<p id='stroop-text' class='stroop-green'>BRIDGE</p>", "response": "g", "stimulus-type": "unrelated", "word": "BRIDGE", "color": "green", "correct_response": "g", "trial_id": "stroop-trial-1-unrelated-28", "trial_type": "html-keyboard-response", "trial_index": 155, "time_elapsed": 286310, "internal_node_id": "0.0-6.0-60.0"}}, {"uniqueid": "w25757197:a36948857", "current_trial": 156, "dateTime": 1664368313243, "trialdata": {"rt": 1196, "stimulus": "<p id='stroop-text' class='stroop-blue'>BLUE</p>", "response": "b", "stimulus-type": "congruent", "word": "blue", "color": "blue", "correct_response": "b", "trial_id": "stroop-trial-1-congruent-10", "trial_type": "html-keyboard-response", "trial_index": 156, "time_elapsed": 288011, "internal_node_id": "0.0-6.0-61.0"}}, {"uniqueid": "w25757197:a36948857", "current_trial": 157, "dateTime": 1664368315785, "trialdata": {"rt": 2038, "stimulus": "<p id='stroop-text' class='stroop-yellow'>GREEN</p>", "response": "y", "stimulus-type": "incongruent", "word": "green", "color": "yellow", "correct_response": "y", "trial_id": "stroop-trial-1-incongruent-10", "trial_type": "html-keyboard-response", "trial_index": 157, "time_elapsed": 290553, "internal_node_id": "0.0-6.0-62.0"}}, {"uniqueid": "w25757197:a36948857", "current_trial": 158, "dateTime": 1664368318330, "trialdata": {"rt": 2041, "stimulus": "<p id='stroop-text' class='stroop-red'>RED</p>", "response": "r", "stimulus-type": "congruent", "word": "red", "color": "red", "correct_response": "r", "trial_id": "stroop-trial-1-congruent-5", "trial_type": "html-keyboard-response", "trial_index": 158, "time_elapsed": 293098, "internal_node_id": "0.0-6.0-63.0"}}, {"uniqueid": "w25757197:a36948857", "current_trial": 159, "dateTime": 1664368319797, "trialdata": {"rt": 950, "stimulus": "<p id='stroop-text' class='stroop-blue'>BLUE</p>", "response": "b", "stimulus-type": "congruent", "word": "blue", "color": "blue", "correct_response": "b", "trial_id": "stroop-trial-1-congruent-27", "trial_type": "html-keyboard-response", "trial_index": 159, "time_elapsed": 294566, "internal_node_id": "0.0-6.0-64.0"}}, {"uniqueid": "w25757197:a36948857", "current_trial": 160, "dateTime": 1664368321314, "trialdata": {"rt": 1012, "stimulus": "<p id='stroop-text' class='stroop-yellow'>BRIDGE</p>", "response": "y", "stimulus-type": "unrelated", "word": "BRIDGE", "color": "yellow", "correct_response": "y", "trial_id": "stroop-trial-1-unrelated-30", "trial_type": "html-keyboard-response", "trial_index": 160, "time_elapsed": 296083, "internal_node_id": "0.0-6.0-65.0"}}, {"uniqueid": "w25757197:a36948857", "current_trial": 161, "dateTime": 1664368322207, "trialdata": {"rt": 388, "stimulus": "<p id='stroop-text' class='stroop-yellow'>CHAIR</p>", "response": "y", "stimulus-type": "unrelated", "word": "CHAIR", "color": "yellow", "correct_response": "y", "trial_id": "stroop-trial-1-unrelated-29", "trial_type": "html-keyboard-response", "trial_index": 161, "time_elapsed": 296976, "internal_node_id": "0.0-6.0-66.0"}}, {"uniqueid": "w25757197:a36948857", "current_trial": 162, "dateTime": 1664368323112, "trialdata": {"rt": 400, "stimulus": "<p id='stroop-text' class='stroop-yellow'>YELLOW</p>", "response": "y", "stimulus-type": "congruent", "word": "yellow", "color": "yellow", "correct_response": "y", "trial_id": "stroop-trial-1-congruent-20", "trial_type": "html-keyboard-response", "trial_index": 162, "time_elapsed": 297880, "internal_node_id": "0.0-6.0-67.0"}}, {"uniqueid": "w25757197:a36948857", "current_trial": 163, "dateTime": 1664368324197, "trialdata": {"rt": 581, "stimulus": "<p id='stroop-text' class='stroop-green'>BLUE</p>", "response": "g", "stimulus-type": "incongruent", "word": "blue", "color": "green", "correct_response": "g", "trial_id": "stroop-trial-1-incongruent-1", "trial_type": "html-keyboard-response", "trial_index": 163, "time_elapsed": 298966, "internal_node_id": "0.0-6.0-68.0"}}, {"uniqueid": "w25757197:a36948857", "current_trial": 164, "dateTime": 1664368325379, "trialdata": {"rt": 677, "stimulus": "<p id='stroop-text' class='stroop-blue'>BLUE</p>", "response": "b", "stimulus-type": "congruent", "word": "blue", "color": "blue", "correct_response": "b", "trial_id": "stroop-trial-1-congruent-28", "trial_type": "html-keyboard-response", "trial_index": 164, "time_elapsed": 300148, "internal_node_id": "0.0-6.0-69.0"}}, {"uniqueid": "w25757197:a36948857", "current_trial": 165, "dateTime": 1664368326865, "trialdata": {"rt": 981, "stimulus": "<p id='stroop-text' class='stroop-blue'>CHAIR</p>", "response": "b", "stimulus-type": "unrelated", "word": "CHAIR", "color": "blue", "correct_response": "b", "trial_id": "stroop-trial-1-unrelated-1", "trial_type": "html-keyboard-response", "trial_index": 165, "time_elapsed": 301633, "internal_node_id": "0.0-6.0-70.0"}}, {"uniqueid": "w25757197:a36948857", "current_trial": 166, "dateTime": 1664368328535, "trialdata": {"rt": 1165, "stimulus": "<p id='stroop-text' class='stroop-green'>STONE</p>", "response": "g", "stimulus-type": "unrelated", "word": "STONE", "color": "green", "correct_response": "g", "trial_id": "stroop-trial-1-unrelated-12", "trial_type": "html-keyboard-response", "trial_index": 166, "time_elapsed": 303303, "internal_node_id": "0.0-6.0-71.0"}}, {"uniqueid": "w25757197:a36948857", "current_trial": 167, "dateTime": 1664368329895, "trialdata": {"rt": 856, "stimulus": "<p id='stroop-text' class='stroop-yellow'>RED</p>", "response": "y", "stimulus-type": "incongruent", "word": "red", "color": "yellow", "correct_response": "y", "trial_id": "stroop-trial-1-incongruent-21", "trial_type": "html-keyboard-response", "trial_index": 167, "time_elapsed": 304664, "internal_node_id": "0.0-6.0-72.0"}}, {"uniqueid": "w25757197:a36948857", "current_trial": 168, "dateTime": 1664368331176, "trialdata": {"rt": 776, "stimulus": "<p id='stroop-text' class='stroop-blue'>GREEN</p>", "response": "r", "stimulus-type": "incongruent", "word": "green", "color": "blue", "correct_response": "b", "trial_id": "stroop-trial-1-incongruent-18", "trial_type": "html-keyboard-response", "trial_index": 168, "time_elapsed": 305944, "internal_node_id": "0.0-6.0-73.0"}}, {"uniqueid": "w25757197:a36948857", "current_trial": 169, "dateTime": 1664368332452, "trialdata": {"rt": 772, "stimulus": "<p id='stroop-text' class='stroop-yellow'>YELLOW</p>", "response": "y", "stimulus-type": "congruent", "word": "yellow", "color": "yellow", "correct_response": "y", "trial_id": "stroop-trial-1-congruent-4", "trial_type": "html-keyboard-response", "trial_index": 169, "time_elapsed": 307221, "internal_node_id": "0.0-6.0-74.0"}}, {"uniqueid": "w25757197:a36948857", "current_trial": 170, "dateTime": 1664368333872, "trialdata": {"rt": 914, "stimulus": "<p id='stroop-text' class='stroop-red'>BOAT</p>", "response": "r", "stimulus-type": "unrelated", "word": "BOAT", "color": "red", "correct_response": "r", "trial_id": "stroop-trial-1-unrelated-7", "trial_type": "html-keyboard-response", "trial_index": 170, "time_elapsed": 308640, "internal_node_id": "0.0-6.0-75.0"}}, {"uniqueid": "w25757197:a36948857", "current_trial": 171, "dateTime": 1664368334905, "trialdata": {"rt": 528, "stimulus": "<p id='stroop-text' class='stroop-red'>DOG</p>", "response": "r", "stimulus-type": "unrelated", "word": "DOG", "color": "red", "correct_response": "r", "trial_id": "stroop-trial-1-unrelated-13", "trial_type": "html-keyboard-response", "trial_index": 171, "time_elapsed": 309674, "internal_node_id": "0.0-6.0-76.0"}}, {"uniqueid": "w25757197:a36948857", "current_trial": 172, "dateTime": 1664368336053, "trialdata": {"rt": 642, "stimulus": "<p id='stroop-text' class='stroop-red'>BLUE</p>", "response": "r", "stimulus-type": "incongruent", "word": "blue", "color": "red", "correct_response": "r", "trial_id": "stroop-trial-1-incongruent-30", "trial_type": "html-keyboard-response", "trial_index": 172, "time_elapsed": 310822, "internal_node_id": "0.0-6.0-77.0"}}, {"uniqueid": "w25757197:a36948857", "current_trial": 173, "dateTime": 1664368336997, "trialdata": {"rt": 439, "stimulus": "<p id='stroop-text' class='stroop-red'>BRAIN</p>", "response": "r", "stimulus-type": "unrelated", "word": "BRAIN", "color": "red", "correct_response": "r", "trial_id": "stroop-trial-1-unrelated-20", "trial_type": "html-keyboard-response", "trial_index": 173, "time_elapsed": 311765, "internal_node_id": "0.0-6.0-78.0"}}, {"uniqueid": "w25757197:a36948857", "current_trial": 174, "dateTime": 1664368338165, "trialdata": {"rt": 663, "stimulus": "<p id='stroop-text' class='stroop-yellow'>SHIP</p>", "response": "y", "stimulus-type": "unrelated", "word": "SHIP", "color": "yellow", "correct_response": "y", "trial_id": "stroop-trial-1-unrelated-5", "trial_type": "html-keyboard-response", "trial_index": 174, "time_elapsed": 312933, "internal_node_id": "0.0-6.0-79.0"}}, {"uniqueid": "w25757197:a36948857", "current_trial": 175, "dateTime": 1664368339253, "trialdata": {"rt": 584, "stimulus": "<p id='stroop-text' class='stroop-yellow'>DOG</p>", "response": "y", "stimulus-type": "unrelated", "word": "DOG", "color": "yellow", "correct_response": "y", "trial_id": "stroop-trial-1-unrelated-2", "trial_type": "html-keyboard-response", "trial_index": 175, "time_elapsed": 314022, "internal_node_id": "0.0-6.0-80.0"}}, {"uniqueid": "w25757197:a36948857", "current_trial": 176, "dateTime": 1664368340430, "trialdata": {"rt": 672, "stimulus": "<p id='stroop-text' class='stroop-green'>GREEN</p>", "response": "g", "stimulus-type": "congruent", "word": "green", "color": "green", "correct_response": "g", "trial_id": "stroop-trial-1-congruent-26", "trial_type": "html-keyboard-response", "trial_index": 176, "time_elapsed": 315198, "internal_node_id": "0.0-6.0-81.0"}}, {"uniqueid": "w25757197:a36948857", "current_trial": 177, "dateTime": 1664368342596, "trialdata": {"rt": 1661, "stimulus": "<p id='stroop-text' class='stroop-yellow'>YELLOW</p>", "response": "y", "stimulus-type": "congruent", "word": "yellow", "color": "yellow", "correct_response": "y", "trial_id": "stroop-trial-1-congruent-18", "trial_type": "html-keyboard-response", "trial_index": 177, "time_elapsed": 317365, "internal_node_id": "0.0-6.0-82.0"}}, {"uniqueid": "w25757197:a36948857", "current_trial": 178, "dateTime": 1664368344346, "trialdata": {"rt": 1246, "stimulus": "<p id='stroop-text' class='stroop-green'>BLUE</p>", "response": "g", "stimulus-type": "incongruent", "word": "blue", "color": "green", "correct_response": "g", "trial_id": "stroop-trial-1-incongruent-2", "trial_type": "html-keyboard-response", "trial_index": 178, "time_elapsed": 319115, "internal_node_id": "0.0-6.0-83.0"}}, {"uniqueid": "w25757197:a36948857", "current_trial": 179, "dateTime": 1664368345520, "trialdata": {"rt": 668, "stimulus": "<p id='stroop-text' class='stroop-green'>GREEN</p>", "response": "g", "stimulus-type": "congruent", "word": "green", "color": "green", "correct_response": "g", "trial_id": "stroop-trial-1-congruent-13", "trial_type": "html-keyboard-response", "trial_index": 179, "time_elapsed": 320289, "internal_node_id": "0.0-6.0-84.0"}}, {"uniqueid": "w25757197:a36948857", "current_trial": 180, "dateTime": 1664368346711, "trialdata": {"rt": 687, "stimulus": "<p id='stroop-text' class='stroop-blue'>YELLOW</p>", "response": "b", "stimulus-type": "incongruent", "word": "yellow", "color": "blue", "correct_response": "b", "trial_id": "stroop-trial-1-incongruent-7", "trial_type": "html-keyboard-response", "trial_index": 180, "time_elapsed": 321480, "internal_node_id": "0.0-6.0-85.0"}}, {"uniqueid": "w25757197:a36948857", "current_trial": 181, "dateTime": 1664368347758, "trialdata": {"rt": 542, "stimulus": "<p id='stroop-text' class='stroop-blue'>BLUE</p>", "response": "b", "stimulus-type": "congruent", "word": "blue", "color": "blue", "correct_response": "b", "trial_id": "stroop-trial-1-congruent-19", "trial_type": "html-keyboard-response", "trial_index": 181, "time_elapsed": 322527, "internal_node_id": "0.0-6.0-86.0"}}, {"uniqueid": "w25757197:a36948857", "current_trial": 182, "dateTime": 1664368349044, "trialdata": {"rt": 779, "stimulus": "<p id='stroop-text' class='stroop-red'>GREEN</p>", "response": "r", "stimulus-type": "incongruent", "word": "green", "color": "red", "correct_response": "r", "trial_id": "stroop-trial-1-incongruent-8", "trial_type": "html-keyboard-response", "trial_index": 182, "time_elapsed": 323812, "internal_node_id": "0.0-6.0-87.0"}}, {"uniqueid": "w25757197:a36948857", "current_trial": 183, "dateTime": 1664368349883, "trialdata": {"rt": 334, "stimulus": "<p id='stroop-text' class='stroop-red'>RED</p>", "response": "r", "stimulus-type": "congruent", "word": "red", "color": "red", "correct_response": "r", "trial_id": "stroop-trial-1-congruent-15", "trial_type": "html-keyboard-response", "trial_index": 183, "time_elapsed": 324651, "internal_node_id": "0.0-6.0-88.0"}}, {"uniqueid": "w25757197:a36948857", "current_trial": 184, "dateTime": 1664368350795, "trialdata": {"rt": 409, "stimulus": "<p id='stroop-text' class='stroop-red'>GREEN</p>", "response": "r", "stimulus-type": "incongruent", "word": "green", "color": "red", "correct_response": "r", "trial_id": "stroop-trial-1-incongruent-23", "trial_type": "html-keyboard-response", "trial_index": 184, "time_elapsed": 325564, "internal_node_id": "0.0-6.0-89.0"}}, {"uniqueid": "w25757197:a36948857", "current_trial": 185, "dateTime": 1664368357324, "trialdata": {"rt": 6024, "stimulus": "  <h1> End of block! </h1>\n\n  You have reached the end of the block 2/5. If you need a short break, feel free to take one now before moving on.\n\n  <br><br>\n  In the next block, you will complete another 90 rounds of this game.\n\n  <br><br>\n  <div style='text-align: center;'>Press <code>space</code> to begin.</div>\n  <br><br>\n<div style='text-align: center;'>(If the experiment doesn't continue, try clicking on the text and then pressing <code>space</code>.)</div>", "response": " ", "trial_id": "stroop_1_ready_3", "trial_type": "html-keyboard-response", "trial_index": 185, "time_elapsed": 332093, "internal_node_id": "0.0-7.0"}}, {"uniqueid": "w25757197:a36948857", "current_trial": 186, "dateTime": 1664368360487, "trialdata": {"rt": 3159, "stimulus": "<p id='stroop-text' class='stroop-red'>BLUE</p>", "response": "r", "stimulus-type": "incongruent", "word": "blue", "color": "red", "correct_response": "r", "trial_id": "stroop-trial-1-incongruent-5", "trial_type": "html-keyboard-response", "trial_index": 186, "time_elapsed": 335255, "internal_node_id": "0.0-8.0-0.0"}}, {"uniqueid": "w25757197:a36948857", "current_trial": 187, "dateTime": 1664368362515, "trialdata": {"rt": 1525, "stimulus": "<p id='stroop-text' class='stroop-blue'>BLUE</p>", "response": "b", "stimulus-type": "congruent", "word": "blue", "color": "blue", "correct_response": "b", "trial_id": "stroop-trial-1-congruent-16", "trial_type": "html-keyboard-response", "trial_index": 187, "time_elapsed": 337284, "internal_node_id": "0.0-8.0-1.0"}}, {"uniqueid": "w25757197:a36948857", "current_trial": 188, "dateTime": 1664368363617, "trialdata": {"rt": 598, "stimulus": "<p id='stroop-text' class='stroop-green'>YELLOW</p>", "response": "g", "stimulus-type": "incongruent", "word": "yellow", "color": "green", "correct_response": "g", "trial_id": "stroop-trial-1-incongruent-4", "trial_type": "html-keyboard-response", "trial_index": 188, "time_elapsed": 338385, "internal_node_id": "0.0-8.0-2.0"}}, {"uniqueid": "w25757197:a36948857", "current_trial": 189, "dateTime": 1664368364915, "trialdata": {"rt": 794, "stimulus": "<p id='stroop-text' class='stroop-yellow'>BOAT</p>", "response": "y", "stimulus-type": "unrelated", "word": "BOAT", "color": "yellow", "correct_response": "y", "trial_id": "stroop-trial-1-unrelated-3", "trial_type": "html-keyboard-response", "trial_index": 189, "time_elapsed": 339684, "internal_node_id": "0.0-8.0-3.0"}}, {"uniqueid": "w25757197:a36948857", "current_trial": 190, "dateTime": 1664368366064, "trialdata": {"rt": 644, "stimulus": "<p id='stroop-text' class='stroop-green'>SHIP</p>", "response": "g", "stimulus-type": "unrelated", "word": "SHIP", "color": "green", "correct_response": "g", "trial_id": "stroop-trial-1-unrelated-28", "trial_type": "html-keyboard-response", "trial_index": 190, "time_elapsed": 340833, "internal_node_id": "0.0-8.0-4.0"}}, {"uniqueid": "w25757197:a36948857", "current_trial": 191, "dateTime": 1664368368502, "trialdata": {"rt": 1933, "stimulus": "<p id='stroop-text' class='stroop-green'>BRIDGE</p>", "response": "g", "stimulus-type": "unrelated", "word": "BRIDGE", "color": "green", "correct_response": "g", "trial_id": "stroop-trial-1-unrelated-20", "trial_type": "html-keyboard-response", "trial_index": 191, "time_elapsed": 343270, "internal_node_id": "0.0-8.0-5.0"}}, {"uniqueid": "w25757197:a36948857", "current_trial": 192, "dateTime": 1664368369376, "trialdata": {"rt": 371, "stimulus": "<p id='stroop-text' class='stroop-green'>RED</p>", "response": "g", "stimulus-type": "incongruent", "word": "red", "color": "green", "correct_response": "g", "trial_id": "stroop-trial-1-incongruent-18", "trial_type": "html-keyboard-response", "trial_index": 192, "time_elapsed": 344145, "internal_node_id": "0.0-8.0-6.0"}}, {"uniqueid": "w25757197:a36948857", "current_trial": 193, "dateTime": 1664368370672, "trialdata": {"rt": 791, "stimulus": "<p id='stroop-text' class='stroop-yellow'>BRIDGE</p>", "response": "y", "stimulus-type": "unrelated", "word": "BRIDGE", "color": "yellow", "correct_response": "y", "trial_id": "stroop-trial-1-unrelated-1", "trial_type": "html-keyboard-response", "trial_index": 193, "time_elapsed": 345441, "internal_node_id": "0.0-8.0-7.0"}}, {"uniqueid": "w25757197:a36948857", "current_trial": 194, "dateTime": 1664368372953, "trialdata": {"rt": 1769, "stimulus": "<p id='stroop-text' class='stroop-blue'>YELLOW</p>", "response": "b", "stimulus-type": "incongruent", "word": "yellow", "color": "blue", "correct_response": "b", "trial_id": "stroop-trial-1-incongruent-26", "trial_type": "html-keyboard-response", "trial_index": 194, "time_elapsed": 347721, "internal_node_id": "0.0-8.0-8.0"}}, {"uniqueid": "w25757197:a36948857", "current_trial": 195, "dateTime": 1664368374673, "trialdata": {"rt": 1216, "stimulus": "<p id='stroop-text' class='stroop-red'>GREEN</p>", "response": "r", "stimulus-type": "incongruent", "word": "green", "color": "red", "correct_response": "r", "trial_id": "stroop-trial-1-incongruent-3", "trial_type": "html-keyboard-response", "trial_index": 195, "time_elapsed": 349442, "internal_node_id": "0.0-8.0-9.0"}}, {"uniqueid": "w25757197:a36948857", "current_trial": 196, "dateTime": 1664368375629, "trialdata": {"rt": 452, "stimulus": "<p id='stroop-text' class='stroop-red'>BRIDGE</p>", "response": "g", "stimulus-type": "unrelated", "word": "BRIDGE", "color": "red", "correct_response": "r", "trial_id": "stroop-trial-1-unrelated-26", "trial_type": "html-keyboard-response", "trial_index": 196, "time_elapsed": 350398, "internal_node_id": "0.0-8.0-10.0"}}, {"uniqueid": "w25757197:a36948857", "current_trial": 197, "dateTime": 1664368376782, "trialdata": {"rt": 634, "stimulus": "<p id='stroop-text' class='stroop-green'>GREEN</p>", "response": "g", "stimulus-type": "congruent", "word": "green", "color": "green", "correct_response": "g", "trial_id": "stroop-trial-1-congruent-12", "trial_type": "html-keyboard-response", "trial_index": 197, "time_elapsed": 351551, "internal_node_id": "0.0-8.0-11.0"}}, {"uniqueid": "w25757197:a36948857", "current_trial": 198, "dateTime": 1664368378301, "trialdata": {"rt": 1013, "stimulus": "<p id='stroop-text' class='stroop-red'>RED</p>", "response": "r", "stimulus-type": "congruent", "word": "red", "color": "red", "correct_response": "r", "trial_id": "stroop-trial-1-congruent-28", "trial_type": "html-keyboard-response", "trial_index": 198, "time_elapsed": 353069, "internal_node_id": "0.0-8.0-12.0"}}, {"uniqueid": "w25757197:a36948857", "current_trial": 199, "dateTime": 1664368379573, "trialdata": {"rt": 768, "stimulus": "<p id='stroop-text' class='stroop-green'>RED</p>", "response": "g", "stimulus-type": "incongruent", "word": "red", "color": "green", "correct_response": "g", "trial_id": "stroop-trial-1-incongruent-2", "trial_type": "html-keyboard-response", "trial_index": 199, "time_elapsed": 354342, "internal_node_id": "0.0-8.0-13.0"}}, {"uniqueid": "w25757197:a36948857", "current_trial": 200, "dateTime": 1664368380765, "trialdata": {"rt": 687, "stimulus": "<p id='stroop-text' class='stroop-yellow'>GREEN</p>", "response": "y", "stimulus-type": "incongruent", "word": "green", "color": "yellow", "correct_response": "y", "trial_id": "stroop-trial-1-incongruent-10", "trial_type": "html-keyboard-response", "trial_index": 200, "time_elapsed": 355533, "internal_node_id": "0.0-8.0-14.0"}}, {"uniqueid": "w25757197:a36948857", "current_trial": 201, "dateTime": 1664368382037, "trialdata": {"rt": 768, "stimulus": "<p id='stroop-text' class='stroop-blue'>BLUE</p>", "response": "b", "stimulus-type": "congruent", "word": "blue", "color": "blue", "correct_response": "b", "trial_id": "stroop-trial-1-congruent-17", "trial_type": "html-keyboard-response", "trial_index": 201, "time_elapsed": 356806, "internal_node_id": "0.0-8.0-15.0"}}, {"uniqueid": "w25757197:a36948857", "current_trial": 202, "dateTime": 1664368383246, "trialdata": {"rt": 704, "stimulus": "<p id='stroop-text' class='stroop-green'>BLUE</p>", "response": "g", "stimulus-type": "incongruent", "word": "blue", "color": "green", "correct_response": "g", "trial_id": "stroop-trial-1-incongruent-9", "trial_type": "html-keyboard-response", "trial_index": 202, "time_elapsed": 358014, "internal_node_id": "0.0-8.0-16.0"}}, {"uniqueid": "w25757197:a36948857", "current_trial": 203, "dateTime": 1664368384329, "trialdata": {"rt": 578, "stimulus": "<p id='stroop-text' class='stroop-blue'>BLUE</p>", "response": "y", "stimulus-type": "congruent", "word": "blue", "color": "blue", "correct_response": "b", "trial_id": "stroop-trial-1-congruent-20", "trial_type": "html-keyboard-response", "trial_index": 203, "time_elapsed": 359098, "internal_node_id": "0.0-8.0-17.0"}}, {"uniqueid": "w25757197:a36948857", "current_trial": 204, "dateTime": 1664368386007, "trialdata": {"rt": 1173, "stimulus": "<p id='stroop-text' class='stroop-green'>FORK</p>", "response": "g", "stimulus-type": "unrelated", "word": "FORK", "color": "green", "correct_response": "g", "trial_id": "stroop-trial-1-unrelated-8", "trial_type": "html-keyboard-response", "trial_index": 204, "time_elapsed": 360776, "internal_node_id": "0.0-8.0-18.0"}}, {"uniqueid": "w25757197:a36948857", "current_trial": 205, "dateTime": 1664368387134, "trialdata": {"rt": 621, "stimulus": "<p id='stroop-text' class='stroop-blue'>BLUE</p>", "response": "y", "stimulus-type": "congruent", "word": "blue", "color": "blue", "correct_response": "b", "trial_id": "stroop-trial-1-congruent-24", "trial_type": "html-keyboard-response", "trial_index": 205, "time_elapsed": 361902, "internal_node_id": "0.0-8.0-19.0"}}, {"uniqueid": "w25757197:a36948857", "current_trial": 206, "dateTime": 1664368388684, "trialdata": {"rt": 1045, "stimulus": "<p id='stroop-text' class='stroop-red'>YELLOW</p>", "response": "r", "stimulus-type": "incongruent", "word": "yellow", "color": "red", "correct_response": "r", "trial_id": "stroop-trial-1-incongruent-22", "trial_type": "html-keyboard-response", "trial_index": 206, "time_elapsed": 363453, "internal_node_id": "0.0-8.0-20.0"}}, {"uniqueid": "w25757197:a36948857", "current_trial": 207, "dateTime": 1664368391212, "trialdata": {"rt": 2024, "stimulus": "<p id='stroop-text' class='stroop-blue'>SHIP</p>", "response": "b", "stimulus-type": "unrelated", "word": "SHIP", "color": "blue", "correct_response": "b", "trial_id": "stroop-trial-1-unrelated-5", "trial_type": "html-keyboard-response", "trial_index": 207, "time_elapsed": 365981, "internal_node_id": "0.0-8.0-21.0"}}, {"uniqueid": "w25757197:a36948857", "current_trial": 208, "dateTime": 1664368392629, "trialdata": {"rt": 912, "stimulus": "<p id='stroop-text' class='stroop-yellow'>YELLOW</p>", "response": "y", "stimulus-type": "congruent", "word": "yellow", "color": "yellow", "correct_response": "y", "trial_id": "stroop-trial-1-congruent-2", "trial_type": "html-keyboard-response", "trial_index": 208, "time_elapsed": 367397, "internal_node_id": "0.0-8.0-22.0"}}, {"uniqueid": "w25757197:a36948857", "current_trial": 209, "dateTime": 1664368393818, "trialdata": {"rt": 682, "stimulus": "<p id='stroop-text' class='stroop-green'>BRAIN</p>", "response": "g", "stimulus-type": "unrelated", "word": "BRAIN", "color": "green", "correct_response": "g", "trial_id": "stroop-trial-1-unrelated-6", "trial_type": "html-keyboard-response", "trial_index": 209, "time_elapsed": 368587, "internal_node_id": "0.0-8.0-23.0"}}, {"uniqueid": "w25757197:a36948857", "current_trial": 210, "dateTime": 1664368395126, "trialdata": {"rt": 804, "stimulus": "<p id='stroop-text' class='stroop-red'>BOAT</p>", "response": "r", "stimulus-type": "unrelated", "word": "BOAT", "color": "red", "correct_response": "r", "trial_id": "stroop-trial-1-unrelated-21", "trial_type": "html-keyboard-response", "trial_index": 210, "time_elapsed": 369895, "internal_node_id": "0.0-8.0-24.0"}}, {"uniqueid": "w25757197:a36948857", "current_trial": 211, "dateTime": 1664368396595, "trialdata": {"rt": 962, "stimulus": "<p id='stroop-text' class='stroop-yellow'>MONKEY</p>", "response": "y", "stimulus-type": "unrelated", "word": "MONKEY", "color": "yellow", "correct_response": "y", "trial_id": "stroop-trial-1-unrelated-15", "trial_type": "html-keyboard-response", "trial_index": 211, "time_elapsed": 371364, "internal_node_id": "0.0-8.0-25.0"}}, {"uniqueid": "w25757197:a36948857", "current_trial": 212, "dateTime": 1664368399461, "trialdata": {"rt": 2359, "stimulus": "<p id='stroop-text' class='stroop-red'>YELLOW</p>", "response": "r", "stimulus-type": "incongruent", "word": "yellow", "color": "red", "correct_response": "r", "trial_id": "stroop-trial-1-incongruent-12", "trial_type": "html-keyboard-response", "trial_index": 212, "time_elapsed": 374229, "internal_node_id": "0.0-8.0-26.0"}}, {"uniqueid": "w25757197:a36948857", "current_trial": 213, "dateTime": 1664368400671, "trialdata": {"rt": 704, "stimulus": "<p id='stroop-text' class='stroop-green'>YELLOW</p>", "response": "g", "stimulus-type": "incongruent", "word": "yellow", "color": "green", "correct_response": "g", "trial_id": "stroop-trial-1-incongruent-17", "trial_type": "html-keyboard-response", "trial_index": 213, "time_elapsed": 375439, "internal_node_id": "0.0-8.0-27.0"}}, {"uniqueid": "w25757197:a36948857", "current_trial": 214, "dateTime": 1664368402005, "trialdata": {"rt": 831, "stimulus": "<p id='stroop-text' class='stroop-yellow'>BRAIN</p>", "response": "y", "stimulus-type": "unrelated", "word": "BRAIN", "color": "yellow", "correct_response": "y", "trial_id": "stroop-trial-1-unrelated-19", "trial_type": "html-keyboard-response", "trial_index": 214, "time_elapsed": 376773, "internal_node_id": "0.0-8.0-28.0"}}, {"uniqueid": "w25757197:a36948857", "current_trial": 215, "dateTime": 1664368403974, "trialdata": {"rt": 1466, "stimulus": "<p id='stroop-text' class='stroop-red'>BLUE</p>", "response": "r", "stimulus-type": "incongruent", "word": "blue", "color": "red", "correct_response": "r", "trial_id": "stroop-trial-1-incongruent-7", "trial_type": "html-keyboard-response", "trial_index": 215, "time_elapsed": 378743, "internal_node_id": "0.0-8.0-29.0"}}, {"uniqueid": "w25757197:a36948857", "current_trial": 216, "dateTime": 1664368404968, "trialdata": {"rt": 488, "stimulus": "<p id='stroop-text' class='stroop-red'>RED</p>", "response": "r", "stimulus-type": "congruent", "word": "red", "color": "red", "correct_response": "r", "trial_id": "stroop-trial-1-congruent-30", "trial_type": "html-keyboard-response", "trial_index": 216, "time_elapsed": 379737, "internal_node_id": "0.0-8.0-30.0"}}, {"uniqueid": "w25757197:a36948857", "current_trial": 217, "dateTime": 1664368406485, "trialdata": {"rt": 1012, "stimulus": "<p id='stroop-text' class='stroop-yellow'>GREEN</p>", "response": "y", "stimulus-type": "incongruent", "word": "green", "color": "yellow", "correct_response": "y", "trial_id": "stroop-trial-1-incongruent-19", "trial_type": "html-keyboard-response", "trial_index": 217, "time_elapsed": 381254, "internal_node_id": "0.0-8.0-31.0"}}, {"uniqueid": "w25757197:a36948857", "current_trial": 218, "dateTime": 1664368407727, "trialdata": {"rt": 736, "stimulus": "<p id='stroop-text' class='stroop-green'>RED</p>", "response": "g", "stimulus-type": "incongruent", "word": "red", "color": "green", "correct_response": "g", "trial_id": "stroop-trial-1-incongruent-29", "trial_type": "html-keyboard-response", "trial_index": 218, "time_elapsed": 382495, "internal_node_id": "0.0-8.0-32.0"}}, {"uniqueid": "w25757197:a36948857", "current_trial": 219, "dateTime": 1664368409011, "trialdata": {"rt": 778, "stimulus": "<p id='stroop-text' class='stroop-green'>GREEN</p>", "response": "g", "stimulus-type": "congruent", "word": "green", "color": "green", "correct_response": "g", "trial_id": "stroop-trial-1-congruent-1", "trial_type": "html-keyboard-response", "trial_index": 219, "time_elapsed": 383779, "internal_node_id": "0.0-8.0-33.0"}}, {"uniqueid": "w25757197:a36948857", "current_trial": 220, "dateTime": 1664368412749, "trialdata": {"rt": 3233, "stimulus": "<p id='stroop-text' class='stroop-blue'>BLUE</p>", "response": "b", "stimulus-type": "congruent", "word": "blue", "color": "blue", "correct_response": "b", "trial_id": "stroop-trial-1-congruent-22", "trial_type": "html-keyboard-response", "trial_index": 220, "time_elapsed": 387518, "internal_node_id": "0.0-8.0-34.0"}}, {"uniqueid": "w25757197:a36948857", "current_trial": 221, "dateTime": 1664368413721, "trialdata": {"rt": 466, "stimulus": "<p id='stroop-text' class='stroop-blue'>RED</p>", "response": "b", "stimulus-type": "incongruent", "word": "red", "color": "blue", "correct_response": "b", "trial_id": "stroop-trial-1-incongruent-16", "trial_type": "html-keyboard-response", "trial_index": 221, "time_elapsed": 388489, "internal_node_id": "0.0-8.0-35.0"}}, {"uniqueid": "w25757197:a36948857", "current_trial": 222, "dateTime": 1664368414875, "trialdata": {"rt": 649, "stimulus": "<p id='stroop-text' class='stroop-green'>BRAIN</p>", "response": "g", "stimulus-type": "unrelated", "word": "BRAIN", "color": "green", "correct_response": "g", "trial_id": "stroop-trial-1-unrelated-