{"condition": 0, "counterbalance": 0, "assignmentId": "a44943546", "workerId": "w96450456", "hitId": "h27877062", "currenttrial": 965, "bonus": 0, "data": [{"uniqueid": "w96450456:a44943546", "current_trial": 0, "dateTime": 1664368091410, "trialdata": {"success": true, "trial_type": "fullscreen", "trial_index": 0, "time_elapsed": 7174, "internal_node_id": "0.0-0.0"}}, {"uniqueid": "w96450456:a44943546", "current_trial": 1, "dateTime": 1664368117417, "trialdata": {"view_history": [{"page_index": 0, "viewing_time": 25955}], "rt": 25958, "trial_id": "exp_instructions_distractor", "trial_type": "instructions", "trial_index": 1, "time_elapsed": 33182, "internal_node_id": "0.0-1.0"}}, {"uniqueid": "w96450456:a44943546", "current_trial": 2, "dateTime": 1664368157932, "trialdata": {"view_history": [{"page_index": 0, "viewing_time": 40504}], "rt": 40505, "trial_id": "color_game_instructions", "trial_type": "instructions", "trial_index": 2, "time_elapsed": 73697, "internal_node_id": "0.0-2.0"}}, {"uniqueid": "w96450456:a44943546", "current_trial": 3, "dateTime": 1664368161756, "trialdata": {"rt": 3811, "stimulus": "<h1> Get ready to start the game! </h1>\n\nThank you for reading the instructions. Get ready start with the first of 5 block(s) of this game.\n<br><br>\nIn this first block, you will complete 90 rounds of this game before moving on.\n<br><br>\nRemember, the better you perform, the bigger your bonus will be!\n<br><br>\n<div style='text-align: center;'>Press <code>space</code> to begin.</div>", "response": " ", "trial_id": "stroop_1_ready_1", "trial_type": "html-keyboard-response", "trial_index": 3, "time_elapsed": 77521, "internal_node_id": "0.0-3.0"}}, {"uniqueid": "w96450456:a44943546", "current_trial": 4, "dateTime": 1664368163283, "trialdata": {"rt": 1485, "stimulus": "<p id='stroop-text' class='stroop-red'>BRAIN</p>", "response": "r", "stimulus-type": "unrelated", "word": "BRAIN", "color": "red", "correct_response": "r", "trial_id": "stroop-trial-1-unrelated-6", "trial_type": "html-keyboard-response", "trial_index": 4, "time_elapsed": 79047, "internal_node_id": "0.0-4.0-0.0"}}, {"uniqueid": "w96450456:a44943546", "current_trial": 5, "dateTime": 1664368165236, "trialdata": {"rt": 1440, "stimulus": "<p id='stroop-text' class='stroop-red'>YELLOW</p>", "response": "y", "stimulus-type": "incongruent", "word": "yellow", "color": "red", "correct_response": "r", "trial_id": "stroop-trial-1-incongruent-25", "trial_type": "html-keyboard-response", "trial_index": 5, "time_elapsed": 81000, "internal_node_id": "0.0-4.0-1.0"}}, {"uniqueid": "w96450456:a44943546", "current_trial": 6, "dateTime": 1664368167362, "trialdata": {"rt": 1607, "stimulus": "<p id='stroop-text' class='stroop-blue'>CHAIR</p>", "response": "b", "stimulus-type": "unrelated", "word": "CHAIR", "color": "blue", "correct_response": "b", "trial_id": "stroop-trial-1-unrelated-13", "trial_type": "html-keyboard-response", "trial_index": 6, "time_elapsed": 83127, "internal_node_id": "0.0-4.0-2.0"}}, {"uniqueid": "w96450456:a44943546", "current_trial": 7, "dateTime": 1664368169326, "trialdata": {"rt": 1452, "stimulus": "<p id='stroop-text' class='stroop-blue'>GREEN</p>", "response": "g", "stimulus-type": "incongruent", "word": "green", "color": "blue", "correct_response": "b", "trial_id": "stroop-trial-1-incongruent-16", "trial_type": "html-keyboard-response", "trial_index": 7, "time_elapsed": 85088, "internal_node_id": "0.0-4.0-3.0"}}, {"uniqueid": "w96450456:a44943546", "current_trial": 8, "dateTime": 1664368171911, "trialdata": {"rt": 2056, "stimulus": "<p id='stroop-text' class='stroop-red'>YELLOW</p>", "response": "b", "stimulus-type": "incongruent", "word": "yellow", "color": "red", "correct_response": "r", "trial_id": "stroop-trial-1-incongruent-10", "trial_type": "html-keyboard-response", "trial_index": 8, "time_elapsed": 87674, "internal_node_id": "0.0-4.0-4.0"}}, {"uniqueid": "w96450456:a44943546", "current_trial": 9, "dateTime": 1664368173479, "trialdata": {"rt": 1046, "stimulus": "<p id='stroop-text' class='stroop-red'>BOTTLE</p>", "response": "r", "stimulus-type": "unrelated", "word": "BOTTLE", "color": "red", "correct_response": "r", "trial_id": "stroop-trial-1-unrelated-12", "trial_type": "html-keyboard-response", "trial_index": 9, "time_elapsed": 89244, "internal_node_id": "0.0-4.0-5.0"}}, {"uniqueid": "w96450456:a44943546", "current_trial": 10, "dateTime": 1664368175986, "trialdata": {"rt": 2000, "stimulus": "<p id='stroop-text' class='stroop-green'>YELLOW</p>", "response": "g", "stimulus-type": "incongruent", "word": "yellow", "color": "green", "correct_response": "g", "trial_id": "stroop-trial-1-incongruent-23", "trial_type": "html-keyboard-response", "trial_index": 10, "time_elapsed": 91752, "internal_node_id": "0.0-4.0-6.0"}}, {"uniqueid": "w96450456:a44943546", "current_trial": 11, "dateTime": 1664368177301, "trialdata": {"rt": 806, "stimulus": "<p id='stroop-text' class='stroop-blue'>WINDOW</p>", "response": "b", "stimulus-type": "unrelated", "word": "WINDOW", "color": "blue", "correct_response": "b", "trial_id": "stroop-trial-1-unrelated-25", "trial_type": "html-keyboard-response", "trial_index": 11, "time_elapsed": 93066, "internal_node_id": "0.0-4.0-7.0"}}, {"uniqueid": "w96450456:a44943546", "current_trial": 12, "dateTime": 1664368178598, "trialdata": {"rt": 783, "stimulus": "<p id='stroop-text' class='stroop-blue'>YELLOW</p>", "response": "g", "stimulus-type": "incongruent", "word": "yellow", "color": "blue", "correct_response": "b", "trial_id": "stroop-trial-1-incongruent-19", "trial_type": "html-keyboard-response", "trial_index": 12, "time_elapsed": 94362, "internal_node_id": "0.0-4.0-8.0"}}, {"uniqueid": "w96450456:a44943546", "current_trial": 13, "dateTime": 1664368180256, "trialdata": {"rt": 1140, "stimulus": "<p id='stroop-text' class='stroop-blue'>GREEN</p>", "response": "b", "stimulus-type": "incongruent", "word": "green", "color": "blue", "correct_response": "b", "trial_id": "stroop-trial-1-incongruent-28", "trial_type": "html-keyboard-response", "trial_index": 13, "time_elapsed": 96018, "internal_node_id": "0.0-4.0-9.0"}}, {"uniqueid": "w96450456:a44943546", "current_trial": 14, "dateTime": 1664368181961, "trialdata": {"rt": 1190, "stimulus": "<p id='stroop-text' class='stroop-green'>BLUE</p>", "response": "g", "stimulus-type": "incongruent", "word": "blue", "color": "green", "correct_response": "g", "trial_id": "stroop-trial-1-incongruent-30", "trial_type": "html-keyboard-response", "trial_index": 14, "time_elapsed": 97725, "internal_node_id": "0.0-4.0-10.0"}}, {"uniqueid": "w96450456:a44943546", "current_trial": 15, "dateTime": 1664368183627, "trialdata": {"rt": 1155, "stimulus": "<p id='stroop-text' class='stroop-blue'>WINDOW</p>", "response": "b", "stimulus-type": "unrelated", "word": "WINDOW", "color": "blue", "correct_response": "b", "trial_id": "stroop-trial-1-unrelated-16", "trial_type": "html-keyboard-response", "trial_index": 15, "time_elapsed": 99391, "internal_node_id": "0.0-4.0-11.0"}}, {"uniqueid": "w96450456:a44943546", "current_trial": 16, "dateTime": 1664368184934, "trialdata": {"rt": 798, "stimulus": "<p id='stroop-text' class='stroop-yellow'>BRAIN</p>", "response": "r", "stimulus-type": "unrelated", "word": "BRAIN", "color": "yellow", "correct_response": "y", "trial_id": "stroop-trial-1-unrelated-29", "trial_type": "html-keyboard-response", "trial_index": 16, "time_elapsed": 100699, "internal_node_id": "0.0-4.0-12.0"}}, {"uniqueid": "w96450456:a44943546", "current_trial": 17, "dateTime": 1664368186363, "trialdata": {"rt": 915, "stimulus": "<p id='stroop-text' class='stroop-yellow'>BOTTLE</p>", "response": "y", "stimulus-type": "unrelated", "word": "BOTTLE", "color": "yellow", "correct_response": "y", "trial_id": "stroop-trial-1-unrelated-20", "trial_type": "html-keyboard-response", "trial_index": 17, "time_elapsed": 102126, "internal_node_id": "0.0-4.0-13.0"}}, {"uniqueid": "w96450456:a44943546", "current_trial": 18, "dateTime": 1664368187447, "trialdata": {"rt": 559, "stimulus": "<p id='stroop-text' class='stroop-yellow'>BRIDGE</p>", "response": "y", "stimulus-type": "unrelated", "word": "BRIDGE", "color": "yellow", "correct_response": "y", "trial_id": "stroop-trial-1-unrelated-27", "trial_type": "html-keyboard-response", "trial_index": 18, "time_elapsed": 103212, "internal_node_id": "0.0-4.0-14.0"}}, {"uniqueid": "w96450456:a44943546", "current_trial": 19, "dateTime": 1664368188483, "trialdata": {"rt": 517, "stimulus": "<p id='stroop-text' class='stroop-green'>GREEN</p>", "response": "g", "stimulus-type": "congruent", "word": "green", "color": "green", "correct_response": "g", "trial_id": "stroop-trial-1-congruent-15", "trial_type": "html-keyboard-response", "trial_index": 19, "time_elapsed": 104248, "internal_node_id": "0.0-4.0-15.0"}}, {"uniqueid": "w96450456:a44943546", "current_trial": 20, "dateTime": 1664368189570, "trialdata": {"rt": 573, "stimulus": "<p id='stroop-text' class='stroop-red'>STONE</p>", "response": "r", "stimulus-type": "unrelated", "word": "STONE", "color": "red", "correct_response": "r", "trial_id": "stroop-trial-1-unrelated-3", "trial_type": "html-keyboard-response", "trial_index": 20, "time_elapsed": 105334, "internal_node_id": "0.0-4.0-16.0"}}, {"uniqueid": "w96450456:a44943546", "current_trial": 21, "dateTime": 1664368190747, "trialdata": {"rt": 657, "stimulus": "<p id='stroop-text' class='stroop-yellow'>YELLOW</p>", "response": "y", "stimulus-type": "congruent", "word": "yellow", "color": "yellow", "correct_response": "y", "trial_id": "stroop-trial-1-congruent-17", "trial_type": "html-keyboard-response", "trial_index": 21, "time_elapsed": 106512, "internal_node_id": "0.0-4.0-17.0"}}, {"uniqueid": "w96450456:a44943546", "current_trial": 22, "dateTime": 1664368191978, "trialdata": {"rt": 716, "stimulus": "<p id='stroop-text' class='stroop-green'>GREEN</p>", "response": "b", "stimulus-type": "congruent", "word": "green", "color": "green", "correct_response": "g", "trial_id": "stroop-trial-1-congruent-27", "trial_type": "html-keyboard-response", "trial_index": 22, "time_elapsed": 107741, "internal_node_id": "0.0-4.0-18.0"}}, {"uniqueid": "w96450456:a44943546", "current_trial": 23, "dateTime": 1664368193570, "trialdata": {"rt": 1079, "stimulus": "<p id='stroop-text' class='stroop-blue'>YELLOW</p>", "response": "b", "stimulus-type": "incongruent", "word": "yellow", "color": "blue", "correct_response": "b", "trial_id": "stroop-trial-1-incongruent-24", "trial_type": "html-keyboard-response", "trial_index": 23, "time_elapsed": 109334, "internal_node_id": "0.0-4.0-19.0"}}, {"uniqueid": "w96450456:a44943546", "current_trial": 24, "dateTime": 1664368194675, "trialdata": {"rt": 585, "stimulus": "<p id='stroop-text' class='stroop-yellow'>WINDOW</p>", "response": "y", "stimulus-type": "unrelated", "word": "WINDOW", "color": "yellow", "correct_response": "y", "trial_id": "stroop-trial-1-unrelated-23", "trial_type": "html-keyboard-response", "trial_index": 24, "time_elapsed": 110439, "internal_node_id": "0.0-4.0-20.0"}}, {"uniqueid": "w96450456:a44943546", "current_trial": 25, "dateTime": 1664368195869, "trialdata": {"rt": 680, "stimulus": "<p id='stroop-text' class='stroop-blue'>BLUE</p>", "response": "b", "stimulus-type": "congruent", "word": "blue", "color": "blue", "correct_response": "b", "trial_id": "stroop-trial-1-congruent-1", "trial_type": "html-keyboard-response", "trial_index": 25, "time_elapsed": 111633, "internal_node_id": "0.0-4.0-21.0"}}, {"uniqueid": "w96450456:a44943546", "current_trial": 26, "dateTime": 1664368197007, "trialdata": {"rt": 619, "stimulus": "<p id='stroop-text' class='stroop-blue'>GREEN</p>", "response": "b", "stimulus-type": "incongruent", "word": "green", "color": "blue", "correct_response": "b", "trial_id": "stroop-trial-1-incongruent-3", "trial_type": "html-keyboard-response", "trial_index": 26, "time_elapsed": 112771, "internal_node_id": "0.0-4.0-22.0"}}, {"uniqueid": "w96450456:a44943546", "current_trial": 27, "dateTime": 1664368198180, "trialdata": {"rt": 653, "stimulus": "<p id='stroop-text' class='stroop-blue'>GREEN</p>", "response": "b", "stimulus-type": "incongruent", "word": "green", "color": "blue", "correct_response": "b", "trial_id": "stroop-trial-1-incongruent-6", "trial_type": "html-keyboard-response", "trial_index": 27, "time_elapsed": 113945, "internal_node_id": "0.0-4.0-23.0"}}, {"uniqueid": "w96450456:a44943546", "current_trial": 28, "dateTime": 1664368199455, "trialdata": {"rt": 765, "stimulus": "<p id='stroop-text' class='stroop-yellow'>RED</p>", "response": "r", "stimulus-type": "incongruent", "word": "red", "color": "yellow", "correct_response": "y", "trial_id": "stroop-trial-1-incongruent-4", "trial_type": "html-keyboard-response", "trial_index": 28, "time_elapsed": 115219, "internal_node_id": "0.0-4.0-24.0"}}, {"uniqueid": "w96450456:a44943546", "current_trial": 29, "dateTime": 1664368200947, "trialdata": {"rt": 967, "stimulus": "<p id='stroop-text' class='stroop-green'>GREEN</p>", "response": "g", "stimulus-type": "congruent", "word": "green", "color": "green", "correct_response": "g", "trial_id": "stroop-trial-1-congruent-6", "trial_type": "html-keyboard-response", "trial_index": 29, "time_elapsed": 116711, "internal_node_id": "0.0-4.0-25.0"}}, {"uniqueid": "w96450456:a44943546", "current_trial": 30, "dateTime": 1664368202733, "trialdata": {"rt": 1276, "stimulus": "<p id='stroop-text' class='stroop-green'>GREEN</p>", "response": "g", "stimulus-type": "congruent", "word": "green", "color": "green", "correct_response": "g", "trial_id": "stroop-trial-1-congruent-18", "trial_type": "html-keyboard-response", "trial_index": 30, "time_elapsed": 118498, "internal_node_id": "0.0-4.0-26.0"}}, {"uniqueid": "w96450456:a44943546", "current_trial": 31, "dateTime": 1664368205069, "trialdata": {"rt": 1826, "stimulus": "<p id='stroop-text' class='stroop-yellow'>GREEN</p>", "response": "y", "stimulus-type": "incongruent", "word": "green", "color": "yellow", "correct_response": "y", "trial_id": "stroop-trial-1-incongruent-12", "trial_type": "html-keyboard-response", "trial_index": 31, "time_elapsed": 120834, "internal_node_id": "0.0-4.0-27.0"}}, {"uniqueid": "w96450456:a44943546", "current_trial": 32, "dateTime": 1664368206150, "trialdata": {"rt": 573, "stimulus": "<p id='stroop-text' class='stroop-yellow'>CHAIR</p>", "response": "y", "stimulus-type": "unrelated", "word": "CHAIR", "color": "yellow", "correct_response": "y", "trial_id": "stroop-trial-1-unrelated-22", "trial_type": "html-keyboard-response", "trial_index": 32, "time_elapsed": 121915, "internal_node_id": "0.0-4.0-28.0"}}, {"uniqueid": "w96450456:a44943546", "current_trial": 33, "dateTime": 1664368208597, "trialdata": {"rt": 1940, "stimulus": "<p id='stroop-text' class='stroop-green'>BOAT</p>", "response": "g", "stimulus-type": "unrelated", "word": "BOAT", "color": "green", "correct_response": "g", "trial_id": "stroop-trial-1-unrelated-15", "trial_type": "html-keyboard-response", "trial_index": 33, "time_elapsed": 124362, "internal_node_id": "0.0-4.0-29.0"}}, {"uniqueid": "w96450456:a44943546", "current_trial": 34, "dateTime": 1664368210988, "trialdata": {"rt": 1884, "stimulus": "<p id='stroop-text' class='stroop-yellow'>CHAIR</p>", "response": "y", "stimulus-type": "unrelated", "word": "CHAIR", "color": "yellow", "correct_response": "y", "trial_id": "stroop-trial-1-unrelated-1", "trial_type": "html-keyboard-response", "trial_index": 34, "time_elapsed": 126753, "internal_node_id": "0.0-4.0-30.0"}}, {"uniqueid": "w96450456:a44943546", "current_trial": 35, "dateTime": 1664368212797, "trialdata": {"rt": 1297, "stimulus": "<p id='stroop-text' class='stroop-yellow'>YELLOW</p>", "response": "y", "stimulus-type": "congruent", "word": "yellow", "color": "yellow", "correct_response": "y", "trial_id": "stroop-trial-1-congruent-13", "trial_type": "html-keyboard-response", "trial_index": 35, "time_elapsed": 128562, "internal_node_id": "0.0-4.0-31.0"}}, {"uniqueid": "w96450456:a44943546", "current_trial": 36, "dateTime": 1664368215956, "trialdata": {"rt": 2638, "stimulus": "<p id='stroop-text' class='stroop-red'>BLUE</p>", "response": "r", "stimulus-type": "incongruent", "word": "blue", "color": "red", "correct_response": "r", "trial_id": "stroop-trial-1-incongruent-8", "trial_type": "html-keyboard-response", "trial_index": 36, "time_elapsed": 131721, "internal_node_id": "0.0-4.0-32.0"}}, {"uniqueid": "w96450456:a44943546", "current_trial": 37, "dateTime": 1664368220671, "trialdata": {"rt": 4207, "stimulus": "<p id='stroop-text' class='stroop-blue'>BLUE</p>", "response": "b", "stimulus-type": "congruent", "word": "blue", "color": "blue", "correct_response": "b", "trial_id": "stroop-trial-1-congruent-5", "trial_type": "html-keyboard-response", "trial_index": 37, "time_elapsed": 136436, "internal_node_id": "0.0-4.0-33.0"}}, {"uniqueid": "w96450456:a44943546", "current_trial": 38, "dateTime": 1664368222418, "trialdata": {"rt": 1238, "stimulus": "<p id='stroop-text' class='stroop-yellow'>RED</p>", "response": "y", "stimulus-type": "incongruent", "word": "red", "color": "yellow", "correct_response": "y", "trial_id": "stroop-trial-1-incongruent-7", "trial_type": "html-keyboard-response", "trial_index": 38, "time_elapsed": 138182, "internal_node_id": "0.0-4.0-34.0"}}, {"uniqueid": "w96450456:a44943546", "current_trial": 39, "dateTime": 1664368223904, "trialdata": {"rt": 965, "stimulus": "<p id='stroop-text' class='stroop-red'>RED</p>", "response": "r", "stimulus-type": "congruent", "word": "red", "color": "red", "correct_response": "r", "trial_id": "stroop-trial-1-congruent-21", "trial_type": "html-keyboard-response", "trial_index": 39, "time_elapsed": 139669, "internal_node_id": "0.0-4.0-35.0"}}, {"uniqueid": "w96450456:a44943546", "current_trial": 40, "dateTime": 1664368225968, "trialdata": {"rt": 1553, "stimulus": "<p id='stroop-text' class='stroop-yellow'>YELLOW</p>", "response": "b", "stimulus-type": "congruent", "word": "yellow", "color": "yellow", "correct_response": "y", "trial_id": "stroop-trial-1-congruent-26", "trial_type": "html-keyboard-response", "trial_index": 40, "time_elapsed": 141732, "internal_node_id": "0.0-4.0-36.0"}}, {"uniqueid": "w96450456:a44943546", "current_trial": 41, "dateTime": 1664368227572, "trialdata": {"rt": 1088, "stimulus": "<p id='stroop-text' class='stroop-green'>BRAIN</p>", "response": "g", "stimulus-type": "unrelated", "word": "BRAIN", "color": "green", "correct_response": "g", "trial_id": "stroop-trial-1-unrelated-7", "trial_type": "html-keyboard-response", "trial_index": 41, "time_elapsed": 143337, "internal_node_id": "0.0-4.0-37.0"}}, {"uniqueid": "w96450456:a44943546", "current_trial": 42, "dateTime": 1664368229328, "trialdata": {"rt": 1247, "stimulus": "<p id='stroop-text' class='stroop-yellow'>RED</p>", "response": "y", "stimulus-type": "incongruent", "word": "red", "color": "yellow", "correct_response": "y", "trial_id": "stroop-trial-1-incongruent-14", "trial_type": "html-keyboard-response", "trial_index": 42, "time_elapsed": 145091, "internal_node_id": "0.0-4.0-38.0"}}, {"uniqueid": "w96450456:a44943546", "current_trial": 43, "dateTime": 1664368230601, "trialdata": {"rt": 758, "stimulus": "<p id='stroop-text' class='stroop-yellow'>YELLOW</p>", "response": "y", "stimulus-type": "congruent", "word": "yellow", "color": "yellow", "correct_response": "y", "trial_id": "stroop-trial-1-congruent-11", "trial_type": "html-keyboard-response", "trial_index": 43, "time_elapsed": 146366, "internal_node_id": "0.0-4.0-39.0"}}, {"uniqueid": "w96450456:a44943546", "current_trial": 44, "dateTime": 1664368232135, "trialdata": {"rt": 1022, "stimulus": "<p id='stroop-text' class='stroop-red'>RED</p>", "response": "r", "stimulus-type": "congruent", "word": "red", "color": "red", "correct_response": "r", "trial_id": "stroop-trial-1-congruent-29", "trial_type": "html-keyboard-response", "trial_index": 44, "time_elapsed": 147899, "internal_node_id": "0.0-4.0-40.0"}}, {"uniqueid": "w96450456:a44943546", "current_trial": 45, "dateTime": 1664368233874, "trialdata": {"rt": 1222, "stimulus": "<p id='stroop-text' class='stroop-green'>GREEN</p>", "response": "g", "stimulus-type": "congruent", "word": "green", "color": "green", "correct_response": "g", "trial_id": "stroop-trial-1-congruent-24", "trial_type": "html-keyboard-response", "trial_index": 45, "time_elapsed": 149639, "internal_node_id": "0.0-4.0-41.0"}}, {"uniqueid": "w96450456:a44943546", "current_trial": 46, "dateTime": 1664368235182, "trialdata": {"rt": 799, "stimulus": "<p id='stroop-text' class='stroop-blue'>YELLOW</p>", "response": "b", "stimulus-type": "incongruent", "word": "yellow", "color": "blue", "correct_response": "b", "trial_id": "stroop-trial-1-incongruent-17", "trial_type": "html-keyboard-response", "trial_index": 46, "time_elapsed": 150947, "internal_node_id": "0.0-4.0-42.0"}}, {"uniqueid": "w96450456:a44943546", "current_trial": 47, "dateTime": 1664368236575, "trialdata": {"rt": 882, "stimulus": "<p id='stroop-text' class='stroop-blue'>STONE</p>", "response": "b", "stimulus-type": "unrelated", "word": "STONE", "color": "blue", "correct_response": "b", "trial_id": "stroop-trial-1-unrelated-17", "trial_type": "html-keyboard-response", "trial_index": 47, "time_elapsed": 152339, "internal_node_id": "0.0-4.0-43.0"}}, {"uniqueid": "w96450456:a44943546", "current_trial": 48, "dateTime": 1664368237885, "trialdata": {"rt": 795, "stimulus": "<p id='stroop-text' class='stroop-yellow'>YELLOW</p>", "response": "y", "stimulus-type": "congruent", "word": "yellow", "color": "yellow", "correct_response": "y", "trial_id": "stroop-trial-1-congruent-3", "trial_type": "html-keyboard-response", "trial_index": 48, "time_elapsed": 153650, "internal_node_id": "0.0-4.0-44.0"}}, {"uniqueid": "w96450456:a44943546", "current_trial": 49, "dateTime": 1664368239212, "trialdata": {"rt": 817, "stimulus": "<p id='stroop-text' class='stroop-red'>DOG</p>", "response": "r", "stimulus-type": "unrelated", "word": "DOG", "color": "red", "correct_response": "r", "trial_id": "stroop-trial-1-unrelated-8", "trial_type": "html-keyboard-response", "trial_index": 49, "time_elapsed": 154977, "internal_node_id": "0.0-4.0-45.0"}}, {"uniqueid": "w96450456:a44943546", "current_trial": 50, "dateTime": 1664368240602, "trialdata": {"rt": 876, "stimulus": "<p id='stroop-text' class='stroop-green'>GREEN</p>", "response": "g", "stimulus-type": "congruent", "word": "green", "color": "green", "correct_response": "g", "trial_id": "stroop-trial-1-congruent-7", "trial_type": "html-keyboard-response", "trial_index": 50, "time_elapsed": 156366, "internal_node_id": "0.0-4.0-46.0"}}, {"uniqueid": "w96450456:a44943546", "current_trial": 51, "dateTime": 1664368242137, "trialdata": {"rt": 1025, "stimulus": "<p id='stroop-text' class='stroop-red'>BOAT</p>", "response": "r", "stimulus-type": "unrelated", "word": "BOAT", "color": "red", "correct_response": "r", "trial_id": "stroop-trial-1-unrelated-18", "trial_type": "html-keyboard-response", "trial_index": 51, "time_elapsed": 157902, "internal_node_id": "0.0-4.0-47.0"}}, {"uniqueid": "w96450456:a44943546", "current_trial": 52, "dateTime": 1664368243427, "trialdata": {"rt": 779, "stimulus": "<p id='stroop-text' class='stroop-blue'>BRIDGE</p>", "response": "b", "stimulus-type": "unrelated", "word": "BRIDGE", "color": "blue", "correct_response": "b", "trial_id": "stroop-trial-1-unrelated-11", "trial_type": "html-keyboard-response", "trial_index": 52, "time_elapsed": 159192, "internal_node_id": "0.0-4.0-48.0"}}, {"uniqueid": "w96450456:a44943546", "current_trial": 53, "dateTime": 1664368245068, "trialdata": {"rt": 1130, "stimulus": "<p id='stroop-text' class='stroop-red'>YELLOW</p>", "response": "r", "stimulus-type": "incongruent", "word": "yellow", "color": "red", "correct_response": "r", "trial_id": "stroop-trial-1-incongruent-1", "trial_type": "html-keyboard-response", "trial_index": 53, "time_elapsed": 160834, "internal_node_id": "0.0-4.0-49.0"}}, {"uniqueid": "w96450456:a44943546", "current_trial": 54, "dateTime": 1664368246798, "trialdata": {"rt": 1215, "stimulus": "<p id='stroop-text' class='stroop-red'>RED</p>", "response": "r", "stimulus-type": "congruent", "word": "red", "color": "red", "correct_response": "r", "trial_id": "stroop-trial-1-congruent-4", "trial_type": "html-keyboard-response", "trial_index": 54, "time_elapsed": 162563, "internal_node_id": "0.0-4.0-50.0"}}, {"uniqueid": "w96450456:a44943546", "current_trial": 55, "dateTime": 1664368247832, "trialdata": {"rt": 505, "stimulus": "<p id='stroop-text' class='stroop-red'>RED</p>", "response": "r", "stimulus-type": "congruent", "word": "red", "color": "red", "correct_response": "r", "trial_id": "stroop-trial-1-congruent-14", "trial_type": "html-keyboard-response", "trial_index": 55, "time_elapsed": 163596, "internal_node_id": "0.0-4.0-51.0"}}, {"uniqueid": "w96450456:a44943546", "current_trial": 56, "dateTime": 1664368248911, "trialdata": {"rt": 562, "stimulus": "<p id='stroop-text' class='stroop-blue'>BLUE</p>", "response": "b", "stimulus-type": "congruent", "word": "blue", "color": "blue", "correct_response": "b", "trial_id": "stroop-trial-1-congruent-30", "trial_type": "html-keyboard-response", "trial_index": 56, "time_elapsed": 164676, "internal_node_id": "0.0-4.0-52.0"}}, {"uniqueid": "w96450456:a44943546", "current_trial": 57, "dateTime": 1664368250676, "trialdata": {"rt": 1251, "stimulus": "<p id='stroop-text' class='stroop-green'>GREEN</p>", "response": "g", "stimulus-type": "congruent", "word": "green", "color": "green", "correct_response": "g", "trial_id": "stroop-trial-1-congruent-23", "trial_type": "html-keyboard-response", "trial_index": 57, "time_elapsed": 166440, "internal_node_id": "0.0-4.0-53.0"}}, {"uniqueid": "w96450456:a44943546", "current_trial": 58, "dateTime": 1664368252198, "trialdata": {"rt": 998, "stimulus": "<p id='stroop-text' class='stroop-red'>YELLOW</p>", "response": "r", "stimulus-type": "incongruent", "word": "yellow", "color": "red", "correct_response": "r", "trial_id": "stroop-trial-1-incongruent-20", "trial_type": "html-keyboard-response", "trial_index": 58, "time_elapsed": 167962, "internal_node_id": "0.0-4.0-54.0"}}, {"uniqueid": "w96450456:a44943546", "current_trial": 59, "dateTime": 1664368253346, "trialdata": {"rt": 620, "stimulus": "<p id='stroop-text' class='stroop-red'>SHIP</p>", "response": "r", "stimulus-type": "unrelated", "word": "SHIP", "color": "red", "correct_response": "r", "trial_id": "stroop-trial-1-unrelated-9", "trial_type": "html-keyboard-response", "trial_index": 59, "time_elapsed": 169111, "internal_node_id": "0.0-4.0-55.0"}}, {"uniqueid": "w96450456:a44943546", "current_trial": 60, "dateTime": 1664368254728, "trialdata": {"rt": 866, "stimulus": "<p id='stroop-text' class='stroop-blue'>BOTTLE</p>", "response": "b", "stimulus-type": "unrelated", "word": "BOTTLE", "color": "blue", "correct_response": "b", "trial_id": "stroop-trial-1-unrelated-30", "trial_type": "html-keyboard-response", "trial_index": 60, "time_elapsed": 170494, "internal_node_id": "0.0-4.0-56.0"}}, {"uniqueid": "w96450456:a44943546", "current_trial": 61, "dateTime": 1664368255709, "trialdata": {"rt": 446, "stimulus": "<p id='stroop-text' class='stroop-blue'>FORK</p>", "response": "b", "stimulus-type": "unrelated", "word": "FORK", "color": "blue", "correct_response": "b", "trial_id": "stroop-trial-1-unrelated-5", "trial_type": "html-keyboard-response", "trial_index": 61, "time_elapsed": 171474, "internal_node_id": "0.0-4.0-57.0"}}, {"uniqueid": "w96450456:a44943546", "current_trial": 62, "dateTime": 1664368257647, "trialdata": {"rt": 1414, "stimulus": "<p id='stroop-text' class='stroop-green'>YELLOW</p>", "response": "g", "stimulus-type": "incongruent", "word": "yellow", "color": "green", "correct_response": "g", "trial_id": "stroop-trial-1-incongruent-15", "trial_type": "html-keyboard-response", "trial_index": 62, "time_elapsed": 173413, "internal_node_id": "0.0-4.0-58.0"}}, {"uniqueid": "w96450456:a44943546", "current_trial": 63, "dateTime": 1664368259166, "trialdata": {"rt": 1008, "stimulus": "<p id='stroop-text' class='stroop-blue'>YELLOW</p>", "response": "b", "stimulus-type": "incongruent", "word": "yellow", "color": "blue", "correct_response": "b", "trial_id": "stroop-trial-1-incongruent-13", "trial_type": "html-keyboard-response", "trial_index": 63, "time_elapsed": 174930, "internal_node_id": "0.0-4.0-59.0"}}, {"uniqueid": "w96450456:a44943546", "current_trial": 64, "dateTime": 1664368261476, "trialdata": {"rt": 1789, "stimulus": "<p id='stroop-text' class='stroop-yellow'>YELLOW</p>", "response": "y", "stimulus-type": "congruent", "word": "yellow", "color": "yellow", "correct_response": "y", "trial_id": "stroop-trial-1-congruent-16", "trial_type": "html-keyboard-response", "trial_index": 64, "time_elapsed": 177240, "internal_node_id": "0.0-4.0-60.0"}}, {"uniqueid": "w96450456:a44943546", "current_trial": 65, "dateTime": 1664368262675, "trialdata": {"rt": 679, "stimulus": "<p id='stroop-text' class='stroop-red'>FORK</p>", "response": "r", "stimulus-type": "unrelated", "word": "FORK", "color": "red", "correct_response": "r", "trial_id": "stroop-trial-1-unrelated-14", "trial_type": "html-keyboard-response", "trial_index": 65, "time_elapsed": 178440, "internal_node_id": "0.0-4.0-61.0"}}, {"uniqueid": "w96450456:a44943546", "current_trial": 66, "dateTime": 1664368264811, "trialdata": {"rt": 1614, "stimulus": "<p id='stroop-text' class='stroop-green'>BLUE</p>", "response": "g", "stimulus-type": "incongruent", "word": "blue", "color": "green", "correct_response": "g", "trial_id": "stroop-trial-1-incongruent-22", "trial_type": "html-keyboard-response", "trial_index": 66, "time_elapsed": 180574, "internal_node_id": "0.0-4.0-62.0"}}, {"uniqueid": "w96450456:a44943546", "current_trial": 67, "dateTime": 1664368267536, "trialdata": {"rt": 2209, "stimulus": "<p id='stroop-text' class='stroop-green'>CHAIR</p>", "response": "g", "stimulus-type": "unrelated", "word": "CHAIR", "color": "green", "correct_response": "g", "trial_id": "stroop-trial-1-unrelated-24", "trial_type": "html-keyboard-response", "trial_index": 67, "time_elapsed": 183301, "internal_node_id": "0.0-4.0-63.0"}}, {"uniqueid": "w96450456:a44943546", "current_trial": 68, "dateTime": 1664368268601, "trialdata": {"rt": 555, "stimulus": "<p id='stroop-text' class='stroop-green'>YELLOW</p>", "response": "g", "stimulus-type": "incongruent", "word": "yellow", "color": "green", "correct_response": "g", "trial_id": "stroop-trial-1-incongruent-29", "trial_type": "html-keyboard-response", "trial_index": 68, "time_elapsed": 184366, "internal_node_id": "0.0-4.0-64.0"}}, {"uniqueid": "w96450456:a44943546", "current_trial": 69, "dateTime": 1664368270262, "trialdata": {"rt": 1133, "stimulus": "<p id='stroop-text' class='stroop-red'>GREEN</p>", "response": "r", "stimulus-type": "incongruent", "word": "green", "color": "red", "correct_response": "r", "trial_id": "stroop-trial-1-incongruent-18", "trial_type": "html-keyboard-response", "trial_index": 69, "time_elapsed": 186026, "internal_node_id": "0.0-4.0-65.0"}}, {"uniqueid": "w96450456:a44943546", "current_trial": 70, "dateTime": 1664368273097, "trialdata": {"rt": 2314, "stimulus": "<p id='stroop-text' class='stroop-blue'>MONKEY</p>", "response": "b", "stimulus-type": "unrelated", "word": "MONKEY", "color": "blue", "correct_response": "b", "trial_id": "stroop-trial-1-unrelated-4", "trial_type": "html-keyboard-response", "trial_index": 70, "time_elapsed": 188862, "internal_node_id": "0.0-4.0-66.0"}}, {"uniqueid": "w96450456:a44943546", "current_trial": 71, "dateTime": 1664368274514, "trialdata": {"rt": 905, "stimulus": "<p id='stroop-text' class='stroop-yellow'>YELLOW</p>", "response": "y", "stimulus-type": "congruent", "word": "yellow", "color": "yellow", "correct_response": "y", "trial_id": "stroop-trial-1-congruent-2", "trial_type": "html-keyboard-response", "trial_index": 71, "time_elapsed": 190278, "internal_node_id": "0.0-4.0-67.0"}}, {"uniqueid": "w96450456:a44943546", "current_trial": 72, "dateTime": 1664368277065, "trialdata": {"rt": 2022, "stimulus": "<p id='stroop-text' class='stroop-green'>BRIDGE</p>", "response": "g", "stimulus-type": "unrelated", "word": "BRIDGE", "color": "green", "correct_response": "g", "trial_id": "stroop-trial-1-unrelated-26", "trial_type": "html-keyboard-response", "trial_index": 72, "time_elapsed": 192830, "internal_node_id": "0.0-4.0-68.0"}}, {"uniqueid": "w96450456:a44943546", "current_trial": 73, "dateTime": 1664368278672, "trialdata": {"rt": 1083, "stimulus": "<p id='stroop-text' class='stroop-yellow'>YELLOW</p>", "response": "y", "stimulus-type": "congruent", "word": "yellow", "color": "yellow", "correct_response": "y", "trial_id": "stroop-trial-1-congruent-25", "trial_type": "html-keyboard-response", "trial_index": 73, "time_elapsed": 194422, "internal_node_id": "0.0-4.0-69.0"}}, {"uniqueid": "w96450456:a44943546", "current_trial": 74, "dateTime": 1664368283339, "trialdata": {"rt": 4152, "stimulus": "<p id='stroop-text' class='stroop-green'>BLUE</p>", "response": "g", "stimulus-type": "incongruent", "word": "blue", "color": "green", "correct_response": "g", "trial_id": "stroop-trial-1-incongruent-11", "trial_type": "html-keyboard-response", "trial_index": 74, "time_elapsed": 199104, "internal_node_id": "0.0-4.0-70.0"}}, {"uniqueid": "w96450456:a44943546", "current_trial": 75, "dateTime": 1664368287410, "trialdata": {"rt": 3555, "stimulus": "<p id='stroop-text' class='stroop-blue'>RED</p>", "response": "b", "stimulus-type": "incongruent", "word": "red", "color": "blue", "correct_response": "b", "trial_id": "stroop-trial-1-incongruent-26", "trial_type": "html-keyboard-response", "trial_index": 75, "time_elapsed": 203173, "internal_node_id": "0.0-4.0-71.0"}}, {"uniqueid": "w96450456:a44943546", "current_trial": 76, "dateTime": 1664368311735, "trialdata": {"rt": 23812, "stimulus": "<p id='stroop-text' class='stroop-green'>GREEN</p>", "response": "g", "stimulus-type": "congruent", "word": "green", "color": "green", "correct_response": "g", "trial_id": "stroop-trial-1-congruent-10", "trial_type": "html-keyboard-response", "trial_index": 76, "time_elapsed": 227500, "internal_node_id": "0.0-4.0-72.0"}}, {"uniqueid": "w96450456:a44943546", "current_trial": 77, "dateTime": 1664368314689, "trialdata": {"rt": 2435, "stimulus": "<p id='stroop-text' class='stroop-blue'>BLUE</p>", "response": "b", "stimulus-type": "congruent", "word": "blue", "color": "blue", "correct_response": "b", "trial_id": "stroop-trial-1-congruent-9", "trial_type": "html-keyboard-response", "trial_index": 77, "time_elapsed": 230455, "internal_node_id": "0.0-4.0-73.0"}}, {"uniqueid": "w96450456:a44943546", "current_trial": 78, "dateTime": 1664368316139, "trialdata": {"rt": 936, "stimulus": "<p id='stroop-text' class='stroop-yellow'>YELLOW</p>", "response": "y", "stimulus-type": "congruent", "word": "yellow", "color": "yellow", "correct_response": "y", "trial_id": "stroop-trial-1-congruent-28", "trial_type": "html-keyboard-response", "trial_index": 78, "time_elapsed": 231904, "internal_node_id": "0.0-4.0-74.0"}}, {"uniqueid": "w96450456:a44943546", "current_trial": 79, "dateTime": 1664368318481, "trialdata": {"rt": 1816, "stimulus": "<p id='stroop-text' class='stroop-yellow'>WINDOW</p>", "response": "y", "stimulus-type": "unrelated", "word": "WINDOW", "color": "yellow", "correct_response": "y", "trial_id": "stroop-trial-1-unrelated-10", "trial_type": "html-keyboard-response", "trial_index": 79, "time_elapsed": 234245, "internal_node_id": "0.0-4.0-75.0"}}, {"uniqueid": "w96450456:a44943546", "current_trial": 80, "dateTime": 1664368319839, "trialdata": {"rt": 832, "stimulus": "<p id='stroop-text' class='stroop-yellow'>RED</p>", "response": "y", "stimulus-type": "incongruent", "word": "red", "color": "yellow", "correct_response": "y", "trial_id": "stroop-trial-1-incongruent-27", "trial_type": "html-keyboard-response", "trial_index": 80, "time_elapsed": 235603, "internal_node_id": "0.0-4.0-76.0"}}, {"uniqueid": "w96450456:a44943546", "current_trial": 81, "dateTime": 1664368320867, "trialdata": {"rt": 509, "stimulus": "<p id='stroop-text' class='stroop-yellow'>YELLOW</p>", "response": "y", "stimulus-type": "congruent", "word": "yellow", "color": "yellow", "correct_response": "y", "trial_id": "stroop-trial-1-congruent-12", "trial_type": "html-keyboard-response", "trial_index": 81, "time_elapsed": 236632, "internal_node_id": "0.0-4.0-77.0"}}, {"uniqueid": "w96450456:a44943546", "current_trial": 82, "dateTime": 1664368322312, "trialdata": {"rt": 916, "stimulus": "<p id='stroop-text' class='stroop-blue'>GREEN</p>", "response": "b", "stimulus-type": "incongruent", "word": "green", "color": "blue", "correct_response": "b", "trial_id": "stroop-trial-1-incongruent-5", "trial_type": "html-keyboard-response", "trial_index": 82, "time_elapsed": 238078, "internal_node_id": "0.0-4.0-78.0"}}, {"uniqueid": "w96450456:a44943546", "current_trial": 83, "dateTime": 1664368323538, "trialdata": {"rt": 717, "stimulus": "<p id='stroop-text' class='stroop-yellow'>RED</p>", "response": "y", "stimulus-type": "incongruent", "word": "red", "color": "yellow", "correct_response": "y", "trial_id": "stroop-trial-1-incongruent-2", "trial_type": "html-keyboard-response", "trial_index": 83, "time_elapsed": 239303, "internal_node_id": "0.0-4.0-79.0"}}, {"uniqueid": "w96450456:a44943546", "current_trial": 84, "dateTime": 1664368325287, "trialdata": {"rt": 1235, "stimulus": "<p id='stroop-text' class='stroop-yellow'>BOTTLE</p>", "response": "y", "stimulus-type": "unrelated", "word": "BOTTLE", "color": "yellow", "correct_response": "y", "trial_id": "stroop-trial-1-unrelated-28", "trial_type": "html-keyboard-response", "trial_index": 84, "time_elapsed": 241052, "internal_node_id": "0.0-4.0-80.0"}}, {"uniqueid": "w96450456:a44943546", "current_trial": 85, "dateTime": 1664368326324, "trialdata": {"rt": 521, "stimulus": "<p id='stroop-text' class='stroop-blue'>BOTTLE</p>", "response": "b", "stimulus-type": "unrelated", "word": "BOTTLE", "color": "blue", "correct_response": "b", "trial_id": "stroop-trial-1-unrelated-19", "trial_type": "html-keyboard-response", "trial_index": 85, "time_elapsed": 242089, "internal_node_id": "0.0-4.0-81.0"}}, {"uniqueid": "w96450456:a44943546", "current_trial": 86, "dateTime": 1664368327351, "trialdata": {"rt": 515, "stimulus": "<p id='stroop-text' class='stroop-red'>GREEN</p>", "response": "r", "stimulus-type": "incongruent", "word": "green", "color": "red", "correct_response": "r", "trial_id": "stroop-trial-1-incongruent-21", "trial_type": "html-keyboard-response", "trial_index": 86, "time_elapsed": 243116, "internal_node_id": "0.0-4.0-82.0"}}, {"uniqueid": "w96450456:a44943546", "current_trial": 87, "dateTime": 1664368328340, "trialdata": {"rt": 470, "stimulus": "<p id='stroop-text' class='stroop-yellow'>YELLOW</p>", "response": "y", "stimulus-type": "congruent", "word": "yellow", "color": "yellow", "correct_response": "y", "trial_id": "stroop-trial-1-congruent-19", "trial_type": "html-keyboard-response", "trial_index": 87, "time_elapsed": 244105, "internal_node_id": "0.0-4.0-83.0"}}, {"uniqueid": "w96450456:a44943546", "current_trial": 88, "dateTime": 1664368329433, "trialdata": {"rt": 579, "stimulus": "<p id='stroop-text' class='stroop-green'>GREEN</p>", "response": "g", "stimulus-type": "congruent", "word": "green", "color": "green", "correct_response": "g", "trial_id": "stroop-trial-1-congruent-22", "trial_type": "html-keyboard-response", "trial_index": 88, "time_elapsed": 245198, "internal_node_id": "0.0-4.0-84.0"}}, {"uniqueid": "w96450456:a44943546", "current_trial": 89, "dateTime": 1664368330403, "trialdata": {"rt": 461, "stimulus": "<p id='stroop-text' class='stroop-green'>STONE</p>", "response": "g", "stimulus-type": "unrelated", "word": "STONE", "color": "green", "correct_response": "g", "trial_id": "stroop-trial-1-unrelated-21", "trial_type": "html-keyboard-response", "trial_index": 89, "time_elapsed": 246168, "internal_node_id": "0.0-4.0-85.0"}}, {"uniqueid": "w96450456:a44943546", "current_trial": 90, "dateTime": 1664368331335, "trialdata": {"rt": 420, "stimulus": "<p id='stroop-text' class='stroop-green'>BLUE</p>", "response": "g", "stimulus-type": "incongruent", "word": "blue", "color": "green", "correct_response": "g", "trial_id": "stroop-trial-1-incongruent-9", "trial_type": "html-keyboard-response", "trial_index": 90, "time_elapsed": 247101, "internal_node_id": "0.0-4.0-86.0"}}, {"uniqueid": "w96450456:a44943546", "current_trial": 91, "dateTime": 1664368332229, "trialdata": {"rt": 383, "stimulus": "<p id='stroop-text' class='stroop-green'>GREEN</p>", "response": "g", "stimulus-type": "congruent", "word": "green", "color": "green", "correct_response": "g", "trial_id": "stroop-trial-1-congruent-20", "trial_type": "html-keyboard-response", "trial_index": 91, "time_elapsed": 247992, "internal_node_id": "0.0-4.0-87.0"}}, {"uniqueid": "w96450456:a44943546", "current_trial": 92, "dateTime": 1664368333182, "trialdata": {"rt": 446, "stimulus": "<p id='stroop-text' class='stroop-red'>RED</p>", "response": "r", "stimulus-type": "congruent", "word": "red", "color": "red", "correct_response": "r", "trial_id": "stroop-trial-1-congruent-8", "trial_type": "html-keyboard-response", "trial_index": 92, "time_elapsed": 248948, "internal_node_id": "0.0-4.0-88.0"}}, {"uniqueid": "w96450456:a44943546", "current_trial": 93, "dateTime": 1664368334232, "trialdata": {"rt": 539, "stimulus": "<p id='stroop-text' class='stroop-red'>BOTTLE</p>", "response": "r", "stimulus-type": "unrelated", "word": "BOTTLE", "color": "red", "correct_response": "r", "trial_id": "stroop-trial-1-unrelated-2", "trial_type": "html-keyboard-response", "trial_index": 93, "time_elapsed": 249996, "internal_node_id": "0.0-4.0-89.0"}}, {"uniqueid": "w96450456:a44943546", "current_trial": 94, "dateTime": 1664368440064, "trialdata": {"rt": 105318, "stimulus": "  <h1> End of block! </h1>\n\n  You have reached the end of the block 1/5. If you need a short break, feel free to take one now before moving on.\n\n  <br><br>\n  In the next block, you will complete another 90 rounds of this game.\n\n  <br><br>\n  <div style='text-align: center;'>Press <code>space</code> to begin.</div>\n  <br><br>\n<div style='text-align: center;'>(If the experiment doesn't continue, try clicking on the text and then pressing <code>space</code>.)</div>", "response": " ", "trial_id": "stroop_1_ready_2", "trial_type": "html-keyboard-response", "trial_index": 94, "time_elapsed": 355830, "internal_node_id": "0.0-5.0"}}, {"uniqueid": "w96450456:a44943546", "current_trial": 95, "dateTime": 1664368441843, "trialdata": {"rt": 1765, "stimulus": "<p id='stroop-text' class='stroop-green'>YELLOW</p>", "response": "g", "stimulus-type": "incongruent", "word": "yellow", "color": "green", "correct_response": "g", "trial_id": "stroop-trial-1-incongruent-11", "trial_type": "html-keyboard-response", "trial_index": 95, "time_elapsed": 357608, "internal_node_id": "0.0-6.0-0.0"}}, {"uniqueid": "w96450456:a44943546", "current_trial": 96, "dateTime": 1664368443269, "trialdata": {"rt": 917, "stimulus": "<p id='stroop-text' class='stroop-blue'>RED</p>", "response": "b", "stimulus-type": "incongruent", "word": "red", "color": "blue", "correct_response": "b", "trial_id": "stroop-trial-1-incongruent-9", "trial_type": "html-keyboard-response", "trial_index": 96, "time_elapsed": 359034, "internal_node_id": "0.0-6.0-1.0"}}, {"uniqueid": "w96450456:a44943546", "current_trial": 97, "dateTime": 1664368444304, "trialdata": {"rt": 528, "stimulus": "<p id='stroop-text' class='stroop-blue'>GREEN</p>", "response": "b", "stimulus-type": "incongruent", "word": "green", "color": "blue", "correct_response": "b", "trial_id": "stroop-trial-1-incongruent-16", "trial_type": "html-keyboard-response", "trial_index": 97, "time_elapsed": 360069, "internal_node_id": "0.0-6.0-2.0"}}, {"uniqueid": "w96450456:a44943546", "current_trial": 98, "dateTime": 1664368445595, "trialdata": {"rt": 779, "stimulus": "<p id='stroop-text' class='stroop-yellow'>CHAIR</p>", "response": "y", "stimulus-type": "unrelated", "word": "CHAIR", "color": "yellow", "correct_response": "y", "trial_id": "stroop-trial-1-unrelated-3", "trial_type": "html-keyboard-response", "trial_index": 98, "time_elapsed": 361360, "internal_node_id": "0.0-6.0-3.0"}}, {"uniqueid": "w96450456:a44943546", "current_trial": 99, "dateTime": 1664368447104, "trialdata": {"rt": 982, "stimulus": "<p id='stroop-text' class='stroop-green'>WINDOW</p>", "response": "g", "stimulus-type": "unrelated", "word": "WINDOW", "color": "green", "correct_response": "g", "trial_id": "stroop-trial-1-unrelated-5", "trial_type": "html-keyboard-response", "trial_index": 99, "time_elapsed": 362869, "internal_node_id": "0.0-6.0-4.0"}}, {"uniqueid": "w96450456:a44943546", "current_trial": 100, "dateTime": 1664368448194, "trialdata": {"rt": 576, "stimulus": "<p id='stroop-text' class='stroop-blue'>BLUE</p>", "response": "b", "stimulus-type": "congruent", "word": "blue", "color": "blue", "correct_response": "b", "trial_id": "stroop-trial-1-congruent-8", "trial_type": "html-keyboard-response", "trial_index": 100, "time_elapsed": 363959, "internal_node_id": "0.0-6.0-5.0"}}, {"uniqueid": "w96450456:a44943546", "current_trial": 101, "dateTime": 1664368456629, "trialdata": {"rt": 7924, "stimulus": "<p id='stroop-text' class='stroop-red'>GREEN</p>", "response": "r", "stimulus-type": "incongruent", "word": "green", "color": "red", "correct_response": "r", "trial_id": "stroop-trial-1-incongruent-27", "trial_type": "html-keyboard-response", "trial_index": 101, "time_elapsed": 372393, "internal_node_id": "0.0-6.0-6.0"}}, {"uniqueid": "w96450456:a44943546", "current_trial": 102, "dateTime": 1664368457772, "trialdata": {"rt": 615, "stimulus": "<p id='stroop-text' class='stroop-red'>BLUE</p>", "response": "r", "stimulus-type": "incongruent", "word": "blue", "color": "red", "correct_response": "r", "trial_id": "stroop-trial-1-incongruent-19", "trial_type": "html-keyboard-response", "trial_index": 102, "time_elapsed": 373536, "internal_node_id": "0.0-6.0-7.0"}}, {"uniqueid": "w96450456:a44943546", "current_trial": 103, "dateTime": 1664368458874, "trialdata": {"rt": 584, "stimulus": "<p id='stroop-text' class='stroop-blue'>WINDOW</p>", "response": "b", "stimulus-type": "unrelated", "word": "WINDOW", "color": "blue", "correct_response": "b", "trial_id": "stroop-trial-1-unrelated-13", "trial_type": "html-keyboard-response", "trial_index": 103, "time_elapsed": 374639, "internal_node_id": "0.0-6.0-8.0"}}, {"uniqueid": "w96450456:a44943546", "current_trial": 104, "dateTime": 1664368459718, "trialdata": {"rt": 322, "stimulus": "<p id='stroop-text' class='stroop-green'>GREEN</p>", "response": "g", "stimulus-type": "congruent", "word": "green", "color": "green", "correct_response": "g", "trial_id": "stroop-trial-1-congruent-13", "trial_type": "html-keyboard-response", "trial_index": 104, "time_elapsed": 375482, "internal_node_id": "0.0-6.0-9.0"}}, {"uniqueid": "w96450456:a44943546", "current_trial": 105, "dateTime": 1664368460871, "trialdata": {"rt": 636, "stimulus": "<p id='stroop-text' class='stroop-blue'>BLUE</p>", "response": "b", "stimulus-type": "congruent", "word": "blue", "color": "blue", "correct_response": "b", "trial_id": "stroop-trial-1-congruent-15", "trial_type": "html-keyboard-response", "trial_index": 105, "time_elapsed": 376637, "internal_node_id": "0.0-6.0-10.0"}}, {"uniqueid": "w96450456:a44943546", "current_trial": 106, "dateTime": 1664368461901, "trialdata": {"rt": 517, "stimulus": "<p id='stroop-text' class='stroop-red'>WINDOW</p>", "response": "r", "stimulus-type": "unrelated", "word": "WINDOW", "color": "red", "correct_response": "r", "trial_id": "stroop-trial-1-unrelated-26", "trial_type": "html-keyboard-response", "trial_index": 106, "time_elapsed": 377665, "internal_node_id": "0.0-6.0-11.0"}}, {"uniqueid": "w96450456:a44943546", "current_trial": 107, "dateTime": 1664368463013, "trialdata": {"rt": 586, "stimulus": "<p id='stroop-text' class='stroop-blue'>BRAIN</p>", "response": "b", "stimulus-type": "unrelated", "word": "BRAIN", "color": "blue", "correct_response": "b", "trial_id": "stroop-trial-1-unrelated-6", "trial_type": "html-keyboard-response", "trial_index": 107, "time_elapsed": 378778, "internal_node_id": "0.0-6.0-12.0"}}, {"uniqueid": "w96450456:a44943546", "current_trial": 108, "dateTime": 1664368464026, "trialdata": {"rt": 493, "stimulus": "<p id='stroop-text' class='stroop-yellow'>YELLOW</p>", "response": "y", "stimulus-type": "congruent", "word": "yellow", "color": "yellow", "correct_response": "y", "trial_id": "stroop-trial-1-congruent-2", "trial_type": "html-keyboard-response", "trial_index": 108, "time_elapsed": 379790, "internal_node_id": "0.0-6.0-13.0"}}, {"uniqueid": "w96450456:a44943546", "current_trial": 109, "dateTime": 1664368465085, "trialdata": {"rt": 529, "stimulus": "<p id='stroop-text' class='stroop-yellow'>BLUE</p>", "response": "y", "stimulus-type": "incongruent", "word": "blue", "color": "yellow", "correct_response": "y", "trial_id": "stroop-trial-1-incongruent-18", "trial_type": "html-keyboard-response", "trial_index": 109, "time_elapsed": 380849, "internal_node_id": "0.0-6.0-14.0"}}, {"uniqueid": "w96450456:a44943546", "current_trial": 110, "dateTime": 1664368466190, "trialdata": {"rt": 583, "stimulus": "<p id='stroop-text' class='stroop-green'>BLUE</p>", "response": "g", "stimulus-type": "incongruent", "word": "blue", "color": "green", "correct_response": "g", "trial_id": "stroop-trial-1-incongruent-17", "trial_type": "html-keyboard-response", "trial_index": 110, "time_elapsed": 381956, "internal_node_id": "0.0-6.0-15.0"}}, {"uniqueid": "w96450456:a44943546", "current_trial": 111, "dateTime": 1664368467078, "trialdata": {"rt": 380, "stimulus": "<p id='stroop-text' class='stroop-green'>YELLOW</p>", "response": "g", "stimulus-type": "incongruent", "word": "yellow", "color": "green", "correct_response": "g", "trial_id": "stroop-trial-1-incongruent-20", "trial_type": "html-keyboard-response", "trial_index": 111, "time_elapsed": 382843, "internal_node_id": "0.0-6.0-16.0"}}, {"uniqueid": "w96450456:a44943546", "current_trial": 112, "dateTime": 1664368468372, "trialdata": {"rt": 786, "stimulus": "<p id='stroop-text' class='stroop-yellow'>BLUE</p>", "response": "r", "stimulus-type": "incongruent", "word": "blue", "color": "yellow", "correct_response": "y", "trial_id": "stroop-trial-1-incongruent-28", "trial_type": "html-keyboard-response", "trial_index": 112, "time_elapsed": 384137, "internal_node_id": "0.0-6.0-17.0"}}, {"uniqueid": "w96450456:a44943546", "current_trial": 113, "dateTime": 1664368469467, "trialdata": {"rt": 583, "stimulus": "<p id='stroop-text' class='stroop-yellow'>YELLOW</p>", "response": "y", "stimulus-type": "congruent", "word": "yellow", "color": "yellow", "correct_response": "y", "trial_id": "stroop-trial-1-congruent-20", "trial_type": "html-keyboard-response", "trial_index": 113, "time_elapsed": 385231, "internal_node_id": "0.0-6.0-18.0"}}, {"uniqueid": "w96450456:a44943546", "current_trial": 114, "dateTime": 1664368470532, "trialdata": {"rt": 544, "stimulus": "<p id='stroop-text' class='stroop-blue'>BOTTLE</p>", "response": "b", "stimulus-type": "unrelated", "word": "BOTTLE", "color": "blue", "correct_response": "b", "trial_id": "stroop-trial-1-unrelated-21", "trial_type": "html-keyboard-response", "trial_index": 114, "time_elapsed": 386297, "internal_node_id": "0.0-6.0-19.0"}}, {"uniqueid": "w96450456:a44943546", "current_trial": 115, "dateTime": 1664368471725, "trialdata": {"rt": 667, "stimulus": "<p id='stroop-text' class='stroop-red'>BOAT</p>", "response": "r", "stimulus-type": "unrelated", "word": "BOAT", "color": "red", "correct_response": "r", "trial_id": "stroop-trial-1-unrelated-17", "trial_type": "html-keyboard-response", "trial_index": 115, "time_elapsed": 387490, "internal_node_id": "0.0-6.0-20.0"}}, {"uniqueid": "w96450456:a44943546", "current_trial": 116, "dateTime": 1664368472753, "trialdata": {"rt": 518, "stimulus": "<p id='stroop-text' class='stroop-red'>GREEN</p>", "response": "r", "stimulus-type": "incongruent", "word": "green", "color": "red", "correct_response": "r", "trial_id": "stroop-trial-1-incongruent-7", "trial_type": "html-keyboard-response", "trial_index": 116, "time_elapsed": 388519, "internal_node_id": "0.0-6.0-21.0"}}, {"uniqueid": "w96450456:a44943546", "current_trial": 117, "dateTime": 1664368474207, "trialdata": {"rt": 943, "stimulus": "<p id='stroop-text' class='stroop-blue'>FORK</p>", "response": "b", "stimulus-type": "unrelated", "word": "FORK", "color": "blue", "correct_response": "b", "trial_id": "stroop-trial-1-unrelated-4", "trial_type": "html-keyboard-response", "trial_index": 117, "time_elapsed": 389972, "internal_node_id": "0.0-6.0-22.0"}}, {"uniqueid": "w96450456:a44943546", "current_trial": 118, "dateTime": 1664368475576, "trialdata": {"rt": 860, "stimulus": "<p id='stroop-text' class='stroop-red'>CHAIR</p>", "response": "r", "stimulus-type": "unrelated", "word": "CHAIR", "color": "red", "correct_response": "r", "trial_id": "stroop-trial-1-unrelated-16", "trial_type": "html-keyboard-response", "trial_index": 118, "time_elapsed": 391341, "internal_node_id": "0.0-6.0-23.0"}}, {"uniqueid": "w96450456:a44943546", "current_trial": 119, "dateTime": 1664368476965, "trialdata": {"rt": 878, "stimulus": "<p id='stroop-text' class='stroop-blue'>GREEN</p>", "response": "y", "stimulus-type": "incongruent", "word": "green", "color": "blue", "correct_response": "b", "trial_id": "stroop-trial-1-incongruent-5", "trial_type": "html-keyboard-response", "trial_index": 119, "time_elapsed": 392730, "internal_node_id": "0.0-6.0-24.0"}}, {"uniqueid": "w96450456:a44943546", "current_trial": 120, "dateTime": 1664368478143, "trialdata": {"rt": 669, "stimulus": "<p id='stroop-text' class='stroop-blue'>RED</p>", "response": "b", "stimulus-type": "incongruent", "word": "red", "color": "blue", "correct_response": "b", "trial_id": "stroop-trial-1-incongruent-23", "trial_type": "html-keyboard-response", "trial_index": 120, "time_elapsed": 393908, "internal_node_id": "0.0-6.0-25.0"}}, {"uniqueid": "w96450456:a44943546", "current_trial": 121, "dateTime": 1664368479325, "trialdata": {"rt": 674, "stimulus": "<p id='stroop-text' class='stroop-red'>RED</p>", "response": "r", "stimulus-type": "congruent", "word": "red", "color": "red", "correct_response": "r", "trial_id": "stroop-trial-1-congruent-9", "trial_type": "html-keyboard-response", "trial_index": 121, "time_elapsed": 395090, "internal_node_id": "0.0-6.0-26.0"}}, {"uniqueid": "w96450456:a44943546", "current_trial": 122, "dateTime": 1664368480519, "trialdata": {"rt": 685, "stimulus": "<p id='stroop-text' class='stroop-green'>GREEN</p>", "response": "g", "stimulus-type": "congruent", "word": "green", "color": "green", "correct_response": "g", "trial_id": "stroop-trial-1-congruent-30", "trial_type": "html-keyboard-response", "trial_index": 122, "time_elapsed": 396284, "internal_node_id": "0.0-6.0-27.0"}}, {"uniqueid": "w96450456:a44943546", "current_trial": 123, "dateTime": 1664368481619, "trialdata": {"rt": 589, "stimulus": "<p id='stroop-text' class='stroop-yellow'>YELLOW</p>", "response": "y", "stimulus-type": "congruent", "word": "yellow", "color": "yellow", "correct_response": "y", "trial_id": "stroop-trial-1-congruent-18", "trial_type": "html-keyboard-response", "trial_index": 123, "time_elapsed": 397383, "internal_node_id": "0.0-6.0-28.0"}}, {"uniqueid": "w96450456:a44943546", "current_trial": 124, "dateTime": 1664368482988, "trialdata": {"rt": 840, "stimulus": "<p id='stroop-text' class='stroop-red'>FORK</p>", "response": "r", "stimulus-type": "unrelated", "word": "FORK", "color": "red", "correct_response": "r", "trial_id": "stroop-trial-1-unrelated-14", "trial_type": "html-keyboard-response", "trial_index": 124, "time_elapsed": 398753, "internal_node_id": "0.0-6.0-29.0"}}, {"uniqueid": "w96450456:a44943546", "current_trial": 125, "dateTime": 1664368485292, "trialdata": {"rt": 1796, "stimulus": "<p id='stroop-text' class='stroop-green'>BOAT</p>", "response": "g", "stimulus-type": "unrelated", "word": "BOAT", "color": "green", "correct_response": "g", "trial_id": "stroop-trial-1-unrelated-23", "trial_type": "html-keyboard-response", "trial_index": 125, "time_elapsed": 401058, "internal_node_id": "0.0-6.0-30.0"}}, {"uniqueid": "w96450456:a44943546", "current_trial": 126, "dateTime": 1664368486420, "trialdata": {"rt": 619, "stimulus": "<p id='stroop-text' class='stroop-yellow'>GREEN</p>", "response": "y", "stimulus-type": "incongruent", "word": "green", "color": "yellow", "correct_response": "y", "trial_id": "stroop-trial-1-incongruent-14", "trial_type": "html-keyboard-response", "trial_index": 126, "time_elapsed": 402185, "internal_node_id": "0.0-6.0-31.0"}}, {"uniqueid": "w96450456:a44943546", "current_trial": 127, "dateTime": 1664368487582, "trialdata": {"rt": 651, "stimulus": "<p id='stroop-text' class='stroop-green'>GREEN</p>", "response": "g", "stimulus-type": "congruent", "word": "green", "color": "green", "correct_response": "g", "trial_id": "stroop-trial-1-congruent-16", "trial_type": "html-keyboard-response", "trial_index": 127, "time_elapsed": 403346, "internal_node_id": "0.0-6.0-32.0"}}, {"uniqueid": "w96450456:a44943546", "current_trial": 128, "dateTime": 1664368488717, "trialdata": {"rt": 617, "stimulus": "<p id='stroop-text' class='stroop-red'>CHAIR</p>", "response": "r", "stimulus-type": "unrelated", "word": "CHAIR", "color": "red", "correct_response": "r", "trial_id": "stroop-trial-1-unrelated-25", "trial_type": "html-keyboard-response", "trial_index": 128, "time_elapsed": 404482, "internal_node_id": "0.0-6.0-33.0"}}, {"uniqueid": "w96450456:a44943546", "current_trial": 129, "dateTime": 1664368489960, "trialdata": {"rt": 714, "stimulus": "<p id='stroop-text' class='stroop-yellow'>YELLOW</p>", "response": "y", "stimulus-type": "congruent", "word": "yellow", "color": "yellow", "correct_response": "y", "trial_id": "stroop-trial-1-congruent-26", "trial_type": "html-keyboard-response", "trial_index": 129, "time_elapsed": 405725, "internal_node_id": "0.0-6.0-34.0"}}, {"uniqueid": "w96450456:a44943546", "current_trial": 130, "dateTime": 1664368491032, "trialdata": {"rt": 550, "stimulus": "<p id='stroop-text' class='stroop-blue'>BLUE</p>", "response": "b", "stimulus-type": "congruent", "word": "blue", "color": "blue", "correct_response": "b", "trial_id": "stroop-trial-1-congruent-21", "trial_type": "html-keyboard-response", "trial_index": 130, "time_elapsed": 406796, "internal_node_id": "0.0-6.0-35.0"}}, {"uniqueid": "w96450456:a44943546", "current_trial": 131, "dateTime": 1664368492235, "trialdata": {"rt": 686, "stimulus": "<p id='stroop-text' class='stroop-red'>DOG</p>", "response": "r", "stimulus-type": "unrelated", "word": "DOG", "color": "red", "correct_response": "r", "trial_id": "stroop-trial-1-unrelated-11", "trial_type": "html-keyboard-response", "trial_index": 131, "time_elapsed": 408001, "internal_node_id": "0.0-6.0-36.0"}}, {"uniqueid": "w96450456:a44943546", "current_trial": 132, "dateTime": 1664368494395, "trialdata": {"rt": 1650, "stimulus": "<p id='stroop-text' class='stroop-yellow'>WINDOW</p>", "response": "y", "stimulus-type": "unrelated", "word": "WINDOW", "color": "yellow", "correct_response": "y", "trial_id": "stroop-trial-1-unrelated-7", "trial_type": "html-keyboard-response", "trial_index": 132, "time_elapsed": 410160, "internal_node_id": "0.0-6.0-37.0"}}, {"uniqueid": "w96450456:a44943546", "current_trial": 133, "dateTime": 1664368495311, "trialdata": {"rt": 405, "stimulus": "<p id='stroop-text' class='stroop-yellow'>WINDOW</p>", "response": "y", "stimulus-type": "unrelated", "word": "WINDOW", "color": "yellow", "correct_response": "y", "trial_id": "stroop-trial-1-unrelated-24", "trial_type": "html-keyboard-response", "trial_index": 133, "time_elapsed": 411076, "internal_node_id": "0.0-6.0-38.0"}}, {"uniqueid": "w96450456:a44943546", "current_trial": 134, "dateTime": 1664368496498, "trialdata": {"rt": 679, "stimulus": "<p id='stroop-text' class='stroop-red'>RED</p>", "response": "r", "stimulus-type": "congruent", "word": "red", "color": "red", "correct_response": "r", "trial_id": "stroop-trial-1-congruent-28", "trial_type": "html-keyboard-response", "trial_index": 134, "time_elapsed": 412263, "internal_node_id": "0.0-6.0-39.0"}}, {"uniqueid": "w96450456:a44943546", "current_trial": 135, "dateTime": 1664368497974, "trialdata": {"rt": 959, "stimulus": "<p id='stroop-text' class='stroop-yellow'>GREEN</p>", "response": "y", "stimulus-type": "incongruent", "word": "green", "color": "yellow", "correct_response": "y", "trial_id": "stroop-trial-1-incongruent-4", "trial_type": "html-keyboard-response", "trial_index": 135, "time_elapsed": 413737, "internal_node_id": "0.0-6.0-40.0"}}, {"uniqueid": "w96450456:a44943546", "current_trial": 136, "dateTime": 1664368499635, "trialdata": {"rt": 1142, "stimulus": "<p id='stroop-text' class='stroop-green'>RED</p>", "response": "g", "stimulus-type": "incongruent", "word": "red", "color": "green", "correct_response": "g", "trial_id": "stroop-trial-1-incongruent-29", "trial_type": "html-keyboard-response", "trial_index": 136, "time_elapsed": 415400, "internal_node_id": "0.0-6.0-41.0"}}, {"uniqueid": "w96450456:a44943546", "current_trial": 137, "dateTime": 1664368501111, "trialdata": {"rt": 961, "stimulus": "<p id='stroop-text' class='stroop-red'>BRIDGE</p>", "response": "r", "stimulus-type": "unrelated", "word": "BRIDGE", "color": "red", "correct_response": "r", "trial_id": "stroop-trial-1-unrelated-28", "trial_type": "html-keyboard-response", "trial_index": 137, "time_elapsed": 416876, "internal_node_id": "0.0-6.0-42.0"}}, {"uniqueid": "w96450456:a44943546", "current_trial": 138, "dateTime": 1664368502863, "trialdata": {"rt": 1227, "stimulus": "<p id='stroop-text' class='stroop-green'>GREEN</p>", "response": "g", "stimulus-type": "congruent", "word": "green", "color": "green", "correct_response": "g", "trial_id": "stroop-trial-1-congruent-5", "trial_type": "html-keyboard-response", "trial_index": 138, "time_elapsed": 418627, "internal_node_id": "0.0-6.0-43.0"}}, {"uniqueid": "w96450456:a44943546", "current_trial": 139, "dateTime": 1664368503743, "trialdata": {"rt": 358, "stimulus": "<p id='stroop-text' class='stroop-blue'>BLUE</p>", "response": "b", "stimulus-type": "congruent", "word": "blue", "color": "blue", "correct_response": "b", "trial_id": "stroop-trial-1-congruent-24", "trial_type": "html-keyboard-response", "trial_index": 139, "time_elapsed": 419507, "internal_node_id": "0.0-6.0-44.0"}}, {"uniqueid": "w96450456:a44943546", "current_trial": 140, "dateTime": 1664368504939, "trialdata": {"rt": 670, "stimulus": "<p id='stroop-text' class='stroop-yellow'>RED</p>", "response": "y", "stimulus-type": "incongruent", "word": "red", "color": "yellow", "correct_response": "y", "trial_id": "stroop-trial-1-incongruent-1", "trial_type": "html-keyboard-response", "trial_index": 140, "time_elapsed": 420704, "internal_node_id": "0.0-6.0-45.0"}}, {"uniqueid": "w96450456:a44943546", "current_trial": 141, "dateTime": 1664368505931, "trialdata": {"rt": 476, "stimulus": "<p id='stroop-text' class='stroop-yellow'>YELLOW</p>", "response": "y", "stimulus-type": "congruent", "word": "yellow", "color": "yellow", "correct_response": "y", "trial_id": "stroop-trial-1-congruent-12", "trial_type": "html-keyboard-response", "trial_index": 141, "time_elapsed": 421696, "internal_node_id": "0.0-6.0-46.0"}}, {"uniqueid": "w96450456:a44943546", "current_trial": 142, "dateTime": 1664368506951, "trialdata": {"rt": 507, "stimulus": "<p id='stroop-text' class='stroop-yellow'>BRIDGE</p>", "response": "y", "stimulus-type": "unrelated", "word": "BRIDGE", "color": "yellow", "correct_response": "y", "trial_id": "stroop-trial-1-unrelated-10", "trial_type": "html-keyboard-response", "trial_index": 142, "time_elapsed": 422716, "internal_node_id": "0.0-6.0-47.0"}}, {"uniqueid": "w96450456:a44943546", "current_trial": 143, "dateTime": 1664368508116, "trialdata": {"rt": 643, "stimulus": "<p id='stroop-text' class='stroop-red'>YELLOW</p>", "response": "r", "stimulus-type": "incongruent", "word": "yellow", "color": "red", "correct_response": "r", "trial_id": "stroop-trial-1-incongruent-8", "trial_type": "html-keyboard-response", "trial_index": 143, "time_elapsed": 423881, "internal_node_id": "0.0-6.0-48.0"}}, {"uniqueid": "w96450456:a44943546", "current_trial": 144, "dateTime": 1664368509242, "trialdata": {"rt": 608, "stimulus": "<p id='stroop-text' class='stroop-yellow'>RED</p>", "response": "y", "stimulus-type": "incongruent", "word": "red", "color": "yellow", "correct_response": "y", "trial_id": "stroop-trial-1-incongruent-25", "trial_type": "html-keyboard-response", "trial_index": 144, "time_elapsed": 425006, "internal_node_id": "0.0-6.0-49.0"}}, {"uniqueid": "w96450456:a44943546", "current_trial": 145, "dateTime": 1664368510494, "trialdata": {"rt": 725, "stimulus": "<p id='stroop-text' class='stroop-green'>WINDOW</p>", "response": "g", "stimulus-type": "unrelated", "word": "WINDOW", "color": "green", "correct_response": "g", "trial_id": "stroop-trial-1-unrelated-29", "trial_type": "html-keyboard-response", "trial_index": 145, "time_elapsed": 426259, "internal_node_id": "0.0-6.0-50.0"}}, {"uniqueid": "w96450456:a44943546", "current_trial": 146, "dateTime": 1664368512354, "trialdata": {"rt": 1327, "stimulus": "<p id='stroop-text' class='stroop-yellow'>FORK</p>", "response": "y", "stimulus-type": "unrelated", "word": "FORK", "color": "yellow", "correct_response": "y", "trial_id": "stroop-trial-1-unrelated-2", "trial_type": "html-keyboard-response", "trial_index": 146, "time_elapsed": 428118, "internal_node_id": "0.0-6.0-51.0"}}, {"uniqueid": "w96450456:a44943546", "current_trial": 147, "dateTime": 1664368513350, "trialdata": {"rt": 464, "stimulus": "<p id='stroop-text' class='stroop-yellow'>RED</p>", "response": "y", "stimulus-type": "incongruent", "word": "red", "color": "yellow", "correct_response": "y", "trial_id": "stroop-trial-1-incongruent-2", "trial_type": "html-keyboard-response", "trial_index": 147, "time_elapsed": 429115, "internal_node_id": "0.0-6.0-52.0"}}, {"uniqueid": "w96450456:a44943546", "current_trial": 148, "dateTime": 1664368514475, "trialdata": {"rt": 599, "stimulus": "<p id='stroop-text' class='stroop-red'>YELLOW</p>", "response": "r", "stimulus-type": "incongruent", "word": "yellow", "color": "red", "correct_response": "r", "trial_id": "stroop-trial-1-incongruent-15", "trial_type": "html-keyboard-response", "trial_index": 148, "time_elapsed": 430239, "internal_node_id": "0.0-6.0-53.0"}}, {"uniqueid": "w96450456:a44943546", "current_trial": 149, "dateTime": 1664368515511, "trialdata": {"rt": 501, "stimulus": "<p id='stroop-text' class='stroop-blue'>BLUE</p>", "response": "b", "stimulus-type": "congruent", "word": "blue", "color": "blue", "correct_response": "b", "trial_id": "stroop-trial-1-congruent-23", "trial_type": "html-keyboard-response", "trial_index": 149, "time_elapsed": 431276, "internal_node_id": "0.0-6.0-54.0"}}, {"uniqueid": "w96450456:a44943546", "current_trial": 150, "dateTime": 1664368516742, "trialdata": {"rt": 699, "stimulus": "<p id='stroop-text' class='stroop-red'>MONKEY</p>", "response": "r", "stimulus-type": "unrelated", "word": "MONKEY", "color": "red", "correct_response": "r", "trial_id": "stroop-trial-1-unrelated-18", "trial_type": "html-keyboard-response", "trial_index": 150, "time_elapsed": 432506, "internal_node_id": "0.0-6.0-55.0"}}, {"uniqueid": "w96450456:a44943546", "current_trial": 151, "dateTime": 1664368517913, "trialdata": {"rt": 646, "stimulus": "<p id='stroop-text' class='stroop-green'>RED</p>", "response": "g", "stimulus-type": "incongruent", "word": "red", "color": "green", "correct_response": "g", "trial_id": "stroop-trial-1-incongruent-21", "trial_type": "html-keyboard-response", "trial_index": 151, "time_elapsed": 433677, "internal_node_id": "0.0-6.0-56.0"}}, {"uniqueid": "w96450456:a44943546", "current_trial": 152, "dateTime": 1664368518828, "trialdata": {"rt": 385, "stimulus": "<p id='stroop-text' class='stroop-blue'>BLUE</p>", "response": "y", "stimulus-type": "congruent", "word": "blue", "color": "blue", "correct_response": "b", "trial_id": "stroop-trial-1-congruent-27", "trial_type": "html-keyboard-response", "trial_index": 152, "time_elapsed": 434593, "internal_node_id": "0.0-6.0-57.0"}}, {"uniqueid": "w96450456:a44943546", "current_trial": 153, "dateTime": 1664368523918, "trialdata": {"rt": 4562, "stimulus": "<p id='stroop-text' class='stroop-yellow'>YELLOW</p>", "response": "y", "stimulus-type": "congruent", "word": "yellow", "color": "yellow", "correct_response": "y", "trial_id": "stroop-trial-1-congruent-1", "trial_type": "html-keyboard-response", "trial_index": 153, "time_elapsed": 439682, "internal_node_id": "0.0-6.0-58.0"}}, {"uniqueid": "w96450456:a44943546", "current_trial": 154, "dateTime": 1664368525037, "trialdata": {"rt": 595, "stimulus": "<p id='stroop-text' class='stroop-blue'>BLUE</p>", "response": "b", "stimulus-type": "congruent", "word": "blue", "color": "blue", "correct_response": "b", "trial_id": "stroop-trial-1-congruent-22", "trial_type": "html-keyboard-response", "trial_index": 154, "time_elapsed": 440802, "internal_node_id": "0.0-6.0-59.0"}}, {"uniqueid": "w96450456:a44943546", "current_trial": 155, "dateTime": 1664368525996, "trialdata": {"rt": 419, "stimulus": "<p id='stroop-text' class='stroop-blue'>YELLOW</p>", "response": "b", "stimulus-type": "incongruent", "word": "yellow", "color": "blue", "correct_response": "b", "trial_id": "stroop-trial-1-incongruent-30", "trial_type": "html-keyboard-response", "trial_index": 155, "time_elapsed": 441760, "internal_node_id": "0.0-6.0-60.0"}}, {"uniqueid": "w96450456:a44943546", "current_trial": 156, "dateTime": 1664368527410, "trialdata": {"rt": 900, "stimulus": "<p id='stroop-text' class='stroop-yellow'>DOG</p>", "response": "y", "stimulus-type": "unrelated", "word": "DOG", "color": "yellow", "correct_response": "y", "trial_id": "stroop-trial-1-unrelated-30", "trial_type": "html-keyboard-response", "trial_index": 156, "time_elapsed": 443174, "internal_node_id": "0.0-6.0-61.0"}}, {"uniqueid": "w96450456:a44943546", "current_trial": 157, "dateTime": 1664368528452, "trialdata": {"rt": 511, "stimulus": "<p id='stroop-text' class='stroop-green'>GREEN</p>", "response": "g", "stimulus-type": "congruent", "word": "green", "color": "green", "correct_response": "g", "trial_id": "stroop-trial-1-congruent-17", "trial_type": "html-keyboard-response", "trial_index": 157, "time_elapsed": 444218, "internal_node_id": "0.0-6.0-62.0"}}, {"uniqueid": "w96450456:a44943546", "current_trial": 158, "dateTime": 1664368529568, "trialdata": {"rt": 602, "stimulus": "<p id='stroop-text' class='stroop-yellow'>BLUE</p>", "response": "b", "stimulus-type": "incongruent", "word": "blue", "color": "yellow", "correct_response": "y", "trial_id": "stroop-trial-1-incongruent-6", "trial_type": "html-keyboard-response", "trial_index": 158, "time_elapsed": 445333, "internal_node_id": "0.0-6.0-63.0"}}, {"uniqueid": "w96450456:a44943546", "current_trial": 159, "dateTime": 1664368532274, "trialdata": {"rt": 2185, "stimulus": "<p id='stroop-text' class='stroop-yellow'>RED</p>", "response": "y", "stimulus-type": "incongruent", "word": "red", "color": "yellow", "correct_response": "y", "trial_id": "stroop-trial-1-incongruent-10", "trial_type": "html-keyboard-response", "trial_index": 159, "time_elapsed": 448038, "internal_node_id": "0.0-6.0-64.0"}}, {"uniqueid": "w96450456:a44943546", "current_trial": 160, "dateTime": 1664368533287, "trialdata": {"rt": 482, "stimulus": "<p id='stroop-text' class='stroop-red'>FORK</p>", "response": "r", "stimulus-type": "unrelated", "word": "FORK", "color": "red", "correct_response": "r", "trial_id": "stroop-trial-1-unrelated-20", "trial_type": "html-keyboard-response", "trial_index": 160, "time_elapsed": 449051, "internal_node_id": "0.0-6.0-65.0"}}, {"uniqueid": "w96450456:a44943546", "current_trial": 161, "dateTime": 1664368534652, "trialdata": {"rt": 825, "stimulus": "<p id='stroop-text' class='stroop-yellow'>WINDOW</p>", "response": "y", "stimulus-type": "unrelated", "word": "WINDOW", "color": "yellow", "correct_response": "y", "trial_id": "stroop-trial-1-unrelated-8", "trial_type": "html-keyboard-response", "trial_index": 161, "time_elapsed": 450416, "internal_node_id": "0.0-6.0-66.0"}}, {"uniqueid": "w96450456:a44943546", "current_trial": 162, "dateTime": 1664368535844, "trialdata": {"rt": 661, "stimulus": "<p id='stroop-text' class='stroop-red'>YELLOW</p>", "response": "r", "stimulus-type": "incongruent", "word": "yellow", "color": "red", "correct_response": "r", "trial_id": "stroop-trial-1-incongruent-3", "trial_type": "html-keyboard-response", "trial_index": 162, "time_elapsed": 451609, "internal_node_id": "0.0-6.0-67.0"}}, {"uniqueid": "w96450456:a44943546", "current_trial": 163, "dateTime": 1664368537133, "trialdata": {"rt": 760, "stimulus": "<p id='stroop-text' class='stroop-yellow'>BRAIN</p>", "response": "y", "stimulus-type": "unrelated", "word": "BRAIN", "color": "yellow", "correct_response": "y", "trial_id": "stroop-trial-1-unrelated-1", "trial_type": "html-keyboard-response", "trial_index": 163, "time_elapsed": 452898, "internal_node_id": "0.0-6.0-68.0"}}, {"uniqueid": "w96450456:a44943546", "current_trial": 164, "dateTime": 1664368538330, "trialdata": {"rt": 672, "stimulus": "<p id='stroop-text' class='stroop-green'>GREEN</p>", "response": "g", "stimulus-type": "congruent", "word": "green", "color": "green", "correct_response": "g", "trial_id": "stroop-trial-1-congruent-3", "trial_type": "html-keyboard-response", "trial_index": 164, "time_elapsed": 454095, "internal_node_id": "0.0-6.0-69.0"}}, {"uniqueid": "w96450456:a44943546", "current_trial": 165, "dateTime": 1664368539360, "trialdata": {"rt": 508, "stimulus": "<p id='stroop-text' class='stroop-blue'>RED</p>", "response": "b", "stimulus-type": "incongruent", "word": "red", "color": "blue", "correct_response": "b", "trial_id": "stroop-trial-1-incongruent-24", "trial_type": "html-keyboard-response", "trial_index": 165, "time_elapsed": 455124, "internal_node_id": "0.0-6.0-70.0"}}, {"uniqueid": "w96450456:a44943546", "current_trial": 166, "dateTime": 1664368540315, "trialdata": {"rt": 427, "stimulus": "<p id='stroop-text' class='stroop-blue'>BLUE</p>", "response": "b", "stimulus-type": "congruent", "word": "blue", "color": "blue", "correct_response": "b", "trial_id": "stroop-trial-1-congruent-6", "trial_type": "html-keyboard-response", "trial_index": 166, "time_elapsed": 456079, "internal_node_id": "0.0-6.0-71.0"}}, {"uniqueid": "w96450456:a44943546", "current_trial": 167, "dateTime": 1664368541403, "trialdata": {"rt": 551, "stimulus": "<p id='stroop-text' class='stroop-green'>GREEN</p>", "response": "g", "stimulus-type": "congruent", "word": "green", "color": "green", "correct_response": "g", "trial_id": "stroop-trial-1-congruent-29", "trial_type": "html-keyboard-response", "trial_index": 167, "time_elapsed": 457166, "internal_node_id": "0.0-6.0-72.0"}}, {"uniqueid": "w96450456:a44943546", "current_trial": 168, "dateTime": 1664368542516, "trialdata": {"rt": 586, "stimulus": "<p id='stroop-text' class='stroop-green'>GREEN</p>", "response": "g", "stimulus-type": "congruent", "word": "green", "color": "green", "correct_response": "g", "trial_id": "stroop-trial-1-congruent-4", "trial_type": "html-keyboard-response", "trial_index": 168, "time_elapsed": 458281, "internal_node_id": "0.0-6.0-73.0"}}, {"uniqueid": "w96450456:a44943546", "current_trial": 169, "dateTime": 1664368543518, "trialdata": {"rt": 474, "stimulus": "<p id='stroop-text' class='stroop-green'>GREEN</p>", "response": "g", "stimulus-type": "congruent", "word": "green", "color": "green", "correct_response": "g", "trial_id": "stroop-trial-1-congruent-14", "trial_type": "html-keyboard-response", "trial_index": 169, "time_elapsed": 459282, "internal_node_id": "0.0-6.0-74.0"}}, {"uniqueid": "w96450456:a44943546", "current_trial": 170, "dateTime": 1664368544728, "trialdata": {"rt": 688, "stimulus": "<p id='stroop-text' class='stroop-red'>BOTTLE</p>", "response": "r", "stimulus-type": "unrelated", "word": "BOTTLE", "color": "red", "correct_response": "r", "trial_id": "stroop-trial-1-unrelated-9", "trial_type": "html-keyboard-response", "trial_index": 170, "time_elapsed": 460492, "internal_node_id": "0.0-6.0-75.0"}}, {"uniqueid": "w96450456:a44943546", "current_trial": 171, "dateTime": 1664368546024, "trialdata": {"rt": 760, "stimulus": "<p id='stroop-text' class='stroop-blue'>STONE</p>", "response": "b", "stimulus-type": "unrelated", "word": "STONE", "color": "blue", "correct_response": "b", "trial_id": "stroop-trial-1-unrelated-19", "trial_type": "html-keyboard-response", "trial_index": 171, "time_elapsed": 461788, "internal_node_id": "0.0-6.0-76.0"}}, {"uniqueid": "w96450456:a44943546", "current_trial": 172, "dateTime": 1664368547399, "trialdata": {"rt": 844, "stimulus": "<p id='stroop-text' class='stroop-green'>FORK</p>", "response": "g", "stimulus-type": "unrelated", "word": "FORK", "color": "green", "correct_response": "g", "trial_id": "stroop-trial-1-unrelated-12", "trial_type": "html-keyboard-response", "trial_index": 172, "time_elapsed": 463163, "internal_node_id": "0.0-6.0-77.0"}}, {"uniqueid": "w96450456:a44943546", "current_trial": 173, "dateTime": 1664368548665, "trialdata": {"rt": 739, "stimulus": "<p id='stroop-text' class='stroop-yellow'>GREEN</p>", "response": "y", "stimulus-type": "incongruent", "word": "green", "color": "yellow", "correct_response": "y", "trial_id": "stroop-trial-1-incongruent-26", "trial_type": "html-keyboard-response", "trial_index": 173, "time_elapsed": 464429, "internal_node_id": "0.0-6.0-78.0"}}, {"uniqueid": "w96450456:a44943546", "current_trial": 174, "dateTime": 1664368550162, "trialdata": {"rt": 953, "stimulus": "<p id='stroop-text' class='stroop-green'>GREEN</p>", "response": "g", "stimulus-type": "congruent", "word": "green", "color": "green", "correct_response": "g", "trial_id": "stroop-trial-1-congruent-25", "trial_type": "html-keyboard-response", "trial_index": 174, "time_elapsed": 465927, "internal_node_id": "0.0-6.0-79.0"}}, {"uniqueid": "w96450456:a44943546", "current_trial": 175, "dateTime": 1664368551227, "trialdata": {"rt": 526, "stimulus": "<p id='stroop-text' class='stroop-blue'>BLUE</p>", "response": "b", "stimulus-type": "congruent", "word": "blue", "color": "blue", "correct_response": "b", "trial_id": "stroop-trial-1-congruent-10", "trial_type": "html-keyboard-response", "trial_index": 175, "time_elapsed": 466992, "internal_node_id": "0.0-6.0-80.0"}}, {"uniqueid": "w96450456:a44943546", "current_trial": 176, "dateTime": 1664368552500, "trialdata": {"rt": 733, "stimulus": "<p id='stroop-text' class='stroop-blue'>GREEN</p>", "response": "b", "stimulus-type": "incongruent", "word": "green", "color": "blue", "correct_response": "b", "trial_id": "stroop-trial-1-incongruent-22", "trial_type": "html-keyboard-response", "trial_index": 176, "time_elapsed": 468264, "internal_node_id": "0.0-6.0-81.0"}}, {"uniqueid": "w96450456:a44943546", "current_trial": 177, "dateTime": 1664368553848, "trialdata": {"rt": 821, "stimulus": "<p id='stroop-text' class='stroop-yellow'>BOAT</p>", "response": "y", "stimulus-type": "unrelated", "word": "BOAT", "color": "yellow", "correct_response": "y", "trial_id": "stroop-trial-1-unrelated-22", "trial_type": "html-keyboard-response", "trial_index": 177, "time_elapsed": 469612, "internal_node_id": "0.0-6.0-82.0"}}, {"uniqueid": "w96450456:a44943546", "current_trial": 178, "dateTime": 1664368554852, "trialdata": {"rt": 475, "stimulus": "<p id='stroop-text' class='stroop-yellow'>YELLOW</p>", "response": "y", "stimulus-type": "congruent", "word": "yellow", "color": "yellow", "correct_response": "y", "trial_id": "stroop-trial-1-congruent-11", "trial_type": "html-keyboard-response", "trial_index": 178, "time_elapsed": 470616, "internal_node_id": "0.0-6.0-83.0"}}, {"uniqueid": "w96450456:a44943546", "current_trial": 179, "dateTime": 1664368556052, "trialdata": {"rt": 670, "stimulus": "<p id='stroop-text' class='stroop-red'>YELLOW</p>", "response": "r", "stimulus-type": "incongruent", "word": "yellow", "color": "red", "correct_response": "r", "trial_id": "stroop-trial-1-incongruent-12", "trial_type": "html-keyboard-response", "trial_index": 179, "time_elapsed": 471817, "internal_node_id": "0.0-6.0-84.0"}}, {"uniqueid": "w96450456:a44943546", "current_trial": 180, "dateTime": 1664368557291, "trialdata": {"rt": 688, "stimulus": "<p id='stroop-text' class='stroop-blue'>BLUE</p>", "response": "b", "stimulus-type": "congruent", "word": "blue", "color": "blue", "correct_response": "b", "trial_id": "stroop-trial-1-congruent-19", "trial_type": "html-keyboard-response", "trial_index": 180, "time_elapsed": 473054, "internal_node_id": "0.0-6.0-85.0"}}, {"uniqueid": "w96450456:a44943546", "current_trial": 181, "dateTime": 1664368558425, "trialdata": {"rt": 595, "stimulus": "<p id='stroop-text' class='stroop-red'>RED</p>", "response": "r", "stimulus-type": "congruent", "word": "red", "color": "red", "correct_response": "r", "trial_id": "stroop-trial-1-congruent-7", "trial_type": "html-keyboard-response", "trial_index": 181, "time_elapsed": 474190, "internal_node_id": "0.0-6.0-86.0"}}, {"uniqueid": "w96450456:a44943546", "current_trial": 182, "dateTime": 1664368559443, "trialdata": {"rt": 499, "stimulus": "<p id='stroop-text' class='stroop-red'>DOG</p>", "response": "r", "stimulus-type": "unrelated", "word": "DOG", "color": "red", "correct_response": "r", "trial_id": "stroop-trial-1-unrelated-15", "trial_type": "html-keyboard-response", "trial_index": 182, "time_elapsed": 475208, "internal_node_id": "0.0-6.0-87.0"}}, {"uniqueid": "w96450456:a44943546", "current_trial": 183, "dateTime": 1664368561861, "trialdata": {"rt": 1892, "stimulus": "<p id='stroop-text' class='stroop-yellow'>BLUE</p>", "response": "y", "stimulus-type": "incongruent", "word": "blue", "color": "yellow", "correct_response": "y", "trial_id": "stroop-trial-1-incongruent-13", "trial_type": "html-keyboard-response", "trial_index": 183, "time_elapsed": 477626, "internal_node_id": "0.0-6.0-88.0"}}, {"uniqueid": "w96450456:a44943546", "current_trial": 184, "dateTime": 1664368563025, "trialdata": {"rt": 653, "stimulus": "<p id='stroop-text' class='stroop-red'>BRIDGE</p>", "response": "r", "stimulus-type": "unrelated", "word": "BRIDGE", "color": "red", "correct_response": "r", "trial_id": "stroop-trial-1-unrelated-27", "trial_type": "html-keyboard-response", "trial_index": 184, "time_elapsed": 478790, "internal_node_id": "0.0-6.0-89.0"}}, {"uniqueid": "w96450456:a44943546", "current_trial": 185, "dateTime": 1664368872181, "trialdata": {"rt": 308624, "stimulus": "  <h1> End of block! </h1>\n\n  You have reached the end of the block 2/5. If you need a short break, feel free to take one now before moving on.\n\n  <br><br>\n  In the next block, you will complete another 90 rounds of this game.\n\n  <br><br>\n  <div style='text-align: center;'>Press <code>space</code> to begin.</div>\n  <br><br>\n<div style='text-align: center;'>(If the experiment doesn't continue, try clicking on the text and then pressing <code>space</code>.)</div>", "response": " ", "trial_id": "stroop_1_ready_3", "trial_type": "html-keyboard-response", "trial_index": 185, "time_elapsed": 787947, "internal_node_id": "0.0-7.0"}}, {"uniqueid": "w96450456:a44943546", "current_trial": 186, "dateTime": 1664368873781, "trialdata": {"rt": 1567, "stimulus": "<p id='stroop-text' class='stroop-yellow'>FORK</p>", "response": "y", "stimulus-type": "unrelated", "word": "FORK", "color": "yellow", "correct_response": "y", "trial_id": "stroop-trial-1-unrelated-22", "trial_type": "html-keyboard-response", "trial_index": 186, "time_elapsed": 789545, "internal_node_id": "0.0-8.0-0.0"}}, {"uniqueid": "w96450456:a44943546", "current_trial": 187, "dateTime": 1664368876917, "trialdata": {"rt": 2597, "stimulus": "<p id='stroop-text' class='stroop-blue'>RED</p>", "response": "b", "stimulus-type": "incongruent", "word": "red", "color": "blue", "correct_response": "b", "trial_id": "stroop-trial-1-incongruent-12", "trial_type": "html-keyboard-response", "trial_index": 187, "time_elapsed": 792682, "internal_node_id": "0.0-8.0-1.0"}}, {"uniqueid": "w96450456:a44943546", "current_trial": 188, "dateTime": 1664368878606, "trialdata": {"rt": 1155, "stimulus": "<p id='stroop-text' class='stroop-yellow'>YELLOW</p>", "response": "y", "stimulus-type": "congruent", "word": "yellow", "color": "yellow", "correct_response": "y", "trial_id": "stroop-trial-1-congruent-16", "trial_type": "html-keyboard-response", "trial_index": 188, "time_elapsed": 794370, "internal_node_id": "0.0-8.0-2.0"}}, {"uniqueid": "w96450456:a44943546", "current_trial": 189, "dateTime": 1664368881232, "trialdata": {"rt": 2103, "stimulus": "<p id='stroop-text' class='stroop-blue'>GREEN</p>", "response": "b", "stimulus-type": "incongruent", "word": "green", "color": "blue", "correct_response": "b", "trial_id": "stroop-trial-1-incongruent-13", "trial_type": "html-keyboard-response", "trial_index": 189, "time_elapsed": 796995, "internal_node_id": "0.0-8.0-3.0"}}, {"uniqueid": "w96450456:a44943546", "current_trial": 190, "dateTime": 1664368882936, "trialdata": {"rt": 1190, "stimulus": "<p id='stroop-text' class='stroop-yellow'>GREEN</p>", "response": "y", "stimulus-type": "incongruent", "word": "green", "color": "yellow", "correct_response": "y", "trial_id": "stroop-trial-1-incongruent-15", "trial_type": "html-keyboard-response", "trial_index": 190, "time_elapsed": 798699, "internal_node_id": "0.0-8.0-4.0"}}, {"uniqueid": "w96450456:a44943546", "current_trial": 191, "dateTime": 1664368885363, "trialdata": {"rt": 1895, "stimulus": "<p id='stroop-text' class='stroop-red'>YELLOW</p>", "response": "r", "stimulus-type": "incongruent", "word": "yellow", "color": "red", "correct_response": "r", "trial_id": "stroop-trial-1-incongruent-4", "trial_type": "html-keyboard-response", "trial_index": 191, "time_elapsed": 801128, "internal_node_id": "0.0-8.0-5.0"}}, {"uniqueid": "w96450456:a44943546", "current_trial": 192, "dateTime": 1664368887372, "trialdata": {"rt": 1465, "stimulus": "<p id='stroop-text' class='stroop-red'>GREEN</p>", "response": "r", "stimulus-type": "incongruent", "word": "green", "color": "red", "correct_response": "r", "trial_id": "stroop-trial-1-incongruent-24", "trial_type": "html-keyboard-response", "trial_index": 192, "time_elapsed": 803136, "internal_node_id": "0.0-8.0-6.0"}}, {"uniqueid": "w96450456:a44943546", "current_trial": 193, "dateTime": 1664368889204, "trialdata": {"rt": 1313, "stimulus": "<p id='stroop-text' class='stroop-yellow'>BOAT</p>", "response": "y", "stimulus-type": "unrelated", "word": "BOAT", "color": "yellow", "correct_response": "y", "trial_id": "stroop-trial-1-unrelated-8", "trial_type": "html-keyboard-response", "trial_index": 193, "time_elapsed": 804968, "internal_node_id": "0.0-8.0-7.0"}}, {"uniqueid": "w96450456:a44943546", "current_trial": 194, "dateTime": 1664368890985, "trialdata": {"rt": 1245, "stimulus": "<p id='stroop-text' class='stroop-green'>BOTTLE</p>", "response": "g", "stimulus-type": "unrelated", "word": "BOTTLE", "color": "green", "correct_response": "g", "trial_id": "stroop-trial-1-unrelated-15", "trial_type": "html-keyboard-response", "trial_index": 194, "time_elapsed": 806748, "internal_node_id": "0.0-8.0-8.0"}}, {"uniqueid": "w96450456:a44943546", "current_trial": 195, "dateTime": 1664368892142, "trialdata": {"rt": 624, "stimulus": "<p id='stroop-text' class='stroop-green'>RED</p>", "response": "g", "stimulus-type": "incongruent", "word": "red", "color": "green", "correct_response": "g", "trial_id": "stroop-trial-1-incongruent-18", "trial_type": "html-keyboard-response", "trial_index": 195, "time_elapsed": 807906, "internal_node_id": "0.0-8.0-9.0"}}, {"uniqueid": "w96450456:a44943546", "current_trial": 196, "dateTime": 1664368896698, "trialdata": {"rt": 4028, "stimulus": "<p id='stroop-text' class='stroop-red'>DOG</p>", "response": "r", "stimulus-type": "unrelated", "word": "DOG", "color": "red", "correct_response": "r", "trial_id": "stroop-trial-1-unrelated-23", "trial_type": "html-keyboard-response", "trial_index": 196, "time_elapsed": 812462, "internal_node_id": "0.0-8.0-10.0"}}, {"uniqueid": "w96450456:a44943546", "current_trial": 197, "dateTime": 1664368898053, "trialdata": {"rt": 807, "stimulus": "<p id='stroop-text' class='stroop-red'>WINDOW</p>", "response": "r", "stimulus-type": "unrelated", "word": "WINDOW", "color": "red", "correct_response": "r", "trial_id": "stroop-trial-1-unrelated-16", "trial_type": "html-keyboard-response", "trial_index": 197, "time_elapsed": 813818, "internal_node_id": "0.0-8.0-11.0"}}, {"uniqueid": "w96450456:a44943546", "current_trial": 198, "dateTime": 1664368900023, "trialdata": {"rt": 1450, "stimulus": "<p id='stroop-text' class='stroop-green'>STONE</p>", "response": "g", "stimulus-type": "unrelated", "word": "STONE", "color": "green", "correct_response": "g", "trial_id": "stroop-trial-1-unrelated-3", "trial_type": "html-keyboard-response", "trial_index": 198, "time_elapsed": 815787, "internal_node_id": "0.0-8.0-12.0"}}, {"uniqueid": "w96450456:a44943546", "current_trial": 199, "dateTime": 1664368901812, "trialdata": {"rt": 1265, "stimulus": "<p id='stroop-text' class='stroop-yellow'>YELLOW</p>", "response": "y", "stimulus-type": "congruent", "word": "yellow", "color": "yellow", "correct_response": "y", "trial_id": "stroop-trial-1-congruent-30", "trial_type": "html-keyboard-response", "trial_index": 199, "time_elapsed": 817577, "internal_node_id": "0.0-8.0-13.0"}}, {"uniqueid": "w96450456:a44943546", "current_trial": 200, "dateTime": 1664368903404, "trialdata": {"rt": 1073, "stimulus": "<p id='stroop-text' class='stroop-yellow'>GREEN</p>", "response": "y", "stimulus-type": "incongruent", "word": "green", "color": "yellow", "correct_response": "y", "trial_id": "stroop-trial-1-incongruent-29", "trial_type": "html-keyboard-response", "trial_index": 200, "time_elapsed": 819169, "internal_node_id": "0.0-8.0-14.0"}}, {"uniqueid": "w96450456:a44943546", "current_trial": 201, "dateTime": 1664368905446, "trialdata": {"rt": 1521, "stimulus": "<p id='stroop-text' class='stroop-green'>GREEN</p>", "response": "g", "stimulus-type": "congruent", "word": "green", "color": "green", "correct_response": "g", "trial_id": "stroop-trial-1-congruent-6", "trial_type": "html-keyboard-response", "trial_index": 201, "time_elapsed": 821210, "internal_node_id": "0.0-8.0-15.0"}}, {"uniqueid": "w96450456:a44943546", "current_trial": 202, "dateTime": 1664368907592, "trialdata": {"rt": 1611, "stimulus": "<p id='stroop-text' class='stroop-red'>RED</p>", "response": "r", "stimulus-type": "congruent", "word": "red", "color": "red", "correct_response": "r", "trial_id": "stroop-trial-1-congruent-9", "trial_type": "html-keyboard-response", "trial_index": 202, "time_elapsed": 823355, "internal_node_id": "0.0-8.0-16.0"}}, {"uniqueid": "w96450456:a44943546", "current_trial": 203, "dateTime": 1664368911436, "trialdata": {"rt": 3317, "stimulus": "<p id='stroop-text' class='stroop-red'>RED</p>", "response": "r", "stimulus-type": "congruent", "word": "red", "color": "red", "correct_response": "r", "trial_id": "stroop-trial-1-congruent-18", "trial_type": "html-keyboard-response", "trial_index": 203, "time_elapsed": 827199, "internal_node_id": "0.0-8.0-17.0"}}, {"uniqueid": "w96450456:a44943546", "current_trial": 204, "dateTime": 1664368914808, "trialdata": {"rt": 2840, "stimulus": "<p id='stroop-text' class='stroop-green'>BRIDGE</p>", "response": "b", "stimulus-type": "unrelated", "word": "BRIDGE", "color": "green", "correct_response": "g", "trial_id": "stroop-trial-1-unrelated-10", "trial_type": "html-keyboard-response", "trial_index": 204, "time_elapsed": 830573, "internal_node_id": "0.0-8.0-18.0"}}, {"uniqueid": "w96450456:a44943546", "current_trial": 205, "dateTime": 1664368917175, "trialdata": {"rt": 1829, "stimulus": "<p id='stroop-text' class='stroop-green'>BLUE</p>", "response": "g", "stimulus-type": "incongruent", "word": "blue", "color": "green", "correct_response": "g", "trial_id": "stroop-trial-1-incongruent-25", "trial_type": "html-keyboard-response", "trial_index": 205, "time_elapsed": 832939, "internal_node_id": "0.0-8.0-19.0"}}, {"uniqueid": "w96450456:a44943546", "current_trial": 206, "dateTime": 1664368919511, "trialdata": {"rt": 1807, "stimulus": "<p id='stroop-text' class='stroop-yellow'>YELLOW</p>", "response": "y", "stimulus-type": "congruent", "word": "yellow", "color": "yellow", "correct_response": "y", "trial_id": "stroop-trial-1-congruent-8", "trial_type": "html-keyboard-response", "trial_index": 206, "time_elapsed": 835276, "internal_node_id": "0.0-8.0-20.0"}}, {"uniqueid": "w96450456:a44943546", "current_trial": 207, "dateTime": 1664368920588, "trialdata": {"rt": 527, "stimulus": "<p id='stroop-text' class='stroop-yellow'>YELLOW</p>", "response": "y", "stimulus-type": "congruent", "word": "yellow", "color": "yellow", "correct_response": "y", "trial_id": "stroop-trial-1-congruent-11", "trial_type": "html-keyboard-response", "trial_index": 207, "time_elapsed": 836352, "internal_node_id": "0.0-8.0-21.0"}}, {"uniqueid": "w96450456:a44943546", "current_trial": 208, "dateTime": 1664368922669, "trialdata": {"rt": 1560, "stimulus": "<p id='stroop-text' class='stroop-red'>RED</p>", "response": "r", "stimulus-type": "congruent", "word": "red", "color": "red", "correct_response": "r", "trial_id": "stroop-trial-1-congruent-17", "trial_type": "html-keyboard-response", "trial_index": 208, "time_elapsed": 838433, "internal_node_id": "0.0-8.0-22.0"}}, {"uniqueid": "w96450456:a44943546", "current_trial": 209, "dateTime": 1664368924674, "trialdata": {"rt": 1475, "stimulus": "<p id='stroop-text' class='stroop-green'>BOTTLE</p>", "response": "g", "stimulus-type": "unrelated", "word": "BOTTLE", "color": "green", "correct_response": "g", "trial_id": "stroop-trial-1-unrelated-21", "trial_type": "html-keyboard-response", "trial_index": 209, "time_elapsed": 840438, "internal_node_id": "0.0-8.0-23.0"}}, {"uniqueid": "w96450456:a44943546", "current_trial": 210, "dateTime": 1664368925932, "trialdata": {"rt": 718, "stimulus": "<p id='stroop-text' class='stroop-green'>BLUE</p>", "response": "g", "stimulus-type": "incongruent", "word": "blue", "color": "green", "correct_response": "g", "trial_id": "stroop-trial-1-incongruent-30", "trial_type": "html-keyboard-response", "trial_index": 210, "time_elapsed": 841695, "internal_node_id": "0.0-8.0-24.0"}}, {"uniqueid": "w96450456:a44943546", "current_trial": 211, "dateTime": 1664368927204, "trialdata": {"rt": 739, "stimulus": "<p id='stroop-text' class='stroop-green'>STONE</p>", "response": "g", "stimulus-type": "unrelated", "word": "STONE", "color": "green", "correct_response": "g", "trial_id": "stroop-trial-1-unrelated-25", "trial_type": "html-keyboard-response", "trial_index": 211, "time_elapsed": 842968, "internal_node_id": "0.0-8.0-25.0"}}, {"uniqueid": "w96450456:a44943546", "current_trial": 212, "dateTime": 1664368929196, "trialdata": {"rt": 1466, "stimulus": "<p id='stroop-text' class='stroop-yellow'>MONKEY</p>", "response": "y", "stimulus-type": "unrelated", "word": "MONKEY", "color": "yellow", "correct_response": "y", "trial_id": "stroop-trial-1-unrelated-20", "trial_type": "html-keyboard-response", "trial_index": 212, "time_elapsed": 844962, "internal_node_id": "0.0-8.0-26.0"}}, {"uniqueid": "w96450456:a44943546", "current_trial": 213, "dateTime": 1664368930801, "trialdata": {"rt": 1091, "stimulus": "<p id='stroop-text' class='stroop-green'>BOAT</p>", "response": "g", "stimulus-type": "unrelated", "word": "BOAT", "color": "green", "correct_response": "g", "trial_id": "stroop-trial-1-unrelated-6", "trial_type": "html-keyboard-response", "trial_index": 213, "time_elapsed": 846567, "internal_node_id": "0.0-8.0-27.0"}}, {"uniqueid": "w96450456:a44943546", "current_trial": 214, "dateTime": 1664368933236, "trialdata": {"rt": 1919, "stimulus": "<p id='stroop-text' class='stroop-red'>RED</p>", "response": "r", "stimulus-type": "congruent", "word": "red", "color": "red", "correct_response": "r", "trial_id": "stroop-trial-1-congruent-23", "trial_type": "html-keyboard-response", "trial_index": 214, "time_elapsed": 848999, "internal_node_id": "0.0-8.0-28.0"}}, {"uniqueid": "w96450456:a44943546", "current_trial": 215, "dateTime": 1664368935065, "trialdata": {"rt": 1301, "stimulus": "<p id='stroop-text' class='stroop-yellow'>CHAIR</p>", "response": "y", "stimulus-type": "unrelated", "word": "CHAIR", "color": "yellow", "correct_response": "y", "trial_id": "stroop-trial-1-unrelated-26", "trial_type": "html-keyboard-response", "trial_index": 215, "time_elapsed": 850829, "internal_node_id": "0.0-8.0-29.0"}}, {"uniqueid": "w96450456:a44943546", "current_trial": 216, "dateTime": 1664368937192, "trialdata": {"rt": 1598, "stimulus": "<p id='stroop-text' class='stroop-blue'>BLUE</p>", "response": "b", "stimulus-type": "congruent", "word": "blue", "color": "blue", "correct_response": "b", "trial_id": "stroop-trial-1-congruent-2", "trial_type": "html-keyboard-response", "trial_index": 216, "time_elapsed": 852956, "internal_node_id": "0.0-8.0-30.0"}}, {"uniqueid": "w96450456:a44943546", "current_trial": 217, "dateTime": 1664368940246, "trialdata": {"rt": 2519, "stimulus": "<p id='stroop-text' class='stroop-yellow'>STONE</p>", "response": "y", "stimulus-type": "unrelated", "word": "STONE", "color": "yellow", "correct_response": "y", "trial_id": "stroop-trial-1-unrelated-27", "trial_type": "html-keyboard-response", "trial_index": 217, "time_elapsed": 856010, "internal_node_id": "0.0-8.0-31.0"}}, {"uniqueid": "w96450456:a44943546", "current_trial": 218, "dateTime": 1664368943598, "trialdata": {"rt": 2806, "stimulus": "<p id='stroop-text' class='stroop-red'>BOTTLE</p>", "response": "r", "stimulus-type": "unrelated", "word": "BOTTLE", "color": "red", "correct_response": "r", "trial_id": "stroop-trial-1-unrelated-7", "trial_type": "html-keyboard-response", "trial_index": 218, "time_elapsed": 859362, "internal_node_id": "0.0-8.0-32.0"}}, {"uniqueid": "w96450456:a44943546", "current_trial": 219, "dateTime": 1664368945023, "trialdata": {"rt": 888, "stimulus": "<p id='stroop-text' class='stroop-red'>RED</p>", "response": "r", "stimulus-type": "congruent", "word": "red", "color": "red", "correct_response": "r", "trial_id": "stroop-trial-1-congruent-4", "trial_type": "html-keyboard-response", "trial_index": 219, "time_elapsed": 860788, "internal_node_id": "0.0-8.0-33.0"}}, {"uniqueid": "w96450456:a44943546", "current_trial": 220, "dateTime": 1664368947473, "trialdata": {"rt": 1923, "stimulus": "<p id='stroop-text' class='stroop-yellow'>BLUE</p>", "response": "y", "stimulus-type": "incongruent", "word": "blue", "color": "yellow", "correct_response": "y", "trial_id": "stroop-trial-1-incongruent-7", "trial_type": "html-keyboard-response", "trial_index": 220, "time_elapsed": 863238, "internal_node_id": "0.0-8.0-34.0"}}, {"uniqueid": "w96450456:a44943546", "current_trial": 221, "dateTime": 1664368949806, "trialdata": {"rt": 1799, "stimulus": "<p id='stroop-text' class='stroop-green'>BRAIN</p>", "response": "g", "stimulus-type": "unrelated", "word": "BRAIN", "color": "green", "correct_response": "g", "trial_id": "stroop-trial-1-unrelated-2", "trial_type": "html-keyboard-response", "trial_index": 221, "time_elapsed": 865571, "internal_node_id": "0.0-8.0-35.0"}}, {"uniqueid": "w96450456:a44943546", "current_trial": 222, "dateTime": 1664368952031, "trialdata": {"rt": 1684, "stimulus": "<p id='stroop-text' class='stroop-blue'>GREEN</p>", "response": "b", "stimulus-type": "incon