{"condition": 0, "counterbalance": 0, "assignmentId": "a58690782", "workerId": "w28230559", "hitId": "h95680899", "currenttrial": 959, "bonus": 0, "data": [{"uniqueid": "w28230559:a58690782", "current_trial": 0, "dateTime": 1664463913031, "trialdata": {"success": true, "trial_type": "fullscreen", "trial_index": 0, "time_elapsed": 6336, "internal_node_id": "0.0-0.0"}}, {"uniqueid": "w28230559:a58690782", "current_trial": 1, "dateTime": 1664463931270, "trialdata": {"view_history": [{"page_index": 0, "viewing_time": 18209}], "rt": 18210, "trial_id": "exp_instructions_distractor", "trial_type": "instructions", "trial_index": 1, "time_elapsed": 24576, "internal_node_id": "0.0-1.0"}}, {"uniqueid": "w28230559:a58690782", "current_trial": 2, "dateTime": 1664463959074, "trialdata": {"view_history": [{"page_index": 0, "viewing_time": 27799}], "rt": 27799, "trial_id": "color_game_instructions", "trial_type": "instructions", "trial_index": 2, "time_elapsed": 52380, "internal_node_id": "0.0-2.0"}}, {"uniqueid": "w28230559:a58690782", "current_trial": 3, "dateTime": 1664463967608, "trialdata": {"rt": 8529, "stimulus": "<h1> Get ready to start the game! </h1>\n\nThank you for reading the instructions. Get ready start with the first of 5 block(s) of this game.\n<br><br>\nIn this first block, you will complete 90 rounds of this game before moving on.\n<br><br>\nRemember, the better you perform, the bigger your bonus will be!\n<br><br>\n<div style='text-align: center;'>Press <code>space</code> to begin.</div>", "response": " ", "trial_id": "stroop_1_ready_1", "trial_type": "html-keyboard-response", "trial_index": 3, "time_elapsed": 60914, "internal_node_id": "0.0-3.0"}}, {"uniqueid": "w28230559:a58690782", "current_trial": 4, "dateTime": 1664463968691, "trialdata": {"rt": 1059, "stimulus": "<p id='stroop-text' class='stroop-blue'>BOAT</p>", "response": "b", "stimulus-type": "unrelated", "word": "BOAT", "color": "blue", "correct_response": "b", "trial_id": "stroop-trial-1-unrelated-23", "trial_type": "html-keyboard-response", "trial_index": 4, "time_elapsed": 61996, "internal_node_id": "0.0-4.0-0.0"}}, {"uniqueid": "w28230559:a58690782", "current_trial": 5, "dateTime": 1664463970933, "trialdata": {"rt": 1727, "stimulus": "<p id='stroop-text' class='stroop-yellow'>YELLOW</p>", "response": "y", "stimulus-type": "congruent", "word": "yellow", "color": "yellow", "correct_response": "y", "trial_id": "stroop-trial-1-congruent-27", "trial_type": "html-keyboard-response", "trial_index": 5, "time_elapsed": 64239, "internal_node_id": "0.0-4.0-1.0"}}, {"uniqueid": "w28230559:a58690782", "current_trial": 6, "dateTime": 1664463972326, "trialdata": {"rt": 885, "stimulus": "<p id='stroop-text' class='stroop-red'>STONE</p>", "response": "r", "stimulus-type": "unrelated", "word": "STONE", "color": "red", "correct_response": "r", "trial_id": "stroop-trial-1-unrelated-14", "trial_type": "html-keyboard-response", "trial_index": 6, "time_elapsed": 65632, "internal_node_id": "0.0-4.0-2.0"}}, {"uniqueid": "w28230559:a58690782", "current_trial": 7, "dateTime": 1664463973756, "trialdata": {"rt": 924, "stimulus": "<p id='stroop-text' class='stroop-red'>GREEN</p>", "response": "g", "stimulus-type": "incongruent", "word": "green", "color": "red", "correct_response": "r", "trial_id": "stroop-trial-1-incongruent-29", "trial_type": "html-keyboard-response", "trial_index": 7, "time_elapsed": 67061, "internal_node_id": "0.0-4.0-3.0"}}, {"uniqueid": "w28230559:a58690782", "current_trial": 8, "dateTime": 1664463976389, "trialdata": {"rt": 2122, "stimulus": "<p id='stroop-text' class='stroop-blue'>BRAIN</p>", "response": "b", "stimulus-type": "unrelated", "word": "BRAIN", "color": "blue", "correct_response": "b", "trial_id": "stroop-trial-1-unrelated-25", "trial_type": "html-keyboard-response", "trial_index": 8, "time_elapsed": 69695, "internal_node_id": "0.0-4.0-4.0"}}, {"uniqueid": "w28230559:a58690782", "current_trial": 9, "dateTime": 1664463978074, "trialdata": {"rt": 1179, "stimulus": "<p id='stroop-text' class='stroop-green'>YELLOW</p>", "response": "g", "stimulus-type": "incongruent", "word": "yellow", "color": "green", "correct_response": "g", "trial_id": "stroop-trial-1-incongruent-18", "trial_type": "html-keyboard-response", "trial_index": 9, "time_elapsed": 71379, "internal_node_id": "0.0-4.0-5.0"}}, {"uniqueid": "w28230559:a58690782", "current_trial": 10, "dateTime": 1664463979459, "trialdata": {"rt": 875, "stimulus": "<p id='stroop-text' class='stroop-blue'>SHIP</p>", "response": "b", "stimulus-type": "unrelated", "word": "SHIP", "color": "blue", "correct_response": "b", "trial_id": "stroop-trial-1-unrelated-28", "trial_type": "html-keyboard-response", "trial_index": 10, "time_elapsed": 72764, "internal_node_id": "0.0-4.0-6.0"}}, {"uniqueid": "w28230559:a58690782", "current_trial": 11, "dateTime": 1664463981022, "trialdata": {"rt": 1055, "stimulus": "<p id='stroop-text' class='stroop-blue'>BLUE</p>", "response": "b", "stimulus-type": "congruent", "word": "blue", "color": "blue", "correct_response": "b", "trial_id": "stroop-trial-1-congruent-12", "trial_type": "html-keyboard-response", "trial_index": 11, "time_elapsed": 74327, "internal_node_id": "0.0-4.0-7.0"}}, {"uniqueid": "w28230559:a58690782", "current_trial": 12, "dateTime": 1664463982350, "trialdata": {"rt": 823, "stimulus": "<p id='stroop-text' class='stroop-green'>BLUE</p>", "response": "g", "stimulus-type": "incongruent", "word": "blue", "color": "green", "correct_response": "g", "trial_id": "stroop-trial-1-incongruent-5", "trial_type": "html-keyboard-response", "trial_index": 12, "time_elapsed": 75656, "internal_node_id": "0.0-4.0-8.0"}}, {"uniqueid": "w28230559:a58690782", "current_trial": 13, "dateTime": 1664463984053, "trialdata": {"rt": 1196, "stimulus": "<p id='stroop-text' class='stroop-yellow'>YELLOW</p>", "response": "y", "stimulus-type": "congruent", "word": "yellow", "color": "yellow", "correct_response": "y", "trial_id": "stroop-trial-1-congruent-4", "trial_type": "html-keyboard-response", "trial_index": 13, "time_elapsed": 77359, "internal_node_id": "0.0-4.0-9.0"}}, {"uniqueid": "w28230559:a58690782", "current_trial": 14, "dateTime": 1664463985549, "trialdata": {"rt": 991, "stimulus": "<p id='stroop-text' class='stroop-yellow'>BLUE</p>", "response": "y", "stimulus-type": "incongruent", "word": "blue", "color": "yellow", "correct_response": "y", "trial_id": "stroop-trial-1-incongruent-21", "trial_type": "html-keyboard-response", "trial_index": 14, "time_elapsed": 78855, "internal_node_id": "0.0-4.0-10.0"}}, {"uniqueid": "w28230559:a58690782", "current_trial": 15, "dateTime": 1664463986683, "trialdata": {"rt": 628, "stimulus": "<p id='stroop-text' class='stroop-yellow'>YELLOW</p>", "response": "y", "stimulus-type": "congruent", "word": "yellow", "color": "yellow", "correct_response": "y", "trial_id": "stroop-trial-1-congruent-30", "trial_type": "html-keyboard-response", "trial_index": 15, "time_elapsed": 79989, "internal_node_id": "0.0-4.0-11.0"}}, {"uniqueid": "w28230559:a58690782", "current_trial": 16, "dateTime": 1664463988240, "trialdata": {"rt": 1048, "stimulus": "<p id='stroop-text' class='stroop-green'>BRIDGE</p>", "response": "g", "stimulus-type": "unrelated", "word": "BRIDGE", "color": "green", "correct_response": "g", "trial_id": "stroop-trial-1-unrelated-5", "trial_type": "html-keyboard-response", "trial_index": 16, "time_elapsed": 81545, "internal_node_id": "0.0-4.0-12.0"}}, {"uniqueid": "w28230559:a58690782", "current_trial": 17, "dateTime": 1664463990240, "trialdata": {"rt": 1493, "stimulus": "<p id='stroop-text' class='stroop-red'>GREEN</p>", "response": "r", "stimulus-type": "incongruent", "word": "green", "color": "red", "correct_response": "r", "trial_id": "stroop-trial-1-incongruent-27", "trial_type": "html-keyboard-response", "trial_index": 17, "time_elapsed": 83545, "internal_node_id": "0.0-4.0-13.0"}}, {"uniqueid": "w28230559:a58690782", "current_trial": 18, "dateTime": 1664463991715, "trialdata": {"rt": 969, "stimulus": "<p id='stroop-text' class='stroop-red'>BLUE</p>", "response": "r", "stimulus-type": "incongruent", "word": "blue", "color": "red", "correct_response": "r", "trial_id": "stroop-trial-1-incongruent-19", "trial_type": "html-keyboard-response", "trial_index": 18, "time_elapsed": 85021, "internal_node_id": "0.0-4.0-14.0"}}, {"uniqueid": "w28230559:a58690782", "current_trial": 19, "dateTime": 1664463993388, "trialdata": {"rt": 1164, "stimulus": "<p id='stroop-text' class='stroop-red'>RED</p>", "response": "r", "stimulus-type": "congruent", "word": "red", "color": "red", "correct_response": "r", "trial_id": "stroop-trial-1-congruent-13", "trial_type": "html-keyboard-response", "trial_index": 19, "time_elapsed": 86693, "internal_node_id": "0.0-4.0-15.0"}}, {"uniqueid": "w28230559:a58690782", "current_trial": 20, "dateTime": 1664463994725, "trialdata": {"rt": 818, "stimulus": "<p id='stroop-text' class='stroop-blue'>BLUE</p>", "response": "b", "stimulus-type": "congruent", "word": "blue", "color": "blue", "correct_response": "b", "trial_id": "stroop-trial-1-congruent-28", "trial_type": "html-keyboard-response", "trial_index": 20, "time_elapsed": 88030, "internal_node_id": "0.0-4.0-16.0"}}, {"uniqueid": "w28230559:a58690782", "current_trial": 21, "dateTime": 1664463996164, "trialdata": {"rt": 927, "stimulus": "<p id='stroop-text' class='stroop-red'>BRIDGE</p>", "response": "r", "stimulus-type": "unrelated", "word": "BRIDGE", "color": "red", "correct_response": "r", "trial_id": "stroop-trial-1-unrelated-13", "trial_type": "html-keyboard-response", "trial_index": 21, "time_elapsed": 89467, "internal_node_id": "0.0-4.0-17.0"}}, {"uniqueid": "w28230559:a58690782", "current_trial": 22, "dateTime": 1664463998031, "trialdata": {"rt": 1356, "stimulus": "<p id='stroop-text' class='stroop-yellow'>BOTTLE</p>", "response": "y", "stimulus-type": "unrelated", "word": "BOTTLE", "color": "yellow", "correct_response": "y", "trial_id": "stroop-trial-1-unrelated-21", "trial_type": "html-keyboard-response", "trial_index": 22, "time_elapsed": 91336, "internal_node_id": "0.0-4.0-18.0"}}, {"uniqueid": "w28230559:a58690782", "current_trial": 23, "dateTime": 1664463999594, "trialdata": {"rt": 1048, "stimulus": "<p id='stroop-text' class='stroop-yellow'>BLUE</p>", "response": "y", "stimulus-type": "incongruent", "word": "blue", "color": "yellow", "correct_response": "y", "trial_id": "stroop-trial-1-incongruent-23", "trial_type": "html-keyboard-response", "trial_index": 23, "time_elapsed": 92899, "internal_node_id": "0.0-4.0-19.0"}}, {"uniqueid": "w28230559:a58690782", "current_trial": 24, "dateTime": 1664464000680, "trialdata": {"rt": 579, "stimulus": "<p id='stroop-text' class='stroop-yellow'>YELLOW</p>", "response": "y", "stimulus-type": "congruent", "word": "yellow", "color": "yellow", "correct_response": "y", "trial_id": "stroop-trial-1-congruent-18", "trial_type": "html-keyboard-response", "trial_index": 24, "time_elapsed": 93985, "internal_node_id": "0.0-4.0-20.0"}}, {"uniqueid": "w28230559:a58690782", "current_trial": 25, "dateTime": 1664464002067, "trialdata": {"rt": 880, "stimulus": "<p id='stroop-text' class='stroop-blue'>CHAIR</p>", "response": "b", "stimulus-type": "unrelated", "word": "CHAIR", "color": "blue", "correct_response": "b", "trial_id": "stroop-trial-1-unrelated-17", "trial_type": "html-keyboard-response", "trial_index": 25, "time_elapsed": 95373, "internal_node_id": "0.0-4.0-21.0"}}, {"uniqueid": "w28230559:a58690782", "current_trial": 26, "dateTime": 1664464003081, "trialdata": {"rt": 505, "stimulus": "<p id='stroop-text' class='stroop-green'>MONKEY</p>", "response": "g", "stimulus-type": "unrelated", "word": "MONKEY", "color": "green", "correct_response": "g", "trial_id": "stroop-trial-1-unrelated-1", "trial_type": "html-keyboard-response", "trial_index": 26, "time_elapsed": 96386, "internal_node_id": "0.0-4.0-22.0"}}, {"uniqueid": "w28230559:a58690782", "current_trial": 27, "dateTime": 1664464004593, "trialdata": {"rt": 1005, "stimulus": "<p id='stroop-text' class='stroop-yellow'>YELLOW</p>", "response": "y", "stimulus-type": "congruent", "word": "yellow", "color": "yellow", "correct_response": "y", "trial_id": "stroop-trial-1-congruent-29", "trial_type": "html-keyboard-response", "trial_index": 27, "time_elapsed": 97898, "internal_node_id": "0.0-4.0-23.0"}}, {"uniqueid": "w28230559:a58690782", "current_trial": 28, "dateTime": 1664464006004, "trialdata": {"rt": 895, "stimulus": "<p id='stroop-text' class='stroop-green'>BOAT</p>", "response": "g", "stimulus-type": "unrelated", "word": "BOAT", "color": "green", "correct_response": "g", "trial_id": "stroop-trial-1-unrelated-2", "trial_type": "html-keyboard-response", "trial_index": 28, "time_elapsed": 99310, "internal_node_id": "0.0-4.0-24.0"}}, {"uniqueid": "w28230559:a58690782", "current_trial": 29, "dateTime": 1664464007347, "trialdata": {"rt": 831, "stimulus": "<p id='stroop-text' class='stroop-red'>GREEN</p>", "response": "r", "stimulus-type": "incongruent", "word": "green", "color": "red", "correct_response": "r", "trial_id": "stroop-trial-1-incongruent-24", "trial_type": "html-keyboard-response", "trial_index": 29, "time_elapsed": 100653, "internal_node_id": "0.0-4.0-25.0"}}, {"uniqueid": "w28230559:a58690782", "current_trial": 30, "dateTime": 1664464009333, "trialdata": {"rt": 1480, "stimulus": "<p id='stroop-text' class='stroop-yellow'>CHAIR</p>", "response": "y", "stimulus-type": "unrelated", "word": "CHAIR", "color": "yellow", "correct_response": "y", "trial_id": "stroop-trial-1-unrelated-12", "trial_type": "html-keyboard-response", "trial_index": 30, "time_elapsed": 102638, "internal_node_id": "0.0-4.0-26.0"}}, {"uniqueid": "w28230559:a58690782", "current_trial": 31, "dateTime": 1664464010598, "trialdata": {"rt": 750, "stimulus": "<p id='stroop-text' class='stroop-blue'>SHIP</p>", "response": "b", "stimulus-type": "unrelated", "word": "SHIP", "color": "blue", "correct_response": "b", "trial_id": "stroop-trial-1-unrelated-30", "trial_type": "html-keyboard-response", "trial_index": 31, "time_elapsed": 103903, "internal_node_id": "0.0-4.0-27.0"}}, {"uniqueid": "w28230559:a58690782", "current_trial": 32, "dateTime": 1664464011789, "trialdata": {"rt": 686, "stimulus": "<p id='stroop-text' class='stroop-red'>RED</p>", "response": "r", "stimulus-type": "congruent", "word": "red", "color": "red", "correct_response": "r", "trial_id": "stroop-trial-1-congruent-7", "trial_type": "html-keyboard-response", "trial_index": 32, "time_elapsed": 105094, "internal_node_id": "0.0-4.0-28.0"}}, {"uniqueid": "w28230559:a58690782", "current_trial": 33, "dateTime": 1664464013075, "trialdata": {"rt": 779, "stimulus": "<p id='stroop-text' class='stroop-green'>GREEN</p>", "response": "g", "stimulus-type": "congruent", "word": "green", "color": "green", "correct_response": "g", "trial_id": "stroop-trial-1-congruent-6", "trial_type": "html-keyboard-response", "trial_index": 33, "time_elapsed": 106380, "internal_node_id": "0.0-4.0-29.0"}}, {"uniqueid": "w28230559:a58690782", "current_trial": 34, "dateTime": 1664464014183, "trialdata": {"rt": 601, "stimulus": "<p id='stroop-text' class='stroop-blue'>BLUE</p>", "response": "b", "stimulus-type": "congruent", "word": "blue", "color": "blue", "correct_response": "b", "trial_id": "stroop-trial-1-congruent-10", "trial_type": "html-keyboard-response", "trial_index": 34, "time_elapsed": 107488, "internal_node_id": "0.0-4.0-30.0"}}, {"uniqueid": "w28230559:a58690782", "current_trial": 35, "dateTime": 1664464015735, "trialdata": {"rt": 1045, "stimulus": "<p id='stroop-text' class='stroop-green'>RED</p>", "response": "g", "stimulus-type": "incongruent", "word": "red", "color": "green", "correct_response": "g", "trial_id": "stroop-trial-1-incongruent-16", "trial_type": "html-keyboard-response", "trial_index": 35, "time_elapsed": 109041, "internal_node_id": "0.0-4.0-31.0"}}, {"uniqueid": "w28230559:a58690782", "current_trial": 36, "dateTime": 1664464017294, "trialdata": {"rt": 1054, "stimulus": "<p id='stroop-text' class='stroop-blue'>MONKEY</p>", "response": "b", "stimulus-type": "unrelated", "word": "MONKEY", "color": "blue", "correct_response": "b", "trial_id": "stroop-trial-1-unrelated-27", "trial_type": "html-keyboard-response", "trial_index": 36, "time_elapsed": 110599, "internal_node_id": "0.0-4.0-32.0"}}, {"uniqueid": "w28230559:a58690782", "current_trial": 37, "dateTime": 1664464018850, "trialdata": {"rt": 1039, "stimulus": "<p id='stroop-text' class='stroop-yellow'>RED</p>", "response": "y", "stimulus-type": "incongruent", "word": "red", "color": "yellow", "correct_response": "y", "trial_id": "stroop-trial-1-incongruent-28", "trial_type": "html-keyboard-response", "trial_index": 37, "time_elapsed": 112155, "internal_node_id": "0.0-4.0-33.0"}}, {"uniqueid": "w28230559:a58690782", "current_trial": 38, "dateTime": 1664464019948, "trialdata": {"rt": 588, "stimulus": "<p id='stroop-text' class='stroop-yellow'>GREEN</p>", "response": "y", "stimulus-type": "incongruent", "word": "green", "color": "yellow", "correct_response": "y", "trial_id": "stroop-trial-1-incongruent-9", "trial_type": "html-keyboard-response", "trial_index": 38, "time_elapsed": 113253, "internal_node_id": "0.0-4.0-34.0"}}, {"uniqueid": "w28230559:a58690782", "current_trial": 39, "dateTime": 1664464021616, "trialdata": {"rt": 1161, "stimulus": "<p id='stroop-text' class='stroop-blue'>GREEN</p>", "response": "b", "stimulus-type": "incongruent", "word": "green", "color": "blue", "correct_response": "b", "trial_id": "stroop-trial-1-incongruent-26", "trial_type": "html-keyboard-response", "trial_index": 39, "time_elapsed": 114921, "internal_node_id": "0.0-4.0-35.0"}}, {"uniqueid": "w28230559:a58690782", "current_trial": 40, "dateTime": 1664464022706, "trialdata": {"rt": 585, "stimulus": "<p id='stroop-text' class='stroop-blue'>BLUE</p>", "response": "b", "stimulus-type": "congruent", "word": "blue", "color": "blue", "correct_response": "b", "trial_id": "stroop-trial-1-congruent-20", "trial_type": "html-keyboard-response", "trial_index": 40, "time_elapsed": 116011, "internal_node_id": "0.0-4.0-36.0"}}, {"uniqueid": "w28230559:a58690782", "current_trial": 41, "dateTime": 1664464023775, "trialdata": {"rt": 566, "stimulus": "<p id='stroop-text' class='stroop-blue'>BLUE</p>", "response": "b", "stimulus-type": "congruent", "word": "blue", "color": "blue", "correct_response": "b", "trial_id": "stroop-trial-1-congruent-8", "trial_type": "html-keyboard-response", "trial_index": 41, "time_elapsed": 117081, "internal_node_id": "0.0-4.0-37.0"}}, {"uniqueid": "w28230559:a58690782", "current_trial": 42, "dateTime": 1664464024721, "trialdata": {"rt": 442, "stimulus": "<p id='stroop-text' class='stroop-blue'>RED</p>", "response": "b", "stimulus-type": "incongruent", "word": "red", "color": "blue", "correct_response": "b", "trial_id": "stroop-trial-1-incongruent-15", "trial_type": "html-keyboard-response", "trial_index": 42, "time_elapsed": 118026, "internal_node_id": "0.0-4.0-38.0"}}, {"uniqueid": "w28230559:a58690782", "current_trial": 43, "dateTime": 1664464025770, "trialdata": {"rt": 538, "stimulus": "<p id='stroop-text' class='stroop-green'>GREEN</p>", "response": "g", "stimulus-type": "congruent", "word": "green", "color": "green", "correct_response": "g", "trial_id": "stroop-trial-1-congruent-2", "trial_type": "html-keyboard-response", "trial_index": 43, "time_elapsed": 119076, "internal_node_id": "0.0-4.0-39.0"}}, {"uniqueid": "w28230559:a58690782", "current_trial": 44, "dateTime": 1664464027066, "trialdata": {"rt": 785, "stimulus": "<p id='stroop-text' class='stroop-blue'>STONE</p>", "response": "b", "stimulus-type": "unrelated", "word": "STONE", "color": "blue", "correct_response": "b", "trial_id": "stroop-trial-1-unrelated-26", "trial_type": "html-keyboard-response", "trial_index": 44, "time_elapsed": 120371, "internal_node_id": "0.0-4.0-40.0"}}, {"uniqueid": "w28230559:a58690782", "current_trial": 45, "dateTime": 1664464028463, "trialdata": {"rt": 886, "stimulus": "<p id='stroop-text' class='stroop-yellow'>BLUE</p>", "response": "y", "stimulus-type": "incongruent", "word": "blue", "color": "yellow", "correct_response": "y", "trial_id": "stroop-trial-1-incongruent-30", "trial_type": "html-keyboard-response", "trial_index": 45, "time_elapsed": 121768, "internal_node_id": "0.0-4.0-41.0"}}, {"uniqueid": "w28230559:a58690782", "current_trial": 46, "dateTime": 1664464029705, "trialdata": {"rt": 733, "stimulus": "<p id='stroop-text' class='stroop-red'>GREEN</p>", "response": "r", "stimulus-type": "incongruent", "word": "green", "color": "red", "correct_response": "r", "trial_id": "stroop-trial-1-incongruent-14", "trial_type": "html-keyboard-response", "trial_index": 46, "time_elapsed": 123011, "internal_node_id": "0.0-4.0-42.0"}}, {"uniqueid": "w28230559:a58690782", "current_trial": 47, "dateTime": 1664464031771, "trialdata": {"rt": 1547, "stimulus": "<p id='stroop-text' class='stroop-yellow'>RED</p>", "response": "y", "stimulus-type": "incongruent", "word": "red", "color": "yellow", "correct_response": "y", "trial_id": "stroop-trial-1-incongruent-25", "trial_type": "html-keyboard-response", "trial_index": 47, "time_elapsed": 125077, "internal_node_id": "0.0-4.0-43.0"}}, {"uniqueid": "w28230559:a58690782", "current_trial": 48, "dateTime": 1664464032899, "trialdata": {"rt": 609, "stimulus": "<p id='stroop-text' class='stroop-yellow'>YELLOW</p>", "response": "y", "stimulus-type": "congruent", "word": "yellow", "color": "yellow", "correct_response": "y", "trial_id": "stroop-trial-1-congruent-1", "trial_type": "html-keyboard-response", "trial_index": 48, "time_elapsed": 126205, "internal_node_id": "0.0-4.0-44.0"}}, {"uniqueid": "w28230559:a58690782", "current_trial": 49, "dateTime": 1664464034080, "trialdata": {"rt": 671, "stimulus": "<p id='stroop-text' class='stroop-blue'>RED</p>", "response": "b", "stimulus-type": "incongruent", "word": "red", "color": "blue", "correct_response": "b", "trial_id": "stroop-trial-1-incongruent-4", "trial_type": "html-keyboard-response", "trial_index": 49, "time_elapsed": 127386, "internal_node_id": "0.0-4.0-45.0"}}, {"uniqueid": "w28230559:a58690782", "current_trial": 50, "dateTime": 1664464035104, "trialdata": {"rt": 517, "stimulus": "<p id='stroop-text' class='stroop-green'>GREEN</p>", "response": "g", "stimulus-type": "congruent", "word": "green", "color": "green", "correct_response": "g", "trial_id": "stroop-trial-1-congruent-3", "trial_type": "html-keyboard-response", "trial_index": 50, "time_elapsed": 128409, "internal_node_id": "0.0-4.0-46.0"}}, {"uniqueid": "w28230559:a58690782", "current_trial": 51, "dateTime": 1664464036210, "trialdata": {"rt": 596, "stimulus": "<p id='stroop-text' class='stroop-yellow'>BLUE</p>", "response": "b", "stimulus-type": "incongruent", "word": "blue", "color": "yellow", "correct_response": "y", "trial_id": "stroop-trial-1-incongruent-8", "trial_type": "html-keyboard-response", "trial_index": 51, "time_elapsed": 129515, "internal_node_id": "0.0-4.0-47.0"}}, {"uniqueid": "w28230559:a58690782", "current_trial": 52, "dateTime": 1664464037971, "trialdata": {"rt": 1257, "stimulus": "<p id='stroop-text' class='stroop-red'>CHAIR</p>", "response": "r", "stimulus-type": "unrelated", "word": "CHAIR", "color": "red", "correct_response": "r", "trial_id": "stroop-trial-1-unrelated-15", "trial_type": "html-keyboard-response", "trial_index": 52, "time_elapsed": 131277, "internal_node_id": "0.0-4.0-48.0"}}, {"uniqueid": "w28230559:a58690782", "current_trial": 53, "dateTime": 1664464039079, "trialdata": {"rt": 595, "stimulus": "<p id='stroop-text' class='stroop-red'>BOAT</p>", "response": "r", "stimulus-type": "unrelated", "word": "BOAT", "color": "red", "correct_response": "r", "trial_id": "stroop-trial-1-unrelated-6", "trial_type": "html-keyboard-response", "trial_index": 53, "time_elapsed": 132384, "internal_node_id": "0.0-4.0-49.0"}}, {"uniqueid": "w28230559:a58690782", "current_trial": 54, "dateTime": 1664464040588, "trialdata": {"rt": 1003, "stimulus": "<p id='stroop-text' class='stroop-green'>BRIDGE</p>", "response": "g", "stimulus-type": "unrelated", "word": "BRIDGE", "color": "green", "correct_response": "g", "trial_id": "stroop-trial-1-unrelated-11", "trial_type": "html-keyboard-response", "trial_index": 54, "time_elapsed": 133893, "internal_node_id": "0.0-4.0-50.0"}}, {"uniqueid": "w28230559:a58690782", "current_trial": 55, "dateTime": 1664464041995, "trialdata": {"rt": 899, "stimulus": "<p id='stroop-text' class='stroop-blue'>GREEN</p>", "response": "y", "stimulus-type": "incongruent", "word": "green", "color": "blue", "correct_response": "b", "trial_id": "stroop-trial-1-incongruent-22", "trial_type": "html-keyboard-response", "trial_index": 55, "time_elapsed": 135301, "internal_node_id": "0.0-4.0-51.0"}}, {"uniqueid": "w28230559:a58690782", "current_trial": 56, "dateTime": 1664464043957, "trialdata": {"rt": 1450, "stimulus": "<p id='stroop-text' class='stroop-green'>GREEN</p>", "response": "g", "stimulus-type": "congruent", "word": "green", "color": "green", "correct_response": "g", "trial_id": "stroop-trial-1-congruent-23", "trial_type": "html-keyboard-response", "trial_index": 56, "time_elapsed": 137263, "internal_node_id": "0.0-4.0-52.0"}}, {"uniqueid": "w28230559:a58690782", "current_trial": 57, "dateTime": 1664464045612, "trialdata": {"rt": 1149, "stimulus": "<p id='stroop-text' class='stroop-blue'>GREEN</p>", "response": "b", "stimulus-type": "incongruent", "word": "green", "color": "blue", "correct_response": "b", "trial_id": "stroop-trial-1-incongruent-11", "trial_type": "html-keyboard-response", "trial_index": 57, "time_elapsed": 138917, "internal_node_id": "0.0-4.0-53.0"}}, {"uniqueid": "w28230559:a58690782", "current_trial": 58, "dateTime": 1664464046810, "trialdata": {"rt": 688, "stimulus": "<p id='stroop-text' class='stroop-red'>RED</p>", "response": "r", "stimulus-type": "congruent", "word": "red", "color": "red", "correct_response": "r", "trial_id": "stroop-trial-1-congruent-9", "trial_type": "html-keyboard-response", "trial_index": 58, "time_elapsed": 140115, "internal_node_id": "0.0-4.0-54.0"}}, {"uniqueid": "w28230559:a58690782", "current_trial": 59, "dateTime": 1664464048081, "trialdata": {"rt": 759, "stimulus": "<p id='stroop-text' class='stroop-green'>DOG</p>", "response": "g", "stimulus-type": "unrelated", "word": "DOG", "color": "green", "correct_response": "g", "trial_id": "stroop-trial-1-unrelated-9", "trial_type": "html-keyboard-response", "trial_index": 59, "time_elapsed": 141387, "internal_node_id": "0.0-4.0-55.0"}}, {"uniqueid": "w28230559:a58690782", "current_trial": 60, "dateTime": 1664464049246, "trialdata": {"rt": 654, "stimulus": "<p id='stroop-text' class='stroop-red'>FORK</p>", "response": "r", "stimulus-type": "unrelated", "word": "FORK", "color": "red", "correct_response": "r", "trial_id": "stroop-trial-1-unrelated-24", "trial_type": "html-keyboard-response", "trial_index": 60, "time_elapsed": 142552, "internal_node_id": "0.0-4.0-56.0"}}, {"uniqueid": "w28230559:a58690782", "current_trial": 61, "dateTime": 1664464050729, "trialdata": {"rt": 964, "stimulus": "<p id='stroop-text' class='stroop-yellow'>YELLOW</p>", "response": "y", "stimulus-type": "congruent", "word": "yellow", "color": "yellow", "correct_response": "y", "trial_id": "stroop-trial-1-congruent-21", "trial_type": "html-keyboard-response", "trial_index": 61, "time_elapsed": 144034, "internal_node_id": "0.0-4.0-57.0"}}, {"uniqueid": "w28230559:a58690782", "current_trial": 62, "dateTime": 1664464051879, "trialdata": {"rt": 640, "stimulus": "<p id='stroop-text' class='stroop-yellow'>RED</p>", "response": "r", "stimulus-type": "incongruent", "word": "red", "color": "yellow", "correct_response": "y", "trial_id": "stroop-trial-1-incongruent-13", "trial_type": "html-keyboard-response", "trial_index": 62, "time_elapsed": 145184, "internal_node_id": "0.0-4.0-58.0"}}, {"uniqueid": "w28230559:a58690782", "current_trial": 63, "dateTime": 1664464053400, "trialdata": {"rt": 1011, "stimulus": "<p id='stroop-text' class='stroop-green'>YELLOW</p>", "response": "g", "stimulus-type": "incongruent", "word": "yellow", "color": "green", "correct_response": "g", "trial_id": "stroop-trial-1-incongruent-2", "trial_type": "html-keyboard-response", "trial_index": 63, "time_elapsed": 146705, "internal_node_id": "0.0-4.0-59.0"}}, {"uniqueid": "w28230559:a58690782", "current_trial": 64, "dateTime": 1664464054779, "trialdata": {"rt": 871, "stimulus": "<p id='stroop-text' class='stroop-green'>DOG</p>", "response": "g", "stimulus-type": "unrelated", "word": "DOG", "color": "green", "correct_response": "g", "trial_id": "stroop-trial-1-unrelated-20", "trial_type": "html-keyboard-response", "trial_index": 64, "time_elapsed": 148084, "internal_node_id": "0.0-4.0-60.0"}}, {"uniqueid": "w28230559:a58690782", "current_trial": 65, "dateTime": 1664464056246, "trialdata": {"rt": 958, "stimulus": "<p id='stroop-text' class='stroop-yellow'>YELLOW</p>", "response": "y", "stimulus-type": "congruent", "word": "yellow", "color": "yellow", "correct_response": "y", "trial_id": "stroop-trial-1-congruent-11", "trial_type": "html-keyboard-response", "trial_index": 65, "time_elapsed": 149551, "internal_node_id": "0.0-4.0-61.0"}}, {"uniqueid": "w28230559:a58690782", "current_trial": 66, "dateTime": 1664464057485, "trialdata": {"rt": 730, "stimulus": "<p id='stroop-text' class='stroop-yellow'>YELLOW</p>", "response": "y", "stimulus-type": "congruent", "word": "yellow", "color": "yellow", "correct_response": "y", "trial_id": "stroop-trial-1-congruent-19", "trial_type": "html-keyboard-response", "trial_index": 66, "time_elapsed": 150791, "internal_node_id": "0.0-4.0-62.0"}}, {"uniqueid": "w28230559:a58690782", "current_trial": 67, "dateTime": 1664464058578, "trialdata": {"rt": 585, "stimulus": "<p id='stroop-text' class='stroop-yellow'>YELLOW</p>", "response": "y", "stimulus-type": "congruent", "word": "yellow", "color": "yellow", "correct_response": "y", "trial_id": "stroop-trial-1-congruent-24", "trial_type": "html-keyboard-response", "trial_index": 67, "time_elapsed": 151883, "internal_node_id": "0.0-4.0-63.0"}}, {"uniqueid": "w28230559:a58690782", "current_trial": 68, "dateTime": 1664464059837, "trialdata": {"rt": 748, "stimulus": "<p id='stroop-text' class='stroop-blue'>BLUE</p>", "response": "b", "stimulus-type": "congruent", "word": "blue", "color": "blue", "correct_response": "b", "trial_id": "stroop-trial-1-congruent-25", "trial_type": "html-keyboard-response", "trial_index": 68, "time_elapsed": 153143, "internal_node_id": "0.0-4.0-64.0"}}, {"uniqueid": "w28230559:a58690782", "current_trial": 69, "dateTime": 1664464061303, "trialdata": {"rt": 958, "stimulus": "<p id='stroop-text' class='stroop-red'>BOAT</p>", "response": "r", "stimulus-type": "unrelated", "word": "BOAT", "color": "red", "correct_response": "r", "trial_id": "stroop-trial-1-unrelated-3", "trial_type": "html-keyboard-response", "trial_index": 69, "time_elapsed": 154608, "internal_node_id": "0.0-4.0-65.0"}}, {"uniqueid": "w28230559:a58690782", "current_trial": 70, "dateTime": 1664464062407, "trialdata": {"rt": 595, "stimulus": "<p id='stroop-text' class='stroop-green'>GREEN</p>", "response": "g", "stimulus-type": "congruent", "word": "green", "color": "green", "correct_response": "g", "trial_id": "stroop-trial-1-congruent-16", "trial_type": "html-keyboard-response", "trial_index": 70, "time_elapsed": 155713, "internal_node_id": "0.0-4.0-66.0"}}, {"uniqueid": "w28230559:a58690782", "current_trial": 71, "dateTime": 1664464063774, "trialdata": {"rt": 847, "stimulus": "<p id='stroop-text' class='stroop-red'>FORK</p>", "response": "r", "stimulus-type": "unrelated", "word": "FORK", "color": "red", "correct_response": "r", "trial_id": "stroop-trial-1-unrelated-7", "trial_type": "html-keyboard-response", "trial_index": 71, "time_elapsed": 157079, "internal_node_id": "0.0-4.0-67.0"}}, {"uniqueid": "w28230559:a58690782", "current_trial": 72, "dateTime": 1664464064794, "trialdata": {"rt": 512, "stimulus": "<p id='stroop-text' class='stroop-red'>BLUE</p>", "response": "r", "stimulus-type": "incongruent", "word": "blue", "color": "red", "correct_response": "r", "trial_id": "stroop-trial-1-incongruent-10", "trial_type": "html-keyboard-response", "trial_index": 72, "time_elapsed": 158099, "internal_node_id": "0.0-4.0-68.0"}}, {"uniqueid": "w28230559:a58690782", "current_trial": 73, "dateTime": 1664464066094, "trialdata": {"rt": 787, "stimulus": "<p id='stroop-text' class='stroop-blue'>BLUE</p>", "response": "b", "stimulus-type": "congruent", "word": "blue", "color": "blue", "correct_response": "b", "trial_id": "stroop-trial-1-congruent-14", "trial_type": "html-keyboard-response", "trial_index": 73, "time_elapsed": 159399, "internal_node_id": "0.0-4.0-69.0"}}, {"uniqueid": "w28230559:a58690782", "current_trial": 74, "dateTime": 1664464067440, "trialdata": {"rt": 836, "stimulus": "<p id='stroop-text' class='stroop-green'>YELLOW</p>", "response": "g", "stimulus-type": "incongruent", "word": "yellow", "color": "green", "correct_response": "g", "trial_id": "stroop-trial-1-incongruent-1", "trial_type": "html-keyboard-response", "trial_index": 74, "time_elapsed": 160746, "internal_node_id": "0.0-4.0-70.0"}}, {"uniqueid": "w28230559:a58690782", "current_trial": 75, "dateTime": 1664464068767, "trialdata": {"rt": 823, "stimulus": "<p id='stroop-text' class='stroop-yellow'>WINDOW</p>", "response": "y", "stimulus-type": "unrelated", "word": "WINDOW", "color": "yellow", "correct_response": "y", "trial_id": "stroop-trial-1-unrelated-19", "trial_type": "html-keyboard-response", "trial_index": 75, "time_elapsed": 162073, "internal_node_id": "0.0-4.0-71.0"}}, {"uniqueid": "w28230559:a58690782", "current_trial": 76, "dateTime": 1664464070301, "trialdata": {"rt": 1024, "stimulus": "<p id='stroop-text' class='stroop-green'>BLUE</p>", "response": "g", "stimulus-type": "incongruent", "word": "blue", "color": "green", "correct_response": "g", "trial_id": "stroop-trial-1-incongruent-6", "trial_type": "html-keyboard-response", "trial_index": 76, "time_elapsed": 163607, "internal_node_id": "0.0-4.0-72.0"}}, {"uniqueid": "w28230559:a58690782", "current_trial": 77, "dateTime": 1664464071377, "trialdata": {"rt": 572, "stimulus": "<p id='stroop-text' class='stroop-green'>GREEN</p>", "response": "g", "stimulus-type": "congruent", "word": "green", "color": "green", "correct_response": "g", "trial_id": "stroop-trial-1-congruent-15", "trial_type": "html-keyboard-response", "trial_index": 77, "time_elapsed": 164683, "internal_node_id": "0.0-4.0-73.0"}}, {"uniqueid": "w28230559:a58690782", "current_trial": 78, "dateTime": 1664464072690, "trialdata": {"rt": 801, "stimulus": "<p id='stroop-text' class='stroop-yellow'>YELLOW</p>", "response": "y", "stimulus-type": "congruent", "word": "yellow", "color": "yellow", "correct_response": "y", "trial_id": "stroop-trial-1-congruent-17", "trial_type": "html-keyboard-response", "trial_index": 78, "time_elapsed": 165995, "internal_node_id": "0.0-4.0-74.0"}}, {"uniqueid": "w28230559:a58690782", "current_trial": 79, "dateTime": 1664464073884, "trialdata": {"rt": 686, "stimulus": "<p id='stroop-text' class='stroop-green'>DOG</p>", "response": "g", "stimulus-type": "unrelated", "word": "DOG", "color": "green", "correct_response": "g", "trial_id": "stroop-trial-1-unrelated-8", "trial_type": "html-keyboard-response", "trial_index": 79, "time_elapsed": 167190, "internal_node_id": "0.0-4.0-75.0"}}, {"uniqueid": "w28230559:a58690782", "current_trial": 80, "dateTime": 1664464075232, "trialdata": {"rt": 844, "stimulus": "<p id='stroop-text' class='stroop-yellow'>BLUE</p>", "response": "b", "stimulus-type": "incongruent", "word": "blue", "color": "yellow", "correct_response": "y", "trial_id": "stroop-trial-1-incongruent-12", "trial_type": "html-keyboard-response", "trial_index": 80, "time_elapsed": 168537, "internal_node_id": "0.0-4.0-76.0"}}, {"uniqueid": "w28230559:a58690782", "current_trial": 81, "dateTime": 1664464077750, "trialdata": {"rt": 2014, "stimulus": "<p id='stroop-text' class='stroop-red'>BOTTLE</p>", "response": "r", "stimulus-type": "unrelated", "word": "BOTTLE", "color": "red", "correct_response": "r", "trial_id": "stroop-trial-1-unrelated-29", "trial_type": "html-keyboard-response", "trial_index": 81, "time_elapsed": 171055, "internal_node_id": "0.0-4.0-77.0"}}, {"uniqueid": "w28230559:a58690782", "current_trial": 82, "dateTime": 1664464080224, "trialdata": {"rt": 1963, "stimulus": "<p id='stroop-text' class='stroop-green'>RED</p>", "response": "g", "stimulus-type": "incongruent", "word": "red", "color": "green", "correct_response": "g", "trial_id": "stroop-trial-1-incongruent-3", "trial_type": "html-keyboard-response", "trial_index": 82, "time_elapsed": 173530, "internal_node_id": "0.0-4.0-78.0"}}, {"uniqueid": "w28230559:a58690782", "current_trial": 83, "dateTime": 1664464081424, "trialdata": {"rt": 681, "stimulus": "<p id='stroop-text' class='stroop-blue'>BRAIN</p>", "response": "b", "stimulus-type": "unrelated", "word": "BRAIN", "color": "blue", "correct_response": "b", "trial_id": "stroop-trial-1-unrelated-10", "trial_type": "html-keyboard-response", "trial_index": 83, "time_elapsed": 174730, "internal_node_id": "0.0-4.0-79.0"}}, {"uniqueid": "w28230559:a58690782", "current_trial": 84, "dateTime": 1664464083357, "trialdata": {"rt": 1428, "stimulus": "<p id='stroop-text' class='stroop-red'>YELLOW</p>", "response": "r", "stimulus-type": "incongruent", "word": "yellow", "color": "red", "correct_response": "r", "trial_id": "stroop-trial-1-incongruent-7", "trial_type": "html-keyboard-response", "trial_index": 84, "time_elapsed": 176662, "internal_node_id": "0.0-4.0-80.0"}}, {"uniqueid": "w28230559:a58690782", "current_trial": 85, "dateTime": 1664464084663, "trialdata": {"rt": 795, "stimulus": "<p id='stroop-text' class='stroop-green'>WINDOW</p>", "response": "g", "stimulus-type": "unrelated", "word": "WINDOW", "color": "green", "correct_response": "g", "trial_id": "stroop-trial-1-unrelated-22", "trial_type": "html-keyboard-response", "trial_index": 85, "time_elapsed": 177968, "internal_node_id": "0.0-4.0-81.0"}}, {"uniqueid": "w28230559:a58690782", "current_trial": 86, "dateTime": 1664464085949, "trialdata": {"rt": 775, "stimulus": "<p id='stroop-text' class='stroop-red'>SHIP</p>", "response": "g", "stimulus-type": "unrelated", "word": "SHIP", "color": "red", "correct_response": "r", "trial_id": "stroop-trial-1-unrelated-16", "trial_type": "html-keyboard-response", "trial_index": 86, "time_elapsed": 179255, "internal_node_id": "0.0-4.0-82.0"}}, {"uniqueid": "w28230559:a58690782", "current_trial": 87, "dateTime": 1664464088737, "trialdata": {"rt": 2283, "stimulus": "<p id='stroop-text' class='stroop-green'>RED</p>", "response": "g", "stimulus-type": "incongruent", "word": "red", "color": "green", "correct_response": "g", "trial_id": "stroop-trial-1-incongruent-17", "trial_type": "html-keyboard-response", "trial_index": 87, "time_elapsed": 182042, "internal_node_id": "0.0-4.0-83.0"}}, {"uniqueid": "w28230559:a58690782", "current_trial": 88, "dateTime": 1664464089770, "trialdata": {"rt": 522, "stimulus": "<p id='stroop-text' class='stroop-red'>RED</p>", "response": "r", "stimulus-type": "congruent", "word": "red", "color": "red", "correct_response": "r", "trial_id": "stroop-trial-1-congruent-5", "trial_type": "html-keyboard-response", "trial_index": 88, "time_elapsed": 183075, "internal_node_id": "0.0-4.0-84.0"}}, {"uniqueid": "w28230559:a58690782", "current_trial": 89, "dateTime": 1664464091126, "trialdata": {"rt": 845, "stimulus": "<p id='stroop-text' class='stroop-yellow'>SHIP</p>", "response": "y", "stimulus-type": "unrelated", "word": "SHIP", "color": "yellow", "correct_response": "y", "trial_id": "stroop-trial-1-unrelated-4", "trial_type": "html-keyboard-response", "trial_index": 89, "time_elapsed": 184431, "internal_node_id": "0.0-4.0-85.0"}}, {"uniqueid": "w28230559:a58690782", "current_trial": 90, "dateTime": 1664464092255, "trialdata": {"rt": 609, "stimulus": "<p id='stroop-text' class='stroop-green'>GREEN</p>", "response": "g", "stimulus-type": "congruent", "word": "green", "color": "green", "correct_response": "g", "trial_id": "stroop-trial-1-congruent-22", "trial_type": "html-keyboard-response", "trial_index": 90, "time_elapsed": 185560, "internal_node_id": "0.0-4.0-86.0"}}, {"uniqueid": "w28230559:a58690782", "current_trial": 91, "dateTime": 1664464093224, "trialdata": {"rt": 460, "stimulus": "<p id='stroop-text' class='stroop-green'>BOAT</p>", "response": "g", "stimulus-type": "unrelated", "word": "BOAT", "color": "green", "correct_response": "g", "trial_id": "stroop-trial-1-unrelated-18", "trial_type": "html-keyboard-response", "trial_index": 91, "time_elapsed": 186530, "internal_node_id": "0.0-4.0-87.0"}}, {"uniqueid": "w28230559:a58690782", "current_trial": 92, "dateTime": 1664464094088, "trialdata": {"rt": 355, "stimulus": "<p id='stroop-text' class='stroop-green'>BLUE</p>", "response": "g", "stimulus-type": "incongruent", "word": "blue", "color": "green", "correct_response": "g", "trial_id": "stroop-trial-1-incongruent-20", "trial_type": "html-keyboard-response", "trial_index": 92, "time_elapsed": 187393, "internal_node_id": "0.0-4.0-88.0"}}, {"uniqueid": "w28230559:a58690782", "current_trial": 93, "dateTime": 1664464094992, "trialdata": {"rt": 390, "stimulus": "<p id='stroop-text' class='stroop-green'>GREEN</p>", "response": "g", "stimulus-type": "congruent", "word": "green", "color": "green", "correct_response": "g", "trial_id": "stroop-trial-1-congruent-26", "trial_type": "html-keyboard-response", "trial_index": 93, "time_elapsed": 188298, "internal_node_id": "0.0-4.0-89.0"}}, {"uniqueid": "w28230559:a58690782", "current_trial": 94, "dateTime": 1664464119986, "trialdata": {"rt": 24479, "stimulus": "  <h1> End of block! </h1>\n\n  You have reached the end of the block 1/5. If you need a short break, feel free to take one now before moving on.\n\n  <br><br>\n  In the next block, you will complete another 90 rounds of this game.\n\n  <br><br>\n  <div style='text-align: center;'>Press <code>space</code> to begin.</div>\n  <br><br>\n<div style='text-align: center;'>(If the experiment doesn't continue, try clicking on the text and then pressing <code>space</code>.)</div>", "response": " ", "trial_id": "stroop_1_ready_2", "trial_type": "html-keyboard-response", "trial_index": 94, "time_elapsed": 213292, "internal_node_id": "0.0-5.0"}}, {"uniqueid": "w28230559:a58690782", "current_trial": 95, "dateTime": 1664464121732, "trialdata": {"rt": 1740, "stimulus": "<p id='stroop-text' class='stroop-blue'>YELLOW</p>", "response": "b", "stimulus-type": "incongruent", "word": "yellow", "color": "blue", "correct_response": "b", "trial_id": "stroop-trial-1-incongruent-23", "trial_type": "html-keyboard-response", "trial_index": 95, "time_elapsed": 215037, "internal_node_id": "0.0-6.0-0.0"}}, {"uniqueid": "w28230559:a58690782", "current_trial": 96, "dateTime": 1664464122661, "trialdata": {"rt": 424, "stimulus": "<p id='stroop-text' class='stroop-blue'>BLUE</p>", "response": "b", "stimulus-type": "congruent", "word": "blue", "color": "blue", "correct_response": "b", "trial_id": "stroop-trial-1-congruent-10", "trial_type": "html-keyboard-response", "trial_index": 96, "time_elapsed": 215966, "internal_node_id": "0.0-6.0-1.0"}}, {"uniqueid": "w28230559:a58690782", "current_trial": 97, "dateTime": 1664464124307, "trialdata": {"rt": 1142, "stimulus": "<p id='stroop-text' class='stroop-red'>MONKEY</p>", "response": "r", "stimulus-type": "unrelated", "word": "MONKEY", "color": "red", "correct_response": "r", "trial_id": "stroop-trial-1-unrelated-2", "trial_type": "html-keyboard-response", "trial_index": 97, "time_elapsed": 217613, "internal_node_id": "0.0-6.0-2.0"}}, {"uniqueid": "w28230559:a58690782", "current_trial": 98, "dateTime": 1664464125894, "trialdata": {"rt": 1081, "stimulus": "<p id='stroop-text' class='stroop-yellow'>YELLOW</p>", "response": "y", "stimulus-type": "congruent", "word": "yellow", "color": "yellow", "correct_response": "y", "trial_id": "stroop-trial-1-congruent-29", "trial_type": "html-keyboard-response", "trial_index": 98, "time_elapsed": 219199, "internal_node_id": "0.0-6.0-3.0"}}, {"uniqueid": "w28230559:a58690782", "current_trial": 99, "dateTime": 1664464127035, "trialdata": {"rt": 633, "stimulus": "<p id='stroop-text' class='stroop-green'>GREEN</p>", "response": "g", "stimulus-type": "congruent", "word": "green", "color": "green", "correct_response": "g", "trial_id": "stroop-trial-1-congruent-26", "trial_type": "html-keyboard-response", "trial_index": 99, "time_elapsed": 220340, "internal_node_id": "0.0-6.0-4.0"}}, {"uniqueid": "w28230559:a58690782", "current_trial": 100, "dateTime": 1664464128210, "trialdata": {"rt": 671, "stimulus": "<p id='stroop-text' class='stroop-yellow'>YELLOW</p>", "response": "y", "stimulus-type": "congruent", "word": "yellow", "color": "yellow", "correct_response": "y", "trial_id": "stroop-trial-1-congruent-2", "trial_type": "html-keyboard-response", "trial_index": 100, "time_elapsed": 221515, "internal_node_id": "0.0-6.0-5.0"}}, {"uniqueid": "w28230559:a58690782", "current_trial": 101, "dateTime": 1664464129183, "trialdata": {"rt": 470, "stimulus": "<p id='stroop-text' class='stroop-yellow'>YELLOW</p>", "response": "y", "stimulus-type": "congruent", "word": "yellow", "color": "yellow", "correct_response": "y", "trial_id": "stroop-trial-1-congruent-11", "trial_type": "html-keyboard-response", "trial_index": 101, "time_elapsed": 222489, "internal_node_id": "0.0-6.0-6.0"}}, {"uniqueid": "w28230559:a58690782", "current_trial": 102, "dateTime": 1664464130265, "trialdata": {"rt": 571, "stimulus": "<p id='stroop-text' class='stroop-yellow'>DOG</p>", "response": "y", "stimulus-type": "unrelated", "word": "DOG", "color": "yellow", "correct_response": "y", "trial_id": "stroop-trial-1-unrelated-28", "trial_type": "html-keyboard-response", "trial_index": 102, "time_elapsed": 223571, "internal_node_id": "0.0-6.0-7.0"}}, {"uniqueid": "w28230559:a58690782", "current_trial": 103, "dateTime": 1664464131384, "trialdata": {"rt": 612, "stimulus": "<p id='stroop-text' class='stroop-blue'>BLUE</p>", "response": "b", "stimulus-type": "congruent", "word": "blue", "color": "blue", "correct_response": "b", "trial_id": "stroop-trial-1-congruent-30", "trial_type": "html-keyboard-response", "trial_index": 103, "time_elapsed": 224689, "internal_node_id": "0.0-6.0-8.0"}}, {"uniqueid": "w28230559:a58690782", "current_trial": 104, "dateTime": 1664464132483, "trialdata": {"rt": 594, "stimulus": "<p id='stroop-text' class='stroop-red'>GREEN</p>", "response": "r", "stimulus-type": "incongruent", "word": "green", "color": "red", "correct_response": "r", "trial_id": "stroop-trial-1-incongruent-5", "trial_type": "html-keyboard-response", "trial_index": 104, "time_elapsed": 225789, "internal_node_id": "0.0-6.0-9.0"}}, {"uniqueid": "w28230559:a58690782", "current_trial": 105, "dateTime": 1664464133718, "trialdata": {"rt": 726, "stimulus": "<p id='stroop-text' class='stroop-yellow'>DOG</p>", "response": "y", "stimulus-type": "unrelated", "word": "DOG", "color": "yellow", "correct_response": "y", "trial_id": "stroop-trial-1-unrelated-4", "trial_type": "html-keyboard-response", "trial_index": 105, "time_elapsed": 227023, "internal_node_id": "0.0-6.0-10.0"}}, {"uniqueid": "w28230559:a58690782", "current_trial": 106, "dateTime": 1664464134819, "trialdata": {"rt": 593, "stimulus": "<p id='stroop-text' class='stroop-yellow'>RED</p>", "response": "y", "stimulus-type": "incongruent", "word": "red", "color": "yellow", "correct_response": "y", "trial_id": "stroop-trial-1-incongruent-19", "trial_type": "html-keyboard-response", "trial_index": 106, "time_elapsed": 228124, "internal_node_id": "0.0-6.0-11.0"}}, {"uniqueid": "w28230559:a58690782", "current_trial": 107, "dateTime": 1664464135954, "trialdata": {"rt": 629, "stimulus": "<p id='stroop-text' class='stroop-green'>YELLOW</p>", "response": "y", "stimulus-type": "incongruent", "word": "yellow", "color": "green", "correct_response": "g", "trial_id": "stroop-trial-1-incongruent-11", "trial_type": "html-keyboard-response", "trial_index": 107, "time_elapsed": 229259, "internal_node_id": "0.0-6.0-12.0"}}, {"uniqueid": "w28230559:a58690782", "current_trial": 108, "dateTime": 1664464137116, "trialdata": {"rt": 658, "stimulus": "<p id='stroop-text' class='stroop-green'>GREEN</p>", "response": "y", "stimulus-type": "congruent", "word": "green", "color": "green", "correct_response": "g", "trial_id": "stroop-trial-1-congruent-23", "trial_type": "html-keyboard-response", "trial_index": 108, "time_elapsed": 230421, "internal_node_id": "0.0-6.0-13.0"}}, {"uniqueid": "w28230559:a58690782", "current_trial": 109, "dateTime": 1664464139050, "trialdata": {"rt": 1428, "stimulus": "<p id='stroop-text' class='stroop-green'>YELLOW</p>", "response": "g", "stimulus-type": "incongruent", "word": "yellow", "color": "green", "correct_response": "g", "trial_id": "stroop-trial-1-incongruent-24", "trial_type": "html-keyboard-response", "trial_index": 109, "time_elapsed": 232355, "internal_node_id": "0.0-6.0-14.0"}}, {"uniqueid": "w28230559:a58690782", "current_trial": 110, "dateTime": 1664464140166, "trialdata": {"rt": 603, "stimulus": "<p id='stroop-text' class='stroop-yellow'>YELLOW</p>", "response": "y", "stimulus-type": "congruent", "word": "yellow", "color": "yellow", "correct_response": "y", "trial_id": "stroop-trial-1-congruent-9", "trial_type": "html-keyboard-response", "trial_index": 110, "time_elapsed": 233471, "internal_node_id": "0.0-6.0-15.0"}}, {"uniqueid": "w28230559:a58690782", "current_trial": 111, "dateTime": 1664464141255, "trialdata": {"rt": 584, "stimulus": "<p id='stroop-text' class='stroop-yellow'>YELLOW</p>", "response": "y", "stimulus-type": "congruent", "word": "yellow", "color": "yellow", "correct_response": "y", "trial_id": "stroop-trial-1-congruent-4", "trial_type": "html-keyboard-response", "trial_index": 111, "time_elapsed": 234561, "internal_node_id": "0.0-6.0-16.0"}}, {"uniqueid": "w28230559:a58690782", "current_trial": 112, "dateTime": 1664464142319, "trialdata": {"rt": 549, "stimulus": "<p id='stroop-text' class='stroop-green'>GREEN</p>", "response": "g", "stimulus-type": "congruent", "word": "green", "color": "green", "correct_response": "g", "trial_id": "stroop-trial-1-congruent-7", "trial_type": "html-keyboard-response", "trial_index": 112, "time_elapsed": 235625, "internal_node_id": "0.0-6.0-17.0"}}, {"uniqueid": "w28230559:a58690782", "current_trial": 113, "dateTime": 1664464143298, "trialdata": {"rt": 473, "stimulus": "<p id='stroop-text' class='stroop-green'>GREEN</p>", "response": "g", "stimulus-type": "congruent", "word": "green", "color": "green", "correct_response": "g", "trial_id": "stroop-trial-1-congruent-19", "trial_type": "html-keyboard-response", "trial_index": 113, "time_elapsed": 236603, "internal_node_id": "0.0-6.0-18.0"}}, {"uniqueid": "w28230559:a58690782", "current_trial": 114, "dateTime": 1664464144461, "trialdata": {"rt": 652, "stimulus": "<p id='stroop-text' class='stroop-yellow'>BOAT</p>", "response": "y", "stimulus-type": "unrelated", "word": "BOAT", "color": "yellow", "correct_response": "y", "trial_id": "stroop-trial-1-unrelated-24", "trial_type": "html-keyboard-response", "trial_index": 114, "time_elapsed": 237766, "internal_node_id": "0.0-6.0-19.0"}}, {"uniqueid": "w28230559:a58690782", "current_trial": 115, "dateTime": 1664464145418, "trialdata": {"rt": 449, "stimulus": "<p id='stroop-text' class='stroop-blue'>BLUE</p>", "response": "b", "stimulus-type": "congruent", "word": "blue", "color": "blue", "correct_response": "b", "trial_id": "stroop-trial-1-congruent-20", "trial_type": "html-keyboard-response", "trial_index": 115, "time_elapsed": 238724, "internal_node_id": "0.0-6.0-20.0"}}, {"uniqueid": "w28230559:a58690782", "current_trial": 116, "dateTime": 1664464146950, "trialdata": {"rt": 1021, "stimulus": "<p id='stroop-text' class='stroop-yellow'>RED</p>", "response": "y", "stimulus-type": "incongruent", "word": "red", "color": "yellow", "correct_response": "y", "trial_id": "stroop-trial-1-incongruent-7", "trial_type": "html-keyboard-response", "trial_index": 116, "time_elapsed": 240256, "internal_node_id": "0.0-6.0-21.0"}}, {"uniqueid": "w28230559:a58690782", "current_trial": 117, "dateTime": 1664464147934, "trialdata": {"rt": 467, "stimulus": "<p id='stroop-text' class='stroop-yellow'>MONKEY</p>", "response": "y", "stimulus-type": "unrelated", "word": "MONKEY", "color": "yellow", "correct_response": "y", "trial_id": "stroop-trial-1-unrelated-5", "trial_type": "html-keyboard-response", "trial_index": 117, "time_elapsed": 241239, "internal_node_id": "0.0-6.0-22.0"}}, {"uniqueid": "w28230559:a58690782", "current_trial": 118, "dateTime": 1664464149274, "trialdata": {"rt": 828, "stimulus": "<p id='stroop-text' class='stroop-red'>FORK</p>", "response": "r", "stimulus-type": "unrelated", "word": "FORK", "color": "red", "correct_response": "r", "trial_id": "stroop-trial-1-unrelated-19", "trial_type": "html-keyboard-response", "trial_index": 118, "time_elapsed": 242579, "internal_node_id": "0.0-6.0-23.0"}}, {"uniqueid": "w28230559:a58690782", "current_trial": 119, "dateTime": 1664464150339, "trialdata": {"rt": 555, "stimulus": "<p id='stroop-text' class='stroop-blue'>BOAT</p>", "response": "b", "stimulus-type": "unrelated", "word": "BOAT", "color": "blue", "correct_response": "b", "trial_id": "stroop-trial-1-unrelated-9", "trial_type": "html-keyboard-response", "trial_index": 119, "time_elapsed": 243644, "internal_node_id": "0.0-6.0-24.0"}}, {"uniqueid": "w28230559:a58690782", "current_trial": 120, "dateTime": 1664464151450, "trialdata": {"rt": 591, "stimulus": "<p id='stroop-text' class='stroop-green'>YELLOW</p>", "response": "g", "stimulus-type": "incongruent", "word": "yellow", "color": "green", "correct_response": "g", "trial_id": "stroop-trial-1-incongruent-9", "trial_type": "html-keyboard-response", "trial_index": 120, "time_elapsed": 244756, "internal_node_id": "0.0-6.0-25.0"}}, {"uniqueid": "w28230559:a58690782", "current_trial": 121, "dateTime": 1664464152443, "trialdata": {"rt": 479, "stimulus": "<p id='stroop-text' class='stroop-yellow'>YELLOW</p>", "response": "y", "stimulus-type": "congruent", "word": "yellow", "color": "yellow", "correct_response": "y", "trial_id": "stroop-trial-1-congruent-22", "trial_type": "html-keyboard-response", "trial_index": 121, "time_elapsed": 245749, "internal_node_id": "0.0-6.0-26.0"}}, {"uniqueid": "w28230559:a58690782", "current_trial": 122, "dateTime": 1664464153625, "trialdata": {"rt": 676, "stimulus": "<p id='stroop-text' class='stroop-blue'>YELLOW</p>", "response": "b", "stimulus-type": "incongruent", "word": "yellow", "color": "blue", "correct_response": "b", "trial_id": "stroop-trial-1-incongruent-4", "trial_type": "html-keyboard-response", "trial_index": 122, "time_elapsed": 246930, "internal_node_id": "0.0-6.0-27.0"}}, {"uniqueid": "w28230559:a58690782", "current_trial": 123, "dateTime": 1664464154849, "trialdata": {"rt": 720, "stimulus": "<p id='stroop-text' class='stroop-red'>RED</p>", "response": "r", "stimulus-type": "congruent", "word": "red", "color": "red", "correct_response": "r", "trial_id": "stroop-trial-1-congruent-3", "trial_type": "html-keyboard-response", "trial_index": 123, "time_elapsed": 248155, "internal_node_id": "0.0-6.0-28.0"}}, {"uniqueid": "w28230559:a58690782", "current_trial": 124, "dateTime": 1664464156198, "trialdata": {"rt": 842, "stimulus": "<p id='stroop-text' class='stroop-yellow'>YELLOW</p>", "response": "y", "stimulus-type": "congruent", "word": "yellow", "color": "yellow", "correct_response": "y", "trial_id": "stroop-trial-1-congruent-25", "trial_type": "html-keyboard-response", "trial_index": 124, "time_elapsed": 249503, "internal_node_id": "0.0-6.0-29.0"}}, {"uniqueid": "w28230559:a58690782", "current_trial": 125, "dateTime": 1664464157431, "trialdata": {"rt": 722, "stimulus": "<p id='stroop-text' class='stroop-red'>BOTTLE</p>", "response": "y", "stimulus-type": "unrelated", "word": "BOTTLE", "color": "red", "correct_response": "r", "trial_id": "stroop-trial-1-unrelated-26", "trial_type": "html-keyboard-response", "trial_index": 125, "time_elapsed": 250736, "internal_node_id": "0.0-6.0-30.0"}}, {"uniqueid": "w28230559:a58690782", "current_trial": 126, "dateTime": 1664464159453, "trialdata": {"rt": 1515, "stimulus": "<p id='stroop-text' class='stroop-blue'>BLUE</p>", "response": "b", "stimulus-type": "congruent", "word": "blue", "color": "blue", "correct_response": "b", "trial_id": "stroop-trial-1-congruent-8", "trial_type": "html-keyboard-response", "trial_index": 126, "time_elapsed": 252759, "internal_node_id": "0.0-6.0-31.0"}}, {"uniqueid": "w28230559:a58690782", "current_trial": 127, "dateTime": 1664464160816, "trialdata": {"rt": 854, "stimulus": "<p id='stroop-text' class='stroop-yellow'>YELLOW</p>", "response": "y", "stimulus-type": "congruent", "word": "yellow", "color": "yellow", "correct_response": "y", "trial_id": "stroop-trial-1-congruent-15", "trial_type": "html-keyboard-response", "trial_index": 127, "time_elapsed": 254121, "internal_node_id": "0.0-6.0-32.0"}}, {"uniqueid": "w28230559:a58690782", "current_trial": 128, "dateTime": 1664464162190, "trialdata": {"rt": 862, "stimulus": "<p id='stroop-text' class='stroop-yellow'>GREEN</p>", "response": "g", "stimulus-type": "incongruent", "word": "green", "color": "yellow", "correct_response": "y", "trial_id": "stroop-trial-1-incongruent-3", "trial_type": "html-keyboard-response", "trial_index": 128, "time_elapsed": 255495, "internal_node_id": "0.0-6.0-33.0"}}, {"uniqueid": "w28230559:a58690782", "current_trial": 129, "dateTime": 1664464164374, "trialdata": {"rt": 1679, "stimulus": "<p id='stroop-text' class='stroop-blue'>BLUE</p>", "response": "b", "stimulus-type": "congruent", "word": "blue", "color": "blue", "correct_response": "b", "trial_id": "stroop-trial-1-congruent-5", "trial_type": "html-keyboard-response", "trial_index": 129, "time_elapsed": 257679, "internal_node_id": "0.0-6.0-34.0"}}, {"uniqueid": "w28230559:a58690782", "current_trial": 130, "dateTime": 1664464165785, "trialdata": {"rt": 907, "stimulus": "<p id='stroop-text' class='stroop-red'>YELLOW</p>", "response": "r", "stimulus-type": "incongruent", "word": "yellow", "color": "red", "correct_response": "r", "trial_id": "stroop-trial-1-incongruent-8", "trial_type": "html-keyboard-response", "trial_index": 130, "time_elapsed": 259090, "internal_node_id": "0.0-6.0-35.0"}}, {"uniqueid": "w28230559:a58690782", "current_trial": 131, "dateTime": 1664464167100, "trialdata": {"rt": 808, "stimulus": "<p id='stroop-text' class='stroop-yellow'>WINDOW</p>", "response": "y", "stimulus-type": "unrelated", "word": "WINDOW", "color": "yellow", "correct_response": "y", "trial_id": "stroop-trial-1-unrelated-18", "trial_type": "html-keyboard-response", "trial_index": 131, "time_elapsed": 260405, "internal_node_id": "0.0-6.0-36.0"}}, {"uniqueid": "w28230559:a58690782", "current_trial": 132, "dateTime": 1664464168594, "trialdata": {"rt": 976, "stimulus": "<p id='stroop-text' class='stroop-blue'>WINDOW</p>", "response": "b", "stimulus-type": "unrelated", "word": "WINDOW", "color": "blue", "correct_response": "b", "trial_id": "stroop-trial-1-unrelated-22", "trial_type": "html-keyboard-response", "trial_index": 132, "time_elapsed": 261900, "internal_node_id": "0.0-6.0-37.0"}}, {"uniqueid": "w28230559:a58690782", "current_trial": 133, "dateTime": 1664464169659, "trialdata": {"rt": 554, "stimulus": "<p id='stroop-text' class='stroop-green'>YELLOW</p>", "response": "g", "stimulus-type": "incongruent", "word": "yellow", "color": "green", "correct_response": "g", "trial_id": "stroop-trial-1-incongruent-12", "trial_type": "html-keyboard-response", "trial_index": 133, "time_elapsed": 262964, "internal_node_id": "0.0-6.0-38.0"}}, {"uniqueid": "w28230559:a58690782", "current_trial": 134, "dateTime": 1664464170873, "trialdata": {"rt": 702, "stimulus": "<p id='stroop-text' class='stroop-green'>BLUE</p>", "response": "g", "stimulus-type": "incongruent", "word": "blue", "color": "green", "correct_response": "g", "trial_id": "stroop-trial-1-incongruent-30", "trial_type": "html-keyboard-response", "trial_index": 134, "time_elapsed": 264178, "internal_node_id": "0.0-6.0-39.0"}}, {"uniqueid": "w28230559:a58690782", "current_trial": 135, "dateTime": 1664464171778, "trialdata": {"rt": 397, "stimulus": "<p id='stroop-text' class='stroop-green'>GREEN</p>", "response": "g", "stimulus-type": "congruent", "word": "green", "color": "green", "correct_response": "g", "trial_id": "stroop-trial-1-congruent-6", "trial_type": "html-keyboard-response", "trial_index": 135, "time_elapsed": 265083, "internal_node_id": "0.0-6.0-40.0"}}, {"uniqueid": "w28230559:a58690782", "current_trial": 136, "dateTime": 1664464172615, "trialdata": {"rt": 328, "stimulus": "<p id='stroop-text' class='stroop-green'>BLUE</p>", "response": "g", "stimulus-type": "incongruent", "word": "blue", "color": "green", "correct_response": "g", "trial_id": "stroop-trial-1-incongruent-28", "trial_type": "html-keyboard-response", "trial_index": 136, "time_elapsed": 265920, "internal_node_id": "0.0-6.0-41.0"}}, {"uniqueid": "w28230559:a58690782", "current_trial": 137, "dateTime": 1664464173626, "trialdata": {"rt": 502, "stimulus": "<p id='stroop-text' class='stroop-blue'>BRIDGE</p>", "response": "b", "stimulus-type": "unrelated", "word": "BRIDGE", "color": "blue", "correct_response": "b", "trial_id": "stroop-trial-1-unrelated-3", "trial_type": "html-keyboard-response", "trial_index": 137, "time_elapsed": 266931, "internal_node_id": "0.0-6.0-42.0"}}, {"uniqueid": "w28230559:a58690782", "current_trial": 138, "dateTime": 1664464174904, "trialdata": {"rt": 772, "stimulus": "<p id='stroop-text' class='stroop-yellow'>FORK</p>", "response": "y", "stimulus-type": "unrelated", "word": "FORK", "color": "yellow", "correct_response": "y", "trial_id": "stroop-trial-1-unrelated-11", "trial_type": "html-keyboard-response", "trial_index": 138, "time_elapsed": 268210, "internal_node_id": "0.0-6.0-43.0"}}, {"uniqueid": "w28230559:a58690782", "current_trial": 139, "dateTime": 1664464177637, "trialdata": {"rt": 2226, "stimulus": "<p id='stroop-text' class='stroop-blue'>RED</p>", "response": "b", "stimulus-type": "incongruent", "word": "red", "color": "blue", "correct_response": "b", "trial_id": "stroop-trial-1-incongruent-20", "trial_type": "html-keyboard-response", "trial_index": 139, "time_elapsed": 270943, "internal_node_id": "0.0-6.0-44.0"}}, {"uniqueid": "w28230559:a58690782", "current_trial": 140, "dateTime": 1664464178767, "trialdata": {"rt": 620, "stimulus": "<p id='stroop-text' class='stroop-blue'>GREEN</p>", "response": "b", "stimulus-type": "incongruent", "word": "green", "color": "blue", "correct_response": "b", "trial_id": "stroop-trial-1-incongruent-6", "trial_type": "html-keyboard-response", "trial_index": 140, "time_elapsed": 272072, "internal_node_id": "0.0-6.0-45.0"}}, {"uniqueid": "w28230559:a58690782", "current_trial": 141, "dateTime": 1664464179708, "trialdata": {"rt": 431, "stimulus": "<p id='stroop-text' class='stroop-blue'>GREEN</p>", "response": "b", "stimulus-type": "incongruent", "word": "green", "color": "blue", "correct_response": "b", "trial_id": "stroop-trial-1-incongruent-21", "trial_type": "html-keyboard-response", "trial_index": 141, "time_elapsed": 273013, "internal_node_id": "0.0-6.0-46.0"}}, {"uniqueid": "w28230559:a58690782", "current_trial": 142, "dateTime": 1664464180643, "trialdata": {"rt": 425, "stimulus": "<p id='stroop-text' class='stroop-blue'>SHIP</p>", "response": "b", "stimulus-type": "unrelated", "word": "SHIP", "color": "blue", "correct_response": "b", "trial_id": "stroop-trial-1-unrelated-15", "trial_type": "html-keyboard-response", "trial_index": 142, "time_elapsed": 273949, "internal_node_id": "0.0-6.0-47.0"}}, {"uniqueid": "w28230559:a58690782", "current_trial": 143, "dateTime": 1664464181426, "trialdata": {"rt": 272, "stimulus": "<p id='stroop-text' class='stroop-blue'>SHIP</p>", "response": "b", "stimulus-type": "unrelated", "word": "SHIP", "color": "blue", "correct_response": "b", "trial_id": "stroop-trial-1-unrelated-1", "trial_type": "html-keyboard-response", "trial_index": 143, "time_elapsed": 274732, "internal_node_id": "0.0-6.0-48.0"}}, {"uniqueid": "w28230559:a58690782", "current_trial": 144, "dateTime": 1664464182536, "trialdata": {"rt": 603, "stimulus": "<p id='stroop-text' class='stroop-yellow'>YELLOW</p>", "response": "y", "stimulus-type": "congruent", "word": "yellow", "color": "yellow", "correct_response": "y", "trial_id": "stroop-trial-1-congruent-17", "trial_type": "html-keyboard-response", "trial_index": 144, "time_elapsed": 275842, "internal_node_id": "0.0-6.0-49.0"}}, {"uniqueid": "w28230559:a58690782", "current_trial": 145, "dateTime": 1664464183582, "trialdata": {"rt": 538, "stimulus": "<p id='stroop-text' class='stroop-red'>RED</p>", "response": "r", "stimulus-type": "congruent", "word": "red", "color": "red", "correct_response": "r", "trial_id": "stroop-trial-1-congruent-18", "trial_type": "html-keyboard-response", "trial_index": 145, "time_elapsed": 276887, "internal_node_id": "0.0-6.0-50.0"}}, {"uniqueid": "w28230559:a58690782", "current_trial": 146, "dateTime": 1664464184772, "trialdata": {"rt": 684, "stimulus": "<p id='stroop-text' class='stroop-blue'>BLUE</p>", "response": "b", "stimulus-type": "congruent", "word": "blue", "color": "blue", "correct_response": "b", "trial_id": "stroop-trial-1-congruent-28", "trial_type": "html-keyboard-response", "trial_index": 146, "time_elapsed": 278077, "internal_node_id": "0.0-6.0-51.0"}}, {"uniqueid": "w28230559:a58690782", "current_trial": 147, "dateTime": 1664464186013, "trialdata": {"rt": 730, "stimulus": "<p id='stroop-text' class='stroop-yellow'>RED</p>", "response": "y", "stimulus-type": "incongruent", "word": "red", "color": "yellow", "correct_response": "y", "trial_id": "stroop-trial-1-incongruent-26", "trial_type": "html-keyboard-response", "trial_index": 147, "time_elapsed": 279318, "internal_node_id": "0.0-6.0-52.0"}}, {"uniqueid": "w28230559:a58690782", "current_trial": 148, "dateTime": 1664464187227, "trialdata": {"rt": 707, "stimulus": "<p id='stroop-text' class='stroop-red'>RED</p>", "response": "r", "stimulus-type": "congruent", "word": "red", "color": "red", "correct_response": "r", "trial_id": "stroop-trial-1-congruent-16", "trial_type": "html-keyboard-response", "trial_index": 148, "time_elapsed": 280532, "internal_node_id": "0.0-6.0-53.0"}}, {"uniqueid": "w28230559:a58690782", "current_trial": 149, "dateTime": 1664464188331, "trialdata": {"rt": 598, "stimulus": "<p id='stroop-text' class='stroop-yellow'>YELLOW</p>", "response": "y", "stimulus-type": "congruent", "word": "yellow", "color": "yellow", "correct_response": "y", "trial_id": "stroop-trial-1-congruent-1", "trial_type": "html-keyboard-response", "trial_index": 149, "time_elapsed": 281636, "internal_node_id": "0.0-6.0-54.0"}}, {"uniqueid": "w28230559:a58690782", "current_trial": 150, "dateTime": 1664464189454, "trialdata": {"rt": 614, "stimulus": "<p id='stroop-text' class='stroop-blue'>BOAT</p>", "response": "b", "stimulus-type": "unrelated", "word": "BOAT", "color": "blue", "correct_response": "b", "trial_id": "stroop-trial-1-unrelated-7", "trial_type": "html-keyboard-response", "trial_index": 150, "time_elapsed": 282759, "internal_node_id": "0.0-6.0-55.0"}}, {"uniqueid": "w28230559:a58690782", "current_trial": 151, "dateTime": 1664464190636, "trialdata": {"rt": 673, "stimulus": "<p id='stroop-text' class='stroop-red'>BRIDGE</p>", "response": "r", "stimulus-type": "unrelated", "word": "BRIDGE", "color": "red", "correct_response": "r", "trial_id": "stroop-trial-1-unrelated-13", "trial_type": "html-keyboard-response", "trial_index": 151, "time_elapsed": 283942, "internal_node_id": "0.0-6.0-56.0"}}, {"uniqueid": "w28230559:a58690782", "current_trial": 152, "dateTime": 1664464191672, "trialdata": {"rt": 529, "stimulus": "<p id='stroop-text' class='stroop-yellow'>CHAIR</p>", "response": "y", "stimulus-type": "unrelated", "word": "CHAIR", "color": "yellow", "correct_response": "y", "trial_id": "stroop-trial-1-unrelated-29", "trial_type": "html-keyboard-response", "trial_index": 152, "time_elapsed": 284978, "internal_node_id": "0.0-6.0-57.0"}}, {"uniqueid": "w28230559:a58690782", "current_trial": 153, "dateTime": 1664464192631, "trialdata": {"rt": 447, "stimulus": "<p id='stroop-text' class='stroop-yellow'>BLUE</p>", "response": "y", "stimulus-type": "incongruent", "word": "blue", "color": "yellow", "correct_response": "y", "trial_id": "stroop-trial-1-incongruent-1", "trial_type": "html-keyboard-response", "trial_index": 153, "time_elapsed": 285936, "internal_node_id": "0.0-6.0-58.0"}}, {"uniqueid": "w28230559:a58690782", "current_trial": 154, "dateTime": 1664464193826, "trialdata": {"rt": 676, "stimulus": "<p id='stroop-text' class='stroop-red'>BLUE</p>", "response": "r", "stimulus-type": "incongruent", "word": "blue", "color": "red", "correct_response": "r", "trial_id": "stroop-trial-1-incongruent-17", "trial_type": "html-keyboard-response", "trial_index": 154, "time_elapsed": 287132, "internal_node_id": "0.0-6.0-59.0"}}, {"uniqueid": "w28230559:a58690782", "current_trial": 155, "dateTime": 1664464195904, "trialdata": {"rt": 1564, "stimulus": "<p id='stroop-text' class='stroop-yellow'>GREEN</p>", "response": "g", "stimulus-type": "incongruent", "word": "green", "color": "yellow", "correct_response": "y", "trial_id": "stroop-trial-1-incongruent-16", "trial_type": "html-keyboard-response", "trial_index": 155, "time_elapsed": 289209, "internal_node_id": "0.0-6.0-60.0"}}, {"uniqueid": "w28230559:a58690782", "current_trial": 156, "dateTime": 1664464198354, "trialdata": {"rt": 1939, "stimulus": "<p id='stroop-text' class='stroop-blue'>CHAIR</p>", "response": "b", "stimulus-type": "unrelated", "word": "CHAIR", "color": "blue", "correct_response": "b", "trial_id": "stroop-trial-1-unrelated-14", "trial_type": "html-keyboard-response", "trial_index": 156, "time_elapsed": 291660, "internal_node_id": "0.0-6.0-61.0"}}, {"uniqueid": "w28230559:a58690782", "current_trial": 157, "dateTime": 1664464199655, "trialdata": {"rt": 790, "stimulus": "<p id='stroop-text' class='stroop-red'>RED</p>", "response": "r", "stimulus-type": "congruent", "word": "red", "color": "red", "correct_response": "r", "trial_id": "stroop-trial-1-congruent-14", "trial_type": "html-keyboard-response", "trial_index": 157, "time_elapsed": 292960, "internal_node_id": "0.0-6.0-62.0"}}, {"uniqueid": "w28230559:a58690782", "current_trial": 158, "dateTime": 1664464201258, "trialdata": {"rt": 1096, "stimulus": "<p id='stroop-text' class='stroop-green'>STONE</p>", "response": "g", "stimulus-type": "unrelated", "word": "STONE", "color": "green", "correct_response": "g", "trial_id": "stroop-trial-1-unrelated-6", "trial_type": "html-keyboard-response", "trial_index": 158, "time_elapsed": 294563, "internal_node_id": "0.0-6.0-63.0"}}, {"uniqueid": "w28230559:a58690782", "current_trial": 159, "dateTime": 1664464202511, "trialdata": {"rt": 748, "stimulus": "<p id='stroop-text' class='stroop-red'>STONE</p>", "response": "r", "stimulus-type": "unrelated", "word": "STONE", "color": "red", "correct_response": "r", "trial_id": "stroop-trial-1-unrelated-17", "trial_type": "html-keyboard-response", "trial_index": 159, "time_elapsed": 295817, "internal_node_id": "0.0-6.0-64.0"}}, {"uniqueid": "w28230559:a58690782", "current_trial": 160, "dateTime": 1664464204357, "trialdata": {"rt": 1337, "stimulus": "<p id='stroop-text' class='stroop-red'>BRAIN</p>", "response": "r", "stimulus-type": "unrelated", "word": "BRAIN", "color": "red", "correct_response": "r", "trial_id": "stroop-trial-1-unrelated-12", "trial_type": "html-keyboard-response", "trial_index": 160, "time_elapsed": 297663, "internal_node_id": "0.0-6.0-65.0"}}, {"uniqueid": "w28230559:a58690782", "current_trial": 161, "dateTime": 1664464205770, "trialdata": {"rt": 908, "stimulus": "<p id='stroop-text' class='stroop-blue'>YELLOW</p>", "response": "b", "stimulus-type": "incongruent", "word": "yellow", "color": "blue", "correct_response": "b", "trial_id": "stroop-trial-1-incongruent-27", "trial_type": "html-keyboard-response", "trial_index": 161, "time_elapsed": 299076, "internal_node_id": "0.0-6.0-66.0"}}, {"uniqueid": "w28230559:a58690782", "current_trial": 162, "dateTime": 1664464207579, "trialdata": {"rt": 1300, "stimulus": "<p id='stroop-text' class='stroop-red'>RED</p>", "response": "r", "stimulus-type": "congruent", "word": "red", "color": "red", "correct_response": "r", "trial_id": "stroop-trial-1-congruent-21", "trial_type": "html-keyboard-response", "trial_index": 162, "time_elapsed": 300885, "internal_node_id": "0.0-6.0-67.0"}}, {"uniqueid": "w28230559:a58690782", "current_trial": 163, "dateTime": 1664464208764, "trialdata": {"rt": 671, "stimulus": "<p id='stroop-text' class='stroop-red'>BLUE</p>", "response": "r", "stimulus-type": "incongruent", "word": "blue", "color": "red", "correct_response": "r", "trial_id": "stroop-trial-1-incongruent-25", "trial_type": "html-keyboard-response", "trial_index": 163, "time_elapsed": 302069, "internal_node_id": "0.0-6.0-68.0"}}, {"uniqueid": "w28230559:a58690782", "current_trial": 164, "dateTime": 1664464210025, "trialdata": {"rt": 747, "stimulus": "<p id='stroop-text' class='stroop-blue'>DOG</p>", "response": "b", "stimulus-type": "unrelated", "word": "DOG", "color": "blue", "correct_response": "b", "trial_id": "stroop-trial-1-unrelated-23", "trial_type": "html-keyboard-response", "trial_index": 164, "time_elapsed": 303331, "internal_node_id": "0.0-6.0-69.0"}}, {"uniqueid": "w28230559:a58690782", "current_trial": 165, "dateTime": 1664464211525, "trialdata": {"rt": 995, "stimulus": "<p id='stroop-text' class='stroop-green'>BLUE</p>", "response": "g", "stimulus-type": "incongruent", "word": "blue", "color": "green", "correct_response": "g", "trial_id": "stroop-trial-1-incongruent-2", "trial_type": "html-keyboard-response", "trial_index": 165, "time_elapsed": 304831, "internal_node_id": "0.0-6.0-70.0"}}, {"uniqueid": "w28230559:a58690782", "current_trial": 166, "dateTime": 1664464212811, "trialdata": {"rt": 773, "stimulus": "<p id='stroop-text' class='stroop-yellow'>GREEN</p>", "response": "y", "stimulus-type": "incongruent", "word": "green", "color": "yellow", "correct_response": "y", "trial_id": "stroop-trial-1-incongruent-15", "trial_type": "html-keyboard-response", "trial_index": 166, "time_elapsed": 306117, "internal_node_id": "0.0-6.0-71.0"}}, {"uniqueid": "w28230559:a58690782", "current_trial": 167, "dateTime": 1664464215399, "trialdata": {"rt": 2049, "stimulus": "<p id='stroop-text' class='stroop-blue'>RED</p>", "response": "g", "stimulus-type": "incongruent", "word": "red", "color": "blue", "correct_response": "b", "trial_id": "stroop-trial-1-incongruent-29", "trial_type": "html-keyboard-response", "trial_index": 167, "time_elapsed": 308704, "internal_node_id": "0.0-6.0-72.0"}}, {"uniqueid": "w28230559:a58690782", "current_trial": 168, "dateTime": 1664464217361, "trialdata": {"rt": 1450, "stimulus": "<p id='stroop-text' class='stroop-green'>RED</p>", "response": "g", "stimulus-type": "incongruent", "word": "red", "color": "green", "correct_response": "g", "trial_id": "stroop-trial-1-incongruent-18", "trial_type": "html-keyboard-response", "trial_index": 168, "time_elapsed": 310666, "internal_node_id": "0.0-6.0-73.0"}}, {"uniqueid": "w28230559:a58690782", "current_trial": 169, "dateTime": 1664464218531, "trialdata": {"rt": 661, "stimulus": "<p id='stroop-text' class='stroop-red'>RED</p>", "response": "r", "stimulus-type": "congruent", "word": "red", "color": "red", "correct_response": "r", "trial_id": "stroop-trial-1-congruent-12", "trial_type": "html-keyboard-response", "trial_index": 169, "time_elapsed": 311837, "internal_node_id": "0.0-6.0-74.0"}}, {"uniqueid": "w28230559:a58690782", "current_trial": 170, "dateTime": 1664464219879, "trialdata": {"rt": 840, "stimulus": "<p id='stroop-text' class='stroop-blue'>BLUE</p>", "response": "b", "stimulus-type": "congruent", "word": "blue", "color": "blue", "correct_response": "b", "trial_id": "stroop-trial-1-congruent-27", "trial_type": "html-keyboard-response", "trial_index": 170, "time_elapsed": 313185, "internal_node_id": "0.0-6.0-75.0"}}, {"uniqueid": "w28230559:a58690782", "current_trial": 171, "dateTime": 1664464221267, "trialdata": {"rt": 879, "stimulus": "<p id='stroop-text' class='stroop-green'>CHAIR</p>", "response": "g", "stimulus-type": "unrelated", "word": "CHAIR", "color": "green", "correct_response": "g", "trial_id": "stroop-trial-1-unrelated-27", "trial_type": "html-keyboard-response", "trial_index": 171, "time_elapsed": 314572, "internal_node_id": "0.0-6.0-76.0"}}, {"uniqueid": "w28230559:a58690782", "current_trial": 172, "dateTime": 1664464222457, "trialdata": {"rt": 672, "stimulus": "<p id='stroop-text' class='stroop-green'>CHAIR</p>", "response": "g", "stimulus-type": "unrelated", "word": "CHAIR", "color": "green", "correct_response": "g", "trial_id": "stroop-trial-1-unrelated-20", "trial_type": "html-keyboard-response", "trial_index": 172, "time_elapsed": 315762, "internal_node_id": "0.0-6.0-77.0"}}, {"uniqueid": "w28230559:a58690782", "current_trial": 173, "dateTime": 1664464224777, "trialdata": {"rt": 1809, "stimulus": "<p id='stroop-text' class='stroop-red'>GREEN</p>", "response": "r", "stimulus-type": "incongruent", "word": "green", "color": "red", "correct_response": "r", "trial_id": "stroop-trial-1-incongruent-22", "trial_type": "html-keyboard-response", "trial_index": 173, "time_elapsed": 318083, "internal_node_id": "0.0-6.0-78.0"}}, {"uniqueid": "w28230559:a58690782", "current_trial": 174, "dateTime": 1664464226059, "trialdata": {"rt": 769, "stimulus": "<p id='stroop-text' class='stroop-yellow'>DOG</p>", "response": "y", "stimulus-type": "unrelated", "word": "DOG", "color": "yellow", "correct_response": "y", "trial_id": "stroop-trial-1-unrelated-30", "trial_type": "html-keyboard-response", "trial_index": 174, "time_elapsed": 319365, "internal_node_id": "0.0-6.0-79.0"}}, {"uniqueid": "w28230559:a58690782", "current_trial": 175, "dateTime": 1664464227805, "trialdata": {"rt": 1237, "stimulus": "<p id='stroop-text' class='stroop-yellow'>BLUE</p>", "response": "y", "stimulus-type": "incongruent", "word": "blue", "color": "yellow", "correct_response": "y", "trial_id": "stroop-trial-1-incongruent-13", "trial_type": "html-keyboard-response", "trial_index": 175, "time_elapsed": 321111, "internal_node_id": "0.0-6.0-80.0"}}, {"uniqueid": "w28230559:a58690782", "current_trial": 176, "dateTime": 1664464229181, "trialdata": {"rt": 865, "stimulus": "<p id='stroop-text' class='stroop-green'>RED</p>", "response": "g", "stimulus-type": "incongruent", "word": "red", "color": "green", "correct_response": "g", "trial_id": "stroop-trial-1-incongruent-10", "trial_type": "html-keyboard-response", "trial_index": 176, "time_elapsed": 322487, "internal_node_id": "0.0-6.0-81.0"}}, {"uniqueid": "w28230559:a58690782", "current_trial": 177, "dateTime": 1664464230472, "trialdata": {"rt": 779, "stimulus": "<p id='stroop-text' class='stroop-yellow'>YELLOW</p>", "response": "y", "stimulus-type": "congruent", "word": "yellow", "color": "yellow", "correct_response": "y", "trial_id": "stroop-trial-1-congruent-13", "trial_type": "html-keyboard-response", "trial_index": 177, "time_elapsed": 323777, "internal_node_id": "0.0-6.0-82.0"}}, {"uniqueid": "w28230559:a58690782", "current_trial": 178, "dateTime": 1664464231663, "trialdata": {"rt": 685, "stimulus": "<p id='stroop-text' class='stroop-red'>BLUE</p>", "response": "b", "stimulus-type": "incongruent", "word": "blue", "color": "red", "correct_response": "r", "trial_id": "stroop-trial-1-incongruent-14", "trial_type": "html-keyboard-response", "trial_index": 178, "time_elapsed": 324969, "internal_node_id": "0.0-6.0-83.0"}}, {"uniqueid": "w28230559:a58690782", "current_trial": 179, "dateTime": 1664464233480, "trialdata": {"rt": 1307, "stimulus": "<p id='stroop-text' class='stroop-green'>STONE</p>", "response": "g", "stimulus-type": "unrelated", "word": "STONE", "color": "green", "correct_response": "g", "trial_id": "stroop-trial-1-unrelated-8", "trial_type": "html-keyboard-response", "trial_index": 179, "time_elapsed": 326785, "internal_node_id": "0.0-6.0-84.0"}}, {"uniqueid": "w28230559:a58690782", "current_trial": 180, "dateTime": 1664464235248, "trialdata": {"rt": 1257, "stimulus": "<p id='stroop-text' class='stroop-blue'>DOG</p>", "response": "b", "stimulus-type": "unrelated", "word": "DOG", "color": "blue", "correct_response": "b", "trial_id": "stroop-trial-1-unrelated-25", "trial_type": "html-keyboard-response", "trial_index": 180, "time_elapsed": 328554, "internal_node_id": "0.0-6.0-85.0"}}, {"uniqueid": "w28230559:a58690782", "current_trial": 181, "dateTime": 1664464236459, "trialdata": {"rt": 704, "stimulus": "<p id='stroop-text' class='stroop-green'>GREEN</p>", "response": "g", "stimulus-type": "congruent", "word": "green", "color": "green", "correct_response": "g", "trial_id": "stroop-trial-1-congruent-24", "trial_type": "html-keyboard-response", "trial_index": 181, "time_elapsed": 329765, "internal_node_id": "0.0-6.0-86.0"}}, {"uniqueid": "w28230559:a58690782", "current_trial": 182, "dateTime": 1664464237527, "trialdata": {"rt": 558, "stimulus": "<p id='stroop-text' class='stroop-blue'>DOG</p>", "response": "b", "stimulus-type": "unrelated", "word": "DOG", "color": "blue", "correct_response": "b", "trial_id": "stroop-trial-1-unrelated-21", "trial_type": "html-keyboard-response", "trial_index": 182, "time_elapsed": 330832, "internal_node_id": "0.0-6.0-87.0"}}, {"uniqueid": "w28230559:a58690782", "current_trial": 183, "dateTime": 1664464238472, "trialdata": {"rt": 437, "stimulus": "<p id='stroop-text' class='stroop-green'>BRAIN</p>", "response": "g", "stimulus-type": "unrelated", "word": "BRAIN", "color": "green", "correct_response": "g", "trial_id": "stroop-trial-1-unrelated-10", "trial_type": "html-keyboard-response", "trial_index": 183, "time_elapsed": 331778, "internal_node_id": "0.0-6.0-88.0"}}, {"uniqueid": "w28230559:a58690782", "current_trial": 184, "dateTime": 1664464239330, "trialdata": {"rt": 346, "stimulus": "<p id='stroop-text' class='stroop-blue'>BRIDGE</p>", "response": "b", "stimulus-type": "unrelated", "word": "BRIDGE", "color": "blue", "correct_response": "b", "trial_id": "stroop-trial-1-unrelated-16", "trial_type": "html-keyboard-response", "trial_index": 184, "time_elapsed": 332635, "internal_node_id": "0.0-6.0-89.0"}}, {"uniqueid": "w28230559:a58690782", "current_trial": 185, "dateTime": 1664464242163, "trialdata": {"rt": 2316, "stimulus": "  <h1> End of block! </h1>\n\n  You have reached the end of the block 2/5. If you need a short break, feel free to take one now before moving on.\n\n  <br><br>\n  In the next block, you will complete another 90 rounds of this game.\n\n  <br><br>\n  <div style='text-align: center;'>Press <code>space</code> to begin.</div>\n  <br><br>\n<div style='text-align: center;'>(If the experiment doesn't continue, try clicking on the text and then pressing <code>space</code>.)</div>", "response": " ", "trial_id": "stroop_1_ready_3", "trial_type": "html-keyboard-response", "trial_index": 185, "time_elapsed": 335469, "internal_node_id": "0.0-7.0"}}, {"uniqueid": "w28230559:a58690782", "current_trial": 186, "dateTime": 1664464243105, "trialdata": {"rt": 934, "stimulus": "<p id='stroop-text' class='stroop-blue'>BLUE</p>", "response": "b", "stimulus-type": "congruent", "word": "blue", "color": "blue", "correct_response": "b", "trial_id": "stroop-trial-1-congruent-22", "trial_type": "html-keyboard-response", "trial_index": 186, "time_elapsed": 336410, "internal_node_id": "0.0-8.0-0.0"}}, {"uniqueid": "w28230559:a58690782", "current_trial": 187, "dateTime": 1664464244239, "trialdata": {"rt": 627, "stimulus": "<p id='stroop-text' class='stroop-red'>MONKEY</p>", "response": "r", "stimulus-type": "unrelated", "word": "MONKEY", "color": "red", "correct_response": "r", "trial_id": "stroop-trial-1-unrelated-5", "trial_type": "html-keyboard-response", "trial_index": 187, "time_elapsed": 337544, "internal_node_id": "0.0-8.0-1.0"}}, {"uniqueid": "w28230559:a58690782", "current_trial": 188, "dateTime": 1664464245258, "trialdata": {"rt": 514, "stimulus": "<p id='stroop-text' class='stroop-red'>RED</p>", "response": "r", "stimulus-type": "congruent", "word": "red", "color": "red", "correct_response": "r", "trial_id": "stroop-trial-1-congruent-11", "trial_type": "html-keyboard-response", "trial_index": 188, "time_elapsed": 338563, "internal_node_id": "0.0-8.0-2.0"}}, {"uniqueid": "w28230559:a58690782", "current_trial": 189, "dateTime": 1664464246315, "trialdata": {"rt": 545, "stimulus": "<p id='stroop-text' class='stroop-blue'>BLUE</p>", "response": "b", "stimulus-type": "congruent", "word": "blue", "color": "blue", "correct_response": "b", "trial_id": "stroop-trial-1-congruent-5", "trial_type": "html-keyboard-response", "trial_index": 189, "time_elapsed": 339621, "internal_node_id": "0.0-8.0-3.0"}}, {"uniqueid": "w28230559:a58690782", "current_trial": 190, "dateTime": 1664464248372, "trialdata": {"rt": 1550, "stimulus": "<p id='stroop-text' class='stroop-yellow'>YELLOW</p>", "response": "y", "stimulus-type": "congruent", "word": "yellow", "color": "yellow", "correct_response": "y", "trial_id": "stroop-trial-1-congruent-25", "trial_type": "html-keyboard-response", "trial_index": 190, "time_elapsed": 341677, "internal_node_id": "0.0-8.0-4.0"}}, {"uniqueid": "w28230559:a58690782", "current_trial": 191, "dateTime": 1664464249341, "trialdata": {"rt": 461, "stimulus": "<p id='stroop-text' class='stroop-blue'>YELLOW</p>", "response": "y", "stimulus-type": "incongruent", "word": "yellow", "color": "blue", "correct_response": "b", "trial_id": "stroop-trial-1-incongruent-7", "trial_type": "html-keyboard-response", "trial_index": 191, "time_elapsed": 342646, "internal_node_id": "0.0-8.0-5.0"}}, {"uniqueid": "w28230559:a58690782", "current_trial": 192, "dateTime": 1664464250965, "trialdata": {"rt": 1114, "stimulus": "<p id='stroop-text' class='stroop-red'>CHAIR</p>", "response": "r", "stimulus-type": "unrelated", "word": "CHAIR", "color": "red", "correct_response": "r", "trial_id": "stroop-trial-1-unrelated-2", "trial_type": "html-keyboard-response", "trial_index": 192, "time_elapsed": 344271, "internal_node_id": "0.0-8.0-6.0"}}, {"uniqueid": "w28230559:a58690782", "current_trial": 193, "dateTime": 1664464251933, "trialdata": {"rt": 462, "stimulus": "<p id='stroop-text' class='stroop-red'>RED</p>", "response": "r", "stimulus-type": "congruent", "word": "red", "color": "red", "correct_response": "r", "trial_id": "stroop-trial-1-congruent-14", "trial_type": "html-keyboard-response", "trial_index": 193, "time_elapsed": 345238, "internal_node_id": "0.0-8.0-7.0"}}, {"uniqueid": "w28230559:a58690782", "current_trial": 194, "dateTime": 1664464252897, "trialdata": {"rt": 456, "stimulus": "<p id='stroop-text' class='stroop-red'>GREEN</p>", "response": "r", "stimulus-type": "incongruent", "word": "green", "color": "red", "correct_response": "r", "trial_id": "stroop-trial-1-incongruent-30", "trial_type": "html-keyboard-response", "trial_index": 194, "time_elapsed": 346202, "internal_node_id": "0.0-8.0-8.0"}}, {"uniqueid": "w28230559:a58690782", "current_trial": 195, "dateTime": 1664464254137, "trialdata": {"rt": 728, "stimulus": "<p id='stroop-text' class='stroop-blue'>MONKEY</p>", "response": "b", "stimulus-type": "unrelated", "word": "MONKEY", "color": "blue", "correct_response": "b", "trial_id": "stroop-trial-1-unrelated-21", "trial_type": "html-keyboard-response", "trial_index": 195, "time_elapsed": 347442, "internal_node_id": "0.0-8.0-9.0"}}, {"uniqueid": "w28230559:a58690782", "current_trial": 196, "dateTime": 1664464255210, "trialdata": {"rt": 565, "stimulus": "<p id='stroop-text' class='stroop-blue'>RED</p>", "response": "b", "stimulus-type": "incongruent", "word": "red", "color": "blue", "correct_response": "b", "trial_id": "stroop-trial-1-incongruent-6", "trial_type": "html-keyboard-response", "trial_index": 196, "time_elapsed": 348515, "internal_node_id": "0.0-8.0-10.0"}}, {"uniqueid": "w28230559:a58690782", "current_trial": 197, "dateTime": 1664464256370, "trialdata": {"rt": 649, "stimulus": "<p id='stroop-text' class='stroop-green'>RED</p>", "response": "g", "stimulus-type": "incongruent", "word": "red", "color": "green", "correct_response": "g", "trial_id": "stroop-trial-1-incongruent-29", "trial_type": "html-keyboard-response", "trial_index": 197, "time_elapsed": 349676, "internal_node_id": "0.0-8.0-11.0"}}, {"uniqueid": "w28230559:a58690782", "current_trial": 198, "dateTime": 1664464257465, "trialdata": {"rt": 577, "stimulus": "<p id='stroop-text' class='stroop-blue'>WINDOW</p>", "response": "b", "stimulus-type": "unrelated", "word": "WINDOW", "color": "blue", "correct_response": "b", "trial_id": "stroop-trial-1-unrelated-27", "trial_type": "html-keyboard-response", "trial_index": 198, "time_elapsed": 350771, "internal_node_id": "0.0-8.0-12.0"}}, {"uniqueid": "w28230559:a58690782", "current_trial": 199, "dateTime": 1664464258504, "trialdata": {"rt": 532, "stimulus": "<p id='stroop-text' class='stroop-red'>CHAIR</p>", "response": "r", "stimulus-type": "unrelated", "word": "CHAIR", "color": "red", "correct_response": "r", "trial_id": "stroop-trial-1-unrelated-22", "trial_type": "html-keyboard-response", "trial_index": 199, "time_elapsed": 351810, "internal_node_id": "0.0-8.0-13.0"}}, {"uniqueid": "w28230559:a58690782", "current_trial": 200, "dateTime": 1664464259455, "trialdata": {"rt": 439, "stimulus": "<p id='stroop-text' class='stroop-green'>GREEN</p>", "response": "g", "stimulus-type": "congruent", "word": "green", "color": "green", "correct_response": "g", "trial_id": "stroop-trial-1-congruent-4", "trial_type": "html-keyboard-response", "trial_index": 200, "time_elapsed": 352761, "internal_node_id": "0.0-8.0-14.0"}}, {"uniqueid": "w28230559:a58690782", "current_trial": 201, "dateTime": 1664464260583, "trialdata": {"rt": 619, "stimulus": "<p id='stroop-text' class='stroop-green'>BLUE</p>", "response": "g", "stimulus-type": "incongruent", "word": "blue", "color": "green", "correct_response": "g", "trial_id": "stroop-trial-1-incongruent-27", "trial_type": "html-keyboard-response", "trial_index": 201, "time_elapsed": 353889, "internal_node_id": "0.0-8.0-15.0"}}, {"uniqueid": "w28230559:a58690782", "current_trial": 202, "dateTime": 1664464261446, "trialdata": {"rt": 352, "stimulus": "<p id='stroop-text' class='stroop-green'>GREEN</p>", "response": "g", "stimulus-type": "congruent", "word": "green", "color": "green", "correct_response": "g", "trial_id": "stroop-trial-1-congruent-20", "trial_type": "html-keyboard-response", "trial_index": 202, "time_elapsed": 354752, "internal_node_id": "0.0-8.0-16.0"}}, {"uniqueid": "w28230559:a58690782", "current_trial": 203, "dateTime": 1664464262823, "trialdata": {"rt": 863, "stimulus": "<p id='stroop-text' class='stroop-yellow'>STONE</p>", "response": "y", "stimulus-type": "unrelated", "word": "STONE", "color": "yellow", "correct_response": "y", "trial_id": "stroop-trial-1-unrelated-15", "trial_type": "html-keyboard-response", "trial_index": 203, "time_elapsed": 356129, "internal_node_id": "0.0-8.0-17.0"}}, {"uniqueid": "w28230559:a58690782", "current_trial": 204, "dateTime": 1664464263693, "trialdata": {"rt": 350, "stimulus": "<p id='stroop-text' class='stroop-yellow'>YELLOW</p>", "response": "y", "stimulus-type": "congruent", "word": "yellow", "color": "yellow", "correct_response": "y", "trial_id": "stroop-trial-1-congruent-17", "trial_type": "html-keyboard-response", "trial_index": 204, "time_elapsed": 356998, "internal_node_id": "0.0-8.0-18.0"}}, {"uniqueid": "w28230559:a58690782", "current_trial": 205, "dateTime": 1664464264590, "trialdata": {"rt": 391, "stimulus": "<p id='stroop-text' class='stroop-yellow'>YELLOW</p>", "response": "y", "stimulus-type": "congruent", "word": "yellow", "color": "yellow", "correct_response": "y", "trial_id": "stroop-trial-1-congruent-21", "trial_type": "html-keyboard-response", "trial_index": 205, "time_elapsed": 357896, "internal_node_id": "0.0-8.0-19.0"}}, {"uniqueid": "w28230559:a58690782", "current_trial": 206, "dateTime": 1664464265425, "trialdata": {"rt": 326, "stimulus": "<p id='stroop-text' class='stroop-yellow'>YELLOW</p>", "response": "y", "stimulus-type": "congruent", "word": "yellow", "color": "yellow", "correct_response": "y", "trial_id": "stroop-trial-1-congruent-10", "trial_type": "html-keyboard-response", "trial_index": 206, "time_elapsed": 358730, "internal_node_id": "0.0-8.0-20.0"}}, {"uniqueid": "w28230559:a58690782", "current_trial": 207, "dateTime": 1664464266631, "trialdata": {"rt": 699, "stimulus": "<p id='stroop-text' class='stroop-red'>FORK</p>", "response": "r", "stimulus-type": "unrelated", "word": "FORK", "color": "red", "correct_response": "r", "trial_id": "stroop-trial-1-unrelated-13", "trial_type": "html-keyboard-response", "trial_index": 207, "time_elapsed": 359936, "internal_node_id": "0.0-8.0-21.0"}}, {"uniqueid": "w28230559:a58690782", "current_trial": 208, "dateTime": 1664464268061, "trialdata": {"rt": 917, "stimulus": "<p id='stroop-text' class='stroop-green'>YELLOW</p>", "response": "g", "stimulus-type": "incongruent", "word": "yellow", "color": "green", "correct_response": "g", "trial_id": "stroop-trial-1-incongruent-11", "trial_type": "html-keyboard-response", "trial_index": 208, "time_elapsed": 361366, "internal_node_id": "0.0-8.0-22.0"}}, {"uniqueid": "w28230559:a58690782", "current_trial": 209, "dateTime": 1664464269290, "trialdata": {"rt": 707, "stimulus": "<p id='stroop-text' class='stroop-green'>BRAIN</p>", "response": "g", "stimulus-type": "unrelated", "word": "BRAIN", "color": "green", "correct_response": "g", "trial_id": "stroop-trial-1-unrelated-30", "trial_type": "html-keyboard-response", "trial_index": 209, "time_elapsed": 362595, "internal_node_id": "0.0-8.0-23.0"}}, {"uniqueid": "w28230559:a58690782", "current_trial": 210, "dateTime": 1664464270621, "trialdata": {"rt": 820, "stimulus": "<p id='stroop-text' class='stroop-yellow'>YELLOW</p>", "response": "y", "stimulus-type": "congruent", "word": "yellow", "color": "yellow", "correct_response": "y", "trial_id": "stroop-trial-1-congruent-24", "trial_type": "html-keyboard-response", "trial_index": 210, "time_elapsed": 363926, "internal_node_id": "0.0-8.0-24.0"}}, {"uniqueid": "w28230559:a58690782", "current_trial": 211, "dateTime": 1664464271752, "trialdata": {"rt": 624, "stimulus": "<p id='stroop-text' class='stroop-red'>RED</p>", "response": "r", "stimulus-type": "congruent", "word": "red", "color": "red", "correct_response": "r", "trial_id": "stroop-trial-1-congruent-1", "trial_type": "html-keyboard-response", "trial_index": 211, "time_elapsed": 365057, "internal_node_id": "0.0-8.0-25.0"}}, {"uniqueid": "w28230559:a58690782", "current_trial": 212, "dateTime": 1664464272920, "trialdata": {"rt": 648, "stimulus": "<p id='stroop-text' class='stroop-yellow'>BLUE</p>", "response": "y", "stimulus-type": "incongruent", "word": "blue", "color": "yellow", "correct_response": "y", "trial_id": "stroop-trial-1-incongruent-18", "trial_type": "html-keyboard-response", "trial_index": 212, "time_elapsed": 366226, "internal_node_id": "0.0-8.0-26.0"}}, {"uniqueid": "w28230559:a58690782", "current_trial": 213, "dateTime": 1664464274170, "trialdata": {"rt": 737, "stimulus": "<p id='stroop-text' class='stroop-green'>BLUE</p>", "response": "g", "stimulus-type": "incongruent", "word": "blue", "color": "green", "correct_response": "g", "trial_id": "stroop-trial-1-incongruent-5", "trial_type": "html-keyboard-response", "trial_index": 213, "time_elapsed": 367476, "internal_node_id": "0.0-8.0-27.0"}}, {"uniqueid": "w28230559:a58690782", "current_trial": 214, "dateTime": 1664464275171, "trialdata": {"rt": 494, "stimulus": "<p id='stroop-text' class='stroop-green'>CHAIR</p>", "response": "g", "stimulus-type": "unrelated", "word": "CHAIR", "color": "green", "correct_response": "g", "trial_id": "stroop-trial-1-unrelated-4", "trial_type": "html-keyboard-response", "trial_index": 214, "time_elapsed": 368477, "internal_node_id": "0.0-8.0-28.0"}}, {"uniqueid": "w28230559:a58690782", "current_trial": 215, "dateTime": 1664464276205, "trialdata": {"rt": 524, "stimulus": "<p id='stroop-text' class='stroop-blue'>BLUE</p>", "response": "b", "stimulus-type": "congruent", "word": "blue", "color": "blue", "correct_response": "b", "trial_id": "stroop-trial-1-congruent-3", "trial_type": "html-keyboard-response", "trial_index": 215, "time_elapsed": 369511, "internal_node_id": "0.0-8.0-29.0"}}, {"uniqueid": "w28230559:a58690782", "current_trial": 216, "dateTime": 1664464277370, "trialdata": {"rt": 659, "stimulus": "<p id='stroop-text' class='stroop-red'>WINDOW</p>", "response": "r", "stimulus-type": "unrelated", "word": "WINDOW", "color": "red", "correct_response": "r", "trial_id": "stroop-trial-1-unrelated-9", "trial_type": "html-keyboard-response", "trial_index": 216, "time_elapsed": 370676, "internal_node_id": "0.0-8.0-30.0"}}, {"uniqueid": "w28230559:a58690782", "current_trial": 217, "dateTime": 1664464278886, "trialdata": {"rt": 1005, "stimulus": "<p id='stroop-text' class='stroop-yellow'>GREEN</p>", "response": "y", "stimulus-type": "incongruent", "word": "green", "color": "yellow", "correct_response": "y", "trial_id": "stroop-trial-1-incongruent-8", "trial_type": "html-keyboard-response", "trial_index": 217, "time_elapsed": 372192, "internal_node_id": "0.0-8.0-31.0"}}, {"uniqueid": "w28230559:a58690782", "current_trial": 218, "dateTime": 1664464280262, "trialdata": {"rt": 869, "stimulus": "<p id='stroop-text' class='stroop-red'>WINDOW</p>", "response": "r", "stimulus-type": "unrelated", "word": "WINDOW", "color": "red", "correct_response": "r", "trial_id": "stroop-trial-1-unrelated-18", "trial_type": "html-keyboard-response", "trial_index": 218, "time_elapsed": 373567, "internal_node_id": "0.0-8.0-32.0"}}, {"uniqueid": "w28230559:a58690782", "current_trial": 219, "dateTime": 1664464281829, "trialdata": {"rt": 1049, "stimulus": "<p id='stroop-text' class='stroop-green'>GREEN</p>", "response": "g", "stimulus-type": "congruent", "word": "green", "color": "green", "correct_response": "g", "trial_id": "stroop-trial-1-congruent-15", "trial_type": "html-keyboard-response", "trial_index": 219, "time_elapsed": 375134, "internal_node_id": "0.0-8.0-33.0"}}, {"uniqueid": "w28230559:a58690782", "current_trial": 220, "dateTime": 1664464282753, "trialdata": {"rt": 416, "stimulus": "<p id='stroop-text' class='stroop-blue'>BRAIN</p>", "response": "b", "stimulus-type": "unrelated", "word": "BRAIN", "color": "blue", "correct_response": "b", "trial_id": "stroop-trial-1-unrelated-24", "trial_type": "html-keyboard-response", "trial_index": 220, "time_elapsed": 376058, "internal_node_id": "0.0-8.0-34.0"}}, {"uniqueid": "w28230559:a58690782", "current_trial": 221, "dateTime": 1664464283804, "trialdata": {"rt": 539, "stimulus": "<p id='stroop-text' class='stroop-yellow'>YELLOW</p>", "response": "y", "stimulus-type": "congruent", "word": "yellow", "color": "yellow", "correct_response": "y", "trial_id": "stroop-trial-1-congruent-12", "trial_type": "html-keyboard-response", "trial_index": 221, "time_elapsed": 377109, "internal_node_id": "0.0-8.0-35.0"}}, {"uniqueid": "w28230559:a58690782", "current_trial": 222, "dateTime": 1664464284851, "trialdata": {"rt": 523, "stimulus": "<p id='stroop-text' class='stroop-red'>BLUE</p>", "response": "r", "stimulus-type": "incongruent", "word": "blue", "color": "red", "correct_response": "r", "trial_id": "stroop-trial-1-incongruent-20", "trial_