{"condition": 0, "counterbalance": 0, "assignmentId": "a84219690", "workerId": "w81599640", "hitId": "h61829640", "currenttrial": 959, "bonus": 0, "data": [{"uniqueid": "w81599640:a84219690", "current_trial": 0, "dateTime": 1664564484027, "trialdata": {"success": true, "trial_type": "fullscreen", "trial_index": 0, "time_elapsed": 5107, "internal_node_id": "0.0-0.0"}}, {"uniqueid": "w81599640:a84219690", "current_trial": 1, "dateTime": 1664564518266, "trialdata": {"view_history": [{"page_index": 0, "viewing_time": 34234}], "rt": 34235, "trial_id": "exp_instructions_distractor", "trial_type": "instructions", "trial_index": 1, "time_elapsed": 39346, "internal_node_id": "0.0-1.0"}}, {"uniqueid": "w81599640:a84219690", "current_trial": 2, "dateTime": 1664564534053, "trialdata": {"view_history": [{"page_index": 0, "viewing_time": 15784}], "rt": 15785, "trial_id": "color_game_instructions", "trial_type": "instructions", "trial_index": 2, "time_elapsed": 55133, "internal_node_id": "0.0-2.0"}}, {"uniqueid": "w81599640:a84219690", "current_trial": 3, "dateTime": 1664564538421, "trialdata": {"rt": 4367, "stimulus": "<h1> Get ready to start the game! </h1>\n\nThank you for reading the instructions. Get ready start with the first of 5 block(s) of this game.\n<br><br>\nIn this first block, you will complete 90 rounds of this game before moving on.\n<br><br>\nRemember, the better you perform, the bigger your bonus will be!\n<br><br>\n<div style='text-align: center;'>Press <code>space</code> to begin.</div>", "response": " ", "trial_id": "stroop_1_ready_1", "trial_type": "html-keyboard-response", "trial_index": 3, "time_elapsed": 59501, "internal_node_id": "0.0-3.0"}}, {"uniqueid": "w81599640:a84219690", "current_trial": 4, "dateTime": 1664564539356, "trialdata": {"rt": 931, "stimulus": "<p id='stroop-text' class='stroop-red'>BRAIN</p>", "response": "r", "stimulus-type": "unrelated", "word": "BRAIN", "color": "red", "correct_response": "r", "trial_id": "stroop-trial-1-unrelated-28", "trial_type": "html-keyboard-response", "trial_index": 4, "time_elapsed": 60435, "internal_node_id": "0.0-4.0-0.0"}}, {"uniqueid": "w81599640:a84219690", "current_trial": 5, "dateTime": 1664564540377, "trialdata": {"rt": 519, "stimulus": "<p id='stroop-text' class='stroop-red'>BLUE</p>", "response": "r", "stimulus-type": "incongruent", "word": "blue", "color": "red", "correct_response": "r", "trial_id": "stroop-trial-1-incongruent-15", "trial_type": "html-keyboard-response", "trial_index": 5, "time_elapsed": 61457, "internal_node_id": "0.0-4.0-1.0"}}, {"uniqueid": "w81599640:a84219690", "current_trial": 6, "dateTime": 1664564541876, "trialdata": {"rt": 997, "stimulus": "<p id='stroop-text' class='stroop-blue'>BLUE</p>", "response": "b", "stimulus-type": "congruent", "word": "blue", "color": "blue", "correct_response": "b", "trial_id": "stroop-trial-1-congruent-2", "trial_type": "html-keyboard-response", "trial_index": 6, "time_elapsed": 62955, "internal_node_id": "0.0-4.0-2.0"}}, {"uniqueid": "w81599640:a84219690", "current_trial": 7, "dateTime": 1664564542913, "trialdata": {"rt": 535, "stimulus": "<p id='stroop-text' class='stroop-red'>BOAT</p>", "response": "r", "stimulus-type": "unrelated", "word": "BOAT", "color": "red", "correct_response": "r", "trial_id": "stroop-trial-1-unrelated-15", "trial_type": "html-keyboard-response", "trial_index": 7, "time_elapsed": 63993, "internal_node_id": "0.0-4.0-3.0"}}, {"uniqueid": "w81599640:a84219690", "current_trial": 8, "dateTime": 1664564544852, "trialdata": {"rt": 1438, "stimulus": "<p id='stroop-text' class='stroop-green'>YELLOW</p>", "response": "g", "stimulus-type": "incongruent", "word": "yellow", "color": "green", "correct_response": "g", "trial_id": "stroop-trial-1-incongruent-19", "trial_type": "html-keyboard-response", "trial_index": 8, "time_elapsed": 65932, "internal_node_id": "0.0-4.0-4.0"}}, {"uniqueid": "w81599640:a84219690", "current_trial": 9, "dateTime": 1664564545958, "trialdata": {"rt": 604, "stimulus": "<p id='stroop-text' class='stroop-blue'>BLUE</p>", "response": "b", "stimulus-type": "congruent", "word": "blue", "color": "blue", "correct_response": "b", "trial_id": "stroop-trial-1-congruent-9", "trial_type": "html-keyboard-response", "trial_index": 9, "time_elapsed": 67038, "internal_node_id": "0.0-4.0-5.0"}}, {"uniqueid": "w81599640:a84219690", "current_trial": 10, "dateTime": 1664564546865, "trialdata": {"rt": 405, "stimulus": "<p id='stroop-text' class='stroop-red'>RED</p>", "response": "r", "stimulus-type": "congruent", "word": "red", "color": "red", "correct_response": "r", "trial_id": "stroop-trial-1-congruent-25", "trial_type": "html-keyboard-response", "trial_index": 10, "time_elapsed": 67944, "internal_node_id": "0.0-4.0-6.0"}}, {"uniqueid": "w81599640:a84219690", "current_trial": 11, "dateTime": 1664564548421, "trialdata": {"rt": 1055, "stimulus": "<p id='stroop-text' class='stroop-green'>RED</p>", "response": "g", "stimulus-type": "incongruent", "word": "red", "color": "green", "correct_response": "g", "trial_id": "stroop-trial-1-incongruent-30", "trial_type": "html-keyboard-response", "trial_index": 11, "time_elapsed": 69501, "internal_node_id": "0.0-4.0-7.0"}}, {"uniqueid": "w81599640:a84219690", "current_trial": 12, "dateTime": 1664564549430, "trialdata": {"rt": 508, "stimulus": "<p id='stroop-text' class='stroop-red'>BLUE</p>", "response": "r", "stimulus-type": "incongruent", "word": "blue", "color": "red", "correct_response": "r", "trial_id": "stroop-trial-1-incongruent-2", "trial_type": "html-keyboard-response", "trial_index": 12, "time_elapsed": 70510, "internal_node_id": "0.0-4.0-8.0"}}, {"uniqueid": "w81599640:a84219690", "current_trial": 13, "dateTime": 1664564550542, "trialdata": {"rt": 610, "stimulus": "<p id='stroop-text' class='stroop-yellow'>BRAIN</p>", "response": "y", "stimulus-type": "unrelated", "word": "BRAIN", "color": "yellow", "correct_response": "y", "trial_id": "stroop-trial-1-unrelated-19", "trial_type": "html-keyboard-response", "trial_index": 13, "time_elapsed": 71622, "internal_node_id": "0.0-4.0-9.0"}}, {"uniqueid": "w81599640:a84219690", "current_trial": 14, "dateTime": 1664564551518, "trialdata": {"rt": 472, "stimulus": "<p id='stroop-text' class='stroop-red'>WINDOW</p>", "response": "r", "stimulus-type": "unrelated", "word": "WINDOW", "color": "red", "correct_response": "r", "trial_id": "stroop-trial-1-unrelated-21", "trial_type": "html-keyboard-response", "trial_index": 14, "time_elapsed": 72597, "internal_node_id": "0.0-4.0-10.0"}}, {"uniqueid": "w81599640:a84219690", "current_trial": 15, "dateTime": 1664564552881, "trialdata": {"rt": 860, "stimulus": "<p id='stroop-text' class='stroop-yellow'>RED</p>", "response": "y", "stimulus-type": "incongruent", "word": "red", "color": "yellow", "correct_response": "y", "trial_id": "stroop-trial-1-incongruent-11", "trial_type": "html-keyboard-response", "trial_index": 15, "time_elapsed": 73960, "internal_node_id": "0.0-4.0-11.0"}}, {"uniqueid": "w81599640:a84219690", "current_trial": 16, "dateTime": 1664564554317, "trialdata": {"rt": 936, "stimulus": "<p id='stroop-text' class='stroop-green'>BLUE</p>", "response": "g", "stimulus-type": "incongruent", "word": "blue", "color": "green", "correct_response": "g", "trial_id": "stroop-trial-1-incongruent-8", "trial_type": "html-keyboard-response", "trial_index": 16, "time_elapsed": 75397, "internal_node_id": "0.0-4.0-12.0"}}, {"uniqueid": "w81599640:a84219690", "current_trial": 17, "dateTime": 1664564555566, "trialdata": {"rt": 748, "stimulus": "<p id='stroop-text' class='stroop-yellow'>YELLOW</p>", "response": "y", "stimulus-type": "congruent", "word": "yellow", "color": "yellow", "correct_response": "y", "trial_id": "stroop-trial-1-congruent-24", "trial_type": "html-keyboard-response", "trial_index": 17, "time_elapsed": 76646, "internal_node_id": "0.0-4.0-13.0"}}, {"uniqueid": "w81599640:a84219690", "current_trial": 18, "dateTime": 1664564556888, "trialdata": {"rt": 821, "stimulus": "<p id='stroop-text' class='stroop-green'>SHIP</p>", "response": "g", "stimulus-type": "unrelated", "word": "SHIP", "color": "green", "correct_response": "g", "trial_id": "stroop-trial-1-unrelated-23", "trial_type": "html-keyboard-response", "trial_index": 18, "time_elapsed": 77968, "internal_node_id": "0.0-4.0-14.0"}}, {"uniqueid": "w81599640:a84219690", "current_trial": 19, "dateTime": 1664564557903, "trialdata": {"rt": 513, "stimulus": "<p id='stroop-text' class='stroop-blue'>BRIDGE</p>", "response": "b", "stimulus-type": "unrelated", "word": "BRIDGE", "color": "blue", "correct_response": "b", "trial_id": "stroop-trial-1-unrelated-30", "trial_type": "html-keyboard-response", "trial_index": 19, "time_elapsed": 78983, "internal_node_id": "0.0-4.0-15.0"}}, {"uniqueid": "w81599640:a84219690", "current_trial": 20, "dateTime": 1664564558771, "trialdata": {"rt": 365, "stimulus": "<p id='stroop-text' class='stroop-blue'>BLUE</p>", "response": "b", "stimulus-type": "congruent", "word": "blue", "color": "blue", "correct_response": "b", "trial_id": "stroop-trial-1-congruent-16", "trial_type": "html-keyboard-response", "trial_index": 20, "time_elapsed": 79850, "internal_node_id": "0.0-4.0-16.0"}}, {"uniqueid": "w81599640:a84219690", "current_trial": 21, "dateTime": 1664564559944, "trialdata": {"rt": 672, "stimulus": "<p id='stroop-text' class='stroop-yellow'>BOAT</p>", "response": "y", "stimulus-type": "unrelated", "word": "BOAT", "color": "yellow", "correct_response": "y", "trial_id": "stroop-trial-1-unrelated-7", "trial_type": "html-keyboard-response", "trial_index": 21, "time_elapsed": 81024, "internal_node_id": "0.0-4.0-17.0"}}, {"uniqueid": "w81599640:a84219690", "current_trial": 22, "dateTime": 1664564561319, "trialdata": {"rt": 873, "stimulus": "<p id='stroop-text' class='stroop-blue'>BOAT</p>", "response": "b", "stimulus-type": "unrelated", "word": "BOAT", "color": "blue", "correct_response": "b", "trial_id": "stroop-trial-1-unrelated-10", "trial_type": "html-keyboard-response", "trial_index": 22, "time_elapsed": 82399, "internal_node_id": "0.0-4.0-18.0"}}, {"uniqueid": "w81599640:a84219690", "current_trial": 23, "dateTime": 1664564562208, "trialdata": {"rt": 387, "stimulus": "<p id='stroop-text' class='stroop-green'>WINDOW</p>", "response": "g", "stimulus-type": "unrelated", "word": "WINDOW", "color": "green", "correct_response": "g", "trial_id": "stroop-trial-1-unrelated-18", "trial_type": "html-keyboard-response", "trial_index": 23, "time_elapsed": 83288, "internal_node_id": "0.0-4.0-19.0"}}, {"uniqueid": "w81599640:a84219690", "current_trial": 24, "dateTime": 1664564563104, "trialdata": {"rt": 394, "stimulus": "<p id='stroop-text' class='stroop-green'>BOTTLE</p>", "response": "g", "stimulus-type": "unrelated", "word": "BOTTLE", "color": "green", "correct_response": "g", "trial_id": "stroop-trial-1-unrelated-8", "trial_type": "html-keyboard-response", "trial_index": 24, "time_elapsed": 84183, "internal_node_id": "0.0-4.0-20.0"}}, {"uniqueid": "w81599640:a84219690", "current_trial": 25, "dateTime": 1664564564244, "trialdata": {"rt": 638, "stimulus": "<p id='stroop-text' class='stroop-yellow'>BLUE</p>", "response": "y", "stimulus-type": "incongruent", "word": "blue", "color": "yellow", "correct_response": "y", "trial_id": "stroop-trial-1-incongruent-4", "trial_type": "html-keyboard-response", "trial_index": 25, "time_elapsed": 85323, "internal_node_id": "0.0-4.0-21.0"}}, {"uniqueid": "w81599640:a84219690", "current_trial": 26, "dateTime": 1664564565384, "trialdata": {"rt": 638, "stimulus": "<p id='stroop-text' class='stroop-yellow'>FORK</p>", "response": "y", "stimulus-type": "unrelated", "word": "FORK", "color": "yellow", "correct_response": "y", "trial_id": "stroop-trial-1-unrelated-27", "trial_type": "html-keyboard-response", "trial_index": 26, "time_elapsed": 86464, "internal_node_id": "0.0-4.0-22.0"}}, {"uniqueid": "w81599640:a84219690", "current_trial": 27, "dateTime": 1664564566290, "trialdata": {"rt": 404, "stimulus": "<p id='stroop-text' class='stroop-yellow'>BOAT</p>", "response": "y", "stimulus-type": "unrelated", "word": "BOAT", "color": "yellow", "correct_response": "y", "trial_id": "stroop-trial-1-unrelated-16", "trial_type": "html-keyboard-response", "trial_index": 27, "time_elapsed": 87370, "internal_node_id": "0.0-4.0-23.0"}}, {"uniqueid": "w81599640:a84219690", "current_trial": 28, "dateTime": 1664564567466, "trialdata": {"rt": 674, "stimulus": "<p id='stroop-text' class='stroop-green'>BLUE</p>", "response": "g", "stimulus-type": "incongruent", "word": "blue", "color": "green", "correct_response": "g", "trial_id": "stroop-trial-1-incongruent-25", "trial_type": "html-keyboard-response", "trial_index": 28, "time_elapsed": 88545, "internal_node_id": "0.0-4.0-24.0"}}, {"uniqueid": "w81599640:a84219690", "current_trial": 29, "dateTime": 1664564568377, "trialdata": {"rt": 410, "stimulus": "<p id='stroop-text' class='stroop-green'>GREEN</p>", "response": "g", "stimulus-type": "congruent", "word": "green", "color": "green", "correct_response": "g", "trial_id": "stroop-trial-1-congruent-10", "trial_type": "html-keyboard-response", "trial_index": 29, "time_elapsed": 89457, "internal_node_id": "0.0-4.0-25.0"}}, {"uniqueid": "w81599640:a84219690", "current_trial": 30, "dateTime": 1664564569374, "trialdata": {"rt": 496, "stimulus": "<p id='stroop-text' class='stroop-blue'>YELLOW</p>", "response": "b", "stimulus-type": "incongruent", "word": "yellow", "color": "blue", "correct_response": "b", "trial_id": "stroop-trial-1-incongruent-5", "trial_type": "html-keyboard-response", "trial_index": 30, "time_elapsed": 90453, "internal_node_id": "0.0-4.0-26.0"}}, {"uniqueid": "w81599640:a84219690", "current_trial": 31, "dateTime": 1664564570617, "trialdata": {"rt": 742, "stimulus": "<p id='stroop-text' class='stroop-green'>YELLOW</p>", "response": "g", "stimulus-type": "incongruent", "word": "yellow", "color": "green", "correct_response": "g", "trial_id": "stroop-trial-1-incongruent-18", "trial_type": "html-keyboard-response", "trial_index": 31, "time_elapsed": 91696, "internal_node_id": "0.0-4.0-27.0"}}, {"uniqueid": "w81599640:a84219690", "current_trial": 32, "dateTime": 1664564571547, "trialdata": {"rt": 429, "stimulus": "<p id='stroop-text' class='stroop-green'>FORK</p>", "response": "g", "stimulus-type": "unrelated", "word": "FORK", "color": "green", "correct_response": "g", "trial_id": "stroop-trial-1-unrelated-2", "trial_type": "html-keyboard-response", "trial_index": 32, "time_elapsed": 92627, "internal_node_id": "0.0-4.0-28.0"}}, {"uniqueid": "w81599640:a84219690", "current_trial": 33, "dateTime": 1664564572657, "trialdata": {"rt": 608, "stimulus": "<p id='stroop-text' class='stroop-red'>BLUE</p>", "response": "r", "stimulus-type": "incongruent", "word": "blue", "color": "red", "correct_response": "r", "trial_id": "stroop-trial-1-incongruent-6", "trial_type": "html-keyboard-response", "trial_index": 33, "time_elapsed": 93737, "internal_node_id": "0.0-4.0-29.0"}}, {"uniqueid": "w81599640:a84219690", "current_trial": 34, "dateTime": 1664564573742, "trialdata": {"rt": 583, "stimulus": "<p id='stroop-text' class='stroop-blue'>BLUE</p>", "response": "y", "stimulus-type": "congruent", "word": "blue", "color": "blue", "correct_response": "b", "trial_id": "stroop-trial-1-congruent-30", "trial_type": "html-keyboard-response", "trial_index": 34, "time_elapsed": 94821, "internal_node_id": "0.0-4.0-30.0"}}, {"uniqueid": "w81599640:a84219690", "current_trial": 35, "dateTime": 1664564574989, "trialdata": {"rt": 746, "stimulus": "<p id='stroop-text' class='stroop-green'>GREEN</p>", "response": "g", "stimulus-type": "congruent", "word": "green", "color": "green", "correct_response": "g", "trial_id": "stroop-trial-1-congruent-13", "trial_type": "html-keyboard-response", "trial_index": 35, "time_elapsed": 96069, "internal_node_id": "0.0-4.0-31.0"}}, {"uniqueid": "w81599640:a84219690", "current_trial": 36, "dateTime": 1664564576005, "trialdata": {"rt": 513, "stimulus": "<p id='stroop-text' class='stroop-green'>BRAIN</p>", "response": "g", "stimulus-type": "unrelated", "word": "BRAIN", "color": "green", "correct_response": "g", "trial_id": "stroop-trial-1-unrelated-13", "trial_type": "html-keyboard-response", "trial_index": 36, "time_elapsed": 97084, "internal_node_id": "0.0-4.0-32.0"}}, {"uniqueid": "w81599640:a84219690", "current_trial": 37, "dateTime": 1664564577435, "trialdata": {"rt": 929, "stimulus": "<p id='stroop-text' class='stroop-blue'>BLUE</p>", "response": "b", "stimulus-type": "congruent", "word": "blue", "color": "blue", "correct_response": "b", "trial_id": "stroop-trial-1-congruent-29", "trial_type": "html-keyboard-response", "trial_index": 37, "time_elapsed": 98515, "internal_node_id": "0.0-4.0-33.0"}}, {"uniqueid": "w81599640:a84219690", "current_trial": 38, "dateTime": 1664564579106, "trialdata": {"rt": 1170, "stimulus": "<p id='stroop-text' class='stroop-blue'>YELLOW</p>", "response": "b", "stimulus-type": "incongruent", "word": "yellow", "color": "blue", "correct_response": "b", "trial_id": "stroop-trial-1-incongruent-13", "trial_type": "html-keyboard-response", "trial_index": 38, "time_elapsed": 100186, "internal_node_id": "0.0-4.0-34.0"}}, {"uniqueid": "w81599640:a84219690", "current_trial": 39, "dateTime": 1664564583348, "trialdata": {"rt": 3740, "stimulus": "<p id='stroop-text' class='stroop-blue'>BLUE</p>", "response": "b", "stimulus-type": "congruent", "word": "blue", "color": "blue", "correct_response": "b", "trial_id": "stroop-trial-1-congruent-23", "trial_type": "html-keyboard-response", "trial_index": 39, "time_elapsed": 104428, "internal_node_id": "0.0-4.0-35.0"}}, {"uniqueid": "w81599640:a84219690", "current_trial": 40, "dateTime": 1664564584978, "trialdata": {"rt": 1127, "stimulus": "<p id='stroop-text' class='stroop-yellow'>RED</p>", "response": "y", "stimulus-type": "incongruent", "word": "red", "color": "yellow", "correct_response": "y", "trial_id": "stroop-trial-1-incongruent-1", "trial_type": "html-keyboard-response", "trial_index": 40, "time_elapsed": 106058, "internal_node_id": "0.0-4.0-36.0"}}, {"uniqueid": "w81599640:a84219690", "current_trial": 41, "dateTime": 1664564587049, "trialdata": {"rt": 1569, "stimulus": "<p id='stroop-text' class='stroop-red'>BLUE</p>", "response": "r", "stimulus-type": "incongruent", "word": "blue", "color": "red", "correct_response": "r", "trial_id": "stroop-trial-1-incongruent-21", "trial_type": "html-keyboard-response", "trial_index": 41, "time_elapsed": 108129, "internal_node_id": "0.0-4.0-37.0"}}, {"uniqueid": "w81599640:a84219690", "current_trial": 42, "dateTime": 1664564588543, "trialdata": {"rt": 993, "stimulus": "<p id='stroop-text' class='stroop-green'>GREEN</p>", "response": "g", "stimulus-type": "congruent", "word": "green", "color": "green", "correct_response": "g", "trial_id": "stroop-trial-1-congruent-7", "trial_type": "html-keyboard-response", "trial_index": 42, "time_elapsed": 109622, "internal_node_id": "0.0-4.0-38.0"}}, {"uniqueid": "w81599640:a84219690", "current_trial": 43, "dateTime": 1664564595898, "trialdata": {"rt": 6853, "stimulus": "<p id='stroop-text' class='stroop-yellow'>CHAIR</p>", "response": "y", "stimulus-type": "unrelated", "word": "CHAIR", "color": "yellow", "correct_response": "y", "trial_id": "stroop-trial-1-unrelated-20", "trial_type": "html-keyboard-response", "trial_index": 43, "time_elapsed": 116977, "internal_node_id": "0.0-4.0-39.0"}}, {"uniqueid": "w81599640:a84219690", "current_trial": 44, "dateTime": 1664564597071, "trialdata": {"rt": 672, "stimulus": "<p id='stroop-text' class='stroop-red'>RED</p>", "response": "r", "stimulus-type": "congruent", "word": "red", "color": "red", "correct_response": "r", "trial_id": "stroop-trial-1-congruent-15", "trial_type": "html-keyboard-response", "trial_index": 44, "time_elapsed": 118151, "internal_node_id": "0.0-4.0-40.0"}}, {"uniqueid": "w81599640:a84219690", "current_trial": 45, "dateTime": 1664564598650, "trialdata": {"rt": 1078, "stimulus": "<p id='stroop-text' class='stroop-blue'>RED</p>", "response": "b", "stimulus-type": "incongruent", "word": "red", "color": "blue", "correct_response": "b", "trial_id": "stroop-trial-1-incongruent-14", "trial_type": "html-keyboard-response", "trial_index": 45, "time_elapsed": 119730, "internal_node_id": "0.0-4.0-41.0"}}, {"uniqueid": "w81599640:a84219690", "current_trial": 46, "dateTime": 1664564603103, "trialdata": {"rt": 3950, "stimulus": "<p id='stroop-text' class='stroop-yellow'>GREEN</p>", "response": "y", "stimulus-type": "incongruent", "word": "green", "color": "yellow", "correct_response": "y", "trial_id": "stroop-trial-1-incongruent-20", "trial_type": "html-keyboard-response", "trial_index": 46, "time_elapsed": 124183, "internal_node_id": "0.0-4.0-42.0"}}, {"uniqueid": "w81599640:a84219690", "current_trial": 47, "dateTime": 1664564604649, "trialdata": {"rt": 1043, "stimulus": "<p id='stroop-text' class='stroop-blue'>BLUE</p>", "response": "b", "stimulus-type": "congruent", "word": "blue", "color": "blue", "correct_response": "b", "trial_id": "stroop-trial-1-congruent-6", "trial_type": "html-keyboard-response", "trial_index": 47, "time_elapsed": 125728, "internal_node_id": "0.0-4.0-43.0"}}, {"uniqueid": "w81599640:a84219690", "current_trial": 48, "dateTime": 1664564606280, "trialdata": {"rt": 1128, "stimulus": "<p id='stroop-text' class='stroop-red'>YELLOW</p>", "response": "r", "stimulus-type": "incongruent", "word": "yellow", "color": "red", "correct_response": "r", "trial_id": "stroop-trial-1-incongruent-12", "trial_type": "html-keyboard-response", "trial_index": 48, "time_elapsed": 127360, "internal_node_id": "0.0-4.0-44.0"}}, {"uniqueid": "w81599640:a84219690", "current_trial": 49, "dateTime": 1664564608657, "trialdata": {"rt": 1877, "stimulus": "<p id='stroop-text' class='stroop-blue'>GREEN</p>", "response": "b", "stimulus-type": "incongruent", "word": "green", "color": "blue", "correct_response": "b", "trial_id": "stroop-trial-1-incongruent-23", "trial_type": "html-keyboard-response", "trial_index": 49, "time_elapsed": 129737, "internal_node_id": "0.0-4.0-45.0"}}, {"uniqueid": "w81599640:a84219690", "current_trial": 50, "dateTime": 1664564609809, "trialdata": {"rt": 649, "stimulus": "<p id='stroop-text' class='stroop-yellow'>GREEN</p>", "response": "y", "stimulus-type": "incongruent", "word": "green", "color": "yellow", "correct_response": "y", "trial_id": "stroop-trial-1-incongruent-17", "trial_type": "html-keyboard-response", "trial_index": 50, "time_elapsed": 130888, "internal_node_id": "0.0-4.0-46.0"}}, {"uniqueid": "w81599640:a84219690", "current_trial": 51, "dateTime": 1664564611479, "trialdata": {"rt": 1169, "stimulus": "<p id='stroop-text' class='stroop-red'>WINDOW</p>", "response": "r", "stimulus-type": "unrelated", "word": "WINDOW", "color": "red", "correct_response": "r", "trial_id": "stroop-trial-1-unrelated-9", "trial_type": "html-keyboard-response", "trial_index": 51, "time_elapsed": 132559, "internal_node_id": "0.0-4.0-47.0"}}, {"uniqueid": "w81599640:a84219690", "current_trial": 52, "dateTime": 1664564613350, "trialdata": {"rt": 1369, "stimulus": "<p id='stroop-text' class='stroop-green'>YELLOW</p>", "response": "g", "stimulus-type": "incongruent", "word": "yellow", "color": "green", "correct_response": "g", "trial_id": "stroop-trial-1-incongruent-7", "trial_type": "html-keyboard-response", "trial_index": 52, "time_elapsed": 134429, "internal_node_id": "0.0-4.0-48.0"}}, {"uniqueid": "w81599640:a84219690", "current_trial": 53, "dateTime": 1664564614603, "trialdata": {"rt": 753, "stimulus": "<p id='stroop-text' class='stroop-red'>FORK</p>", "response": "r", "stimulus-type": "unrelated", "word": "FORK", "color": "red", "correct_response": "r", "trial_id": "stroop-trial-1-unrelated-29", "trial_type": "html-keyboard-response", "trial_index": 53, "time_elapsed": 135683, "internal_node_id": "0.0-4.0-49.0"}}, {"uniqueid": "w81599640:a84219690", "current_trial": 54, "dateTime": 1664564615699, "trialdata": {"rt": 593, "stimulus": "<p id='stroop-text' class='stroop-blue'>RED</p>", "response": "b", "stimulus-type": "incongruent", "word": "red", "color": "blue", "correct_response": "b", "trial_id": "stroop-trial-1-incongruent-28", "trial_type": "html-keyboard-response", "trial_index": 54, "time_elapsed": 136779, "internal_node_id": "0.0-4.0-50.0"}}, {"uniqueid": "w81599640:a84219690", "current_trial": 55, "dateTime": 1664564616735, "trialdata": {"rt": 534, "stimulus": "<p id='stroop-text' class='stroop-blue'>RED</p>", "response": "b", "stimulus-type": "incongruent", "word": "red", "color": "blue", "correct_response": "b", "trial_id": "stroop-trial-1-incongruent-10", "trial_type": "html-keyboard-response", "trial_index": 55, "time_elapsed": 137815, "internal_node_id": "0.0-4.0-51.0"}}, {"uniqueid": "w81599640:a84219690", "current_trial": 56, "dateTime": 1664564617632, "trialdata": {"rt": 395, "stimulus": "<p id='stroop-text' class='stroop-blue'>BLUE</p>", "response": "b", "stimulus-type": "congruent", "word": "blue", "color": "blue", "correct_response": "b", "trial_id": "stroop-trial-1-congruent-20", "trial_type": "html-keyboard-response", "trial_index": 56, "time_elapsed": 138712, "internal_node_id": "0.0-4.0-52.0"}}, {"uniqueid": "w81599640:a84219690", "current_trial": 57, "dateTime": 1664564618537, "trialdata": {"rt": 403, "stimulus": "<p id='stroop-text' class='stroop-blue'>GREEN</p>", "response": "b", "stimulus-type": "incongruent", "word": "green", "color": "blue", "correct_response": "b", "trial_id": "stroop-trial-1-incongruent-27", "trial_type": "html-keyboard-response", "trial_index": 57, "time_elapsed": 139617, "internal_node_id": "0.0-4.0-53.0"}}, {"uniqueid": "w81599640:a84219690", "current_trial": 58, "dateTime": 1664564619734, "trialdata": {"rt": 696, "stimulus": "<p id='stroop-text' class='stroop-green'>GREEN</p>", "response": "g", "stimulus-type": "congruent", "word": "green", "color": "green", "correct_response": "g", "trial_id": "stroop-trial-1-congruent-8", "trial_type": "html-keyboard-response", "trial_index": 58, "time_elapsed": 140814, "internal_node_id": "0.0-4.0-54.0"}}, {"uniqueid": "w81599640:a84219690", "current_trial": 59, "dateTime": 1664564620612, "trialdata": {"rt": 377, "stimulus": "<p id='stroop-text' class='stroop-red'>RED</p>", "response": "r", "stimulus-type": "congruent", "word": "red", "color": "red", "correct_response": "r", "trial_id": "stroop-trial-1-congruent-17", "trial_type": "html-keyboard-response", "trial_index": 59, "time_elapsed": 141692, "internal_node_id": "0.0-4.0-55.0"}}, {"uniqueid": "w81599640:a84219690", "current_trial": 60, "dateTime": 1664564621867, "trialdata": {"rt": 753, "stimulus": "<p id='stroop-text' class='stroop-blue'>WINDOW</p>", "response": "b", "stimulus-type": "unrelated", "word": "WINDOW", "color": "blue", "correct_response": "b", "trial_id": "stroop-trial-1-unrelated-12", "trial_type": "html-keyboard-response", "trial_index": 60, "time_elapsed": 142947, "internal_node_id": "0.0-4.0-56.0"}}, {"uniqueid": "w81599640:a84219690", "current_trial": 61, "dateTime": 1664564622791, "trialdata": {"rt": 422, "stimulus": "<p id='stroop-text' class='stroop-green'>WINDOW</p>", "response": "g", "stimulus-type": "unrelated", "word": "WINDOW", "color": "green", "correct_response": "g", "trial_id": "stroop-trial-1-unrelated-17", "trial_type": "html-keyboard-response", "trial_index": 61, "time_elapsed": 143870, "internal_node_id": "0.0-4.0-57.0"}}, {"uniqueid": "w81599640:a84219690", "current_trial": 62, "dateTime": 1664564623708, "trialdata": {"rt": 417, "stimulus": "<p id='stroop-text' class='stroop-green'>GREEN</p>", "response": "g", "stimulus-type": "congruent", "word": "green", "color": "green", "correct_response": "g", "trial_id": "stroop-trial-1-congruent-4", "trial_type": "html-keyboard-response", "trial_index": 62, "time_elapsed": 144788, "internal_node_id": "0.0-4.0-58.0"}}, {"uniqueid": "w81599640:a84219690", "current_trial": 63, "dateTime": 1664564624581, "trialdata": {"rt": 370, "stimulus": "<p id='stroop-text' class='stroop-green'>YELLOW</p>", "response": "g", "stimulus-type": "incongruent", "word": "yellow", "color": "green", "correct_response": "g", "trial_id": "stroop-trial-1-incongruent-22", "trial_type": "html-keyboard-response", "trial_index": 63, "time_elapsed": 145661, "internal_node_id": "0.0-4.0-59.0"}}, {"uniqueid": "w81599640:a84219690", "current_trial": 64, "dateTime": 1664564626177, "trialdata": {"rt": 1094, "stimulus": "<p id='stroop-text' class='stroop-blue'>CHAIR</p>", "response": "b", "stimulus-type": "unrelated", "word": "CHAIR", "color": "blue", "correct_response": "b", "trial_id": "stroop-trial-1-unrelated-11", "trial_type": "html-keyboard-response", "trial_index": 64, "time_elapsed": 147257, "internal_node_id": "0.0-4.0-60.0"}}, {"uniqueid": "w81599640:a84219690", "current_trial": 65, "dateTime": 1664564627683, "trialdata": {"rt": 1003, "stimulus": "<p id='stroop-text' class='stroop-red'>BLUE</p>", "response": "r", "stimulus-type": "incongruent", "word": "blue", "color": "red", "correct_response": "r", "trial_id": "stroop-trial-1-incongruent-9", "trial_type": "html-keyboard-response", "trial_index": 65, "time_elapsed": 148763, "internal_node_id": "0.0-4.0-61.0"}}, {"uniqueid": "w81599640:a84219690", "current_trial": 66, "dateTime": 1664564629673, "trialdata": {"rt": 1488, "stimulus": "<p id='stroop-text' class='stroop-green'>RED</p>", "response": "g", "stimulus-type": "incongruent", "word": "red", "color": "green", "correct_response": "g", "trial_id": "stroop-trial-1-incongruent-26", "trial_type": "html-keyboard-response", "trial_index": 66, "time_elapsed": 150753, "internal_node_id": "0.0-4.0-62.0"}}, {"uniqueid": "w81599640:a84219690", "current_trial": 67, "dateTime": 1664564630979, "trialdata": {"rt": 804, "stimulus": "<p id='stroop-text' class='stroop-red'>SHIP</p>", "response": "r", "stimulus-type": "unrelated", "word": "SHIP", "color": "red", "correct_response": "r", "trial_id": "stroop-trial-1-unrelated-26", "trial_type": "html-keyboard-response", "trial_index": 67, "time_elapsed": 152058, "internal_node_id": "0.0-4.0-63.0"}}, {"uniqueid": "w81599640:a84219690", "current_trial": 68, "dateTime": 1664564632233, "trialdata": {"rt": 753, "stimulus": "<p id='stroop-text' class='stroop-blue'>MONKEY</p>", "response": "b", "stimulus-type": "unrelated", "word": "MONKEY", "color": "blue", "correct_response": "b", "trial_id": "stroop-trial-1-unrelated-5", "trial_type": "html-keyboard-response", "trial_index": 68, "time_elapsed": 153313, "internal_node_id": "0.0-4.0-64.0"}}, {"uniqueid": "w81599640:a84219690", "current_trial": 69, "dateTime": 1664564633636, "trialdata": {"rt": 902, "stimulus": "<p id='stroop-text' class='stroop-green'>FORK</p>", "response": "g", "stimulus-type": "unrelated", "word": "FORK", "color": "green", "correct_response": "g", "trial_id": "stroop-trial-1-unrelated-14", "trial_type": "html-keyboard-response", "trial_index": 69, "time_elapsed": 154716, "internal_node_id": "0.0-4.0-65.0"}}, {"uniqueid": "w81599640:a84219690", "current_trial": 70, "dateTime": 1664564634987, "trialdata": {"rt": 850, "stimulus": "<p id='stroop-text' class='stroop-blue'>BLUE</p>", "response": "b", "stimulus-type": "congruent", "word": "blue", "color": "blue", "correct_response": "b", "trial_id": "stroop-trial-1-congruent-12", "trial_type": "html-keyboard-response", "trial_index": 70, "time_elapsed": 156067, "internal_node_id": "0.0-4.0-66.0"}}, {"uniqueid": "w81599640:a84219690", "current_trial": 71, "dateTime": 1664564636037, "trialdata": {"rt": 548, "stimulus": "<p id='stroop-text' class='stroop-blue'>BLUE</p>", "response": "b", "stimulus-type": "congruent", "word": "blue", "color": "blue", "correct_response": "b", "trial_id": "stroop-trial-1-congruent-22", "trial_type": "html-keyboard-response", "trial_index": 71, "time_elapsed": 157116, "internal_node_id": "0.0-4.0-67.0"}}, {"uniqueid": "w81599640:a84219690", "current_trial": 72, "dateTime": 1664564637280, "trialdata": {"rt": 741, "stimulus": "<p id='stroop-text' class='stroop-green'>GREEN</p>", "response": "r", "stimulus-type": "congruent", "word": "green", "color": "green", "correct_response": "g", "trial_id": "stroop-trial-1-congruent-3", "trial_type": "html-keyboard-response", "trial_index": 72, "time_elapsed": 158360, "internal_node_id": "0.0-4.0-68.0"}}, {"uniqueid": "w81599640:a84219690", "current_trial": 73, "dateTime": 1664564638562, "trialdata": {"rt": 781, "stimulus": "<p id='stroop-text' class='stroop-yellow'>YELLOW</p>", "response": "y", "stimulus-type": "congruent", "word": "yellow", "color": "yellow", "correct_response": "y", "trial_id": "stroop-trial-1-congruent-28", "trial_type": "html-keyboard-response", "trial_index": 73, "time_elapsed": 159642, "internal_node_id": "0.0-4.0-69.0"}}, {"uniqueid": "w81599640:a84219690", "current_trial": 74, "dateTime": 1664564640250, "trialdata": {"rt": 1187, "stimulus": "<p id='stroop-text' class='stroop-blue'>MONKEY</p>", "response": "b", "stimulus-type": "unrelated", "word": "MONKEY", "color": "blue", "correct_response": "b", "trial_id": "stroop-trial-1-unrelated-24", "trial_type": "html-keyboard-response", "trial_index": 74, "time_elapsed": 161330, "internal_node_id": "0.0-4.0-70.0"}}, {"uniqueid": "w81599640:a84219690", "current_trial": 75, "dateTime": 1664564642502, "trialdata": {"rt": 1749, "stimulus": "<p id='stroop-text' class='stroop-green'>GREEN</p>", "response": "g", "stimulus-type": "congruent", "word": "green", "color": "green", "correct_response": "g", "trial_id": "stroop-trial-1-congruent-19", "trial_type": "html-keyboard-response", "trial_index": 75, "time_elapsed": 163582, "internal_node_id": "0.0-4.0-71.0"}}, {"uniqueid": "w81599640:a84219690", "current_trial": 76, "dateTime": 1664564643888, "trialdata": {"rt": 884, "stimulus": "<p id='stroop-text' class='stroop-blue'>BLUE</p>", "response": "b", "stimulus-type": "congruent", "word": "blue", "color": "blue", "correct_response": "b", "trial_id": "stroop-trial-1-congruent-18", "trial_type": "html-keyboard-response", "trial_index": 76, "time_elapsed": 164968, "internal_node_id": "0.0-4.0-72.0"}}, {"uniqueid": "w81599640:a84219690", "current_trial": 77, "dateTime": 1664564645353, "trialdata": {"rt": 963, "stimulus": "<p id='stroop-text' class='stroop-green'>SHIP</p>", "response": "r", "stimulus-type": "unrelated", "word": "SHIP", "color": "green", "correct_response": "g", "trial_id": "stroop-trial-1-unrelated-22", "trial_type": "html-keyboard-response", "trial_index": 77, "time_elapsed": 166433, "internal_node_id": "0.0-4.0-73.0"}}, {"uniqueid": "w81599640:a84219690", "current_trial": 78, "dateTime": 1664564647159, "trialdata": {"rt": 1304, "stimulus": "<p id='stroop-text' class='stroop-green'>GREEN</p>", "response": "g", "stimulus-type": "congruent", "word": "green", "color": "green", "correct_response": "g", "trial_id": "stroop-trial-1-congruent-27", "trial_type": "html-keyboard-response", "trial_index": 78, "time_elapsed": 168239, "internal_node_id": "0.0-4.0-74.0"}}, {"uniqueid": "w81599640:a84219690", "current_trial": 79, "dateTime": 1664564648295, "trialdata": {"rt": 633, "stimulus": "<p id='stroop-text' class='stroop-red'>RED</p>", "response": "r", "stimulus-type": "congruent", "word": "red", "color": "red", "correct_response": "r", "trial_id": "stroop-trial-1-congruent-11", "trial_type": "html-keyboard-response", "trial_index": 79, "time_elapsed": 169375, "internal_node_id": "0.0-4.0-75.0"}}, {"uniqueid": "w81599640:a84219690", "current_trial": 80, "dateTime": 1664564649293, "trialdata": {"rt": 496, "stimulus": "<p id='stroop-text' class='stroop-red'>BLUE</p>", "response": "r", "stimulus-type": "incongruent", "word": "blue", "color": "red", "correct_response": "r", "trial_id": "stroop-trial-1-incongruent-16", "trial_type": "html-keyboard-response", "trial_index": 80, "time_elapsed": 170373, "internal_node_id": "0.0-4.0-76.0"}}, {"uniqueid": "w81599640:a84219690", "current_trial": 81, "dateTime": 1664564651146, "trialdata": {"rt": 1351, "stimulus": "<p id='stroop-text' class='stroop-blue'>CHAIR</p>", "response": "b", "stimulus-type": "unrelated", "word": "CHAIR", "color": "blue", "correct_response": "b", "trial_id": "stroop-trial-1-unrelated-25", "trial_type": "html-keyboard-response", "trial_index": 81, "time_elapsed": 172226, "internal_node_id": "0.0-4.0-77.0"}}, {"uniqueid": "w81599640:a84219690", "current_trial": 82, "dateTime": 1664564652451, "trialdata": {"rt": 803, "stimulus": "<p id='stroop-text' class='stroop-red'>GREEN</p>", "response": "r", "stimulus-type": "incongruent", "word": "green", "color": "red", "correct_response": "r", "trial_id": "stroop-trial-1-incongruent-29", "trial_type": "html-keyboard-response", "trial_index": 82, "time_elapsed": 173531, "internal_node_id": "0.0-4.0-78.0"}}, {"uniqueid": "w81599640:a84219690", "current_trial": 83, "dateTime": 1664564654885, "trialdata": {"rt": 1933, "stimulus": "<p id='stroop-text' class='stroop-blue'>DOG</p>", "response": "b", "stimulus-type": "unrelated", "word": "DOG", "color": "blue", "correct_response": "b", "trial_id": "stroop-trial-1-unrelated-6", "trial_type": "html-keyboard-response", "trial_index": 83, "time_elapsed": 175965, "internal_node_id": "0.0-4.0-79.0"}}, {"uniqueid": "w81599640:a84219690", "current_trial": 84, "dateTime": 1664564655821, "trialdata": {"rt": 434, "stimulus": "<p id='stroop-text' class='stroop-blue'>RED</p>", "response": "b", "stimulus-type": "incongruent", "word": "red", "color": "blue", "correct_response": "b", "trial_id": "stroop-trial-1-incongruent-24", "trial_type": "html-keyboard-response", "trial_index": 84, "time_elapsed": 176901, "internal_node_id": "0.0-4.0-80.0"}}, {"uniqueid": "w81599640:a84219690", "current_trial": 85, "dateTime": 1664564657218, "trialdata": {"rt": 894, "stimulus": "<p id='stroop-text' class='stroop-yellow'>YELLOW</p>", "response": "y", "stimulus-type": "congruent", "word": "yellow", "color": "yellow", "correct_response": "y", "trial_id": "stroop-trial-1-congruent-5", "trial_type": "html-keyboard-response", "trial_index": 85, "time_elapsed": 178298, "internal_node_id": "0.0-4.0-81.0"}}, {"uniqueid": "w81599640:a84219690", "current_trial": 86, "dateTime": 1664564658176, "trialdata": {"rt": 456, "stimulus": "<p id='stroop-text' class='stroop-red'>RED</p>", "response": "r", "stimulus-type": "congruent", "word": "red", "color": "red", "correct_response": "r", "trial_id": "stroop-trial-1-congruent-26", "trial_type": "html-keyboard-response", "trial_index": 86, "time_elapsed": 179255, "internal_node_id": "0.0-4.0-82.0"}}, {"uniqueid": "w81599640:a84219690", "current_trial": 87, "dateTime": 1664564660217, "trialdata": {"rt": 1539, "stimulus": "<p id='stroop-text' class='stroop-blue'>YELLOW</p>", "response": "b", "stimulus-type": "incongruent", "word": "yellow", "color": "blue", "correct_response": "b", "trial_id": "stroop-trial-1-incongruent-3", "trial_type": "html-keyboard-response", "trial_index": 87, "time_elapsed": 181297, "internal_node_id": "0.0-4.0-83.0"}}, {"uniqueid": "w81599640:a84219690", "current_trial": 88, "dateTime": 1664564661129, "trialdata": {"rt": 410, "stimulus": "<p id='stroop-text' class='stroop-blue'>BLUE</p>", "response": "b", "stimulus-type": "congruent", "word": "blue", "color": "blue", "correct_response": "b", "trial_id": "stroop-trial-1-congruent-21", "trial_type": "html-keyboard-response", "trial_index": 88, "time_elapsed": 182209, "internal_node_id": "0.0-4.0-84.0"}}, {"uniqueid": "w81599640:a84219690", "current_trial": 89, "dateTime": 1664564662139, "trialdata": {"rt": 507, "stimulus": "<p id='stroop-text' class='stroop-red'>DOG</p>", "response": "r", "stimulus-type": "unrelated", "word": "DOG", "color": "red", "correct_response": "r", "trial_id": "stroop-trial-1-unrelated-4", "trial_type": "html-keyboard-response", "trial_index": 89, "time_elapsed": 183218, "internal_node_id": "0.0-4.0-85.0"}}, {"uniqueid": "w81599640:a84219690", "current_trial": 90, "dateTime": 1664564663176, "trialdata": {"rt": 536, "stimulus": "<p id='stroop-text' class='stroop-green'>GREEN</p>", "response": "g", "stimulus-type": "congruent", "word": "green", "color": "green", "correct_response": "g", "trial_id": "stroop-trial-1-congruent-1", "trial_type": "html-keyboard-response", "trial_index": 90, "time_elapsed": 184256, "internal_node_id": "0.0-4.0-86.0"}}, {"uniqueid": "w81599640:a84219690", "current_trial": 91, "dateTime": 1664564664146, "trialdata": {"rt": 467, "stimulus": "<p id='stroop-text' class='stroop-blue'>WINDOW</p>", "response": "r", "stimulus-type": "unrelated", "word": "WINDOW", "color": "blue", "correct_response": "b", "trial_id": "stroop-trial-1-unrelated-1", "trial_type": "html-keyboard-response", "trial_index": 91, "time_elapsed": 185226, "internal_node_id": "0.0-4.0-87.0"}}, {"uniqueid": "w81599640:a84219690", "current_trial": 92, "dateTime": 1664564665719, "trialdata": {"rt": 1071, "stimulus": "<p id='stroop-text' class='stroop-blue'>MONKEY</p>", "response": "b", "stimulus-type": "unrelated", "word": "MONKEY", "color": "blue", "correct_response": "b", "trial_id": "stroop-trial-1-unrelated-3", "trial_type": "html-keyboard-response", "trial_index": 92, "time_elapsed": 186799, "internal_node_id": "0.0-4.0-88.0"}}, {"uniqueid": "w81599640:a84219690", "current_trial": 93, "dateTime": 1664564666922, "trialdata": {"rt": 700, "stimulus": "<p id='stroop-text' class='stroop-green'>GREEN</p>", "response": "g", "stimulus-type": "congruent", "word": "green", "color": "green", "correct_response": "g", "trial_id": "stroop-trial-1-congruent-14", "trial_type": "html-keyboard-response", "trial_index": 93, "time_elapsed": 188001, "internal_node_id": "0.0-4.0-89.0"}}, {"uniqueid": "w81599640:a84219690", "current_trial": 94, "dateTime": 1664564670828, "trialdata": {"rt": 3403, "stimulus": "  <h1> End of block! </h1>\n\n  You have reached the end of the block 1/5. If you need a short break, feel free to take one now before moving on.\n\n  <br><br>\n  In the next block, you will complete another 90 rounds of this game.\n\n  <br><br>\n  <div style='text-align: center;'>Press <code>space</code> to begin.</div>\n  <br><br>\n<div style='text-align: center;'>(If the experiment doesn't continue, try clicking on the text and then pressing <code>space</code>.)</div>", "response": " ", "trial_id": "stroop_1_ready_2", "trial_type": "html-keyboard-response", "trial_index": 94, "time_elapsed": 191908, "internal_node_id": "0.0-5.0"}}, {"uniqueid": "w81599640:a84219690", "current_trial": 95, "dateTime": 1664564671871, "trialdata": {"rt": 1041, "stimulus": "<p id='stroop-text' class='stroop-yellow'>YELLOW</p>", "response": "y", "stimulus-type": "congruent", "word": "yellow", "color": "yellow", "correct_response": "y", "trial_id": "stroop-trial-1-congruent-2", "trial_type": "html-keyboard-response", "trial_index": 95, "time_elapsed": 192951, "internal_node_id": "0.0-6.0-0.0"}}, {"uniqueid": "w81599640:a84219690", "current_trial": 96, "dateTime": 1664564673086, "trialdata": {"rt": 713, "stimulus": "<p id='stroop-text' class='stroop-blue'>BLUE</p>", "response": "b", "stimulus-type": "congruent", "word": "blue", "color": "blue", "correct_response": "b", "trial_id": "stroop-trial-1-congruent-11", "trial_type": "html-keyboard-response", "trial_index": 96, "time_elapsed": 194166, "internal_node_id": "0.0-6.0-1.0"}}, {"uniqueid": "w81599640:a84219690", "current_trial": 97, "dateTime": 1664564674432, "trialdata": {"rt": 845, "stimulus": "<p id='stroop-text' class='stroop-blue'>RED</p>", "response": "b", "stimulus-type": "incongruent", "word": "red", "color": "blue", "correct_response": "b", "trial_id": "stroop-trial-1-incongruent-29", "trial_type": "html-keyboard-response", "trial_index": 97, "time_elapsed": 195512, "internal_node_id": "0.0-6.0-2.0"}}, {"uniqueid": "w81599640:a84219690", "current_trial": 98, "dateTime": 1664564675948, "trialdata": {"rt": 1015, "stimulus": "<p id='stroop-text' class='stroop-blue'>GREEN</p>", "response": "b", "stimulus-type": "incongruent", "word": "green", "color": "blue", "correct_response": "b", "trial_id": "stroop-trial-1-incongruent-20", "trial_type": "html-keyboard-response", "trial_index": 98, "time_elapsed": 197028, "internal_node_id": "0.0-6.0-3.0"}}, {"uniqueid": "w81599640:a84219690", "current_trial": 99, "dateTime": 1664564677116, "trialdata": {"rt": 667, "stimulus": "<p id='stroop-text' class='stroop-green'>BLUE</p>", "response": "g", "stimulus-type": "incongruent", "word": "blue", "color": "green", "correct_response": "g", "trial_id": "stroop-trial-1-incongruent-2", "trial_type": "html-keyboard-response", "trial_index": 99, "time_elapsed": 198196, "internal_node_id": "0.0-6.0-4.0"}}, {"uniqueid": "w81599640:a84219690", "current_trial": 100, "dateTime": 1664564678622, "trialdata": {"rt": 1002, "stimulus": "<p id='stroop-text' class='stroop-yellow'>RED</p>", "response": "y", "stimulus-type": "incongruent", "word": "red", "color": "yellow", "correct_response": "y", "trial_id": "stroop-trial-1-incongruent-6", "trial_type": "html-keyboard-response", "trial_index": 100, "time_elapsed": 199702, "internal_node_id": "0.0-6.0-5.0"}}, {"uniqueid": "w81599640:a84219690", "current_trial": 101, "dateTime": 1664564680183, "trialdata": {"rt": 1059, "stimulus": "<p id='stroop-text' class='stroop-green'>GREEN</p>", "response": "g", "stimulus-type": "congruent", "word": "green", "color": "green", "correct_response": "g", "trial_id": "stroop-trial-1-congruent-6", "trial_type": "html-keyboard-response", "trial_index": 101, "time_elapsed": 201263, "internal_node_id": "0.0-6.0-6.0"}}, {"uniqueid": "w81599640:a84219690", "current_trial": 102, "dateTime": 1664564681154, "trialdata": {"rt": 468, "stimulus": "<p id='stroop-text' class='stroop-green'>GREEN</p>", "response": "g", "stimulus-type": "congruent", "word": "green", "color": "green", "correct_response": "g", "trial_id": "stroop-trial-1-congruent-1", "trial_type": "html-keyboard-response", "trial_index": 102, "time_elapsed": 202233, "internal_node_id": "0.0-6.0-7.0"}}, {"uniqueid": "w81599640:a84219690", "current_trial": 103, "dateTime": 1664564682254, "trialdata": {"rt": 599, "stimulus": "<p id='stroop-text' class='stroop-blue'>BRAIN</p>", "response": "b", "stimulus-type": "unrelated", "word": "BRAIN", "color": "blue", "correct_response": "b", "trial_id": "stroop-trial-1-unrelated-14", "trial_type": "html-keyboard-response", "trial_index": 103, "time_elapsed": 203334, "internal_node_id": "0.0-6.0-8.0"}}, {"uniqueid": "w81599640:a84219690", "current_trial": 104, "dateTime": 1664564683851, "trialdata": {"rt": 1094, "stimulus": "<p id='stroop-text' class='stroop-green'>YELLOW</p>", "response": "g", "stimulus-type": "incongruent", "word": "yellow", "color": "green", "correct_response": "g", "trial_id": "stroop-trial-1-incongruent-12", "trial_type": "html-keyboard-response", "trial_index": 104, "time_elapsed": 204931, "internal_node_id": "0.0-6.0-9.0"}}, {"uniqueid": "w81599640:a84219690", "current_trial": 105, "dateTime": 1664564684815, "trialdata": {"rt": 461, "stimulus": "<p id='stroop-text' class='stroop-green'>GREEN</p>", "response": "g", "stimulus-type": "congruent", "word": "green", "color": "green", "correct_response": "g", "trial_id": "stroop-trial-1-congruent-5", "trial_type": "html-keyboard-response", "trial_index": 105, "time_elapsed": 205895, "internal_node_id": "0.0-6.0-10.0"}}, {"uniqueid": "w81599640:a84219690", "current_trial": 106, "dateTime": 1664564685875, "trialdata": {"rt": 559, "stimulus": "<p id='stroop-text' class='stroop-yellow'>SHIP</p>", "response": "y", "stimulus-type": "unrelated", "word": "SHIP", "color": "yellow", "correct_response": "y", "trial_id": "stroop-trial-1-unrelated-24", "trial_type": "html-keyboard-response", "trial_index": 106, "time_elapsed": 206954, "internal_node_id": "0.0-6.0-11.0"}}, {"uniqueid": "w81599640:a84219690", "current_trial": 107, "dateTime": 1664564687061, "trialdata": {"rt": 683, "stimulus": "<p id='stroop-text' class='stroop-green'>DOG</p>", "response": "g", "stimulus-type": "unrelated", "word": "DOG", "color": "green", "correct_response": "g", "trial_id": "stroop-trial-1-unrelated-3", "trial_type": "html-keyboard-response", "trial_index": 107, "time_elapsed": 208141, "internal_node_id": "0.0-6.0-12.0"}}, {"uniqueid": "w81599640:a84219690", "current_trial": 108, "dateTime": 1664564688167, "trialdata": {"rt": 604, "stimulus": "<p id='stroop-text' class='stroop-yellow'>RED</p>", "response": "y", "stimulus-type": "incongruent", "word": "red", "color": "yellow", "correct_response": "y", "trial_id": "stroop-trial-1-incongruent-26", "trial_type": "html-keyboard-response", "trial_index": 108, "time_elapsed": 209246, "internal_node_id": "0.0-6.0-13.0"}}, {"uniqueid": "w81599640:a84219690", "current_trial": 109, "dateTime": 1664564689142, "trialdata": {"rt": 473, "stimulus": "<p id='stroop-text' class='stroop-red'>RED</p>", "response": "r", "stimulus-type": "congruent", "word": "red", "color": "red", "correct_response": "r", "trial_id": "stroop-trial-1-congruent-25", "trial_type": "html-keyboard-response", "trial_index": 109, "time_elapsed": 210222, "internal_node_id": "0.0-6.0-14.0"}}, {"uniqueid": "w81599640:a84219690", "current_trial": 110, "dateTime": 1664564690630, "trialdata": {"rt": 986, "stimulus": "<p id='stroop-text' class='stroop-blue'>RED</p>", "response": "b", "stimulus-type": "incongruent", "word": "red", "color": "blue", "correct_response": "b", "trial_id": "stroop-trial-1-incongruent-19", "trial_type": "html-keyboard-response", "trial_index": 110, "time_elapsed": 211710, "internal_node_id": "0.0-6.0-15.0"}}, {"uniqueid": "w81599640:a84219690", "current_trial": 111, "dateTime": 1664564691708, "trialdata": {"rt": 576, "stimulus": "<p id='stroop-text' class='stroop-yellow'>YELLOW</p>", "response": "y", "stimulus-type": "congruent", "word": "yellow", "color": "yellow", "correct_response": "y", "trial_id": "stroop-trial-1-congruent-3", "trial_type": "html-keyboard-response", "trial_index": 111, "time_elapsed": 212788, "internal_node_id": "0.0-6.0-16.0"}}, {"uniqueid": "w81599640:a84219690", "current_trial": 112, "dateTime": 1664564693139, "trialdata": {"rt": 928, "stimulus": "<p id='stroop-text' class='stroop-yellow'>RED</p>", "response": "y", "stimulus-type": "incongruent", "word": "red", "color": "yellow", "correct_response": "y", "trial_id": "stroop-trial-1-incongruent-21", "trial_type": "html-keyboard-response", "trial_index": 112, "time_elapsed": 214219, "internal_node_id": "0.0-6.0-17.0"}}, {"uniqueid": "w81599640:a84219690", "current_trial": 113, "dateTime": 1664564694890, "trialdata": {"rt": 1249, "stimulus": "<p id='stroop-text' class='stroop-green'>RED</p>", "response": "g", "stimulus-type": "incongruent", "word": "red", "color": "green", "correct_response": "g", "trial_id": "stroop-trial-1-incongruent-4", "trial_type": "html-keyboard-response", "trial_index": 113, "time_elapsed": 215970, "internal_node_id": "0.0-6.0-18.0"}}, {"uniqueid": "w81599640:a84219690", "current_trial": 114, "dateTime": 1664564696452, "trialdata": {"rt": 1061, "stimulus": "<p id='stroop-text' class='stroop-yellow'>YELLOW</p>", "response": "y", "stimulus-type": "congruent", "word": "yellow", "color": "yellow", "correct_response": "y", "trial_id": "stroop-trial-1-congruent-27", "trial_type": "html-keyboard-response", "trial_index": 114, "time_elapsed": 217532, "internal_node_id": "0.0-6.0-19.0"}}, {"uniqueid": "w81599640:a84219690", "current_trial": 115, "dateTime": 1664564698191, "trialdata": {"rt": 1237, "stimulus": "<p id='stroop-text' class='stroop-red'>CHAIR</p>", "response": "r", "stimulus-type": "unrelated", "word": "CHAIR", "color": "red", "correct_response": "r", "trial_id": "stroop-trial-1-unrelated-1", "trial_type": "html-keyboard-response", "trial_index": 115, "time_elapsed": 219271, "internal_node_id": "0.0-6.0-20.0"}}, {"uniqueid": "w81599640:a84219690", "current_trial": 116, "dateTime": 1664564699725, "trialdata": {"rt": 1031, "stimulus": "<p id='stroop-text' class='stroop-yellow'>YELLOW</p>", "response": "y", "stimulus-type": "congruent", "word": "yellow", "color": "yellow", "correct_response": "y", "trial_id": "stroop-trial-1-congruent-21", "trial_type": "html-keyboard-response", "trial_index": 116, "time_elapsed": 220805, "internal_node_id": "0.0-6.0-21.0"}}, {"uniqueid": "w81599640:a84219690", "current_trial": 117, "dateTime": 1664564701601, "trialdata": {"rt": 1374, "stimulus": "<p id='stroop-text' class='stroop-blue'>SHIP</p>", "response": "b", "stimulus-type": "unrelated", "word": "SHIP", "color": "blue", "correct_response": "b", "trial_id": "stroop-trial-1-unrelated-20", "trial_type": "html-keyboard-response", "trial_index": 117, "time_elapsed": 222681, "internal_node_id": "0.0-6.0-22.0"}}, {"uniqueid": "w81599640:a84219690", "current_trial": 118, "dateTime": 1664564702992, "trialdata": {"rt": 889, "stimulus": "<p id='stroop-text' class='stroop-blue'>BLUE</p>", "response": "b", "stimulus-type": "congruent", "word": "blue", "color": "blue", "correct_response": "b", "trial_id": "stroop-trial-1-congruent-4", "trial_type": "html-keyboard-response", "trial_index": 118, "time_elapsed": 224072, "internal_node_id": "0.0-6.0-23.0"}}, {"uniqueid": "w81599640:a84219690", "current_trial": 119, "dateTime": 1664564704281, "trialdata": {"rt": 788, "stimulus": "<p id='stroop-text' class='stroop-blue'>BLUE</p>", "response": "b", "stimulus-type": "congruent", "word": "blue", "color": "blue", "correct_response": "b", "trial_id": "stroop-trial-1-congruent-14", "trial_type": "html-keyboard-response", "trial_index": 119, "time_elapsed": 225361, "internal_node_id": "0.0-6.0-24.0"}}, {"uniqueid": "w81599640:a84219690", "current_trial": 120, "dateTime": 1664564705462, "trialdata": {"rt": 680, "stimulus": "<p id='stroop-text' class='stroop-green'>BOTTLE</p>", "response": "g", "stimulus-type": "unrelated", "word": "BOTTLE", "color": "green", "correct_response": "g", "trial_id": "stroop-trial-1-unrelated-25", "trial_type": "html-keyboard-response", "trial_index": 120, "time_elapsed": 226542, "internal_node_id": "0.0-6.0-25.0"}}, {"uniqueid": "w81599640:a84219690", "current_trial": 121, "dateTime": 1664564706756, "trialdata": {"rt": 791, "stimulus": "<p id='stroop-text' class='stroop-yellow'>RED</p>", "response": "y", "stimulus-type": "incongruent", "word": "red", "color": "yellow", "correct_response": "y", "trial_id": "stroop-trial-1-incongruent-10", "trial_type": "html-keyboard-response", "trial_index": 121, "time_elapsed": 227836, "internal_node_id": "0.0-6.0-26.0"}}, {"uniqueid": "w81599640:a84219690", "current_trial": 122, "dateTime": 1664564707919, "trialdata": {"rt": 662, "stimulus": "<p id='stroop-text' class='stroop-green'>GREEN</p>", "response": "g", "stimulus-type": "congruent", "word": "green", "color": "green", "correct_response": "g", "trial_id": "stroop-trial-1-congruent-9", "trial_type": "html-keyboard-response", "trial_index": 122, "time_elapsed": 228999, "internal_node_id": "0.0-6.0-27.0"}}, {"uniqueid": "w81599640:a84219690", "current_trial": 123, "dateTime": 1664564709339, "trialdata": {"rt": 918, "stimulus": "<p id='stroop-text' class='stroop-green'>BOAT</p>", "response": "g", "stimulus-type": "unrelated", "word": "BOAT", "color": "green", "correct_response": "g", "trial_id": "stroop-trial-1-unrelated-21", "trial_type": "html-keyboard-response", "trial_index": 123, "time_elapsed": 230419, "internal_node_id": "0.0-6.0-28.0"}}, {"uniqueid": "w81599640:a84219690", "current_trial": 124, "dateTime": 1664564710707, "trialdata": {"rt": 866, "stimulus": "<p id='stroop-text' class='stroop-yellow'>YELLOW</p>", "response": "y", "stimulus-type": "congruent", "word": "yellow", "color": "yellow", "correct_response": "y", "trial_id": "stroop-trial-1-congruent-24", "trial_type": "html-keyboard-response", "trial_index": 124, "time_elapsed": 231787, "internal_node_id": "0.0-6.0-29.0"}}, {"uniqueid": "w81599640:a84219690", "current_trial": 125, "dateTime": 1664564711916, "trialdata": {"rt": 708, "stimulus": "<p id='stroop-text' class='stroop-red'>BOTTLE</p>", "response": "r", "stimulus-type": "unrelated", "word": "BOTTLE", "color": "red", "correct_response": "r", "trial_id": "stroop-trial-1-unrelated-26", "trial_type": "html-keyboard-response", "trial_index": 125, "time_elapsed": 232996, "internal_node_id": "0.0-6.0-30.0"}}, {"uniqueid": "w81599640:a84219690", "current_trial": 126, "dateTime": 1664564713000, "trialdata": {"rt": 582, "stimulus": "<p id='stroop-text' class='stroop-yellow'>YELLOW</p>", "response": "y", "stimulus-type": "congruent", "word": "yellow", "color": "yellow", "correct_response": "y", "trial_id": "stroop-trial-1-congruent-29", "trial_type": "html-keyboard-response", "trial_index": 126, "time_elapsed": 234080, "internal_node_id": "0.0-6.0-31.0"}}, {"uniqueid": "w81599640:a84219690", "current_trial": 127, "dateTime": 1664564714539, "trialdata": {"rt": 1037, "stimulus": "<p id='stroop-text' class='stroop-blue'>CHAIR</p>", "response": "r", "stimulus-type": "unrelated", "word": "CHAIR", "color": "blue", "correct_response": "b", "trial_id": "stroop-trial-1-unrelated-8", "trial_type": "html-keyboard-response", "trial_index": 127, "time_elapsed": 235619, "internal_node_id": "0.0-6.0-32.0"}}, {"uniqueid": "w81599640:a84219690", "current_trial": 128, "dateTime": 1664564715799, "trialdata": {"rt": 758, "stimulus": "<p id='stroop-text' class='stroop-blue'>FORK</p>", "response": "b", "stimulus-type": "unrelated", "word": "FORK", "color": "blue", "correct_response": "b", "trial_id": "stroop-trial-1-unrelated-22", "trial_type": "html-keyboard-response", "trial_index": 128, "time_elapsed": 236879, "internal_node_id": "0.0-6.0-33.0"}}, {"uniqueid": "w81599640:a84219690", "current_trial": 129, "dateTime": 1664564717134, "trialdata": {"rt": 833, "stimulus": "<p id='stroop-text' class='stroop-red'>RED</p>", "response": "r", "stimulus-type": "congruent", "word": "red", "color": "red", "correct_response": "r", "trial_id": "stroop-trial-1-congruent-30", "trial_type": "html-keyboard-response", "trial_index": 129, "time_elapsed": 238214, "internal_node_id": "0.0-6.0-34.0"}}, {"uniqueid": "w81599640:a84219690", "current_trial": 130, "dateTime": 1664564718530, "trialdata": {"rt": 894, "stimulus": "<p id='stroop-text' class='stroop-green'>YELLOW</p>", "response": "g", "stimulus-type": "incongruent", "word": "yellow", "color": "green", "correct_response": "g", "trial_id": "stroop-trial-1-incongruent-24", "trial_type": "html-keyboard-response", "trial_index": 130, "time_elapsed": 239610, "internal_node_id": "0.0-6.0-35.0"}}, {"uniqueid": "w81599640:a84219690", "current_trial": 131, "dateTime": 1664564719654, "trialdata": {"rt": 622, "stimulus": "<p id='stroop-text' class='stroop-green'>GREEN</p>", "response": "g", "stimulus-type": "congruent", "word": "green", "color": "green", "correct_response": "g", "trial_id": "stroop-trial-1-congruent-12", "trial_type": "html-keyboard-response", "trial_index": 131, "time_elapsed": 240734, "internal_node_id": "0.0-6.0-36.0"}}, {"uniqueid": "w81599640:a84219690", "current_trial": 132, "dateTime": 1664564720669, "trialdata": {"rt": 513, "stimulus": "<p id='stroop-text' class='stroop-green'>BRAIN</p>", "response": "g", "stimulus-type": "unrelated", "word": "BRAIN", "color": "green", "correct_response": "g", "trial_id": "stroop-trial-1-unrelated-6", "trial_type": "html-keyboard-response", "trial_index": 132, "time_elapsed": 241749, "internal_node_id": "0.0-6.0-37.0"}}, {"uniqueid": "w81599640:a84219690", "current_trial": 133, "dateTime": 1664564722476, "trialdata": {"rt": 1306, "stimulus": "<p id='stroop-text' class='stroop-blue'>MONKEY</p>", "response": "b", "stimulus-type": "unrelated", "word": "MONKEY", "color": "blue", "correct_response": "b", "trial_id": "stroop-trial-1-unrelated-7", "trial_type": "html-keyboard-response", "trial_index": 133, "time_elapsed": 243556, "internal_node_id": "0.0-6.0-38.0"}}, {"uniqueid": "w81599640:a84219690", "current_trial": 134, "dateTime": 1664564723879, "trialdata": {"rt": 901, "stimulus": "<p id='stroop-text' class='stroop-yellow'>YELLOW</p>", "response": "y", "stimulus-type": "congruent", "word": "yellow", "color": "yellow", "correct_response": "y", "trial_id": "stroop-trial-1-congruent-8", "trial_type": "html-keyboard-response", "trial_index": 134, "time_elapsed": 244959, "internal_node_id": "0.0-6.0-39.0"}}, {"uniqueid": "w81599640:a84219690", "current_trial": 135, "dateTime": 1664564725778, "trialdata": {"rt": 1398, "stimulus": "<p id='stroop-text' class='stroop-blue'>RED</p>", "response": "r", "stimulus-type": "incongruent", "word": "red", "color": "blue", "correct_response": "b", "trial_id": "stroop-trial-1-incongruent-27", "trial_type": "html-keyboard-response", "trial_index": 135, "time_elapsed": 246858, "internal_node_id": "0.0-6.0-40.0"}}, {"uniqueid": "w81599640:a84219690", "current_trial": 136, "dateTime": 1664564726992, "trialdata": {"rt": 712, "stimulus": "<p id='stroop-text' class='stroop-green'>DOG</p>", "response": "g", "stimulus-type": "unrelated", "word": "DOG", "color": "green", "correct_response": "g", "trial_id": "stroop-trial-1-unrelated-27", "trial_type": "html-keyboard-response", "trial_index": 136, "time_elapsed": 248072, "internal_node_id": "0.0-6.0-41.0"}}, {"uniqueid": "w81599640:a84219690", "current_trial": 137, "dateTime": 1664564728098, "trialdata": {"rt": 605, "stimulus": "<p id='stroop-text' class='stroop-green'>BRIDGE</p>", "response": "g", "stimulus-type": "unrelated", "word": "BRIDGE", "color": "green", "correct_response": "g", "trial_id": "stroop-trial-1-unrelated-16", "trial_type": "html-keyboard-response", "trial_index": 137, "time_elapsed": 249178, "internal_node_id": "0.0-6.0-42.0"}}, {"uniqueid": "w81599640:a84219690", "current_trial": 138, "dateTime": 1664564729033, "trialdata": {"rt": 432, "stimulus": "<p id='stroop-text' class='stroop-green'>YELLOW</p>", "response": "g", "stimulus-type": "incongruent", "word": "yellow", "color": "green", "correct_response": "g", "trial_id": "stroop-trial-1-incongruent-18", "trial_type": "html-keyboard-response", "trial_index": 138, "time_elapsed": 250113, "internal_node_id": "0.0-6.0-43.0"}}, {"uniqueid": "w81599640:a84219690", "current_trial": 139, "dateTime": 1664564730168, "trialdata": {"rt": 633, "stimulus": "<p id='stroop-text' class='stroop-blue'>RED</p>", "response": "r", "stimulus-type": "incongruent", "word": "red", "color": "blue", "correct_response": "b", "trial_id": "stroop-trial-1-incongruent-16", "trial_type": "html-keyboard-response", "trial_index": 139, "time_elapsed": 251248, "internal_node_id": "0.0-6.0-44.0"}}, {"uniqueid": "w81599640:a84219690", "current_trial": 140, "dateTime": 1664564731747, "trialdata": {"rt": 1077, "stimulus": "<p id='stroop-text' class='stroop-yellow'>YELLOW</p>", "response": "y", "stimulus-type": "congruent", "word": "yellow", "color": "yellow", "correct_response": "y", "trial_id": "stroop-trial-1-congruent-16", "trial_type": "html-keyboard-response", "trial_index": 140, "time_elapsed": 252827, "internal_node_id": "0.0-6.0-45.0"}}, {"uniqueid": "w81599640:a84219690", "current_trial": 141, "dateTime": 1664564732888, "trialdata": {"rt": 639, "stimulus": "<p id='stroop-text' class='stroop-blue'>DOG</p>", "response": "b", "stimulus-type": "unrelated", "word": "DOG", "color": "blue", "correct_response": "b", "trial_id": "stroop-trial-1-unrelated-30", "trial_type": "html-keyboard-response", "trial_index": 141, "time_elapsed": 253968, "internal_node_id": "0.0-6.0-46.0"}}, {"uniqueid": "w81599640:a84219690", "current_trial": 142, "dateTime": 1664564734695, "trialdata": {"rt": 1305, "stimulus": "<p id='stroop-text' class='stroop-green'>RED</p>", "response": "g", "stimulus-type": "incongruent", "word": "red", "color": "green", "correct_response": "g", "trial_id": "stroop-trial-1-incongruent-23", "trial_type": "html-keyboard-response", "trial_index": 142, "time_elapsed": 255775, "internal_node_id": "0.0-6.0-47.0"}}, {"uniqueid": "w81599640:a84219690", "current_trial": 143, "dateTime": 1664564735705, "trialdata": {"rt": 507, "stimulus": "<p id='stroop-text' class='stroop-green'>SHIP</p>", "response": "g", "stimulus-type": "unrelated", "word": "SHIP", "color": "green", "correct_response": "g", "trial_id": "stroop-trial-1-unrelated-10", "trial_type": "html-keyboard-response", "trial_index": 143, "time_elapsed": 256785, "internal_node_id": "0.0-6.0-48.0"}}, {"uniqueid": "w81599640:a84219690", "current_trial": 144, "dateTime": 1664564737603, "trialdata": {"rt": 1396, "stimulus": "<p id='stroop-text' class='stroop-blue'>MONKEY</p>", "response": "b", "stimulus-type": "unrelated", "word": "MONKEY", "color": "blue", "correct_response": "b", "trial_id": "stroop-trial-1-unrelated-11", "trial_type": "html-keyboard-response", "trial_index": 144, "time_elapsed": 258683, "internal_node_id": "0.0-6.0-49.0"}}, {"uniqueid": "w81599640:a84219690", "current_trial": 145, "dateTime": 1664564739456, "trialdata": {"rt": 1352, "stimulus": "<p id='stroop-text' class='stroop-green'>RED</p>", "response": "r", "stimulus-type": "incongruent", "word": "red", "color": "green", "correct_response": "g", "trial_id": "stroop-trial-1-incongruent-14", "trial_type": "html-keyboard-response", "trial_index": 145, "time_elapsed": 260536, "internal_node_id": "0.0-6.0-50.0"}}, {"uniqueid": "w81599640:a84219690", "current_trial": 146, "dateTime": 1664564741361, "trialdata": {"rt": 1402, "stimulus": "<p id='stroop-text' class='stroop-red'>BLUE</p>", "response": "r", "stimulus-type": "incongruent", "word": "blue", "color": "red", "correct_response": "r", "trial_id": "stroop-trial-1-incongruent-22", "trial_type": "html-keyboard-response", "trial_index": 146, "time_elapsed": 262441, "internal_node_id": "0.0-6.0-51.0"}}, {"uniqueid": "w81599640:a84219690", "current_trial": 147, "dateTime": 1664564742513, "trialdata": {"rt": 650, "stimulus": "<p id='stroop-text' class='stroop-green'>GREEN</p>", "response": "g", "stimulus-type": "congruent", "word": "green", "color": "green", "correct_response": "g", "trial_id": "stroop-trial-1-congruent-22", "trial_type": "html-keyboard-response", "trial_index": 147, "time_elapsed": 263592, "internal_node_id": "0.0-6.0-52.0"}}, {"uniqueid": "w81599640:a84219690", "current_trial": 148, "dateTime": 1664564743687, "trialdata": {"rt": 673, "stimulus": "<p id='stroop-text' class='stroop-blue'>RED</p>", "response": "b", "stimulus-type": "incongruent", "word": "red", "color": "blue", "correct_response": "b", "trial_id": "stroop-trial-1-incongruent-30", "trial_type": "html-keyboard-response", "trial_index": 148, "time_elapsed": 264767, "internal_node_id": "0.0-6.0-53.0"}}, {"uniqueid": "w81599640:a84219690", "current_trial": 149, "dateTime": 1664564744622, "trialdata": {"rt": 433, "stimulus": "<p id='stroop-text' class='stroop-blue'>BLUE</p>", "response": "b", "stimulus-type": "congruent", "word": "blue", "color": "blue", "correct_response": "b", "trial_id": "stroop-trial-1-congruent-19", "trial_type": "html-keyboard-response", "trial_index": 149, "time_elapsed": 265702, "internal_node_id": "0.0-6.0-54.0"}}, {"uniqueid": "w81599640:a84219690", "current_trial": 150, "dateTime": 1664564746105, "trialdata": {"rt": 981, "stimulus": "<p id='stroop-text' class='stroop-yellow'>RED</p>", "response": "y", "stimulus-type": "incongruent", "word": "red", "color": "yellow", "correct_response": "y", "trial_id": "stroop-trial-1-incongruent-15", "trial_type": "html-keyboard-response", "trial_index": 150, "time_elapsed": 267185, "internal_node_id": "0.0-6.0-55.0"}}, {"uniqueid": "w81599640:a84219690", "current_trial": 151, "dateTime": 1664564747787, "trialdata": {"rt": 1180, "stimulus": "<p id='stroop-text' class='stroop-blue'>BLUE</p>", "response": "b", "stimulus-type": "congruent", "word": "blue", "color": "blue", "correct_response": "b", "trial_id": "stroop-trial-1-congruent-20", "trial_type": "html-keyboard-response", "trial_index": 151, "time_elapsed": 268867, "internal_node_id": "0.0-6.0-56.0"}}, {"uniqueid": "w81599640:a84219690", "current_trial": 152, "dateTime": 1664564749121, "trialdata": {"rt": 831, "stimulus": "<p id='stroop-text' class='stroop-yellow'>YELLOW</p>", "response": "y", "stimulus-type": "congruent", "word": "yellow", "color": "yellow", "correct_response": "y", "trial_id": "stroop-trial-1-congruent-18", "trial_type": "html-keyboard-response", "trial_index": 152, "time_elapsed": 270201, "internal_node_id": "0.0-6.0-57.0"}}, {"uniqueid": "w81599640:a84219690", "current_trial": 153, "dateTime": 1664564750712, "trialdata": {"rt": 1087, "stimulus": "<p id='stroop-text' class='stroop-green'>BLUE</p>", "response": "g", "stimulus-type": "incongruent", "word": "blue", "color": "green", "correct_response": "g", "trial_id": "stroop-trial-1-incongruent-8", "trial_type": "html-keyboard-response", "trial_index": 153, "time_elapsed": 271792, "internal_node_id": "0.0-6.0-58.0"}}, {"uniqueid": "w81599640:a84219690", "current_trial": 154, "dateTime": 1664564752434, "trialdata": {"rt": 1219, "stimulus": "<p id='stroop-text' class='stroop-blue'>RED</p>", "response": "r", "stimulus-type": "incongruent", "word": "red", "color": "blue", "correct_response": "b", "trial_id": "stroop-trial-1-incongruent-1", "trial_type": "html-keyboard-response", "trial_index": 154, "time_elapsed": 273514, "internal_node_id": "0.0-6.0-59.0"}}, {"uniqueid": "w81599640:a84219690", "current_trial": 155, "dateTime": 1664564754128, "trialdata": {"rt": 1191, "stimulus": "<p id='stroop-text' class='stroop-yellow'>RED</p>", "response": "y", "stimulus-type": "incongruent", "word": "red", "color": "yellow", "correct_response": "y", "trial_id": "stroop-trial-1-incongruent-13", "trial_type": "html-keyboard-response", "trial_index": 155, "time_elapsed": 275207, "internal_node_id": "0.0-6.0-60.0"}}, {"uniqueid": "w81599640:a84219690", "current_trial": 156, "dateTime": 1664564755987, "trialdata": {"rt": 1358, "stimulus": "<p id='stroop-text' class='stroop-green'>YELLOW</p>", "response": "g", "stimulus-type": "incongruent", "word": "yellow", "color": "green", "correct_response": "g", "trial_id": "stroop-trial-1-incongruent-28", "trial_type": "html-keyboard-response", "trial_index": 156, "time_elapsed": 277067, "internal_node_id": "0.0-6.0-61.0"}}, {"uniqueid": "w81599640:a84219690", "current_trial": 157, "dateTime": 1664564757053, "trialdata": {"rt": 564, "stimulus": "<p id='stroop-text' class='stroop-green'>BLUE</p>", "response": "g", "stimulus-type": "incongruent", "word": "blue", "color": "green", "correct_response": "g", "trial_id": "stroop-trial-1-incongruent-5", "trial_type": "html-keyboard-response", "trial_index": 157, "time_elapsed": 278133, "internal_node_id": "0.0-6.0-62.0"}}, {"uniqueid": "w81599640:a84219690", "current_trial": 158, "dateTime": 1664564758188, "trialdata": {"rt": 632, "stimulus": "<p id='stroop-text' class='stroop-red'>BRIDGE</p>", "response": "r", "stimulus-type": "unrelated", "word": "BRIDGE", "color": "red", "correct_response": "r", "trial_id": "stroop-trial-1-unrelated-12", "trial_type": "html-keyboard-response", "trial_index": 158, "time_elapsed": 279267, "internal_node_id": "0.0-6.0-63.0"}}, {"uniqueid": "w81599640:a84219690", "current_trial": 159, "dateTime": 1664564759699, "trialdata": {"rt": 1010, "stimulus": "<p id='stroop-text' class='stroop-green'>FORK</p>", "response": "g", "stimulus-type": "unrelated", "word": "FORK", "color": "green", "correct_response": "g", "trial_id": "stroop-trial-1-unrelated-5", "trial_type": "html-keyboard-response", "trial_index": 159, "time_elapsed": 280779, "internal_node_id": "0.0-6.0-64.0"}}, {"uniqueid": "w81599640:a84219690", "current_trial": 160, "dateTime": 1664564760748, "trialdata": {"rt": 546, "stimulus": "<p id='stroop-text' class='stroop-yellow'>YELLOW</p>", "response": "y", "stimulus-type": "congruent", "word": "yellow", "color": "yellow", "correct_response": "y", "trial_id": "stroop-trial-1-congruent-17", "trial_type": "html-keyboard-response", "trial_index": 160, "time_elapsed": 281828, "internal_node_id": "0.0-6.0-65.0"}}, {"uniqueid": "w81599640:a84219690", "current_trial": 161, "dateTime": 1664564762242, "trialdata": {"rt": 991, "stimulus": "<p id='stroop-text' class='stroop-green'>FORK</p>", "response": "g", "stimulus-type": "unrelated", "word": "FORK", "color": "green", "correct_response": "g", "trial_id": "stroop-trial-1-unrelated-2", "trial_type": "html-keyboard-response", "trial_index": 161, "time_elapsed": 283322, "internal_node_id": "0.0-6.0-66.0"}}, {"uniqueid": "w81599640:a84219690", "current_trial": 162, "dateTime": 1664564763394, "trialdata": {"rt": 650, "stimulus": "<p id='stroop-text' class='stroop-yellow'>BOAT</p>", "response": "y", "stimulus-type": "unrelated", "word": "BOAT", "color": "yellow", "correct_response": "y", "trial_id": "stroop-trial-1-unrelated-18", "trial_type": "html-keyboard-response", "trial_index": 162, "time_elapsed": 284474, "internal_node_id": "0.0-6.0-67.0"}}, {"uniqueid": "w81599640:a84219690", "current_trial": 163, "dateTime": 1664564764671, "trialdata": {"rt": 774, "stimulus": "<p id='stroop-text' class='stroop-red'>YELLOW</p>", "response": "r", "stimulus-type": "incongruent", "word": "yellow", "color": "red", "correct_response": "r", "trial_id": "stroop-trial-1-incongruent-3", "trial_type": "html-keyboard-response", "trial_index": 163, "time_elapsed": 285750, "internal_node_id": "0.0-6.0-68.0"}}, {"uniqueid": "w81599640:a84219690", "current_trial": 164, "dateTime": 1664564765869, "trialdata": {"rt": 696, "stimulus": "<p id='stroop-text' class='stroop-green'>BOTTLE</p>", "response": "g", "stimulus-type": "unrelated", "word": "BOTTLE", "color": "green", "correct_response": "g", "trial_id": "stroop-trial-1-unrelated-15", "trial_type": "html-keyboard-response", "trial_index": 164, "time_elapsed": 286948, "internal_node_id": "0.0-6.0-69.0"}}, {"uniqueid": "w81599640:a84219690", "current_trial": 165, "dateTime": 1664564767004, "trialdata": {"rt": 634, "stimulus": "<p id='stroop-text' class='stroop-yellow'>YELLOW</p>", "response": "y", "stimulus-type": "congruent", "word": "yellow", "color": "yellow", "correct_response": "y", "trial_id": "stroop-trial-1-congruent-10", "trial_type": "html-keyboard-response", "trial_index": 165, "time_elapsed": 288084, "internal_node_id": "0.0-6.0-70.0"}}, {"uniqueid": "w81599640:a84219690", "current_trial": 166, "dateTime": 1664564768230, "trialdata": {"rt": 723, "stimulus": "<p id='stroop-text' class='stroop-red'>FORK</p>", "response": "r", "stimulus-type": "unrelated", "word": "FORK", "color": "red", "correct_response": "r", "trial_id": "stroop-trial-1-unrelated-28", "trial_type": "html-keyboard-response", "trial_index": 166, "time_elapsed": 289310, "internal_node_id": "0.0-6.0-71.0"}}, {"uniqueid": "w81599640:a84219690", "current_trial": 167, "dateTime": 1664564769484, "trialdata": {"rt": 752, "stimulus": "<p id='stroop-text' class='stroop-green'>BOTTLE</p>", "response": "g", "stimulus-type": "unrelated", "word": "BOTTLE", "color": "green", "correct_response": "g", "trial_id": "stroop-trial-1-unrelated-29", "trial_type": "html-keyboard-response", "trial_index": 167, "time_elapsed": 290564, "internal_node_id": "0.0-6.0-72.0"}}, {"uniqueid": "w81599640:a84219690", "current_trial": 168, "dateTime": 1664564770511, "trialdata": {"rt": 525, "stimulus": "<p id='stroop-text' class='stroop-blue'>BLUE</p>", "response": "b", "stimulus-type": "congruent", "word": "blue", "color": "blue", "correct_response": "b", "trial_id": "stroop-trial-1-congruent-26", "trial_type": "html-keyboard-response", "trial_index": 168, "time_elapsed": 291590, "internal_node_id": "0.0-6.0-73.0"}}, {"uniqueid": "w81599640:a84219690", "current_trial": 169, "dateTime": 1664564771919, "trialdata": {"rt": 906, "stimulus": "<p id='stroop-text' class='stroop-red'>BOTTLE</p>", "response": "r", "stimulus-type": "unrelated", "word": "BOTTLE", "color": "red", "correct_response": "r", "trial_id": "stroop-trial-1-unrelated-23", "trial_type": "html-keyboard-response", "trial_index": 169, "time_elapsed": 292999, "internal_node_id": "0.0-6.0-74.0"}}, {"uniqueid": "w81599640:a84219690", "current_trial": 170, "dateTime": 1664564773254, "trialdata": {"rt": 831, "stimulus": "<p id='stroop-text' class='stroop-yellow'>YELLOW</p>", "response": "y", "stimulus-type": "congruent", "word": "yellow", "color": "yellow", "correct_response": "y", "trial_id": "stroop-trial-1-congruent-13", "trial_type": "html-keyboard-response", "trial_index": 170, "time_elapsed": 294334, "internal_node_id": "0.0-6.0-75.0"}}, {"uniqueid": "w81599640:a84219690", "current_trial": 171, "dateTime": 1664564774879, "trialdata": {"rt": 1123, "stimulus": "<p id='stroop-text' class='stroop-green'>RED</p>", "response": "g", "stimulus-type": "incongruent", "word": "red", "color": "green", "correct_response": "g", "trial_id": "stroop-trial-1-incongruent-7", "trial_type": "html-keyboard-response", "trial_index": 171, "time_elapsed": 295959, "internal_node_id": "0.0-6.0-76.0"}}, {"uniqueid": "w81599640:a84219690", "current_trial": 172, "dateTime": 1664564775951, "trialdata": {"rt": 569, "stimulus": "<p id='stroop-text' class='stroop-blue'>BLUE</p>", "response": "b", "stimulus-type": "congruent", "word": "blue", "color": "blue", "correct_response": "b", "trial_id": "stroop-trial-1-congruent-15", "trial_type": "html-keyboard-response", "trial_index": 172, "time_elapsed": 297031, "internal_node_id": "0.0-6.0-77.0"}}, {"uniqueid": "w81599640:a84219690", "current_trial": 173, "dateTime": 1664564777451, "trialdata": {"rt": 998, "stimulus": "<p id='stroop-text' class='stroop-green'>YELLOW</p>", "response": "g", "stimulus-type": "incongruent", "word": "yellow", "color": "green", "correct_response": "g", "trial_id": "stroop-trial-1-incongruent-9", "trial_type": "html-keyboard-response", "trial_index": 173, "time_elapsed": 298531, "internal_node_id": "0.0-6.0-78.0"}}, {"uniqueid": "w81599640:a84219690", "current_trial": 174, "dateTime": 1664564778568, "trialdata": {"rt": 615, "stimulus": "<p id='stroop-text' class='stroop-yellow'>GREEN</p>", "response": "y", "stimulus-type": "incongruent", "word": "green", "color": "yellow", "correct_response": "y", "trial_id": "stroop-trial-1-incongruent-11", "trial_type": "html-keyboard-response", "trial_index": 174, "time_elapsed": 299648, "internal_node_id": "0.0-6.0-79.0"}}, {"uniqueid": "w81599640:a84219690", "current_trial": 175, "dateTime": 1664564779686, "trialdata": {"rt": 616, "stimulus": "<p id='stroop-text' class='stroop-green'>SHIP</p>", "response": "g", "stimulus-type": "unrelated", "word": "SHIP", "color": "green", "correct_response": "g", "trial_id": "stroop-trial-1-unrelated-17", "trial_type": "html-keyboard-response", "trial_index": 175, "time_elapsed": 300765, "internal_node_id": "0.0-6.0-80.0"}}, {"uniqueid": "w81599640:a84219690", "current_trial": 176, "dateTime": 1664564780655, "trialdata": {"rt": 466, "stimulus": "<p id='stroop-text' class='stroop-green'>GREEN</p>", "response": "g", "stimulus-type": "congruent", "word": "green", "color": "green", "correct_response": "g", "trial_id": "stroop-trial-1-congruent-7", "trial_type": "html-keyboard-response", "trial_index": 176, "time_elapsed": 301735, "internal_node_id": "0.0-6.0-81.0"}}, {"uniqueid": "w81599640:a84219690", "current_trial": 177, "dateTime": 1664564781608, "trialdata": {"rt": 451, "stimulus": "<p id='stroop-text' class='stroop-blue'>DOG</p>", "response": "r", "stimulus-type": "unrelated", "word": "DOG", "color": "blue", "correct_response": "b", "trial_id": "stroop-trial-1-unrelated-4", "trial_type": "html-keyboard-response", "trial_index": 177, "time_elapsed": 302688, "internal_node_id": "0.0-6.0-82.0"}}, {"uniqueid": "w81599640:a84219690", "current_trial": 178, "dateTime": 1664564783837, "trialdata": {"rt": 1727, "stimulus": "<p id='stroop-text' class='stroop-green'>GREEN</p>", "response": "g", "stimulus-type": "congruent", "word": "green", "color": "green", "correct_response": "g", "trial_id": "stroop-trial-1-congruent-28", "trial_type": "html-keyboard-response", "trial_index": 178, "time_elapsed": 304917, "internal_node_id": "0.0-6.0-83.0"}}, {"uniqueid": "w81599640:a84219690", "current_trial": 179, "dateTime": 1664564785444, "trialdata": {"rt": 1104, "stimulus": "<p id='stroop-text' class='stroop-red'>GREEN</p>", "response": "r", "stimulus-type": "incongruent", "word": "green", "color": "red", "correct_response": "r", "trial_id": "stroop-trial-1-incongruent-17", "trial_type": "html-keyboard-response", "trial_index": 179, "time_elapsed": 306524, "internal_node_id": "0.0-6.0-84.0"}}, {"uniqueid": "w81599640:a84219690", "current_trial": 180, "dateTime": 1664564786751, "trialdata": {"rt": 803, "stimulus": "<p id='stroop-text' class='stroop-yellow'>YELLOW</p>", "response": "y", "stimulus-type": "congruent", "word": "yellow", "color": "yellow", "correct_response": "y", "trial_id": "stroop-trial-1-congruent-23", "trial_type": "html-keyboard-response", "trial_index": 180, "time_elapsed": 307831, "internal_node_id": "0.0-6.0-85.0"}}, {"uniqueid": "w81599640:a84219690", "current_trial": 181, "dateTime": 1664564787868, "trialdata": {"rt": 614, "stimulus": "<p id='stroop-text' class='stroop-blue'>BOAT</p>", "response": "b", "stimulus-type": "unrelated", "word": "BOAT", "color": "blue", "correct_response": "b", "trial_id": "stroop-trial-1-unrelated-13", "trial_type": "html-keyboard-response", "trial_index": 181, "time_elapsed": 308948, "internal_node_id": "0.0-6.0-86.0"}}, {"uniqueid": "w81599640:a84219690", "current_trial": 182, "dateTime": 1664564788946, "trialdata": {"rt": 577, "stimulus": "<p id='stroop-text' class='stroop-blue'>BRAIN</p>", "response": "b", "stimulus-type": "unrelated", "word": "BRAIN", "color": "blue", "correct_response": "b", "trial_id": "stroop-trial-1-unrelated-9", "trial_type": "html-keyboard-response", "trial_index": 182, "time_elapsed": 310026, "internal_node_id": "0.0-6.0-87.0"}}, {"uniqueid": "w81599640:a84219690", "current_trial": 183, "dateTime": 1664564789904, "trialdata": {"rt": 456, "stimulus": "<p id='stroop-text' class='stroop-blue'>CHAIR</p>", "response": "b", "stimulus-type": "unrelated", "word": "CHAIR", "color": "blue", "correct_response": "b", "trial_id": "stroop-trial-1-unrelated-19", "trial_type": "html-keyboard-response", "trial_index": 183, "time_elapsed": 310984, "internal_node_id": "0.0-6.0-88.0"}}, {"uniqueid": "w81599640:a84219690", "current_trial": 184, "dateTime": 1664564792498, "trialdata": {"rt": 2091, "stimulus": "<p id='stroop-text' class='stroop-green'>BLUE</p>", "response": "g", "stimulus-type": "incongruent", "word": "blue", "color": "green", "correct_response": "g", "trial_id": "stroop-trial-1-incongruent-25", "trial_type": "html-keyboard-response", "trial_index": 184, "time_elapsed": 313578, "internal_node_id": "0.0-6.0-89.0"}}, {"uniqueid": "w81599640:a84219690", "current_trial": 185, "dateTime": 1664564801735, "trialdata": {"rt": 8733, "stimulus": "  <h1> End of block! </h1>\n\n  You have reached the end of the block 2/5. If you need a short break, feel free to take one now before moving on.\n\n  <br><br>\n  In the next block, you will complete another 90 rounds of this game.\n\n  <br><br>\n  <div style='text-align: center;'>Press <code>space</code> to begin.</div>\n  <br><br>\n<div style='text-align: center;'>(If the experiment doesn't continue, try clicking on the text and then pressing <code>space</code>.)</div>", "response": " ", "trial_id": "stroop_1_ready_3", "trial_type": "html-keyboard-response", "trial_index": 185, "time_elapsed": 322815, "internal_node_id": "0.0-7.0"}}, {"uniqueid": "w81599640:a84219690", "current_trial": 186, "dateTime": 1664564802676, "trialdata": {"rt": 938, "stimulus": "<p id='stroop-text' class='stroop-yellow'>RED</p>", "response": "y", "stimulus-type": "incongruent", "word": "red", "color": "yellow", "correct_response": "y", "trial_id": "stroop-trial-1-incongruent-20", "trial_type": "html-keyboard-response", "trial_index": 186, "time_elapsed": 323756, "internal_node_id": "0.0-8.0-0.0"}}, {"uniqueid": "w81599640:a84219690", "current_trial": 187, "dateTime": 1664564803634, "trialdata": {"rt": 456, "stimulus": "<p id='stroop-text' class='stroop-yellow'>WINDOW</p>", "response": "y", "stimulus-type": "unrelated", "word": "WINDOW", "color": "yellow", "correct_response": "y", "trial_id": "stroop-trial-1-unrelated-24", "trial_type": "html-keyboard-response", "trial_index": 187, "time_elapsed": 324714, "internal_node_id": "0.0-8.0-1.0"}}, {"uniqueid": "w81599640:a84219690", "current_trial": 188, "dateTime": 1664564805829, "trialdata": {"rt": 1692, "stimulus": "<p id='stroop-text' class='stroop-blue'>BLUE</p>", "response": "b", "stimulus-type": "congruent", "word": "blue", "color": "blue", "correct_response": "b", "trial_id": "stroop-trial-1-congruent-17", "trial_type": "html-keyboard-response", "trial_index": 188, "time_elapsed": 326908, "internal_node_id": "0.0-8.0-2.0"}}, {"uniqueid": "w81599640:a84219690", "current_trial": 189, "dateTime": 1664564807568, "trialdata": {"rt": 1236, "stimulus": "<p id='stroop-text' class='stroop-yellow'>BLUE</p>", "response": "y", "stimulus-type": "incongruent", "word": "blue", "color": "yellow", "correct_response": "y", "trial_id": "stroop-trial-1-incongruent-22", "trial_type": "html-keyboard-response", "trial_index": 189, "time_elapsed": 328648, "internal_node_id": "0.0-8.0-3.0"}}, {"uniqueid": "w81599640:a84219690", "current_trial": 190, "dateTime": 1664564808577, "trialdata": {"rt": 506, "stimulus": "<p id='stroop-text' class='stroop-yellow'>YELLOW</p>", "response": "y", "stimulus-type": "congruent", "word": "yellow", "color": "yellow", "correct_response": "y", "trial_id": "stroop-trial-1-congruent-5", "trial_type": "html-keyboard-response", "trial_index": 190, "time_elapsed": 329657, "internal_node_id": "0.0-8.0-4.0"}}, {"uniqueid": "w81599640:a84219690", "current_trial": 191, "dateTime": 1664564810048, "trialdata": {"rt": 969, "stimulus": "<p id='stroop-text' class='stroop-blue'>BLUE</p>", "response": "g", "stimulus-type": "congruent", "word": "blue", "color": "blue", "correct_response": "b", "trial_id": "stroop-trial-1-congruent-3", "trial_type": "html-keyboard-response", "trial_index": 191, "time_elapsed": 331128, "internal_node_id": "0.0-8.0-5.0"}}, {"uniqueid": "w81599640:a84219690", "current_trial": 192, "dateTime": 1664564811394, "trialdata": {"rt": 842, "stimulus": "<p id='stroop-text' class='stroop-red'>BLUE</p>", "response": "r", "stimulus-type": "incongruent", "word": "blue", "color": "red", "correct_response": "r", "trial_id": "stroop-trial-1-incongruent-24", "trial_type": "html-keyboard-response", "trial_index": 192, "time_elapsed": 332474, "internal_node_id": "0.0-8.0-6.0"}}, {"uniqueid": "w81599640:a84219690", "current_trial": 193, "dateTime": 1664564813316, "trialdata": {"rt": 1420, "stimulus": "<p id='stroop-text' class='stroop-blue'>SHIP</p>", "response": "b", "stimulus-type": "unrelated", "word": "SHIP", "color": "blue", "correct_response": "b", "trial_id": "stroop-trial-1-unrelated-21", "trial_type": "html-keyboard-response", "trial_index": 193, "time_elapsed": 334396, "internal_node_id": "0.0-8.0-7.0"}}, {"uniqueid": "w81599640:a84219690", "current_trial": 194, "dateTime": 1664564815026, "trialdata": {"rt": 1207, "stimulus": "<p id='stroop-text' class='stroop-blue'>GREEN</p>", "response": "b", "stimulus-type": "incongruent", "word": "green", "color": "blue", "correct_response": "b", "trial_id": "stroop-trial-1-incongruent-25", "trial_type": "html-keyboard-response", "trial_index": 194, "time_elapsed": 336105, "internal_node_id": "0.0-8.0-8.0"}}, {"uniqueid": "w81599640:a84219690", "current_trial": 195, "dateTime": 1664564816138, "trialdata": {"rt": 609, "stimulus": "<p id='stroop-text' class='stroop-red'>BLUE</p>", "response": "r", "stimulus-type": "incongruent", "word": "blue", "color": "red", "correct_response": "r", "trial_id": "stroop-trial-1-incongruent-10", "trial_type": "html-keyboard-response", "trial_index": 195, "time_elapsed": 337218, "internal_node_id": "0.0-8.0-9.0"}}, {"uniqueid": "w81599640:a84219690", "current_trial": 196, "dateTime": 1664564817318, "trialdata": {"rt": 678, "stimulus": "<p id='stroop-text' class='stroop-blue'>GREEN</p>", "response": "b", "stimulus-type": "incongruent", "word": "green", "color": "blue", "correct_response": "b", "trial_id": "stroop-trial-1-incongruent-26", "trial_type": "html-keyboard-response", "trial_index": 196, "time_elapsed": 338398, "internal_node_id": "0.0-8.0-10.0"}}, {"uniqueid": "w81599640:a84219690", "current_trial": 197, "dateTime": 1664564818999, "trialdata": {"rt": 1180, "stimulus": "<p id='stroop-text' class='stroop-yellow'>YELLOW</p>", "response": "y", "stimulus-type": "congruent", "word": "yellow", "color": "yellow", "correct_response": "y", "trial_id": "stroop-trial-1-congruent-27", "trial_type": "html-keyboard-response", "trial_index": 197, "time_elapsed": 340079, "internal_node_id": "0.0-8.0-11.0"}}, {"uniqueid": "w81599640:a84219690", "current_trial": 198, "dateTime": 1664564820858, "trialdata": {"rt": 1357, "stimulus": "<p id='stroop-text' class='stroop-green'>GREEN</p>", "response": "g", "stimulus-type": "congruent", "word": "green", "color": "green", "correct_response": "g", "trial_id": "stroop-trial-1-congruent-4", "trial_type": "html-keyboard-response", "trial_index": 198, "time_elapsed": 341938, "internal_node_id": "0.0-8.0-12.0"}}, {"uniqueid": "w81599640:a84219690", "current_trial": 199, "dateTime": 1664564822334, "trialdata": {"rt": 974, "stimulus": "<p id='stroop-text' class='stroop-green'>BOTTLE</p>", "response": "g", "stimulus-type": "unrelated", "word": "BOTTLE", "color": "green", "correct_response": "g", "trial_id": "stroop-trial-1-unrelated-30", "trial_type": "html-keyboard-response", "trial_index": 199, "time_elapsed": 343414, "internal_node_id": "0.0-8.0-13.0"}}, {"uniqueid": "w81599640:a84219690", "current_trial": 200, "dateTime": 1664564824364, "trialdata": {"rt": 1528, "stimulus": "<p id='stroop-text' class='stroop-yellow'>BLUE</p>", "response": "y", "stimulus-type": "incongruent", "word": "blue", "color": "yellow", "correct_response": "y", "trial_id": "stroop-trial-1-incongruent-13", "trial_type": "html-keyboard-response", "trial_index": 200, "time_elapsed": 345444, "internal_node_id": "0.0-8.0-14.0"}}, {"uniqueid": "w81599640:a84219690", "current_trial": 201, "dateTime": 1664564826810, "trialdata": {"rt": 1944, "stimulus": "<p id='stroop-text' class='stroop-red'>GREEN</p>", "response": "r", "stimulus-type": "incongruent", "word": "green", "color": "red", "correct_response": "r", "trial_id": "stroop-trial-1-incongruent-3", "trial_type": "html-keyboard-response", "trial_index": 201, "time_elapsed": 347890, "internal_node_id": "0.0-8.0-15.0"}}, {"uniqueid": "w81599640:a84219690", "current_trial": 202, "dateTime": 1664564828241, "trialdata": {"rt": 929, "stimulus": "<p id='stroop-text' class='stroop-blue'>GREEN</p>", "response": "b", "stimulus-type": "incongruent", "word": "green", "color": "blue", "correct_response": "b", "trial_id": "stroop-trial-1-incongruent-30", "trial_type": "html-keyboard-response", "trial_index": 202, "time_elapsed": 349321, "internal_node_id": "0.0-8.0-16.0"}}, {"uniqueid": "w81599640:a84219690", "current_trial": 203, "dateTime": 1664564829895, "trialdata": {"rt": 1152, "stimulus": "<p id='stroop-text' class='stroop-yellow'>BLUE</p>", "response": "y", "stimulus-type": "incongruent", "word": "blue", "color": "yellow", "correct_response": "y", "trial_id": "stroop-trial-1-incongruent-11", "trial_type": "html-keyboard-response", "trial_index": 203, "time_elapsed": 350974, "internal_node_id": "0.0-8.0-17.0"}}, {"uniqueid": "w81599640:a84219690", "current_trial": 204, "dateTime": 1664564832358, "trialdata": {"rt": 1961, "stimulus": "<p id='stroop-text' class='stroop-yellow'>BRAIN</p>", "response": "y", "stimulus-type": "unrelated", "word": "BRAIN", "color": "yellow", "correct_response": "y", "trial_id": "stroop-trial-1-unrelated-22", "trial_type": "html-keyboard-response", "trial_index": 204, "time_elapsed": 353437, "internal_node_id": "0.0-8.0-18.0"}}, {"uniqueid": "w81599640:a84219690", "current_trial": 205, "dateTime": 1664564833822, "trialdata": {"rt": 963, "stimulus": "<p id='stroop-text' class='stroop-blue'>YELLOW</p>", "response": "b", "stimulus-type": "incongruent", "word": "yellow", "color": "blue", "correct_response": "b", "trial_id": "stroop-trial-1-incongruent-1", "trial_type": "html-keyboard-response", "trial_index": 205, "time_elapsed": 354902, "internal_node_id": "0.0-8.0-19.0"}}, {"uniqueid": "w81599640:a84219690", "current_trial": 206, "dateTime": 1664564834929, "trialdata": {"rt": 605, "stimulus": "<p id='stroop-text' class='stroop-blue'>GREEN</p>", "response": "b", "stimulus-type": "incongruent", "word": "green", "color": "blue", "correct_response": "b", "trial_id": "stroop-trial-1-incongruent-18", "trial_type": "html-keyboard-response", "trial_index": 206, "time_elapsed": 356009, "internal_node_id": "0.0-8.0-20.0"}}, {"uniqueid": "w81599640:a84219690", "current_trial": 207, "dateTime": 1664564836588, "trialdata": {"rt": 1157, "stimulus": "<p id='stroop-text' class='stroop-blue'>DOG</p>", "response": "b", "stimulus-type": "unrelated", "word": "DOG", "color": "blue", "correct_response": "b", "trial_id": "stroop-trial-1-unrelated-6", "trial_type": "html-keyboard-response", "trial_index": 207, "time_elapsed": 357668, "internal_node_id": "0.0-8.0-21.0"}}, {"uniqueid": "w81599640:a84219690", "current_trial": 208, "dateTime": 1664564838254, "trialdata": {"rt": 1163, "stimulus": "<p id='stroop-text' class='stroop-green'>GREEN</p>", "response": "g", "stimulus-type": "congruent", "word": "green", "color": "green", "correct_response": "g", "trial_id": "stroop-trial-1-congruent-22", "trial_type": "html-keyboard-response", "trial_index": 208, "time_elapsed": 359334, "internal_node_id": "0.0-8.0-22.0"}}, {"uniqueid": "w81599640:a84219690", "current_trial": 209, "dateTime": 1664564839719, "trialdata": {"rt": 962, "stimulus": "<p id='stroop-text' class='stroop-green'>GREEN</p>", "response": "g", "stimulus-type": "congruent", "word": "green", "color": "green", "correct_response": "g", "trial_id": "stroop-trial-1-congruent-25", "trial_type": "html-keyboard-response", "trial_index": 209, "time_elapsed": 360798, "internal_node_id": "0.0-8.0-23.0"}}, {"uniqueid": "w81599640:a84219690", "current_trial": 210, "dateTime": 1664564844479, "trialdata": {"rt": 4258, "stimulus": "<p id='stroop-text' class='stroop-blue'>GREEN</p>", "response": "b", "stimulus-type": "incongruent", "word": "green", "color": "blue", "correct_response": "b", "trial_id": "stroop-trial-1-incongruent-21", "trial_type": "html-keyboard-response", "trial_index": 210, "time_elapsed": 365558, "internal_node_id": "0.0-8.0-24.0"}}, {"uniqueid": "w81599640:a84219690", "current_trial": 211, "dateTime": 1664564847940, "trialdata": {"rt": 2959, "stimulus": "<p id='stroop-text' class='stroop-green'>CHAIR</p>", "response": "g", "stimulus-type": "unrelated", "word": "CHAIR", "color": "green", "correct_response": "g", "trial_id": "stroop-trial-1-unrelated-2", "trial_type": "html-keyboard-response", "trial_index": 211, "time_elapsed": 369020, "internal_node_id": "0.0-8.0-25.0"}}, {"uniqueid": "w81599640:a84219690", "current_trial": 212, "dateTime": 1664564852751, "trialdata": {"rt": 4308, "stimulus": "<p id='stroop-text' class='stroop-red'>RED</p>", "response": "r", "stimulus-type": "congruent", "word": "red", "color": "red", "correct_response": "r", "trial_id": "stroop-trial-1-congruent-16", "trial_type": "html-keyboard-response", "trial_index": 212, "time_elapsed": 373831, "internal_node_id": "0.0-8.0-26.0"}}, {"uniqueid": "w81599640:a84219690", "current_trial": 213, "dateTime": 1664564854991, "trialdata": {"rt": 1737, "stimulus": "<p id='stroop-text' class='stroop-yellow'>BRIDGE</p>", "response": "y", "stimulus-type": "unrelated", "word": "BRIDGE", "color": "yellow", "correct_response": "y", "trial_id": "stroop-trial-1-unrelated-29", "trial_type": "html-keyboard-response", "trial_index": 213, "time_elapsed": 376071, "internal_node_id": "0.0-8.0-27.0"}}, {"uniqueid": "w81599640:a84219690", "current_trial": 214, "dateTime": 1664564856993, "trialdata": {"rt": 1500, "stimulus": "<p id='stroop-text' class='stroop-blue'>SHIP</p>", "response": "b", "stimulus-type": "unrelated", "word": "SHIP", "color": "blue", "correct_response": "b", "trial_id": "stroop-trial-1-unrelated-12", "trial_type": "html-keyboard-response", "trial_index": 214, "time_elapsed": 378073, "internal_node_id": "0.0-8.0-28.0"}}, {"uniqueid": "w81599640:a84219690", "current_trial": 215, "dateTime": 1664564858852, "trialdata": {"rt": 1356, "stimulus": "<p id='stroop-text' class='stroop-green'>YELLOW</p>", "response": "g", "stimulus-type": "incongruent", "word": "yellow", "color": "green", "correct_response": "g", "trial_id": "stroop-trial-1-incongruent-27", "trial_type": "html-keyboard-response", "trial_index": 215, "time_elapsed": 379931, "internal_node_id": "0.0-8.0-29.0"}}, {"uniqueid": "w81599640:a84219690", "current_trial": 216, "dateTime": 1664564860728, "trialdata": {"rt": 1373, "stimulus": "<p id='stroop-text' class='stroop-red'>RED</p>", "response": "r", "stimulus-type": "congruent", "word": "red", "color": "red", "correct_response": "r", "trial_id": "stroop-trial-1-congruent-30", "trial_type": "html-keyboard-response", "trial_index": 216, "time_elapsed": 381807, "internal_node_id": "0.0-8.0-30.0"}}, {"uniqueid": "w81599640:a84219690", "current_trial": 217, "dateTime": 1664564862175, "trialdata": {"rt": 946, "stimulus": "<p id='stroop-text' class='stroop-yellow'>YELLOW</p>", "response": "y", "stimulus-type": "congruent", "word": "yellow", "color": "yellow", "correct_response": "y", "trial_id": "stroop-trial-1-congruent-19", "trial_type": "html-keyboard-response", "trial_index": 217, "time_elapsed": 383255, "internal_node_id": "0.0-8.0-31.0"}}, {"uniqueid": "w81599640:a84219690", "current_trial": 218, "dateTime": 1664564863504, "trialdata": {"rt": 825, "stimulus": "<p id='stroop-text' class='stroop-blue'>SHIP</p>", "response": "b", "stimulus-type": "unrelated", "word": "SHIP", "color": "blue", "correct_response": "b", "trial_id": "stroop-trial-1-unrelated-5", "trial_type": "html-keyboard-response", "trial_index": 218, "time_elapsed": 384583, "internal_node_id": "0.0-8.0-32.0"}}, {"uniqueid": "w81599640:a84219690", "current_trial": 219, "dateTime": 1664564864524, "trialdata": {"rt": 517, "stimulus": "<p id='stroop-text' class='stroop-blue'>BOTTLE</p>", "response": "b", "stimulus-type": "unrelated", "word": "BOTTLE", "color": "blue", "correct_response": "b", "trial_id": "stroop-trial-1-unrelated-19", "trial_type": "html-keyboard-response", "trial_index": 219, "time_elapsed": 385604, "internal_node_id": "0.0-8.0-33.0"}}, {"uniqueid": "w81599640:a84219690", "current_trial": 220, "dateTime": 1664564865955, "trialdata": {"rt": 928, "stimulus": "<p id='stroop-text' class='stroop-green'>BOAT</p>", "response": "g", "stimulus-type": "unrelated", "word": "BOAT", "color": "green", "correct_response": "g", "trial_id": "stroop-trial-1-unrelated-14", "trial_type": "html-keyboard-response", "trial_index": 220, "time_elapsed": 387035, "internal_node_id": "0.0-8.0-34.0"}}, {"uniqueid": "w81599640:a84219690", "current_trial": 221, "dateTime": 1664564867781, "trialdata": {"rt": 1323, "stimulus": "<p id='stroop-text' class='stroop-red'>GREEN</p>", "response": "r", "stimulus-type": "incongruent", "word": "green", "color": "red", "correct_response": "r", "trial_id": "stroop-trial-1-incongruent-4", "trial_type": "html-keyboard-response", "trial_index": 221, "time_elapsed": 388861, "internal_node_id": "0.0-8.0-35.0"}}, {"uniqueid": "w81599640:a84219690", "current_trial": 222, "dateTime": 1664564868892, "trialdata": {"rt": 608, "stimulus": "<p id='stroop-text' class='stroop-green'>CHAIR</p>", "response": "g", "stimulus-type": "unrelated", "word": "CHAIR", "color": "green", "correct_response": "g", "trial_id": "stroop-trial-1-unrelated-15", "trial_type": "ht