{"condition": 1, "counterbalance": 0, "assignmentId": "a86209553", "workerId": "w51568095", "hitId": "h30174391", "currenttrial": 137, "bonus": 0, "data": [{"uniqueid": "w51568095:a86209553", "current_trial": 0, "dateTime": 1664368390967, "trialdata": {"success": true, "trial_type": "fullscreen", "trial_index": 0, "time_elapsed": 8795, "internal_node_id": "0.0-0.0"}}, {"uniqueid": "w51568095:a86209553", "current_trial": 1, "dateTime": 1664368429713, "trialdata": {"view_history": [{"page_index": 0, "viewing_time": 38696}], "rt": 38700, "trial_id": "exp_instructions_no_distractor", "trial_type": "instructions", "trial_index": 1, "time_elapsed": 47544, "internal_node_id": "0.0-1.0"}}, {"uniqueid": "w51568095:a86209553", "current_trial": 2, "dateTime": 1664368435891, "trialdata": {"success": true, "trial_type": "fullscreen", "trial_index": 2, "time_elapsed": 53722, "internal_node_id": "0.0-2.0-0.0"}}, {"uniqueid": "w51568095:a86209553", "current_trial": 3, "dateTime": 1664368625586, "trialdata": {"view_history": [{"page_index": 0, "viewing_time": 73239}, {"page_index": 1, "viewing_time": 45345}, {"page_index": 2, "viewing_time": 18067}, {"page_index": 3, "viewing_time": 11151}, {"page_index": 4, "viewing_time": 41880}], "rt": 189683, "trial_id": "mouselab_instructions_1", "trial_type": "instructions", "trial_index": 3, "time_elapsed": 243417, "internal_node_id": "0.0-2.0-1.0"}}, {"uniqueid": "w51568095:a86209553", "current_trial": 4, "dateTime": 1664368675961, "trialdata": {"revealed_states": [], "num_clicks_accrued": [0, 0, 0, 0, 0, 0, 0, 0, 0, 0, 0, 0, 0], "stateRewards": ["", 10, -10, -10, -10, -10, 10, -10, 10, -10, 10, -10, 10], "withholdReward": false, "trial_id": "practice_1", "block": "test", "trialIndex": 0, "score": -8.5, "costs": -0.5, "simulationMode": [null, null, null], "rewards": [10, -10, -10], "path": ["0", "0", "1", "2", "4"], "rt": [16553, 13865, 3425], "actions": ["up", "up", "left"], "actionTimes": [24247, 38626, 42555], "queries": {"click": {"state": {"target": ["9", "1"], "time": [16336, 20662]}, "edge": {"target": [], "time": []}}, "mouseover": {"state": {"target": ["9", "1"], "time": [14742, 20240]}, "edge": {"target": [], "time": []}}, "mouseout": {"state": {"target": ["0", "9"], "time": [14595, 20114]}, "edge": {"target": [], "time": []}}}, "displayed_time": "43.08", "trialTime": 49421, "trial_type": "mouselab-mdp", "trial_index": 4, "time_elapsed": 293788, "internal_node_id": "0.0-2.0-2.0-0.0"}}, {"uniqueid": "w51568095:a86209553", "current_trial": 5, "dateTime": 1664368698127, "trialdata": {"revealed_states": [], "num_clicks_accrued": [0, 0, 0, 0, 0, 0, 0, 0, 0, 0, 0, 0, 0], "stateRewards": ["", 10, -10, -10, 10, -10, -10, 10, 10, 10, 10, 10, 10], "withholdReward": false, "trial_id": "practice_2", "block": "test", "trialIndex": 1, "score": 31.75, "costs": -0.25, "simulationMode": [null, null, null], "rewards": [10, 10, 10], "path": ["0", "0", "9", "10", "11"], "rt": [5340, 6764, 1928], "actions": ["left", "left", "up"], "actionTimes": [7129, 14423, 16885], "queries": {"click": {"state": {"target": ["9"], "time": [5246]}, "edge": {"target": [], "time": []}}, "mouseover": {"state": {"target": ["9"], "time": [3966]}, "edge": {"target": [], "time": []}}, "mouseout": {"state": {"target": ["1", "0", "9", "10"], "time": [727, 3879, 8607, 11903]}, "edge": {"target": [], "time": []}}}, "displayed_time": "17.40", "trialTime": 21804, "trial_type": "mouselab-mdp", "trial_index": 5, "time_elapsed": 315957, "internal_node_id": "0.0-2.0-2.0-1.0"}}, {"uniqueid": "w51568095:a86209553", "current_trial": 6, "dateTime": 1664368818335, "trialdata": {"view_history": [{"page_index": 0, "viewing_time": 61373}, {"page_index": 1, "viewing_time": 5982}, {"page_index": 0, "viewing_time": 3965}, {"page_index": 1, "viewing_time": 29351}, {"page_index": 2, "viewing_time": 19503}], "rt": 120179, "trial_id": "mouselab_instructions_2_scarce", "trial_type": "instructions", "trial_index": 6, "time_elapsed": 436164, "internal_node_id": "0.0-2.0-3.0"}}, {"uniqueid": "w51568095:a86209553", "current_trial": 7, "dateTime": 1664368876275, "trialdata": {"rt": 57908, "response": {"Q0": "$-48 to $48", "Q1": "The cost is always $0.25.", "Q2": "The better I perform the higher my bonus will be.", "Q3": "No, the amount of cash at each node of the web may be different each time.", "Q4": "The values of the nodes walked through from start to finish.", "Q5": "No, the spider might forget to count the money on some rounds."}, "question_order": [0, 1, 2, 3, 4, 5], "correct": {"Q0": "$-48 to $48", "Q1": "The cost is always $0.25.", "Q2": "The better I perform the higher my bonus will be.", "Q3": "No, the amount of cash at each node of the web may be different each time.", "Q4": "The values of the nodes walked through from start to finish.", "Q5": "No, the spider might forget to count the money on some rounds."}, "trial_id": "mouselab_quiz_scarce", "trial_type": "survey-multi-choice", "trial_index": 7, "time_elapsed": 494106, "internal_node_id": "0.0-2.0-4.0"}}, {"uniqueid": "w51568095:a86209553", "current_trial": 8, "dateTime": 1664368906076, "trialdata": {"rt": 29765, "stimulus": "\n<h1> Get ready to start the game! </h1>\n\nThank you for reading the instructions. Get ready start with the first of 4 block(s) of this game.\n<br><br>\nIn this first block, you will complete 30 rounds of this game before moving on.\n<br><br>\nRemember, the more money the spider gets, the bigger your bonus will be!\n<br><br>\n<div style='text-align: center;'>Press <code>space</code> to begin.</div>\n\n<br><br>\n(If, at any point, the <code>space</code> key does not take you to the next page, click once on the text and try again.)", "response": " ", "trial_id": "mdp_ready_1", "trial_type": "html-keyboard-response", "trial_index": 8, "time_elapsed": 523906, "internal_node_id": "0.0-4.0-0.0"}}, {"uniqueid": "w51568095:a86209553", "current_trial": 9, "dateTime": 1664368943036, "trialdata": {"revealed_states": [], "num_clicks_accrued": [0, 0, 0, 0, 0, 0, 0, 0, 0, 0, 0, 0, 0], "stateRewards": ["", 2, 8, 24, -48, 4, 8, 24, 48, 2, -8, -24, 24], "withholdReward": true, "trial_id": "mdp_939899431582", "block": "test1", "trialIndex": 2, "score": 40.25, "costs": -0.75, "simulationMode": [null, null, null], "rewards": [4, 8, 24], "path": ["0", "0", "5", "6", "7"], "rt": [12039, 8194, 6792], "actions": ["right", "right", "up"], "actionTimes": [17525, 26244, 33551], "queries": {"click": {"state": {"target": ["9", "1", "5"], "time": [8852, 15036, 16283]}, "edge": {"target": [], "time": []}}, "mouseover": {"state": {"target": ["9", "9", "1", "0", "5"], "time": [7072, 7699, 10181, 15467, 15817]}, "edge": {"target": [], "time": []}}, "mouseout": {"state": {"target": ["12", "0", "0", "9", "9", "9", "1", "0", "5", "6", "6", "8"], "time": [2804, 3469, 6887, 7098, 9387, 10086, 15327, 15492, 18480, 27800, 27992, 30353]}, "edge": {"target": [], "time": []}}}, "displayed_time": "34.07", "trialTime": 36541, "trial_type": "mouselab-mdp", "trial_index": 9, "time_elapsed": 560865, "internal_node_id": "0.0-4.0-1.0-0.0"}}, {"uniqueid": "w51568095:a86209553", "current_trial": 10, "dateTime": 1664368967096, "trialdata": {"revealed_states": [], "num_clicks_accrued": [0, 0, 0, 0, 0, 0, 0, 0, 0, 0, 0, 0, 0], "stateRewards": ["", -2, 8, 48, -48, 4, -8, 24, 24, 4, 4, -48, -24], "withholdReward": false, "trial_id": "mdp_746937869927", "block": "test1", "trialIndex": 3, "score": -36.25, "costs": -1.25, "simulationMode": [null, null, null], "rewards": [4, 4, -48], "path": ["0", "0", "9", "10", "11"], "rt": [16073, 340, 1925], "actions": ["left", "left", "up"], "actionTimes": [17729, 18588, 21039], "queries": {"click": {"state": {"target": ["5", "1", "9", "10", "6"], "time": [3754, 8435, 9589, 12649, 16727]}, "edge": {"target": [], "time": []}}, "mouseover": {"state": {"target": ["5", "1", "9", "10", "0", "6"], "time": [2422, 5343, 9231, 11178, 14932, 15244]}, "edge": {"target": [], "time": []}}, "mouseout": {"state": {"target": ["0", "5", "1", "9", "10", "9", "0"], "time": [2329, 5205, 9029, 11120, 14794, 14891, 15099]}, "edge": {"target": [], "time": []}}}, "displayed_time": "21.56", "trialTime": 23629, "trial_type": "mouselab-mdp", "trial_index": 10, "time_elapsed": 584926, "internal_node_id": "0.0-4.0-1.0-1.0"}}, {"uniqueid": "w51568095:a86209553", "current_trial": 11, "dateTime": 1664368988249, "trialdata": {"revealed_states": [], "num_clicks_accrued": [0, 0, 0, 0, 0, 0, 0, 0, 0, 0, 0, 0, 0], "stateRewards": ["", 4, -4, 48, 24, 2, 4, 24, -24, 2, 4, 24, 48], "withholdReward": true, "trial_id": "mdp_736351885282", "block": "test1", "trialIndex": 4, "score": 27.75, "costs": -1.25, "simulationMode": [null, null, null], "rewards": [4, -4, 24], "path": ["0", "0", "1", "2", "4"], "rt": [15343, 197, 162], "actions": ["up", "up", "left"], "actionTimes": [16937, 17657, 18334], "queries": {"click": {"state": {"target": ["5", "1", "9", "2", "4"], "time": [4615, 5801, 6639, 12805, 15527]}, "edge": {"target": [], "time": []}}, "mouseover": {"state": {"target": ["5", "1", "9", "10", "2", "2", "4"], "time": [2410, 5543, 6260, 10708, 12070, 12280, 14490]}, "edge": {"target": [], "time": []}}, "mouseout": {"state": {"target": ["6", "5", "0", "5", "1", "9", "10", "2", "2"], "time": [744, 916, 2216, 5411, 6056, 10492, 11946, 12117, 14401]}, "edge": {"target": [], "time": []}}}, "displayed_time": "18.86", "trialTime": 20741, "trial_type": "mouselab-mdp", "trial_index": 11, "time_elapsed": 606079, "internal_node_id": "0.0-4.0-1.0-2.0"}}, {"uniqueid": "w51568095:a86209553", "current_trial": 12, "dateTime": 1664369012171, "trialdata": {"revealed_states": [], "num_clicks_accrued": [0, 0, 0, 0, 0, 0, 0, 0, 0, 0, 0, 0, 0], "stateRewards": ["", -4, 4, -24, 48, -2, 8, -48, 24, 2, 4, 48, -48], "withholdReward": true, "trial_id": "mdp_366632183904", "block": "test1", "trialIndex": 5, "score": 57.5, "costs": -1.5, "simulationMode": [null, null, null], "rewards": [2, 4, 48], "path": ["0", "0", "9", "10", "11"], "rt": [18448, 175, 141], "actions": ["left", "left", "up"], "actionTimes": [20220, 20936, 21598], "queries": {"click": {"state": {"target": ["9", "1", "5", "10", "12", "11"], "time": [8145, 9996, 10760, 13893, 14910, 19609]}, "edge": {"target": [], "time": []}}, "mouseover": {"state": {"target": ["0", "9", "1", "5", "0", "10", "12", "11"], "time": [2270, 2390, 9133, 10436, 12512, 13273, 14459, 15760]}, "edge": {"target": [], "time": []}}, "mouseout": {"state": {"target": ["4", "0", "9", "1", "5", "0", "10", "12", "10"], "time": [804, 2332, 9015, 10318, 12448, 12781, 14376, 15569, 15721]}, "edge": {"target": [], "time": []}}}, "displayed_time": "22.12", "trialTime": 23505, "trial_type": "mouselab-mdp", "trial_index": 12, "time_elapsed": 630002, "internal_node_id": "0.0-4.0-1.0-3.0"}}, {"uniqueid": "w51568095:a86209553", "current_trial": 13, "dateTime": 1664369041164, "trialdata": {"revealed_states": [], "num_clicks_accrued": [0, 0, 0, 0, 0, 0, 0, 0, 0, 0, 0, 0, 0], "stateRewards": ["", 4, 8, -48, 24, -2, 8, -48, -48, -4, 4, 48, -48], "withholdReward": true, "trial_id": "mdp_693807815190", "block": "test1", "trialIndex": 6, "score": 39.75, "costs": -1.25, "simulationMode": [null, null, null], "rewards": [4, 8, 24], "path": ["0", "0", "1", "2", "4"], "rt": [23518, 152, 13], "actions": ["up", "up", "left"], "actionTimes": [25353, 26056, 26590], "queries": {"click": {"state": {"target": ["9", "1", "5", "4", "3"], "time": [4014, 4949, 6322, 16447, 24560]}, "edge": {"target": [], "time": []}}, "mouseover": {"state": {"target": ["0", "9", "1", "5", "2", "2", "4", "2", "3"], "time": [2771, 2907, 4609, 5700, 8117, 8327, 9359, 16892, 17053]}, "edge": {"target": [], "time": []}}, "mouseout": {"state": {"target": ["11", "9", "0", "0", "9", "1", "5", "2", "2", "4", "2"], "time": [442, 650, 1155, 2819, 4492, 5426, 8036, 8154, 9107, 16797, 17011]}, "edge": {"target": [], "time": []}}}, "displayed_time": "27.13", "trialTime": 28522, "trial_type": "mouselab-mdp", "trial_index": 13, "time_elapsed": 658994, "internal_node_id": "0.0-4.0-1.0-4.0"}}, {"uniqueid": "w51568095:a86209553", "current_trial": 14, "dateTime": 1664369058902, "trialdata": {"revealed_states": [], "num_clicks_accrued": [0, 0, 0, 0, 0, 0, 0, 0, 0, 0, 0, 0, 0], "stateRewards": ["", 2, 4, 48, 24, -2, -8, 24, 24, -2, 4, -48, 24], "withholdReward": true, "trial_id": "mdp_130849500124", "block": "test1", "trialIndex": 7, "score": 31, "costs": 0, "simulationMode": [null, null, null], "rewards": [-2, 4, 24], "path": ["0", "0", "9", "10", "12"], "rt": [12095, 1292, 21], "actions": ["left", "left", "down"], "actionTimes": [13310, 15120, 15656], "queries": {"click": {"state": {"target": [], "time": []}, "edge": {"target": [], "time": []}}, "mouseover": {"state": {"target": ["9", "10"], "time": [2213, 3004]}, "edge": {"target": [], "time": []}}, "mouseout": {"state": {"target": ["3", "0", "9"], "time": [401, 2168, 2733]}, "edge": {"target": [], "time": []}}}, "displayed_time": "16.18", "trialTime": 17306, "trial_type": "mouselab-mdp", "trial_index": 14, "time_elapsed": 676732, "internal_node_id": "0.0-4.0-1.0-5.0"}}, {"uniqueid": "w51568095:a86209553", "current_trial": 15, "dateTime": 1664369080386, "trialdata": {"revealed_states": [], "num_clicks_accrued": [0, 0, 0, 0, 0, 0, 0, 0, 0, 0, 0, 0, 0], "stateRewards": ["", 4, 4, 24, -24, -4, -8, 48, -24, 4, 4, 48, 24], "withholdReward": false, "trial_id": "mdp_822446942217", "block": "test1", "trialIndex": 8, "score": 35.75, "costs": -1.25, "simulationMode": [null, null, null], "rewards": [4, 4, 24], "path": ["0", "0", "1", "2", "3"], "rt": [15969, 187, 30], "actions": ["up", "up", "right"], "actionTimes": [17488, 18191, 18747], "queries": {"click": {"state": {"target": ["10", "6", "2", "4", "3"], "time": [8151, 9321, 10481, 13829, 16581]}, "edge": {"target": [], "time": []}}, "mouseover": {"state": {"target": ["9", "10", "5", "6", "5", "1", "2", "4", "3"], "time": [2174, 7437, 8773, 9053, 9693, 9949, 10258, 11774, 16101]}, "edge": {"target": [], "time": []}}, "mouseout": {"state": {"target": ["10", "9", "0", "0", "9", "10", "5", "6", "5", "1", "2", "4", "2", "3"], "time": [576, 708, 886, 2108, 7391, 8690, 9018, 9686, 9736, 9993, 11706, 15323, 16017, 20179]}, "edge": {"target": [], "time": []}}}, "displayed_time": "19.27", "trialTime": 21126, "trial_type": "mouselab-mdp", "trial_index": 15, "time_elapsed": 698216, "internal_node_id": "0.0-4.0-1.0-6.0"}}, {"uniqueid": "w51568095:a86209553", "current_trial": 16, "dateTime": 1664369101374, "trialdata": {"revealed_states": [], "num_clicks_accrued": [0, 0, 0, 0, 0, 0, 0, 0, 0, 0, 0, 0, 0], "stateRewards": ["", -2, -8, 24, -48, 4, 4, -24, -48, -2, -8, -48, 24], "withholdReward": true, "trial_id": "mdp_556006673466", "block": "test1", "trialIndex": 9, "score": 17.5, "costs": -1.5, "simulationMode": [null, null, null], "rewards": [-2, -8, 24], "path": ["0", "0", "9", "10", "12"], "rt": [16479, 246, 10], "actions": ["left", "left", "down"], "actionTimes": [17985, 18767, 19294], "queries": {"click": {"state": {"target": ["10", "2", "6", "7", "8", "12"], "time": [7551, 8541, 9389, 11269, 12460, 16375]}, "edge": {"target": [], "time": []}}, "mouseover": {"state": {"target": ["9", "10", "2", "6", "7", "8", "12", "11"], "time": [2343, 3040, 8339, 9019, 10833, 11882, 14123, 17467]}, "edge": {"target": [], "time": []}}, "mouseout": {"state": {"target": ["0", "9", "10", "2", "6", "7", "8", "12"], "time": [2293, 2907, 7932, 8900, 10763, 11775, 13467, 17360]}, "edge": {"target": [], "time": []}}}, "displayed_time": "19.83", "trialTime": 20614, "trial_type": "mouselab-mdp", "trial_index": 16, "time_elapsed": 719205, "internal_node_id": "0.0-4.0-1.0-7.0"}}, {"uniqueid": "w51568095:a86209553", "current_trial": 17, "dateTime": 1664369114860, "trialdata": {"revealed_states": [], "num_clicks_accrued": [0, 0, 0, 0, 0, 0, 0, 0, 0, 0, 0, 0, 0], "stateRewards": ["", 2, -8, -24, -48, -2, -4, 48, 48, 4, 8, 48, 48], "withholdReward": true, "trial_id": "mdp_347285045422", "block": "test1", "trialIndex": 10, "score": 64.5, "costs": -0.5, "simulationMode": [null, null, null], "rewards": [4, 8, 48], "path": ["0", "0", "9", "10", "12"], "rt": [9193, 168, 65], "actions": ["left", "left", "down"], "actionTimes": [10433, 11123, 11743], "queries": {"click": {"state": {"target": ["10", "12"], "time": [4640, 9678]}, "edge": {"target": [], "time": []}}, "mouseover": {"state": {"target": ["9", "10", "2", "12", "2", "12"], "time": [2244, 2844, 5653, 7336, 8336, 9315]}, "edge": {"target": [], "time": []}}, "mouseout": {"state": {"target": ["11", "1", "0", "9", "10", "2", "12", "2", "12"], "time": [232, 436, 2147, 2559, 5190, 6716, 7941, 8852, 10113]}, "edge": {"target": [], "time": []}}}, "displayed_time": "12.27", "trialTime": 13064, "trial_type": "mouselab-mdp", "trial_index": 17, "time_elapsed": 732691, "internal_node_id": "0.0-4.0-1.0-8.0"}}, {"uniqueid": "w51568095:a86209553", "current_trial": 18, "dateTime": 1664369128556, "trialdata": {"revealed_states": [], "num_clicks_accrued": [0, 0, 0, 0, 0, 0, 0, 0, 0, 0, 0, 0, 0], "stateRewards": ["", -2, 8, 48, 48, 2, 4, -48, 24, -4, -8, 48, 24], "withholdReward": true, "trial_id": "mdp_572910394648", "block": "test1", "trialIndex": 11, "score": 58.25, "costs": -0.75, "simulationMode": [null, null, null], "rewards": [-2, 8, 48], "path": ["0", "0", "1", "2", "3"], "rt": [8998, 151, 531], "actions": ["up", "up", "right"], "actionTimes": [9969, 10632, 11748], "queries": {"click": {"state": {"target": ["10", "2", "3"], "time": [4136, 5270, 9181]}, "edge": {"target": [], "time": []}}, "mouseover": {"state": {"target": ["9", "10", "2", "6", "3"], "time": [1535, 1714, 5000, 5826, 7168]}, "edge": {"target": [], "time": []}}, "mouseout": {"state": {"target": ["0", "9", "10", "2", "6"], "time": [1404, 1707, 4755, 5569, 6729]}, "edge": {"target": [], "time": []}}}, "displayed_time": "12.26", "trialTime": 13314, "trial_type": "mouselab-mdp", "trial_index": 18, "time_elapsed": 746387, "internal_node_id": "0.0-4.0-1.0-9.0"}}, {"uniqueid": "w51568095:a86209553", "current_trial": 19, "dateTime": 1664369140078, "trialdata": {"revealed_states": [], "num_clicks_accrued": [0, 0, 0, 0, 0, 0, 0, 0, 0, 0, 0, 0, 0], "stateRewards": ["", -2, 8, -24, 48, -4, 4, -48, 24, 4, -8, 48, -24], "withholdReward": true, "trial_id": "mdp_425320427962", "block": "test1", "trialIndex": 12, "score": 58, "costs": -1, "simulationMode": [null, null, null], "rewards": [-2, 8, 48], "path": ["0", "0", "1", "2", "4"], "rt": [6466, 240, 80], "actions": ["up", "up", "left"], "actionTimes": [8282, 9039, 9644], "queries": {"click": {"state": {"target": ["10", "2", "3", "4"], "time": [3259, 4527, 5775, 7447]}, "edge": {"target": [], "time": []}}, "mouseover": {"state": {"target": ["9", "10", "2", "3", "4"], "time": [2615, 2969, 4038, 5252, 6543]}, "edge": {"target": [], "time": []}}, "mouseout": {"state": {"target": ["3", "0", "9", "10", "2", "3", "2", "4"], "time": [989, 2576, 2834, 3834, 4848, 6266, 6506, 8120]}, "edge": {"target": [], "time": []}}}, "displayed_time": "10.16", "trialTime": 11111, "trial_type": "mouselab-mdp", "trial_index": 19, "time_elapsed": 757908, "internal_node_id": "0.0-4.0-1.0-10.0"}}, {"uniqueid": "w51568095:a86209553", "current_trial": 20, "dateTime": 1664369154443, "trialdata": {"revealed_states": [], "num_clicks_accrued": [0, 0, 0, 0, 0, 0, 0, 0, 0, 0, 0, 0, 0], "stateRewards": ["", 2, -4, -48, -48, -2, -4, -24, -48, -2, 8, 24, 24], "withholdReward": false, "trial_id": "mdp_656069446729", "block": "test1", "trialIndex": 13, "score": 34.25, "costs": -0.75, "simulationMode": [null, null, null], "rewards": [-2, 8, 24], "path": ["0", "0", "9", "10", "11"], "rt": [7876, 160, 116], "actions": ["left", "left", "up"], "actionTimes": [10907, 11598, 12254], "queries": {"click": {"state": {"target": ["10", "12", "11"], "time": [6666, 8238, 9339]}, "edge": {"target": [], "time": []}}, "mouseover": {"state": {"target": ["10", "1", "2", "12", "11"], "time": [5178, 7140, 7365, 7899, 9168]}, "edge": {"target": [], "time": []}}, "mouseout": {"state": {"target": ["0", "10", "1", "2", "12", "10", "11"], "time": [3785, 7017, 7200, 7576, 8876, 9090, 13310]}, "edge": {"target": [], "time": []}}}, "displayed_time": "12.78", "trialTime": 13937, "trial_type": "mouselab-mdp", "trial_index": 20, "time_elapsed": 772273, "internal_node_id": "0.0-4.0-1.0-11.0"}}, {"uniqueid": "w51568095:a86209553", "current_trial": 21, "dateTime": 1664369166130, "trialdata": {"revealed_states": [], "num_clicks_accrued": [0, 0, 0, 0, 0, 0, 0, 0, 0, 0, 0, 0, 0], "stateRewards": ["", -4, 8, 24, -24, 4, -8, -24, -24, -2, 8, -48, 24], "withholdReward": false, "trial_id": "mdp_240302100183", "block": "test1", "trialIndex": 14, "score": 34.25, "costs": -0.75, "simulationMode": [null, null, null], "rewards": [-2, 8, 24], "path": ["0", "0", "9", "10", "12"], "rt": [6847, 205, 96], "actions": ["left", "left", "down"], "actionTimes": [8470, 9201, 9825], "queries": {"click": {"state": {"target": ["10", "12", "11"], "time": [3090, 3921, 8017]}, "edge": {"target": [], "time": []}}, "mouseover": {"state": {"target": ["9", "10", "12", "11"], "time": [2219, 2313, 3608, 6242]}, "edge": {"target": [], "time": []}}, "mouseout": {"state": {"target": ["0", "9", "10", "12", "10", "11"], "time": [2119, 2301, 3496, 5547, 5841, 8286]}, "edge": {"target": [], "time": []}}}, "displayed_time": "10.62", "trialTime": 11330, "trial_type": "mouselab-mdp", "trial_index": 21, "time_elapsed": 783960, "internal_node_id": "0.0-4.0-1.0-12.0"}}, {"uniqueid": "w51568095:a86209553", "current_trial": 22, "dateTime": 1664369178567, "trialdata": {"revealed_states": [], "num_clicks_accrued": [0, 0, 0, 0, 0, 0, 0, 0, 0, 0, 0, 0, 0], "stateRewards": ["", -2, 8, 48, 24, 2, -4, 48, -48, 2, 8, 24, -24], "withholdReward": false, "trial_id": "mdp_176207245985", "block": "test1", "trialIndex": 15, "score": 38.25, "costs": -0.75, "simulationMode": [null, null, null], "rewards": [2, 8, 24], "path": ["0", "0", "9", "10", "11"], "rt": [4139, 147, 30], "actions": ["left", "left", "up"], "actionTimes": [6705, 7367, 7917], "queries": {"click": {"state": {"target": ["10", "12", "11"], "time": [3464, 4609, 5646]}, "edge": {"target": [], "time": []}}, "mouseover": {"state": {"target": ["9", "10", "12", "11"], "time": [2972, 3149, 4372, 5246]}, "edge": {"target": [], "time": []}}, "mouseout": {"state": {"target": ["9", "9", "10", "10", "12", "10"], "time": [1595, 3040, 4020, 4294, 5083, 5235]}, "edge": {"target": [], "time": []}}}, "displayed_time": "10.57", "trialTime": 12014, "trial_type": "mouselab-mdp", "trial_index": 22, "time_elapsed": 796397, "internal_node_id": "0.0-4.0-1.0-13.0"}}, {"uniqueid": "w51568095:a86209553", "current_trial": 23, "dateTime": 1664369196751, "trialdata": {"revealed_states": [], "num_clicks_accrued": [0, 0, 0, 0, 0, 0, 0, 0, 0, 0, 0, 0, 0], "stateRewards": ["", 2, -8, 24, -24, -2, 8, -48, -48, 2, -8, -24, -48], "withholdReward": true, "trial_id": "mdp_744278669205", "block": "test1", "trialIndex": 16, "score": -50.25, "costs": -1.25, "simulationMode": [null, null, null], "rewards": [2, -8, -48], "path": ["0", "0", "9", "10", "12"], "rt": [12705, 52, 51], "actions": ["left", "left", "down"], "actionTimes": [14952, 15556, 16137], "queries": {"click": {"state": {"target": ["10", "2", "6", "8", "7"], "time": [4138, 6039, 7213, 8284, 11064]}, "edge": {"target": [], "time": []}}, "mouseover": {"state": {"target": ["10", "12", "2", "2", "6", "8", "6", "8", "7", "12"], "time": [3155, 5040, 5385, 5639, 6686, 6742, 6975, 7547, 8984, 12684]}, "edge": {"target": [], "time": []}}, "mouseout": {"state": {"target": ["11", "5", "0", "10", "12", "2", "2", "6", "8", "6", "8", "6", "7"], "time": [813, 1256, 2942, 4676, 5274, 5473, 6426, 6719, 6787, 7486, 8759, 8952, 11838]}, "edge": {"target": [], "time": []}}}, "displayed_time": "16.67", "trialTime": 17732, "trial_type": "mouselab-mdp", "trial_index": 23, "time_elapsed": 814582, "internal_node_id": "0.0-4.0-1.0-14.0"}}, {"uniqueid": "w51568095:a86209553", "current_trial": 24, "dateTime": 1664369209037, "trialdata": {"revealed_states": [], "num_clicks_accrued": [0, 0, 0, 0, 0, 0, 0, 0, 0, 0, 0, 0, 0], "stateRewards": ["", -2, -4, -48, 48, -2, -4, 24, 48, -4, -8, -24, 24], "withholdReward": true, "trial_id": "mdp_917590390609", "block": "test1", "trialIndex": 17, "score": 16, "costs": -1, "simulationMode": [null, null, null], "rewards": [-4, -8, 24], "path": ["0", "0", "9", "10", "12"], "rt": [7727, 102, 29], "actions": ["left", "left", "down"], "actionTimes": [8611, 9242, 9790], "queries": {"click": {"state": {"target": ["10", "2", "6", "12"], "time": [1864, 3869, 5224, 7607]}, "edge": {"target": [], "time": []}}, "mouseover": {"state": {"target": ["9", "10", "2", "6", "6", "5", "12"], "time": [1294, 1616, 3306, 4646, 4985, 6212, 6537]}, "edge": {"target": [], "time": []}}, "mouseout": {"state": {"target": ["12", "0", "9", "10", "2", "6", "6", "5", "12"], "time": [126, 1213, 1380, 2730, 4341, 4714, 5515, 6247, 7688]}, "edge": {"target": [], "time": []}}}, "displayed_time": "10.31", "trialTime": 11800, "trial_type": "mouselab-mdp", "trial_index": 24, "time_elapsed": 826867, "internal_node_id": "0.0-4.0-1.0-15.0"}}, {"uniqueid": "w51568095:a86209553", "current_trial": 25, "dateTime": 1664369220891, "trialdata": {"revealed_states": [], "num_clicks_accrued": [0, 0, 0, 0, 0, 0, 0, 0, 0, 0, 0, 0, 0], "stateRewards": ["", -2, 4, 24, 48, 2, 4, -48, -48, -2, 8, 48, -24], "withholdReward": false, "trial_id": "mdp_305701202606", "block": "test1", "trialIndex": 18, "score": 58.25, "costs": -0.75, "simulationMode": [null, null, null], "rewards": [-2, 8, 48], "path": ["0", "0", "9", "10", "11"], "rt": [4778, 127, 38], "actions": ["left", "left", "up"], "actionTimes": [5688, 6340, 6921], "queries": {"click": {"state": {"target": ["10", "12", "11"], "time": [2482, 3913, 4902]}, "edge": {"target": [], "time": []}}, "mouseover": {"state": {"target": ["9", "10", "12", "11"], "time": [1559, 1793, 3519, 4712]}, "edge": {"target": [], "time": []}}, "mouseout": {"state": {"target": ["12", "0", "9", "10", "12", "10"], "time": [14, 1392, 1718, 2791, 4353, 4522]}, "edge": {"target": [], "time": []}}}, "displayed_time": "9.92", "trialTime": 11225, "trial_type": "mouselab-mdp", "trial_index": 25, "time_elapsed": 838721, "internal_node_id": "0.0-4.0-1.0-16.0"}}, {"uniqueid": "w51568095:a86209553", "current_trial": 26, "dateTime": 1664369238778, "trialdata": {"revealed_states": [], "num_clicks_accrued": [0, 0, 0, 0, 0, 0, 0, 0, 0, 0, 0, 0, 0], "stateRewards": ["", -4, -8, 24, -48, 2, 4, -48, -48, 2, -8, 24, 48], "withholdReward": false, "trial_id": "mdp_111262146724", "block": "test1", "trialIndex": 19, "score": 45.5, "costs": -1.5, "simulationMode": [null, null, null], "rewards": [2, -8, 48], "path": ["0", "0", "9", "10", "12"], "rt": [12254, 171, 155], "actions": ["left", "left", "down"], "actionTimes": [14413, 15099, 15801], "queries": {"click": {"state": {"target": ["10", "2", "6", "8", "7", "12"], "time": [5323, 8087, 9847, 11392, 12478, 13807]}, "edge": {"target": [], "time": []}}, "mouseover": {"state": {"target": ["9", "10", "2", "5", "6", "8", "7", "0", "12", "12"], "time": [2743, 3248, 5948, 8912, 9376, 10292, 12253, 13116, 13274, 13575]}, "edge": {"target": [], "time": []}}, "mouseout": {"state": {"target": ["11", "9", "0", "0", "9", "10", "2", "5", "6", "8", "6", "7", "0", "12"], "time": [725, 884, 1068, 2650, 2911, 5796, 8812, 9007, 10129, 12032, 12195, 13008, 13268, 13319]}, "edge": {"target": [], "time": []}}}, "displayed_time": "16.32", "trialTime": 17492, "trial_type": "mouselab-mdp", "trial_index": 26, "time_elapsed": 856608, "internal_node_id": "0.0-4.0-1.0-17.0"}}, {"uniqueid": "w51568095:a86209553", "current_trial": 27, "dateTime": 1664369253426, "trialdata": {"revealed_states": [], "num_clicks_accrued": [0, 0, 0, 0, 0, 0, 0, 0, 0, 0, 0, 0, 0], "stateRewards": ["", 2, 4, 48, -48, 2, 4, 24, -24, 2, -4, -24, -48], "withholdReward": true, "trial_id": "mdp_706591889062", "block": "test1", "trialIndex": 20, "score": 58.25, "costs": -0.75, "simulationMode": [null, null, null], "rewards": [2, 4, 48], "path": ["0", "0", "1", "2", "3"], "rt": [7556, 179, 85], "actions": ["up", "up", "right"], "actionTimes": [11106, 11807, 12410], "queries": {"click": {"state": {"target": ["10", "2", "3"], "time": [6497, 8272, 10425]}, "edge": {"target": [], "time": []}}, "mouseover": {"state": {"target": ["9", "10", "2", "3"], "time": [4197, 4475, 7730, 9119]}, "edge": {"target": [], "time": []}}, "mouseout": {"state": {"target": ["12", "0", "9", "10", "2"], "time": [628, 4190, 4291, 7354, 8756]}, "edge": {"target": [], "time": []}}}, "displayed_time": "12.92", "trialTime": 14133, "trial_type": "mouselab-mdp", "trial_index": 27, "time_elapsed": 871256, "internal_node_id": "0.0-4.0-1.0-18.0"}}, {"uniqueid": "w51568095:a86209553", "current_trial": 28, "dateTime": 1664369269431, "trialdata": {"revealed_states": [], "num_clicks_accrued": [0, 0, 0, 0, 0, 0, 0, 0, 0, 0, 0, 0, 0], "stateRewards": ["", -4, 8, -48, -48, -4, 4, -24, -48, 2, -4, -24, 24], "withholdReward": true, "trial_id": "mdp_183773275291", "block": "test1", "trialIndex": 21, "score": 25.25, "costs": -1.75, "simulationMode": [null, null, null], "rewards": [2, -4, 24], "path": ["0", "0", "9", "10", "12"], "rt": [10401, 139, 75], "actions": ["left", "left", "down"], "actionTimes": [12533, 13218, 13817], "queries": {"click": {"state": {"target": ["10", "2", "3", "4", "6", "8", "7"], "time": [3242, 4830, 6370, 7287, 8504, 9244, 10210]}, "edge": {"target": [], "time": []}}, "mouseover": {"state": {"target": ["0", "9", "10", "2", "3", "4", "8", "6", "8", "7", "5", "12"], "time": [2175, 2667, 3003, 4211, 5994, 7016, 7829, 8319, 8973, 10103, 10764, 11241]}, "edge": {"target": [], "time": []}}, "mouseout": {"state": {"target": ["3", "0", "9", "10", "2", "3", "4", "8", "6", "8", "6", "7", "5", "12"], "time": [1011, 2244, 2774, 3834, 5221, 6876, 7646, 8025, 8843, 9727, 9994, 10608, 10886, 15130]}, "edge": {"target": [], "time": []}}}, "displayed_time": "14.34", "trialTime": 15553, "trial_type": "mouselab-mdp", "trial_index": 28, "time_elapsed": 887262, "internal_node_id": "0.0-4.0-1.0-19.0"}}, {"uniqueid": "w51568095:a86209553", "current_trial": 29, "dateTime": 1664369286593, "trialdata": {"revealed_states": [], "num_clicks_accrued": [0, 0, 0, 0, 0, 0, 0, 0, 0, 0, 0, 0, 0], "stateRewards": ["", -2, -8, 24, -24, 4, -8, 48, 48, -4, -8, -24, -48], "withholdReward": true, "trial_id": "mdp_286767261523", "block": "test1", "trialIndex": 22, "score": 17.75, "costs": -1.25, "simulationMode": [null, null, null], "rewards": [-2, -8, 24], "path": ["0", "0", "1", "2", "3"], "rt": [11374, 53, 511], "actions": ["up", "up", "right"], "actionTimes": [13331, 13927, 14953], "queries": {"click": {"state": {"target": ["10", "12", "11", "2", "3"], "time": [2806, 4889, 6953, 8465, 12381]}, "edge": {"target": [], "time": []}}, "mouseover": {"state": {"target": ["10", "12", "11", "11", "2", "3", "6", "3"], "time": [2561, 4225, 5942, 6706, 8296, 9685, 10623, 12063]}, "edge": {"target": [], "time": []}}, "mouseout": {"state": {"target": ["0", "10", "12", "10", "11", "11", "2", "3", "6"], "time": [2443, 4161, 5494, 5762, 6068, 7581, 9270, 10452, 11914]}, "edge": {"target": [], "time": []}}}, "displayed_time": "15.47", "trialTime": 16788, "trial_type": "mouselab-mdp", "trial_index": 29, "time_elapsed": 904424, "internal_node_id": "0.0-4.0-1.0-20.0"}}, {"uniqueid": "w51568095:a86209553", "current_trial": 30, "dateTime": 1664369298578, "trialdata": {"revealed_states": [], "num_clicks_accrued": [0, 0, 0, 0, 0, 0, 0, 0, 0, 0, 0, 0, 0], "stateRewards": ["", 2, 8, 48, 24, 2, 8, 48, 48, -2, -4, -24, -48], "withholdReward": true, "trial_id": "mdp_717636349175", "block": "test1", "trialIndex": 23, "score": 38.25, "costs": -0.75, "simulationMode": [null, null, null], "rewards": [2, 8, 24], "path": ["0", "0", "1", "2", "4"], "rt": [8018, 104, 30], "actions": ["up", "up", "left"], "actionTimes": [9052, 9675, 10225], "queries": {"click": {"state": {"target": ["10", "2", "4"], "time": [2300, 4667, 5809]}, "edge": {"target": [], "time": []}}, "mouseover": {"state": {"target": ["9", "10", "12", "2", "4", "3"], "time": [1544, 1687, 3004, 4341, 5517, 7754]}, "edge": {"target": [], "time": []}}, "mouseout": {"state": {"target": ["3", "0", "9", "10", "12", "2", "4"], "time": [204, 1471, 1646, 2965, 4054, 5386, 6739]}, "edge": {"target": [], "time": []}}}, "displayed_time": "10.79", "trialTime": 11531, "trial_type": "mouselab-mdp", "trial_index": 30, "time_elapsed": 916408, "internal_node_id": "0.0-4.0-1.0-21.0"}}, {"uniqueid": "w51568095:a86209553", "current_trial": 31, "dateTime": 1664369310051, "trialdata": {"revealed_states": [], "num_clicks_accrued": [0, 0, 0, 0, 0, 0, 0, 0, 0, 0, 0, 0, 0], "stateRewards": ["", 4, -8, 24, 48, 2, 4, 48, 48, 2, 8, -48, -48], "withholdReward": true, "trial_id": "mdp_783704746330", "block": "test1", "trialIndex": 24, "score": 23.75, "costs": -1.25, "simulationMode": [null, null, null], "rewards": [4, -8, 24], "path": ["0", "0", "1", "2", "3"], "rt": [6350, 124, 77], "actions": ["up", "up", "right"], "actionTimes": [7271, 7911, 8513], "queries": {"click": {"state": {"target": ["10", "12", "11", "2", "3"], "time": [1429, 2715, 3606, 4621, 6328]}, "edge": {"target": [], "time": []}}, "mouseover": {"state": {"target": ["9", "10", "12", "11", "2", "3"], "time": [1009, 1272, 2410, 3427, 4376, 5433]}, "edge": {"target": [], "time": []}}, "mouseout": {"state": {"target": ["0", "9", "10", "12", "10", "11", "2", "3"], "time": [1001, 1260, 2403, 3172, 3309, 4066, 5237, 9267]}, "edge": {"target": [], "time": []}}}, "displayed_time": "9.93", "trialTime": 10834, "trial_type": "mouselab-mdp", "trial_index": 31, "time_elapsed": 927882, "internal_node_id": "0.0-4.0-1.0-22.0"}}, {"uniqueid": "w51568095:a86209553", "current_trial": 32, "dateTime": 1664369320285, "trialdata": {"revealed_states": [], "num_clicks_accrued": [0, 0, 0, 0, 0, 0, 0, 0, 0, 0, 0, 0, 0], "stateRewards": ["", 4, 4, -24, -48, -4, 4, -48, 24, 4, -8, -48, 48], "withholdReward": true, "trial_id": "mdp_566768794366", "block": "test1", "trialIndex": 25, "score": 48.5, "costs": -0.5, "simulationMode": [null, null, null], "rewards": [4, -8, 48], "path": ["0", "0", "9", "10", "12"], "rt": [3418, 88, 62], "actions": ["left", "left", "down"], "actionTimes": [4557, 5166, 5755], "queries": {"click": {"state": {"target": ["10", "12"], "time": [1921, 4040]}, "edge": {"target": [], "time": []}}, "mouseover": {"state": {"target": ["10", "12"], "time": [1654, 2623]}, "edge": {"target": [], "time": []}}, "mouseout": {"state": {"target": ["0", "10", "12"], "time": [1576, 2360, 6491]}, "edge": {"target": [], "time": []}}}, "displayed_time": "9.14", "trialTime": 9748, "trial_type": "mouselab-mdp", "trial_index": 32, "time_elapsed": 938116, "internal_node_id": "0.0-4.0-1.0-23.0"}}, {"uniqueid": "w51568095:a86209553", "current_trial": 33, "dateTime": 1664369333076, "trialdata": {"revealed_states": [], "num_clicks_accrued": [0, 0, 0, 0, 0, 0, 0, 0, 0, 0, 0, 0, 0], "stateRewards": ["", -4, 8, 24, 24, 2, 4, -48, 24, -2, -4, -24, -24], "withholdReward": true, "trial_id": "mdp_752328329546", "block": "test1", "trialIndex": 26, "score": 31.75, "costs": -1.25, "simulationMode": [null, null, null], "rewards": [-4, 8, 24], "path": ["0", "0", "1", "2", "4"], "rt": [8064, 166, 100], "actions": ["up", "up", "left"], "actionTimes": [9886, 10577, 11185], "queries": {"click": {"state": {"target": ["10", "12", "11", "2", "4"], "time": [3227, 5112, 6993, 8447, 9209]}, "edge": {"target": [], "time": []}}, "mouseover": {"state": {"target": ["0", "9", "10", "12", "9", "11", "2", "4"], "time": [1935, 2160, 2426, 4391, 6379, 6688, 7815, 9013]}, "edge": {"target": [], "time": []}}, "mouseout": {"state": {"target": ["0", "0", "9", "10", "12", "9", "11", "2", "4"], "time": [1094, 2016, 2245, 4100, 6319, 6432, 7576, 8888, 9616]}, "edge": {"target": [], "time": []}}}, "displayed_time": "11.71", "trialTime": 12316, "trial_type": "mouselab-mdp", "trial_index": 33, "time_elapsed": 950906, "internal_node_id": "0.0-4.0-1.0-24.0"}}, {"uniqueid": "w51568095:a86209553", "current_trial": 34, "dateTime": 1664369343813, "trialdata": {"revealed_states": [], "num_clicks_accrued": [0, 0, 0, 0, 0, 0, 0, 0, 0, 0, 0, 0, 0], "stateRewards": ["", 4, -8, 24, 48, -2, -4, -48, 24, 2, 4, -48, -24], "withholdReward": true, "trial_id": "mdp_749974461966", "block": "test1", "trialIndex": 27, "score": 48, "costs": -1, "simulationMode": [null, null, null], "rewards": [4, -8, 48], "path": ["0", "0", "1", "2", "4"], "rt": [6118, 37, 36], "actions": ["up", "up", "left"], "actionTimes": [7567, 8118, 8667], "queries": {"click": {"state": {"target": ["10", "12", "2", "4"], "time": [2472, 3917, 5359, 6841]}, "edge": {"target": [], "time": []}}, "mouseover": {"state": {"target": ["9", "10", "12", "9", "2", "4"], "time": [2000, 2235, 2983, 4976, 5053, 6335]}, "edge": {"target": [], "time": []}}, "mouseout": {"state": {"target": ["1", "0", "0", "9", "10", "12", "9", "2"], "time": [483, 623, 1916, 2129, 2894, 4714, 5018, 6216]}, "edge": {"target": [], "time": []}}}, "displayed_time": "9.46", "trialTime": 10283, "trial_type": "mouselab-mdp", "trial_index": 34, "time_elapsed": 961643, "internal_node_id": "0.0-4.0-1.0-25.0"}}, {"uniqueid": "w51568095:a86209553", "current_trial": 35, "dateTime": 1664369355785, "trialdata": {"revealed_states": [], "num_clicks_accrued": [0, 0, 0, 0, 0, 0, 0, 0, 0, 0, 0, 0, 0], "stateRewards": ["", 2, -4, -24, -24, -2, -8, -48, 24, -4, -8, 24, 24], "withholdReward": true, "trial_id": "mdp_521351546461", "block": "test1", "trialIndex": 28, "score": 16.5, "costs": -0.5, "simulationMode": [null, null, null], "rewards": [-4, -8, 24], "path": ["0", "0", "9", "10", "12"], "rt": [3560, 48, 8], "actions": ["left", "left", "down"], "actionTimes": [4638, 5197, 5737], "queries": {"click": {"state": {"target": ["10", "12"], "time": [2132, 3537]}, "edge": {"target": [], "time": []}}, "mouseover": {"state": {"target": ["10", "12"], "time": [1875, 2592]}, "edge": {"target": [], "time": []}}, "mouseout": {"state": {"target": ["4", "0", "10"], "time": [215, 1639, 2429]}, "edge": {"target": [], "time": []}}}, "displayed_time": "10.09", "trialTime": 11493, "trial_type": "mouselab-mdp", "trial_index": 35, "time_elapsed": 973615, "internal_node_id": "0.0-4.0-1.0-26.0"}}, {"uniqueid": "w51568095:a86209553", "current_trial": 36, "dateTime": 1664369368333, "trialdata": {"revealed_states": [], "num_clicks_accrued": [0, 0, 0, 0, 0, 0, 0, 0, 0, 0, 0, 0, 0], "stateRewards": ["", 4, 4, -24, -48, 2, 4, 24, -48, 2, 4, 24, 24], "withholdReward": true, "trial_id": "mdp_223558518218", "block": "test1", "trialIndex": 29, "score": 34.5, "costs": -0.5, "simulationMode": [null, null, null], "rewards": [2, 4, 24], "path": ["0", "0", "9", "10", "12"], "rt": [2663, 74, 31], "actions": ["left", "left", "down"], "actionTimes": [4717, 5314, 5869], "queries": {"click": {"state": {"target": ["10", "12"], "time": [2804, 3903]}, "edge": {"target": [], "time": []}}, "mouseover": {"state": {"target": ["9", "10", "12"], "time": [2383, 2537, 3470]}, "edge": {"target": [], "time": []}}, "mouseout": {"state": {"target": ["12", "0", "0", "9", "10"], "time": [875, 1389, 2197, 2423, 3165]}, "edge": {"target": [], "time": []}}}, "displayed_time": "11.06", "trialTime": 12102, "trial_type": "mouselab-mdp", "trial_index": 36, "time_elapsed": 986158, "internal_node_id": "0.0-4.0-1.0-27.0"}}, {"uniqueid": "w51568095:a86209553", "current_trial": 37, "dateTime": 1664369381501, "trialdata": {"revealed_states": [], "num_clicks_accrued": [0, 0, 0, 0, 0, 0, 0, 0, 0, 0, 0, 0, 0], "stateRewards": ["", -4, -4, 24, -48, -2, 8, -24, -48, -4, 4, 24, -48], "withholdReward": false, "trial_id": "mdp_934626330092", "block": "test1", "trialIndex": 30, "score": 28.25, "costs": -0.75, "simulationMode": [null, null, null], "rewards": [-4, 4, 24], "path": ["0", "0", "9", "10", "11"], "rt": [8785, 72, 8], "actions": ["left", "left", "up"], "actionTimes": [10039, 10637, 11167], "queries": {"click": {"state": {"target": ["10", "12", "11"], "time": [2743, 4279, 9415]}, "edge": {"target": [], "time": []}}, "mouseover": {"state": {"target": ["10", "12", "11"], "time": [2087, 3269, 5276]}, "edge": {"target": [], "time": []}}, "mouseout": {"state": {"target": ["12", "0", "10", "12", "10"], "time": [514, 1676, 3163, 4957, 5201]}, "edge": {"target": [], "time": []}}}, "displayed_time": "11.70", "trialTime": 12739, "trial_type": "mouselab-mdp", "trial_index": 37, "time_elapsed": 999332, "internal_node_id": "0.0-4.0-1.0-28.0"}}, {"uniqueid": "w51568095:a86209553", "current_trial": 38, "dateTime": 1664369412043, "trialdata": {"revealed_states": [], "num_clicks_accrued": [0, 0, 0, 0, 0, 0, 0, 0, 0, 0, 0, 0, 0], "stateRewards": ["", 2, 4, 48, 48, -2, 4, 48, -24, -4, 8, -48, 48], "withholdReward": true, "trial_id": "mdp_407586865939", "block": "test1", "trialIndex": 31, "score": 56.5, "costs": -0.5, "simulationMode": [null, null, null], "rewards": [-4, 8, 48], "path": ["0", "0", "9", "10", "12"], "rt": [2880, 145, 10], "actions": ["left", "left", "down"], "actionTimes": [4332, 4981, 5516], "queries": {"click": {"state": {"target": ["10", "12"], "time": [2517, 3630]}, "edge": {"target": [], "time": []}}, "mouseover": {"state": {"target": ["9", "10", "12"], "time": [1871, 2094, 3470]}, "edge": {"target": [], "time": []}}, "mouseout": {"state": {"target": ["11", "9", "0", "9", "10", "12", "10"], "time": [540, 721, 1599, 2032, 3317, 4069, 24068]}, "edge": {"target": [], "time": []}}}, "displayed_time": "10.45", "trialTime": 30081, "trial_type": "mouselab-mdp", "trial_index": 38, "time_elapsed": 1029873, "internal_node_id": "0.0-4.0-1.0-29.0"}}, {"uniqueid": "w51568095:a86209553", "current_trial": 39, "dateTime": 1664369430697, "trialdata": {"rt": 18628, "stimulus": "<h1> End of block! </h1>\n\nYou have reached the end of the block 1/4. If you need a short break, feel free to take one now before moving on.\n\n<br><br>\nIn the next block, you will complete another 30 rounds of this game.\n\n<br><br>\n<div style='text-align: center;'>Press <code>space</code> to begin.</div>\n<br><br>\n<div style='text-align: center;'>(If the experiment doesn't continue, try clicking on the text and then pressing <code>space</code>.)</div>", "response": " ", "trial_id": "mdp_ready_2", "trial_type": "html-keyboard-response", "trial_index": 39, "time_elapsed": 1048527, "internal_node_id": "0.0-4.0-2.0"}}, {"uniqueid": "w51568095:a86209553", "current_trial": 40, "dateTime": 1664369455156, "trialdata": {"revealed_states": [], "num_clicks_accrued": [0, 0, 0, 0, 0, 0, 0, 0, 0, 0, 0, 0, 0], "stateRewards": ["", 4, -4, 24, 48, 4, 8, -24, -24, -2, 4, 48, 48], "withholdReward": false, "trial_id": "mdp_624998450453", "block": "test2", "trialIndex": 32, "score": 54.5, "costs": -0.5, "simulationMode": [null, null, null], "rewards": [-2, 4, 48], "path": ["0", "0", "9", "10", "11"], "rt": [4184, 45, 395], "actions": ["left", "left", "up"], "actionTimes": [16771, 17326, 18259], "queries": {"click": {"state": {"target": ["10", "11"], "time": [13770, 15882]}, "edge": {"target": [], "time": []}}, "mouseover": {"state": {"target": ["0", "10", "11"], "time": [12862, 13282, 15196]}, "edge": {"target": [], "time": []}}, "mouseout": {"state": {"target": ["12", "0", "10", "11", "10"], "time": [10699, 12929, 15118, 16260, 16459]}, "edge": {"target": [], "time": []}}}, "displayed_time": "21.60", "trialTime": 23968, "trial_type": "mouselab-mdp", "trial_index": 40, "time_elapsed": 1072987, "internal_node_id": "0.0-4.0-3.0-0.0"}}, {"uniqueid": "w51568095:a86209553", "current_trial": 41, "dateTime": 1664369466334, "trialdata": {"revealed_states": [], "num_clicks_accrued": [0, 0, 0, 0, 0, 0, 0, 0, 0, 0, 0, 0, 0], "stateRewards": ["", -4, -8, -24, -48, -2, -8, 24, -48, -4, -8, 24, -48], "withholdReward": true, "trial_id": "mdp_621812384092", "block": "test2", "trialIndex": 33, "score": 16.5, "costs": -0.5, "simulationMode": [null, null, null], "rewards": [-4, -8, 24], "path": ["0", "0", "9", "10", "11"], "rt": [5835, 93, 48], "actions": ["left", "left", "up"], "actionTimes": [7418, 8031, 8601], "queries": {"click": {"state": {"target": ["10", "11"], "time": [2717, 4054]}, "edge": {"target": [], "time": []}}, "mouseover": {"state": {"target": ["9", "10", "11"], "time": [1908, 2421, 3491]}, "edge": {"target": [], "time": []}}, "mouseout": {"state": {"target": ["9", "0", "9", "10", "11"], "time": [956, 1811, 2029, 3411, 5574]}, "edge": {"target": [], "time": []}}}, "displayed_time": "9.59", "trialTime": 10664, "trial_type": "mouselab-mdp", "trial_index": 41, "time_elapsed": 1084164, "internal_node_id": "0.0-4.0-3.0-1.0"}}, {"uniqueid": "w51568095:a86209553", "current_trial": 42, "dateTime": 1664369485415, "trialdata": {"revealed_states": [], "num_clicks_accrued": [0, 0, 0, 0, 0, 0, 0, 0, 0, 0, 0, 0, 0], "stateRewards": ["", 2, 4, -24, -24, 4, 8, -48, 48, 2, 4, -24, -48], "withholdReward": true, "trial_id": "mdp_565165082781", "block": "test2", "trialIndex": 34, "score": 63, "costs": -2, "simulationMode": [null, null, null], "rewards": [4, 8, 48], "path": ["0", "0", "5", "6", "8"], "rt": [13609, 45, 425], "actions": ["right", "right", "down"], "actionTimes": [14897, 15466, 16422], "queries": {"click": {"state": {"target": ["10", "12", "11", "2", "4", "3", "6", "8"], "time": [2526, 3486, 4433, 6121, 7309, 9258, 10754, 14365]}, "edge": {"target": [], "time": []}}, "mouseover": {"state": {"target": ["9", "10", "12", "11", "2", "2", "4", "3", "6", "8"], "time": [1717, 1910, 3232, 4281, 5228, 5604, 7062, 8447, 9904, 11541]}, "edge": {"target": [], "time": []}}, "mouseout": {"state": {"target": ["9", "0", "9", "10", "12", "11", "2", "2", "4", "2", "3", "6"], "time": [549, 1590, 1878, 3219, 4119, 4868, 5362, 6707, 8018, 8181, 9859, 11091]}, "edge": {"target": [], "time": []}}}, "displayed_time": "16.94", "trialTime": 18683, "trial_type": "mouselab-mdp", "trial_index": 42, "time_elapsed": 1103245, "internal_node_id": "0.0-4.0-3.0-2.0"}}, {"uniqueid": "w51568095:a86209553", "current_trial": 43, "dateTime": 1664369504256, "trialdata": {"revealed_states": [], "num_clicks_accrued": [0, 0, 0, 0, 0, 0, 0, 0, 0, 0, 0, 0, 0], "stateRewards": ["", 2, 4, -48, 48, -4, 8, -48, -24, -4, -4, 48, 48], "withholdReward": false, "trial_id": "mdp_613582696541", "block": "test2", "trialIndex": 35, "score": 44.5, "costs": -0.5, "simulationMode": [null, null, null], "rewards": [-4, -4, 48], "path": ["0", "0", "9", "10", "12"], "rt": [13945, 64, 11], "actions": ["left", "left", "down"], "actionTimes": [15215, 15793, 16323], "queries": {"click": {"state": {"target": ["10", "12"], "time": [6589, 14395]}, "edge": {"target": [], "time": []}}, "mouseover": {"state": {"target": ["9", "10", "10", "12"], "time": [1882, 2099, 2367, 8712]}, "edge": {"target": [], "time": []}}, "mouseout": {"state": {"target": ["8", "5", "9", "10", "10"], "time": [528, 703, 2064, 2153, 8516]}, "edge": {"target": [], "time": []}}}, "displayed_time": "16.96", "trialTime": 18353, "trial_type": "mouselab-mdp", "trial_index": 43, "time_elapsed": 1122086, "internal_node_id": "0.0-4.0-3.0-3.0"}}, {"uniqueid": "w51568095:a86209553", "current_trial": 44, "dateTime": 1664369531510, "trialdata": {"revealed_states": [], "num_clicks_accrued": [0, 0, 0, 0, 0, 0, 0, 0, 0, 0, 0, 0, 0], "stateRewards": ["", -4, 4, -24, 24, -2, -4, 48, 24, 2, 8, -48, 24], "withholdReward": true, "trial_id": "mdp_150340189492", "block": "test2", "trialIndex": 36, "score": 45.75, "costs": -1.25, "simulationMode": [null, null, null], "rewards": [-2, -4, 48], "path": ["0", "0", "5", "6", "7"], "rt": [21110, 73, 8], "actions": ["right", "right", "up"], "actionTimes": [23118, 23733, 24306], "queries": {"click": {"state": {"target": ["12", "11", "4", "3", "7"], "time": [6024, 10045, 11079, 12583, 22461]}, "edge": {"target": [], "time": []}}, "mouseover": {"state": {"target": ["12", "11", "4", "2", "3", "7", "7", "6"], "time": [4996, 8212, 10816, 12250, 12281, 21102, 21932, 22787]}, "edge": {"target": [], "time": []}}, "mouseout": {"state": {"target": ["12", "9", "0", "12", "11", "4", "2", "3", "7", "7", "6"], "time": [516, 732, 2268, 7983, 10710, 12228, 12276, 13191, 21583, 22770, 22832]}, "edge": {"target": [], "time": []}}}, "displayed_time": "24.84", "trialTime": 26735, "trial_type": "mouselab-mdp", "trial_index": 44, "time_elapsed": 1149340, "internal_node_id": "0.0-4.0-3.0-4.0"}}, {"uniqueid": "w51568095:a86209553", "current_trial": 45, "dateTime": 1664369550701, "trialdata": {"revealed_states": [], "num_clicks_accrued": [0, 0, 0, 0, 0, 0, 0, 0, 0, 0, 0, 0, 0], "stateRewards": ["", 2, -8, -24, 48, -4, -8, 24, -48, 4, -8, -24, -24], "withholdReward": true, "trial_id": "mdp_928911266656", "block": "test2", "trialIndex": 37, "score": 46, "costs": -1, "simulationMode": [null, null, null], "rewards": [2, -8, 48], "path": ["0", "0", "1", "2", "4"], "rt": [12679, 51, 486], "actions": ["up", "up", "left"], "actionTimes": [15261, 15836, 16868], "queries": {"click": {"state": {"target": ["8", "7", "12", "4"], "time": [4725, 7303, 9085, 13702]}, "edge": {"target": [], "time": []}}, "mouseover": {"state": {"target": ["0", "8", "7", "12", "4"], "time": [3068, 3258, 5556, 8867, 11915]}, "edge": {"target": [], "time": []}}, "mouseout": {"state": {"target": ["0", "8", "7", "12", "4", "4"], "time": [3113, 5494, 8567, 11180, 17641, 18194]}, "edge": {"target": [], "time": []}}}, "displayed_time": "17.40", "trialTime": 18703, "trial_type": "mouselab-mdp", "trial_index": 45, "time_elapsed": 1168531, "internal_node_id": "0.0-4.0-3.0-5.0"}}, {"uniqueid": "w51568095:a86209553", "current_trial": 46, "dateTime": 1664369565893, "trialdata": {"revealed_states": [], "num_clicks_accrued": [0, 0, 0, 0, 0, 0, 0, 0, 0, 0, 0, 0, 0], "stateRewards": ["", -2, -8, 48, 24, 4, -8, 24, 48, 4, -4, 24, -48], "withholdReward": false, "trial_id": "mdp_871576155740", "block": "test2", "trialIndex": 38, "score": 48.5, "costs": -0.5, "simulationMode": [null, null, null], "rewards": [4, -8, 48], "path": ["0", "0", "5", "6", "8"], "rt": [4477, 119, 104], "actions": ["right", "right", "down"], "actionTimes": [5783, 6428, 7044], "queries": {"click": {"state": {"target": ["4", "8"], "time": [2247, 4987]}, "edge": {"target": [], "time": []}}, "mouseover": {"state": {"target": ["1", "4", "3", "8"], "time": [1719, 1794, 3169, 3818]}, "edge": {"target": [], "time": []}}, "mouseout": {"state": {"target": ["1", "1", "4", "3"], "time": [24, 1767, 3136, 3556]}, "edge": {"target": [], "time": []}}}, "displayed_time": "9.32", "trialTime": 14530, "trial_type": "mouselab-mdp", "trial_index": 46, "time_elapsed": 1183723, "internal_node_id": "0.0-4.0-3.0-6.0"}}, {"uniqueid": "w51568095:a86209553", "current_trial": 47, "dateTime": 1664369581210, "trialdata": {"revealed_states": [], "num_clicks_accrued": [0, 0, 0, 0, 0, 0, 0, 0, 0, 0, 0, 0, 0], "stateRewards": ["", -2, 8, -48, -24, -2, 8, 48, -48, -4, 8, 24, 48], "withholdReward": true, "trial_id": "mdp_160707003673", "block": "test2", "trialIndex": 39, "score": 56.25, "costs": -0.75, "simulationMode": [null, null, null], "rewards": [-4, 8, 48], "path": ["0", "0", "9", "10", "12"], "rt": [9844, 63, 419], "actions": ["left", "left", "down"], "actionTimes": [11912, 12527, 13472], "queries": {"click": {"state": {"target": ["8", "3", "12"], "time": [3218, 8132, 10118]}, "edge": {"target": [], "time": []}}, "mouseover": {"state": {"target": ["8", "7", "2", "3", "12"], "time": [2752, 3873, 6397, 7203, 9547]}, "edge": {"target": [], "time": []}}, "mouseout": {"state": {"target": ["8", "8", "7", "2", "3"], "time": [453, 3773, 6234, 6929, 9081]}, "edge": {"target": [], "time": []}}}, "displayed_time": "13.99", "trialTime": 14819, "trial_type": "mouselab-mdp", "trial_index": 47, "time_elapsed": 1199041, "internal_node_id": "0.0-4.0-3.0-7.0"}}, {"uniqueid": "w51568095:a86209553", "current_trial": 48, "dateTime": 1664369593776, "trialdata": {"revealed_states": [], "num_clicks_accrued": [0, 0, 0, 0, 0, 0, 0, 0, 0, 0, 0, 0, 0], "stateRewards": ["", -4, -8, -48, -48, 4, -8, 48, 48, 2, 8, 48, 24], "withholdReward": false, "trial_id": "mdp_880437222492", "block": "test2", "trialIndex": 40, "score": 48.25, "costs": -0.75, "simulationMode": [null, null, null], "rewards": [4, -8, 48], "path": ["0", "0", "5", "6", "8"], "rt": [7131, 161, 79], "actions": ["right", "right", "down"], "actionTimes": [8457, 9144, 9752], "queries": {"click": {"state": {"target": ["12", "3", "8"], "time": [2974, 5782, 7059]}, "edge": {"target": [], "time": []}}, "mouseover": {"state": {"target": ["0", "12", "11", "2", "3", "8"], "time": [1720, 2294, 3816, 4051, 4285, 6811]}, "edge": {"target": [], "time": []}}, "mouseout": {"state": {"target": ["12", "9", "0", "0", "12", "11", "2", "3"], "time": [318, 521, 664, 1843, 3751, 3974, 4278, 6422]}, "edge": {"target": [], "time": []}}}, "displayed_time": "10.28", "trialTime": 12091, "trial_type": "mouselab-mdp", "trial_index": 48, "time_elapsed": 1211606, "internal_node_id": "0.0-4.0-3.0-8.0"}}, {"uniqueid": "w51568095:a86209553", "current_trial": 49, "dateTime": 1664369608895, "trialdata": {"revealed_states": [], "num_clicks_accrued": [0, 0, 0, 0, 0, 0, 0, 0, 0, 0, 0, 0, 0], "stateRewards": ["", 4, -4, 48, -48, 4, -4, 24, -24, 4, 8, -24, -48], "withholdReward": true, "trial_id": "mdp_433630527224", "block": "test2", "trialIndex": 41, "score": 52, "costs": -1, "simulationMode": [null, null, null], "rewards": [4, -4, 48], "path": ["0", "0", "1", "2", "3"], "rt": [10165, 73, 57], "actions": ["up", "up", "right"], "actionTimes": [11749, 12343, 12911], "queries": {"click": {"state": {"target": ["12", "7", "4", "3"], "time": [5058, 7333, 9331, 10964]}, "edge": {"target": [], "time": []}}, "mouseover": {"state": {"target": ["0", "12", "7", "8", "2", "4", "2", "3"], "time": [2183, 2407, 6650, 8006, 8887, 9141, 10335, 10369]}, "edge": {"target": [], "time": []}}, "mouseout": {"state": {"target": ["8", "0", "0", "12", "7", "8", "2", "4", "2"], "time": [564, 1289, 2336, 6152, 7964, 8588, 8944, 10108, 10364]}, "edge": {"target": [], "time": []}}}, "displayed_time": "13.46", "trialTime": 14582, "trial_type": "mouselab-mdp", "trial_index": 49, "time_elapsed": 1226726, "internal_node_id": "0.0-4.0-3.0-9.0"}}, {"uniqueid": "w51568095:a86209553", "current_trial": 50, "dateTime": 1664369630706, "trialdata": {"revealed_states": [], "num_clicks_accrued": [0, 0, 0, 0, 0, 0, 0, 0, 0, 0, 0, 0, 0], "stateRewards": ["", 2, 8, -48, -24, 2, -4, -48, 24, 2, -4, -24, -24], "withholdReward": true, "trial_id": "mdp_954659099093", "block": "test2", "trialIndex": 42, "score": -10.25, "costs": -1.25, "simulationMode": [null, null, null], "rewards": [2, 8, -24], "path": ["0", "0", "1", "2", "4"], "rt": [8246, 92, 8718], "actions": ["up", "up", "left"], "actionTimes": [9338, 9943, 19183], "queries": {"click": {"state": {"target": ["12", "3", "7", "8", "11"], "time": [2055, 3064, 5629, 6619, 8208]}, "edge": {"target": [], "time": []}}, "mouseover": {"state": {"target": ["12", "3", "2", "4", "11", "7", "8", "5", "11", "4"], "time": [1792, 2784, 3879, 4199, 4405, 5255, 6209, 7391, 7745, 8956]}, "edge": {"target": [], "time": []}}, "mouseout": {"state": {"target": ["3", "0", "12", "3", "2", "4", "11", "7", "8", "5", "11"], "time": [264, 1758, 2666, 3534, 4017, 4314, 4980, 6111, 7334, 7460, 8830]}, "edge": {"target": [], "time": []}}}, "displayed_time": "19.73", "trialTime": 21315, "trial_type": "mouselab-mdp", "trial_index": 50, "time_elapsed": 1248537, "internal_node_id": "0.0-4.0-3.0-10.0"}}, {"uniqueid": "w51568095:a86209553", "current_trial": 51, "dateTime": 1664369649237, "trialdata": {"revealed_states": [], "num_clicks_accrued": [0, 0, 0, 0, 0, 0, 0, 0, 0, 0, 0, 0, 0], "stateRewards": ["", -4, 4, -24, 48, 2, 4, -48, 24, 4, -8, -24, 24], "withholdReward": false, "trial_id": "mdp_740130150937", "block": "test2", "trialIndex": 43, "score": 52.5, "costs": -0.5, "simulationMode": [null, null, null], "rewards": [-4, 4, 48], "path": ["0", "0", "1", "2", "4"], "rt": [4830, 164, 131], "actions": ["up", "up", "left"], "actionTimes": [7279, 7969, 8619], "queries": {"click": {"state": {"target": ["8", "4"], "time": [3454, 5303]}, "edge": {"target": [], "time": []}}, "mouseover": {"state": {"target": ["8", "6", "7", "4"], "time": [3082, 3986, 4202, 5051]}, "edge": {"target": [], "time": []}}, "mouseout": {"state": {"target": ["4", "5", "0", "8", "6", "7", "4"], "time": [1227, 1569, 2964, 3935, 4088, 4754, 11187]}, "edge": {"target": [], "time": []}}}, "displayed_time": "11.45", "trialTime": 18032, "trial_type": "mouselab-mdp", "trial_index": 51, "time_elapsed": 1267068, "internal_node_id": "0.0-4.0-3.0-11.0"}}, {"uniqueid": "w51568095:a86209553", "current_trial": 52, "dateTime": 1664369668327, "trialdata": {"revealed_states": [], "num_clicks_accrued": [0, 0, 0, 0, 0, 0, 0, 0, 0, 0, 0, 0, 0], "stateRewards": ["", 4, 8, -24, 48, -2, -4, 24, -24, -2, 4, 24, 24], "withholdReward": true, "trial_id": "mdp_948713805479", "block": "test2", "trialIndex": 44, "score": 30, "costs": -1, "simulationMode": [null, null, null], "rewards": [-2, 4, 24], "path": ["0", "0", "9", "10", "12"], "rt": [13594, 182, 55], "actions": ["left", "left", "down"], "actionTimes": [15018, 15723, 16294], "queries": {"click": {"state": {"target": ["12", "3", "8", "11"], "time": [5753, 7234, 8343, 12136]}, "edge": {"target": [], "time": []}}, "mouseover": {"state": {"target": ["12", "3", "8", "4", "11", "11", "9", "0", "7"], "time": [5130, 7008, 8123, 9773, 10715, 11221, 12565, 13032, 13239]}, "edge": {"target": [], "time": []}}, "mouseout": {"state": {"target": ["0", "12", "3", "8", "4", "11", "11", "9", "0"], "time": [4699, 6526, 7697, 8990, 10402, 10848, 12557, 12619, 13134]}, "edge": {"target": [], "time": []}}}, "displayed_time": "16.82", "trialTime": 18607, "trial_type": "mouselab-mdp", "trial_index": 52, "time_elapsed": 1286157, "internal_node_id": "0.0-4.0-3.0-12.0"}}, {"uniqueid": "w51568095:a86209553", "current_trial": 53, "dateTime": 1664369681154, "trialdata": {"revealed_states": [], "num_clicks_accrued": [0, 0, 0, 0, 0, 0, 0, 0, 0, 0, 0, 0, 0], "stateRewards": ["", 4, 4, 48, -24, 2, -4, 48, 24, -4, -4, -48, 24], "withholdReward": true, "trial_id": "mdp_496003763005", "block": "test2", "trialIndex": 45, "score": 50.5, "costs": -0.5, "simulationMode": [null, null, null], "rewards": [2, -4, 48], "path": ["0", "0", "5", "6", "7"], "rt": [4902, 56, 63], "actions": ["right", "right", "up"], "actionTimes": [6555, 7171, 7777], "queries": {"click": {"state": {"target": ["12", "7"], "time": [3623, 5489]}, "edge": {"target": [], "time": []}}, "mouseover": {"state": {"target": ["9", "12", "7", "7"], "time": [2682, 3155, 4827, 5021]}, "edge": {"target": [], "time": []}}, "mouseout": {"state": {"target": ["7", "5", "0", "9", "12", "7", "7"], "time": [565, 809, 2671, 2805, 4296, 4858, 6025]}, "edge": {"target": [], "time": []}}}, "displayed_time": "10.66", "trialTime": 12397, "trial_type": "mouselab-mdp", "trial_index": 53, "time_elapsed": 1298985, "internal_node_id": "0.0-4.0-3.0-13.0"}}, {"uniqueid": "w51568095:a86209553", "current_trial": 54, "dateTime": 1664369698386, "trialdata": {"revealed_states": [], "num_clicks_accrued": [0, 0, 0, 0, 0, 0, 0, 0, 0, 0, 0, 0, 0], "stateRewards": ["", -4, 8, 24, 24, 2, 4, -48, 24, -2, -4, -24, -24], "withholdReward": true, "trial_id": "mdp_752328329546", "block": "test2", "trialIndex": 46, "score": 32, "costs": -1, "simulationMode": [null, null, null], "rewards": [-4, 8, 24], "path": ["0", "0", "1", "2", "4"], "rt": [10813, 140, 437], "actions": ["up", "up", "left"], "actionTimes": [12585, 13230, 14212], "queries": {"click": {"state": {"target": ["12", "7", "8", "4"], "time": [4729, 6091, 7137, 8911]}, "edge": {"target": [], "time": []}}, "mouseover": {"state": {"target": ["12", "7", "8", "1", "4"], "time": [4526, 5624, 6845, 7889, 7976]}, "edge": {"target": [], "time": []}}, "mouseout": {"state": {"target": ["6", "5", "0", "12", "7", "8", "1"], "time": [627, 745, 4205, 5339, 6535, 7870, 7968]}, "edge": {"target": [], "time": []}}}, "displayed_time": "14.75", "trialTime": 16752, "trial_type": "mouselab-mdp", "trial_index": 54, "time_elapsed": 1316217, "internal_node_id": "0.0-4.0-3.0-14.0"}}, {"uniqueid": "w51568095:a86209553", "current_trial": 55, "dateTime": 1664369714614, "trialdata": {"revealed_states": [], "num_clicks_accrued": [0, 0, 0, 0, 0, 0, 0, 0, 0, 0, 0, 0, 0], "stateRewards": ["", 2, -4, 48, -48, 2, 4, -24, 24, -4, -8, 24, -48], "withholdReward": true, "trial_id": "mdp_238810765895", "block": "test2", "trialIndex": 47, "score": 49.75, "costs": -1.25, "simulationMode": [null, null, null], "rewards": [2, -4, 48], "path": ["0", "0", "1", "2", "3"], "rt": [11513, 98, 52], "actions": ["up", "up", "right"], "actionTimes": [12803, 13427, 13983], "queries": {"click": {"state": {"target": ["8", "4", "12", "7", "3"], "time": [2459, 3919, 5063, 6880, 10823]}, "edge": {"target": [], "time": []}}, "mouseover": {"state": {"target": ["0", "8", "4", "12", "7", "7", "3"], "time": [1465, 2182, 3695, 4713, 6211, 6444, 9895]}, "edge": {"target": [], "time": []}}, "mouseout": {"state": {"target": ["4", "0", "0", "8", "4", "12", "7", "7", "3", "5"], "time": [353, 900, 1630, 3069, 4495, 5558, 6262, 9609, 11164, 14973]}, "edge": {"target": [], "time": []}}}, "displayed_time": "14.53", "trialTime": 15798, "trial_type": "mouselab-mdp", "trial_index": 55, "time_elapsed": 1332444, "internal_node_id": "0.0-4.0-3.0-15.0"}}, {"uniqueid": "w51568095:a86209553", "current_trial": 56, "dateTime": 1664369725340, "trialdata": {"revealed_states": [], "num_clicks_accrued": [0, 0, 0, 0, 0, 0, 0, 0, 0, 0, 0, 0, 0], "stateRewards": ["", -4, 8, 48, -48, 2, -4, 24, -24, -2, 4, -24, -24], "withholdReward": true, "trial_id": "mdp_804988042722", "block": "test2", "trialIndex": 48, "score": 56, "costs": -1, "simulationMode": [null, null, null], "rewards": [-4, 8, 48], "path": ["0", "0", "1", "2", "3"], "rt": [5131, 15, 46], "actions": ["up", "up", "right"], "actionTimes": [6711, 7282, 7876], "queries": {"click": {"state": {"target": ["12", "7", "8", "3"], "time": [2989, 3977, 4972, 6076]}, "edge": {"target": [], "time": []}}, "mouseover": {"state": {"target": ["12", "12", "7", "6", "8", "2", "3"], "time": [2386, 2751, 3740, 4302, 4735, 5534, 5895]}, "edge": {"target": [], "time": []}}, "mouseout": {"state": {"target": ["12", "12", "7", "6", "8", "2"], "time": [2421, 3692, 4215, 4453, 5446, 5569]}, "edge": {"target": [], "time": []}}}, "displayed_time": "9.59", "trialTime": 10204, "trial_type": "mouselab-mdp", "trial_index": 56, "time_elapsed": 1343170, "internal_node_id": "0.0-4.0-3.0-16.0"}}, {"uniqueid": "w51568095:a86209553", "current_trial": 57, "dateTime": 1664369739714, "trialdata": {"revealed_states": [], "num_clicks_accrued": [0, 0, 0, 0, 0, 0, 0, 0, 0, 0, 0, 0, 0], "stateRewards": ["", -4, 4, 24, 24, 4, -8, 48, -48, -2, -8, 24, 24], "withholdReward": true, "trial_id": "mdp_395264223239", "block": "test2", "trialIndex": 49, "score": 47.75, "costs": -1.25, "simulationMode": [null, null, null], "rewards": [4, -8, 48], "path": ["0", "0", "5", "6", "7"], "rt": [9168, 84, 115], "actions": ["right", "right", "up"], "actionTimes": [10506, 11105, 11762], "queries": {"click": {"state": {"target": ["8", "11", "3", "12", "7"], "time": [2186, 3854, 5516, 6572, 9941]}, "edge": {"target": [], "time": []}}, "mouseover": {"state": {"target": ["8", "11", "0", "7", "3", "12", "7", "6"], "time": [1908, 3543, 4583, 4893, 5303, 6379, 7940, 10432]}, "edge": {"target": [], "time": []}}, "mouseout": {"state": {"target": ["3", "0", "8", "11", "0", "7", "3", "12", "7"], "time": [595, 1519, 3034, 4419, 4791, 5239, 5982, 7720, 10195]}, "edge": {"target": [], "time": []}}}, "displayed_time": "12.27", "trialTime": 13957, "trial_type": "mouselab-mdp", "trial_index": 57, "time_elapsed": 1357544, "internal_node_id": "0.0-4.0-3.0-17.0"}}, {"uniqueid": "w51568095:a86209553", "current_trial": 58, "dateTime": 1664369753277, "trialdata": {"revealed_states": [], "num_clicks_accrued": [0, 0, 0, 0, 0, 0, 0, 0, 0, 0, 0, 0, 0], "stateRewards": ["", 4, -4, 48, -48, -4, -4, 48, -48, 4, 4, -48, -24], "withholdReward": true, "trial_id": "mdp_490058671112", "block": "test2", "trialIndex": 50, "score": 44.75, "costs": -0.25, "simulationMode": [null, null, null], "rewards": [-4, -4, 48], "path": ["0", "0", "5", "6", "7"], "rt": [3628, 94, 65], "actions": ["right", "right", "up"], "actionTimes": [5495, 6110, 6723], "queries": {"click": {"state": {"target": ["7"], "time": [3877]}, "edge": {"target": [], "time": []}}, "mouseover": {"state": {"target": ["7"], "time": [2675]}, "edge": {"target": [], "time": []}}, "mouseout": {"state": {"target": ["6", "5", "0"], "time": [397, 903, 2426]}, "edge": {"target": [], "time": []}}}, "displayed_time": "10.87", "trialTime": 13021, "trial_type": "mouselab-mdp", "trial_index": 58, "time_elapsed": 1371108, "internal_node_id": "0.0-4.0-3.0-18.0"}}, {"uniqueid": "w51568095:a86209553", "current_trial": 59, "dateTime": 1664369772559, "trialdata": {"revealed_states": [], "num_clicks_accrued": [0, 0, 0, 0, 0, 0, 0, 0, 0, 0, 0, 0, 0], "stateRewards": ["", 2, -8, 48, -24, -4, -8, -24, 48, -2, 4, 24, -48], "withholdReward": false, "trial_id": "mdp_186932504904", "block": "test2", "trialIndex": 51, "score": 46, "costs": -1, "simulationMode": [null, null, null], "rewards": [2, -8, 48], "path": ["0", "0", "1", "2", "3"], "rt": [7151, 87, 98], "actions": ["up", "up", "right"], "actionTimes": [9863, 10499, 11110], "queries": {"click": {"state": {"target": ["12", "11", "4", "3"], "time": [4018, 6272, 7645, 9197]}, "edge": {"target": [], "time": []}}, "mouseover": {"state": {"target": ["9", "12", "7", "9", "11", "4", "3", "3"], "time": [3404, 3628, 4813, 5514, 5856, 7280, 8317, 8592]}, "edge": {"target": [], "time": []}}, "mouseout": {"state": {"target": ["7", "5", "0", "9", "12", "7", "9", "11", "4", "3", "3", "3", "1"], "time": [null, 531, 3253, 3511, 4801, 5413, 5584, 6928, 8062, 8376, 14536, 16920, 18115]}, "edge": {"target": [], "time": []}}}, "displayed_time": "11.63", "trialTime": 18565, "trial_type": "mouselab-mdp", "trial_index": 59, "time_elapsed": 1390389, "internal_node_id": "0.0-4.0-3.0-19.0"}}, {"uniqueid": "w51568095:a86209553", "current_trial": 60, "dateTime": 1664369785779, "trialdata": {"revealed_states": [], "num_clicks_accrued": [0, 0, 0, 0, 0, 0, 0, 0, 0, 0, 0, 0, 0], "stateRewards": ["", -2, -4, -48, -48, -2, -8, 48, -48, 4, -8, -48, 24], "withholdReward": true, "trial_id": "mdp_468495641521", "block": "test2", "trialIndex": 52, "score": 42, "costs": -1, "simulationMode": [null, null, null], "rewards": [-2, -8, 48], "path": ["0", "0", "5", "6", "7"], "rt": [7580, 147, 77], "actions": ["right", "right", "up"], "actionTimes": [9707, 10368, 11021], "queries": {"click": {"state": {"target": ["12", "3", "8", "7"], "time": [3278, 4853, 6103, 7269]}, "edge": {"target": [], "time": []}}, "mouseover": {"state": {"target": ["12", "3", "8", "7", "7"], "time": [2920, 4201, 5896, 6798, 7033]}, "edge": {"target": [], "time": []}}, "mouseout": {"state": {"target": ["2", "1", "12", "3", "8", "7", "7"], "time": [403, 642, 3791, 5350, 6652, 6852, 8452]}, "edge": {"target": [], "time": []}}}, "displayed_time": "11.52", "trialTime": 12705, "trial_type": "mouselab-mdp", "trial_index": 60, "time_elapsed": 1403609, "internal_node_id": "0.0-4.0-3.0-20.0"}}, {"uniqueid": "w51568095:a86209553", "current_trial": 61, "dateTime": 1664369797217, "trialdata": {"revealed_states": [], "num_clicks_accrued": [0, 0, 0, 0, 0, 0, 0, 0, 0, 0, 0, 0, 0], "stateRewards": ["", 2, -4, 48, -24, 4, -8, -24, 48, -2, -4, 24, -48], "withholdReward": true, "trial_id": "mdp_357328205509", "block": "test2", "trialIndex": 53, "score": 48.75, "costs": -0.25, "simulationMode": [null, null, null], "rewards": [4, -8, 48], "path": ["0", "0", "5", "6", "8"], "rt": [2029, 125, 31], "actions": ["right", "right", "down"], "actionTimes": [3424, 4068, 4649], "queries": {"click": {"state": {"target": ["8"], "time": [2626]}, "edge": {"target": [], "time": []}}, "mouseover": {"state": {"target": ["8"], "time": [2430]}, "edge": {"target": [], "time": []}}, "mouseout": {"state": {"target": ["5", "9", "0", "8"], "time": [656, 842, 1774, 6117]}, "edge": {"target": [], "time": []}}}, "displayed_time": "9.39", "trialTime": 10940, "trial_type": "mouselab-mdp", "trial_index": 61, "time_elapsed": 1415048, "internal_node_id": "0.0-4.0-3.0-21.0"}}, {"uniqueid": "w51568095:a86209553", "current_trial": 62, "dateTime": 1664369818376, "trialdata": {"revealed_states": [], "num_clicks_accrued": [0, 0, 0, 0, 0, 0, 0, 0, 0, 0, 0, 0, 0], "stateRewards": ["", 4, 8, -48, 24, -2, 8, -48, -48, -4, 4, 48, -48], "withholdReward": false, "trial_id": "mdp_693807815190", "block": "test2", "trialIndex": 54, "score": 52, "costs": -1, "simulationMode": [null, null, null], "rewards": [-4, 4, 48], "path": ["0", "0", "9", "10", "11"], "rt": [7499, 161, 90], "actions": ["left", "left", "up"], "actionTimes": [17331, 18014, 18661], "queries": {"click": {"state": {"target": ["12", "8", "7", "11"], "time": [11831, 13400, 14259, 15673]}, "edge": {"target": [], "time": []}}, "mouseover": {"state": {"target": ["12", "8", "8", "7", "11"], "time": [10970, 12827, 13105, 14050, 15424]}, "edge": {"target": [], "time": []}}, "mouseout": {"state": {"target": ["8", "0", "12", "8", "8", "7", "11"], "time": [1838, 10369, 12462, 12866, 13954, 14831, 19565]}, "edge": {"target": [], "time": []}}}, "displayed_time": "19.19", "trialTime": 20627, "trial_type": "mouselab-mdp", "trial_index": 62, "time_elapsed": 1436207, "internal_node_id": "0.0-4.0-3.0-22.0"}}, {"uniqueid": "w51568095:a86209553", "current_trial": 63, "dateTime": 1664369832381, "trialdata": {"revealed_states": [], "num_clicks_accrued": [0, 0, 0, 0, 0, 0, 0, 0, 0, 0, 0, 0, 0], "stateRewards": ["", -4, 4, -48, -48, -2, -8, -48, -24, 4, 8, -24, 24], "withholdReward": true, "trial_id": "mdp_449260894259", "block": "test2", "trialIndex": 55, "score": 39.5, "costs": -1.5, "simulationMode": [null, null, null], "rewards": [4, 8, 24], "path": ["0", "0", "9", "10", "12"], "rt": [9177, 278, 63], "actions": ["left", "left", "down"], "actionTimes": [10506, 11317, 11897], "queries": {"click": {"state": {"target": ["8", "7", "12", "11", "4", "3"], "time": [3093, 3961, 5206, 6452, 7253, 9283]}, "edge": {"target": [], "time": []}}, "mouseover": {"state": {"target": ["8", "7", "5", "12", "11", "4", "3"], "time": [2382, 3762, 4563, 5019, 6332, 7184, 7729]}, "edge": {"target": [], "time": []}}, "mouseout": {"state": {"target": ["0", "8", "7", "7", "5", "12", "11", "4", "3"], "time": [1972, 3745, 3985, 4554, 4722, 6215, 7037, 7637, 9582]}, "edge": {"target": [], "time": []}}}, "displayed_time": "12.43", "trialTime": 13476, "trial_type": "mouselab-mdp", "trial_index": 63, "time_elapsed": 1450212, "internal_node_id": "0.0-4.0-3.0-23.0"}}, {"uniqueid": "w51568095:a86209553", "current_trial": 64, "dateTime": 1664369848912, "trialdata": {"revealed_states": [], "num_clicks_accrued": [0, 0, 0, 0, 0, 0, 0, 0, 0, 0, 0, 0, 0], "stateRewards": ["", -4, 8, 24, -24, 4, 8, -24, -48, 2, 4, 24, -24], "withholdReward": true, "trial_id": "mdp_782187007008", "block": "test2", "trialIndex": 56, "score": 33.25, "costs": -1.75, "simulationMode": [null, null, null], "rewards": [2, 4, 24], "path": ["0", "0", "9", "10", "11"], "rt": [11851, 42, 28], "actions": ["left", "left", "up"], "actionTimes": [13038, 13595, 14152], "queries": {"click": {"state": {"target": ["9", "1", "5", "8", "7", "12", "11"], "time": [3574, 4453, 5744, 6781, 8679, 9957, 11074]}, "edge": {"target": [], "time": []}}, "mouseover": {"state": {"target": ["9", "1", "5", "8", "7", "12", "11"], "time": [2360, 4209, 5304, 6290, 7436, 9526, 10967]}, "edge": {"target": [], "time": []}}, "mouseout": {"state": {"target": ["0", "9", "1", "5", "8", "7", "12", "11"], "time": [2060, 4022, 4670, 6232, 7285, 9346, 10276, 11487]}, "edge": {"target": [], "time": []}}}, "displayed_time": "14.69", "trialTime": 15977, "trial_type": "mouselab-mdp", "trial_index": 64, "time_elapsed": 1466743, "internal_node_id": "0.0-4.0-3.0-24.0"}}, {"uniqueid": "w51568095:a86209553", "current_trial": 65, "dateTime": 1664369862301, "trialdata": {"revealed_states": [], "num_clicks_accrued": [0, 0, 0, 0, 0, 0, 0, 0, 0, 0, 0, 0, 0], "stateRewards": ["", 4, -8, -24, 48, -4, 8, -24, -48, -4, -4, 24, 48], "withholdReward": true, "trial_id": "mdp_282352776624", "block": "test2", "trialIndex": 57, "score": 43.75, "costs": -1.25, "simulationMode": [null, null, null], "rewards": [-4, -4, 48], "path": ["0", "0", "9", "10", "12"], "rt": [6951, 43, 455], "actions": ["left", "left", "down"], "actionTimes": [8818, 9389, 10403], "queries": {"click": {"state": {"target": ["10", "2", "6", "8", "12"], "time": [2929, 3787, 4525, 5811, 6959]}, "edge": {"target": [], "time": []}}, "mouseover": {"state": {"target": ["10", "2", "6", "8", "12"], "time": [2523, 3624, 4265, 5013, 6773]}, "edge": {"target": [], "time": []}}, "mouseout": {"state": {"target": ["9", "0", "10", "2", "6", "8", "12"], "time": [1025, 1998, 3279, 4075, 4876, 6396, 11812]}, "edge": {"target": [], "time": []}}}, "displayed_time": "11.87", "trialTime": 12876, "trial_type": "mouselab-mdp", "trial_index": 65, "time_elapsed": 1480131, "internal_node_id": "0.0-4.0-3.0-25.0"}}, {"uniqueid": "w51568095:a86209553", "current_trial": 66, "dateTime": 1664369873867, "trialdata": {"revealed_states": [], "num_clicks_accrued": [0, 0, 0, 0, 0, 0, 0, 0, 0, 0, 0, 0, 0], "stateRewards": ["", -2, -4, -24, 48, -4, 8, 48, 48, 2, 8, -48, -24], "withholdReward": false, "trial_id": "mdp_136376573354", "block": "test2", "trialIndex": 58, "score": 56, "costs": -1, "simulationMode": [null, null, null], "rewards": [-4, 8, 48], "path": ["0", "0", "5", "6", "8"], "rt": [6189, 120, 56], "actions": ["right", "right", "down"], "actionTimes": [7850, 8480, 9076], "queries": {"click": {"state": {"target": ["12", "11", "3", "8"], "time": [2940, 4562, 5415, 6324]}, "edge": {"target": [], "time": []}}, "mouseover": {"state": {"target": ["12", "12", "12", "11", "3", "6", "8"], "time": [1700, 2167, 2516, 3999, 5200, 5944, 6000]}, "edge": {"target": [], "time": []}}, "mouseout": {"state": {"target": ["0", "12", "12", "12", "11", "3", "6", "8", "5"], "time": [1694, 1965, 2205, 3781, 5015, 5693, 5996, 9719, 10006]}, "edge": {"target": [], "time": []}}}, "displayed_time": "9.70", "trialTime": 10889, "trial_type": "mouselab-mdp", "trial_index": 66, "time_elapsed": 1491697, "internal_node_id": "0.0-4.0-3.0-26.0"}}, {"uniqueid": "w51568095:a86209553", "current_trial": 67, "dateTime": 1664369886881, "trialdata": {"revealed_states": [], "num_clicks_accrued": [0, 0, 0, 0, 0, 0, 0, 0, 0, 0, 0, 0, 0], "stateRewards": ["", -2, -8, -24, -24, 4, -4, -48, 48, 2, 8, 48, -48], "withholdReward": true, "trial_id": "mdp_498095124548", "block": "test2", "trialIndex": 59, "score": 52.25, "costs": -0.75, "simulationMode": [null, null, null], "rewards": [4, -4, 48], "path": ["0", "0", "5", "6", "8"], "rt": [5110, 191, 189], "actions": ["right", "right", "down"], "actionTimes": [8025, 8739, 9453], "queries": {"click": {"state": {"target": ["12", "7", "8"], "time": [4705, 6045, 7468]}, "edge": {"target": [], "time": []}}, "mouseover": {"state": {"target": ["12", "7", "6", "8"], "time": [3862, 5913, 6528, 6687]}, "edge": {"target": [], "time": []}}, "mouseout": {"state": {"target": ["0", "0", "12", "7", "6"], "time": [495, 3756, 5415, 6506, 6583]}, "edge": {"target": [], "time": []}}}, "displayed_time": "11.93", "trialTime": 12443, "trial_type": "mouselab-mdp", "trial_index": 67, "time_elapsed": 1504712, "internal_node_id": "0.0-4.0-3.0-27.0"}}, {"uniqueid": "w51568095:a86209553", "current_trial": 68, "dateTime": 1664369900978, "trialdata": {"revealed_states": [], "num_clicks_accrued": [0, 0, 0, 0, 0, 0, 0, 0, 0, 0, 0, 0, 0], "stateRewards": ["", -2, -8, -24, 24, -2, -8, -48, 24, -2, -8, 24, 24], "withholdReward": true, "trial_id": "mdp_336617436097", "block": "test2", "trialIndex": 60, "score": 18, "costs": -1, "simulationMode": [null, null, null], "rewards": [-2, -8, 24], "path": ["0", "0", "9", "10", "11"], "rt": [8360, 162, 84], "actions": ["left", "left", "up"], "actionTimes": [9593, 10270, 10875], "queries": {"click": {"state": {"target": ["8", "11", "3", "12"], "time": [2543, 3957, 6238, 7429]}, "edge": {"target": [], "time": []}}, "mouseover": {"state": {"target": ["5", "6", "8", "11", "12", "12", "10", "2", "3", "0", "12", "0", "7"], "time": [1572, 1810, 2214, 3564, 4590, 4993, 5654, 5925, 6009, 6824, 7127, 8219, 8633]}, "edge": {"target": [], "time": []}}, "mouseout": {"state": {"target": ["8", "5", "0", "5", "6", "8", "11", "12", "12", "10", "2", "3", "0", "12", "0"], "time": [149, 329, 1498, 1659, 2086, 3188, 4575, 4667, 5458, 5704, 6002, 6535, 6954, 8068, 8319]}, "edge": {"target": [], "time": []}}}, "displayed_time": "11.42", "trialTime": 13542, "trial_type": "mouselab-mdp", "trial_index": 68, "time_elapsed": 1518808, "internal_node_id": "0.0-4.0-3.0-28.0"}}, {"uniqueid": "w51568095:a86209553", "current_trial": 69, "dateTime": 1664369913834, "trialdata": {"revealed_states": [], "num_clicks_accrued": [0, 0, 0, 0, 0, 0, 0, 0, 0, 0, 0, 0, 0], "stateRewards": ["", -2, 4, -24, -48, -4, 8, -24, 48, 4, 4, -48, 24], "withholdReward": true, "trial_id": "mdp_341117665701", "block": "test2", "trialIndex": 61, "score": 56.75, "costs": -0.25, "simulationMode": [null, null, null], "rewards": [-4, 8, 48], "path": ["0", "0", "5", "6", "8"], "rt": [3032, 91, 45], "actions": ["right", "right", "down"], "actionTimes": [5994, 6608, 7177], "queries": {"click": {"state": {"target": ["8"], "time": [4431]}, "edge": {"target": [], "time": []}}, "mouseover": {"state": {"target": ["8"], "time": [4132]}, "edge": {"target": [], "time": []}}, "mouseout": {"state": {"target": ["7", "5", "0"], "time": [1655, 1900, 3111]}, "edge": {"target": [], "time": []}}}, "displayed_time": "10.96", "trialTime": 12232, "trial_type": "mouselab-mdp", "trial_index": 69, "time_elapsed": 1531664, "internal_node_id": "0.0-4.0-3.0-29.0"}}, {"uniqueid": "w51568095:a86209553", "current_trial": 70, "dateTime": 1664369918984, "trialdata": {"rt": 5119, "stimulus": "<h1> End of block! </h1>\n\nYou have reached the end of the block 2/4. If you need a short break, feel free to take one now before moving on.\n\n<br><br>\nIn the next block, you will complete another 30 rounds of this game.\n\n<br><br>\n<div style='text-align: center;'>Press <code>space</code> to begin.</div>\n<br><br>\n<div style='text-align: center;'>(If the experiment doesn't continue, try clicking on the text and then pressing <code>space</code>.)</div>", "response": " ", "trial_id": "mdp_ready_3", "trial_type": "html-keyboard-response", "trial_index": 70, "time_elapsed": 1536815, "internal_node_id": "0.0-4.0-4.0"}}, {"uniqueid": "w51568095:a86209553", "current_trial": 71, "dateTime": 1664369932679, "trialdata": {"revealed_states": [], "num_clicks_accrued": [0, 0, 0, 0, 0, 0, 0, 0, 0, 0, 0, 0, 0], "stateRewards": ["", 4, -8, -48, 48, -2, 8, -48, 48, -2, -4, 24, -48], "withholdReward": false, "trial_id": "mdp_400558136089", "block": "test3", "trialIndex": 62, "score": 58.25, "costs": -0.75, "simulationMode": [null, null, null], "rewards": [-2, 8, 48], "path": ["0", "0", "5", "6", "8"], "rt": [5258, 44, 133], "actions": ["right", "right", "down"], "actionTimes": [7397, 7978, 8655], "queries": {"click": {"state": {"target": ["12", "3", "8"], "time": [3301, 4807, 5879]}, "edge": {"target": [], "time": []}}, "mouseover": {"state": {"target": ["12", "3", "8"], "time": [3071, 4215, 5590]}, "edge": {"target": [], "time": []}}, "mouseout": {"state": {"target": ["8", "5", "0", "12", "3", "8"], "time": [1161, 1307, 3000, 4005, 5183, 6189]}, "edge": {"target": [], "time": []}}}, "displayed_time": "11.14", "trialTime": 13135, "trial_type": "mouselab-mdp", "trial_index": 71, "time_elapsed": 1550510, "internal_node_id": "0.0-4.0-5.0-0.0"}}, {"uniqueid": "w51568095:a86209553", "current_trial": 72, "dateTime": 1664369948770, "trialdata": {"revealed_states": [], "num_clicks_accrued": [0, 0, 0, 0, 0, 0, 0, 0, 0, 0, 0, 0, 0], "stateRewards": ["", 2, 4, 48, 48, 4, -8, 24, -48, -4, -8, -24, -48], "withholdReward": true, "trial_id": "mdp_343818007251", "block": "test3", "trialIndex": 63, "score": 57.75, "costs": -1.25, "simulationMode": [null, null, null], "rewards": [2, 4, 48], "path": ["0", "0", "1", "2", "3"], "rt": [10459, 82, 110], "actions": ["up", "up", "right"], "actionTimes": [11962, 12571, 13289], "queries": {"click": {"state": {"target": ["12", "8", "7", "11", "3"], "time": [2604, 5469, 6607, 8545, 10674]}, "edge": {"target": [], "time": []}}, "mouseover": {"state": {"target": ["12", "8", "6", "7", "9", "11", "2", "3"], "time": [2174, 5154, 6025, 6397, 7455, 8297, 9225, 9741]}, "edge": {"target": [], "time": []}}, "mouseout": {"state": {"target": ["12", "8", "6", "7", "9", "11", "2"], "time": [3572, 6009, 6206, 7323, 7610, 8981, 9411]}, "edge": {"target": [], "time": []}}}, "displayed_time": "13.83", "trialTime": 15503, "trial_type": "mouselab-mdp", "trial_index": 72, "time_elapsed": 1566600, "internal_node_id": "0.0-4.0-5.0-1.0"}}, {"uniqueid": "w51568095:a86209553", "current_trial": 73, "dateTime": 1664369960626, "trialdata": {"revealed_states": [], "num_clicks_accrued": [0, 0, 0, 0, 0, 0, 0, 0, 0, 0, 0, 0, 0], "stateRewards": ["", 4, -4, 48, 24, 2, 4, 24, -24, 2, 4, 24, 48], "withholdReward": true, "trial_id": "mdp_736351885282", "block": "test3", "trialIndex": 64, "score": 58.25, "costs": -0.75, "simulationMode": [null, null, null], "rewards": [2, 4, 48], "path": ["0", "0", "9", "10", "12"], "rt": [4495, 84, 106], "actions": ["left", "left", "down"], "actionTimes": [6193, 6810, 7439], "queries": {"click": {"state": {"target": ["8", "7", "12"], "time": [2529, 3301, 4450]}, "edge": {"target": [], "time": []}}, "mouseover": {"state": {"target": ["8", "7", "12"], "time": [2433, 3116, 4115]}, "edge": {"target": [], "time": []}}, "mouseout": {"state": {"target": ["3", "0", "8", "7"], "time": [712, 1787, 3071, 3596]}, "edge": {"target": [], "time": []}}}, "displayed_time": "10.71", "trialTime": 11215, "trial_type": "mouselab-mdp", "trial_index": 73, "time_elapsed": 1578456, "internal_node_id": "0.0-4.0-5.0-2.0"}}, {"uniqueid": "w51568095:a86209553", "current_trial": 74, "dateTime": 1664369973580, "trialdata": {"revealed_states": [], "num_clicks_accrued": [0, 0, 0, 0, 0, 0, 0, 0, 0, 0, 0, 0, 0], "stateRewards": ["", 4, -4, 24, 48, 4, 8, -24, -24, -2, 4, 48, 48], "withholdReward": true, "trial_id": "mdp_624998450453", "block": "test3", "trialIndex": 65, "score": 54.75, "costs": -0.25, "simulationMode": [null, null, null], "rewards": [-2, 4, 48], "path": ["0", "0", "9", "10", "12"], "rt": [2677, 123, 111], "actions": ["left", "left", "down"], "actionTimes": [4796, 5439, 6059], "queries": {"click": {"state": {"target": ["12"], "time": [3368]}, "edge": {"target": [], "time": []}}, "mouseover": {"state": {"target": ["12", "12"], "time": [2914, 3150]}, "edge": {"target": [], "time": []}}, "mouseout": {"state": {"target": ["12", "0", "12"], "time": [832, 2294, 2994]}, "edge": {"target": [], "time": []}}}, "displayed_time": "11.13", "trialTime": 12374, "trial_type": "mouselab-mdp", "trial_index": 74, "time_elapsed": 1591410, "internal_node_id": "0.0-4.0-5.0-3.0"}}, {"uniqueid": "w51568095:a86209553", "current_trial": 75, "dateTime": 1664369993270, "trialdata": {"revealed_states": [], "num_clicks_accrued": [0, 0, 0, 0, 0, 0, 0, 0, 0, 0, 0, 0, 0], "stateRewards": ["", -4, -4, -24, 48, 2, 4, -24, -48, -2, 4, 24, 24], "withholdReward": true, "trial_id": "mdp_360934723192", "block": "test3", "trialIndex": 66, "score": 43.5, "costs": -1.5, "simulationMode": [null, null, null], "rewards": [-4, -4, 48], "path": ["0", "0", "1", "2", "4"], "rt": [8696, 53, 21], "actions": ["up", "up", "left"], "actionTimes": [16498, 17138, 17728], "queries": {"click": {"state": {"target": ["8", "12", "7", "11", "3", "4"], "time": [8911, 10101, 11280, 12193, 13568, 15199]}, "edge": {"target": [], "time": []}}, "mouseover": {"state": {"target": ["8", "12", "7", "10", "11", "2", "3", "4"], "time": [8538, 9743, 11073, 11874, 12031, 12919, 13383, 14438]}, "edge": {"target": [], "time": []}}, "mouseout": {"state": {"target": ["12", "9", "8", "12", "7", "10", "11", "2", "3"], "time": [6555, 6717, 9556, 10527, 11733, 11923, 12853, 13110, 14034]}, "edge": {"target": [], "time": []}}}, "displayed_time": "18.27", "trialTime": 19102, "trial_type": "mouselab-mdp", "trial_index": 75, "time_elapsed": 1611100, "internal_node_id": "0.0-4.0-5.0-4.0"}}, {"uniqueid": "w51568095:a86209553", "current_trial": 76, "dateTime": 1664370005677, "trialdata": {"revealed_states": [], "num_clicks_accrued": [0, 0, 0, 0, 0, 0, 0, 0, 0, 0, 0, 0, 0], "stateRewards": ["", -4, 8, 24, 24, 2, 4, -48, 24, -2, -4, -24, -24], "withholdReward": true, "trial_id": "mdp_752328329546", "block": "test3", "trialIndex": 67, "score": 31.5, "costs": -1.5, "simulationMode": [null, null, null], "rewards": [-4, 8, 24], "path": ["0", "0", "1", "2", "3"], "rt": [6796, 57, 11], "actions": ["up", "up", "right"], "actionTimes": [8700, 9280, 9836], "queries": {"click": {"state": {"target": ["8", "7", "12", "11", "4", "3"], "time": [2645, 3451, 4473, 5336, 6191, 7134]}, "edge": {"target": [], "time": []}}, "mouseover": {"state": {"target": ["8", "6", "7", "12", "10", "11", "4", "3"], "time": [2472, 3225, 3265, 4205, 5107, 5147, 6071, 6902]}, "edge": {"target": [], "time": []}}, "mouseout": {"state": {"target": ["4", "0", "8", "6", "7", "12", "10", "11", "4", "4", "3"], "time": [759, 2097, 3208, 3259, 3754, 5102, 5141, 5829, 6341, 6472, 7387]}, "edge": {"target": [], "time": []}}}, "displayed_time": "10.91", "trialTime": 11850, "trial_type": "mouselab-mdp", "trial_index": 76, "time_elapsed": 1623508, "internal_node_id": "0.0-4.0-5.0-5.0"}}, {"uniqueid": "w51568095:a86209553", "current_trial": 77, "dateTime": 1664370017908, "trialdata": {"revealed_states": [], "num_clicks_accrued": [0, 0, 0, 0, 0, 0, 0, 0, 0, 0, 0, 0, 0], "stateRewards": ["", 2, -4, -24, 24, 2, 8, 48, 48, 2, -8, 48, -24], "withholdReward": false, "trial_id": "mdp_330392242530", "block": "test3", "trialIndex": 68, "score": 62.75, "costs": -0.25, "simulationMode": [null, null, null], "rewards": [2, 8, 48], "path": ["0", "0", "5", "6", "8"], "rt": [2351, 62, 50], "actions": ["right", "right", "down"], "actionTimes": [4035, 4615, 5185], "queries": {"click": {"state": {"target": ["8"], "time": [2532]}, "edge": {"target": [], "time": []}}, "mouseover": {"state": {"target": ["8"], "time": [2349]}, "edge": {"target": [], "time": []}}, "mouseout": {"state": {"target": [], "time": []}, "edge": {"target": [], "time": []}}}, "displayed_time": "10.69", "trialTime": 11604, "trial_type": "mouselab-mdp", "trial_index": 77, "time_elapsed": 1635738, "internal_node_id": "0.0-4.0-5.0-6.0"}}, {"uniqueid": "w51568095:a86209553", "current_trial": 78, "dateTime": 1664370031279, "trialdata": {"revealed_states": [], "num_clicks_accrued": [0, 0, 0, 0, 0, 0, 0, 0, 0, 0, 0, 0, 0], "stateRewards": ["", 2, 8, -48, 24, -2, 4, 48, 48, -2, -8, 48, 24], "withholdReward": true, "trial_id": "mdp_157355418411", "block": "test3", "trialIndex": 69, "score": 54.75, "costs": -0.25, "simulationMode": [null, null, null], "rewards": [-2, 4, 48], "path": ["0", "0", "5", "6", "8"], "rt": [2665, 299, 12], "actions": ["right", "right", "down"], "actionTimes": [4797, 5624, 6157], "queries": {"click": {"state": {"target": ["8"], "time": [3066]}, "edge": {"target": [], "time": []}}, "mouseover": {"state": {"target": ["8"], "time": [2685]}, "edge": {"target": [], "time": []}}, "mouseout": {"state": {"target": ["8", "8", "0"], "time": [876, 977, 2282]}, "edge": {"target": [], "time": []}}}, "displayed_time": "11.14", "trialTime": 12809, "trial_type": "mouselab-mdp", "trial_index": 78, "time_elapsed": 1649109, "internal_node_id": "0.0-4.0-5.0-7.0"}}, {"uniqueid": "w51568095:a86209553", "current_trial": 79, "dateTime": 1664370045091, "trialdata": {"revealed_states": [], "num_clicks_accrued": [0, 0, 0, 0, 0, 0, 0, 0, 0, 0, 0, 0, 0], "stateRewards": ["", 2, -8, -24, -48, -2, -4, 48, 48, 4, 8, 48, 48], "withholdReward": true, "trial_id": "mdp_347285045422", "block": "test3", "trialIndex": 70, "score": 46.75, "costs": -0.25, "simulationMode": [null, null, null], "rewards": [-2, -4, 48], "path": ["0", "0", "5", "6", "8"], "rt": [8731, 96, 191], "actions": ["right", "right", "down"], "actionTimes": [10681, 11311, 12012], "queries": {"click": {"state": {"target": ["8"], "time": [9218]}, "edge": {"target": [], "time": []}}, "mouseover": {"state": {"target": ["8"], "time": [2587]}, "edge": {"target": [], "time": []}}, "mouseout": {"state": {"target": ["8", "0"], "time": [765, 2235]}, "edge": {"target": [], "time": []}}}, "displayed_time": "12.56", "trialTime": 13158, "trial_type": "mouselab-mdp", "trial_index": 79, "time_elapsed": 1662921, "internal_node_id": "0.0-4.0-5.0-8.0"}}, {"uniqueid": "w51568095:a86209553", "current_trial": 80, "dateTime": 1664370056843, "trialdata": {"revealed_states": [], "num_clicks_accrued": [0, 0, 0, 0, 0, 0, 0, 0, 0, 0, 0, 0, 0], "stateRewards": ["", -2, -4, -24, -48, 2, -8, -24, -24, 4, -8, 48, 48], "withholdReward": true, "trial_id": "mdp_950599994674", "block": "test3", "trialIndex": 71, "score": 48.25, "costs": -0.75, "simulationMode": [null, null, null], "rewards": [4, -8, 48], "path": ["0", "0", "9", "10", "12"], "rt": [5110, 59, 35], "actions": ["left", "left", "down"], "actionTimes": [7385, 7970, 8544], "queries": {"click": {"state": {"target": ["7", "8", "12"], "time": [3572, 4612, 5977]}, "edge": {"target": [], "time": []}}, "mouseover": {"state": {"target": ["6", "7", "8", "12"], "time": [2757, 3012, 4331, 5540]}, "edge": {"target": [], "time": []}}, "mouseout": {"state": {"target": ["8", "5", "0", "6", "7", "8"], "time": [573, 788, 2317, 2975, 3893, 5052]}, "edge": {"target": [], "time": []}}}, "displayed_time": "10.28", "trialTime": 11158, "trial_type": "mouselab-mdp", "trial_index": 80, "time_elapsed": 1674673, "internal_node_id": "0.0-4.0-5.0-9.0"}}, {"uniqueid": "w51568095:a86209553", "current_trial": 81, "dateTime": 1664370070404, "trialdata": {"revealed_states": [], "num_clicks_accrued": [0, 0, 0, 0, 0, 0, 0, 0, 0, 0, 0, 0, 0], "stateRewards": ["", 2, 4, -24, -48, 4, -4, 24, 48, -4, -4, -24, 48], "withholdReward": false, "trial_id": "mdp_181958792175", "block": "test3", "trialIndex": 72, "score": 52.75, "costs": -0.25, "simulationMode": [null, null, null], "rewards": [4, -4, 48], "path": ["0", "0", "5", "6", "8"], "rt": [2265, 134, 40], "actions": ["right", "right", "down"], "actionTimes": [4303, 4959, 5515], "queries": {"click": {"state": {"target": ["8"], "time": [2807]}, "edge": {"target": [], "time": []}}, "mouseover": {"state": {"target": ["8"], "time": [2472]}, "edge": {"target": [], "time": []}}, "mouseout": {"state": {"target": ["12", "0"], "time": [869, 2136]}, "edge": {"target": [], "time": []}}}, "displayed_time": "11.04", "trialTime": 12939, "trial_type": "mouselab-mdp", "trial_index": 81, "time_elapsed": 1688234, "internal_node_id": "0.0-4.0-5.0-10.0"}}, {"uniqueid": "w51568095:a86209553", "current_trial": 82, "dateTime": 1664370083480, "trialdata": {"revealed_states": [], "num_clicks_accrued": [0, 0, 0, 0, 0, 0, 0, 0, 0, 0, 0, 0, 0], "stateRewards": ["", 2, -4, 48, 24, 2, 8, 24, 24, -2, 4, 24, 24], "withholdReward": true, "trial_id": "mdp_813974524300", "block": "test3", "trialIndex": 73, "score": 38, "costs": -1, "simulationMode": [null, null, null], "rewards": [2, 8, 24], "path": ["0", "0", "5", "6", "7"], "rt": [8077, 19, 11], "actions": ["right", "right", "up"], "actionTimes": [9808, 10378, 10979], "queries": {"click": {"state": {"target": ["8", "7", "12", "11"], "time": [3133, 4320, 6100, 8195]}, "edge": {"target": [], "time": []}}, "mouseover": {"state": {"target": ["8", "7", "6", "12", "10", "11"], "time": [2421, 3972, 4606, 5140, 7316, 7530]}, "edge": {"target": [], "time": []}}, "mouseout": {"state": {"target": ["8", "2", "0", "8", "7", "6", "12", "10"], "time": [642, 765, 2057, 3822, 4537, 4706, 7205, 7515]}, "edge": {"target": [], "time": []}}}, "displayed_time": "11.52", "trialTime": 12505, "trial_type": "mouselab-mdp", "trial_index": 82, "time_elapsed": 1701310, "internal_node_id": "0.0-4.0-5.0-11.0"}}, {"uniqueid": "w51568095:a86209553", "current_trial": 83, "dateTime": 1664370095681, "trialdata": {"revealed_states": [], "num_clicks_accrued": [0, 0, 0, 0, 0, 0, 0, 0, 0, 0, 0, 0, 0], "stateRewards": ["", 4, 4, 48, -24, 2, -4, 48, 24, -4, -4, -48, 24], "withholdReward": true, "trial_id": "mdp_496003763005", "block": "test3", "trialIndex": 74, "score": 50.5, "costs": -0.5, "simulationMode": [null, null, null], "rewards": [2, -4, 48], "path": ["0", "0", "5", "6", "7"], "rt": [4666, 156, 86], "actions": ["right", "right", "up"], "actionTimes": [6603, 7282, 7894], "queries": {"click": {"state": {"target": ["12", "7"], "time": [3830, 5035]}, "edge": {"target": [], "time": []}}, "mouseover": {"state": {"target": ["10", "12", "7"], "time": [2918, 3353, 4671]}, "edge": {"target": [], "time": []}}, "mouseout": {"state": {"target": ["11", "0", "10", "12", "7"], "time": [868, 2740, 3273, 4445, 5345]}, "edge": {"target": [], "time": []}}}, "displayed_time": "10.94", "trialTime": 11617, "trial_type": "mouselab-mdp", "trial_index": 83, "time_elapsed": 1713511, "internal_node_id": "0.0-4.0-5.0-12.0"}}, {"uniqueid": "w51568095:a86209553", "current_trial": 84, "dateTime": 1664370106898, "trialdata": {"revealed_states": [], "num_clicks_accrued": [0, 0, 0, 0, 0, 0, 0, 0, 0, 0, 0, 0, 0], "stateRewards": ["", 2, 8, -48, 24, -4, 8, 48, -24, 2, 8, 24, 24], "withholdReward": true, "trial_id": "mdp_175372499314", "block": "test3", "trialIndex": 75, "score": 56.5, "costs": -0.5, "simulationMode": [null, null, null], "rewards": [-4, 8, 48], "path": ["0", "0", "5", "6", "7"], "rt": [5098, 110, 173], "actions": ["right", "right", "up"], "actionTimes": [6872, 7504, 8215], "queries": {"click": {"state": {"target": ["8", "7"], "time": [4235, 5323]}, "edge": {"target": [], "time": []}}, "mouseover": {"state": {"target": ["8", "7"], "time": [3165, 5104]}, "edge": {"target": [], "time": []}}, "mouseout": {"state": {"target": ["7", "5", "0", "8", "7"], "time": [674, 892, 2711, 4879, 5646]}, "edge": {"target": [], "time": []}}}, "displayed_time": "9.78", "trialTime": 10484, "trial_type": "mouselab-mdp", "trial_index": 84, "time_elapsed": 1724728, "internal_node_id": "0.0-4.0-5.0-13.0"}}, {"uniqueid": "w51568095:a86209553", "current_trial": 85, "dateTime": 1664370121467, "trialdata": {"revealed_states": [], "num_clicks_accrued": [0, 0, 0, 0, 0, 0, 0, 0, 0, 0, 0, 0, 0], "stateRewards": ["", -4, 4, -48, -48, -2, -8, -48, -24, 4, 8, -24, 24], "withholdReward": true, "trial_id": "mdp_449260894259", "block": "test3", "trialIndex": 76, "score": 39.75, "costs": -1.25, "simulationMode": [null, null, null], "rewards": [4, 8, 24], "path": ["0", "0", "9", "10", "12"], "rt": [9634, 90, 108], "actions": ["left", "left", "down"], "actionTimes": [11394, 12013, 12659], "queries": {"click": {"state": {"target": ["8", "7", "12", "11", "4"], "time": [2695, 3793, 4898, 6384, 7520]}, "edge": {"target": [], "time": []}}, "mouseover": {"state": {"target": ["0", "8", "7", "5", "12", "10", "11", "4", "2", "3"], "time": [1989, 2438, 3426, 4252, 4735, 5679, 5870, 7130, 8067, 8967]}, "edge": {"target": [], "time": []}}, "mouseout": {"state": {"target": ["7", "0", "8", "7", "5", "12", "10", "11", "4", "2"], "time": [569, 2122, 3242, 4120, 4540, 5626, 5781, 6952, 7881, 8120]}, "edge": {"target": [], "time": []}}}, "displayed_time": "13.18", "trialTime": 13921, "trial_type": "mouselab-mdp", "trial_index": 85, "time_elapsed": 1739297, "internal_node_id": "0.0-4.0-5.0-14.0"}}, {"uniqueid": "w51568095:a86209553", "current_trial": 86, "dateTime": 1664370153041, "trialdata": {"revealed_states": [], "num_clicks_accrued": [0, 0, 0, 0, 0, 0, 0, 0, 0, 0, 0, 0, 0], "stateRewards": ["", 2, 8, -24, -48, -4, 8, -48, -48, -2, -8, -24, -24], "withholdReward": true, "trial_id": "mdp_978177451072", "block": "test3", "trialIndex": 77, "score": -11, "costs": -2, "simulationMode": [null, null, null], "rewards": [2, 8, -24], "path": ["0", "0", "1", "2", "3"], "rt": [25413, 90, 137], "actions": ["up", "up", "right"], "actionTimes": [27957, 28572, 29234], "queries": {"click": {"state": {"target": ["8", "7", "3", "4", "11", "12", "10", "2"], "time": [3773, 4626, 5409, 6286, 7176, 13516, 20950, 26790]}, "edge": {"target": [], "time": []}}, "mouseover": {"state": {"target": ["0", "8", "6", "7", "3", "2", "4", "11", "12", "10", "2"], "time": [2940, 3222, 4347, 4404, 5204, 5925, 6027, 6783, 8360, 19861, 23235]}, "edge": {"target": [], "time": []}}, "mouseout": {"state": {"target": ["3", "0", "0", "8", "6", "7", "3", "2", "4", "11", "12", "10"], "time": [1673, 1906, 3089, 4269, 4400, 5039, 5883, 6019, 6636, 7456, 14491, 22285]}, "edge": {"target": [], "time": []}}}, "displayed_time": "29.77", "trialTime": 30921, "trial_type": "mouselab-mdp", "trial_index": 86, "time_elapsed": 1770871, "internal_node_id": "0.0-4.0-5.0-15.0"}}, {"uniqueid": "w51568095:a86209553", "current_trial": 87, "dateTime": 1664370166969, "trialdata": {"revealed_states": [], "num_clicks_accrued": [0, 0, 0, 0, 0, 0, 0, 0, 0, 0, 0, 0, 0], "stateRewards": ["", 4, 4, -24, -48, -4, 4, -48, 24, 4, -8, -48, 48], "withholdReward": true, "trial_id": "mdp_566768794366", "block": "test3", "trialIndex": 78, "score": 48, "costs": -1, "simulationMode": [null, null, null], "rewards": [4, -8, 48], "path": ["0", "0", "9", "10", "12"], "rt": [5625, 35, 60], "actions": ["left", "left", "down"], "actionTimes": [8021, 8595, 9191], "queries": {"click": {"state": {"target": ["8", "7", "3", "12"], "time": [3270, 4277, 5110, 6463]}, "edge": {"target": [], "time": []}}, "mouseover": {"state": {"target": ["5", "8", "6", "7", "3", "9", "12"], "time": [2734, 3077, 4004, 4060, 4910, 5907, 6199]}, "edge": {"target": [], "time": []}}, "mouseout": {"state": {"target": ["2", "0", "5", "8", "8", "6", "7", "3", "9"], "time": [1272, 2726, 2781, 3730, 3951, 4056, 4798, 5562, 5969]}, "edge": {"target": [], "time": []}}}, "displayed_time": "11.40", "trialTime": 13250, "trial_type": "mouselab-mdp", "trial_index": 87, "time_elapsed": 1784799, "internal_node_id": "0.0-4.0-5.0-16.0"}}, {"uniqueid": "w51568095:a86209553", "current_trial": 88, "dateTime": 1664370177826, "trialdata": {"revealed_states": [], "num_clicks_accrued": [0, 0, 0, 0, 0, 0, 0, 0, 0, 0, 0, 0, 0], "stateRewards": ["", -2, -8, 48, -24, 2, -4, -48, -24, -2, -4, -48, 48], "withholdReward": true, "trial_id": "mdp_143798438087", "block": "test3", "trialIndex": 79, "score": 42.25, "costs": -0.75, "simulationMode": [null, null, null], "rewards": [-2, -8, 48], "path": ["0", "0", "1", "2", "3"], "rt": [4499, 145, 177], "actions": ["up", "up", "right"], "actionTimes": [6278, 6954, 7673], "queries": {"click": {"state": {"target": ["8", "7", "3"], "time": [2427, 3564, 4610]}, "edge": {"target": [], "time": []}}, "mouseover": {"state": {"target": ["8", "6", "7", "3", "1"], "time": [2325, 3058, 3107, 4494, 5149]}, "edge": {"target": [], "time": []}}, "mouseout": {"state": {"target": ["12", "0", "8", "6", "7", "3"], "time": [891, 2127, 3044, 3101, 4076, 5049]}, "edge": {"target": [], "time": []}}}, "displayed_time": "9.80", "trialTime": 10253, "trial_type": "mouselab-mdp", "trial_index": 88, "time_elapsed": 1795657, "internal_node_id": "0.0-4.0-5.0-17.0"}}, {"uniqueid": "w51568095:a86209553", "current_trial": 89, "dateTime": 1664370196470, "trialdata": {"revealed_states": [], "num_clicks_accrued": [0, 0, 0, 0, 0, 0, 0, 0, 0, 0, 0, 0, 0], "stateRewards": ["", 2, -4, -48, 24, -4, 4, 24, 24, 2, -8, -24, -48], "withholdReward": false, "trial_id": "mdp_807654778305", "block": "test3", "trialIndex": 80, "score": 27.75, "costs": -1.25, "simulationMode": [null, null, null], "rewards": [-4, 4, 24], "path": ["0", "0", "5", "6", "8"], "rt": [12596, 25, 12], "actions": ["right", "right", "dow