{"condition": 1, "counterbalance": 0, "assignmentId": "a66455239", "workerId": "w67577017", "hitId": "h63161625", "currenttrial": 143, "bonus": 0, "data": [{"uniqueid": "w67577017:a66455239", "current_trial": 0, "dateTime": 1664873678524, "trialdata": {"success": true, "trial_type": "fullscreen", "trial_index": 0, "time_elapsed": 8807, "internal_node_id": "0.0-0.0"}}, {"uniqueid": "w67577017:a66455239", "current_trial": 1, "dateTime": 1664873707770, "trialdata": {"view_history": [{"page_index": 0, "viewing_time": 29233}], "rt": 29233, "trial_id": "exp_instructions_no_distractor", "trial_type": "instructions", "trial_index": 1, "time_elapsed": 38052, "internal_node_id": "0.0-1.0"}}, {"uniqueid": "w67577017:a66455239", "current_trial": 2, "dateTime": 1664873712416, "trialdata": {"success": true, "trial_type": "fullscreen", "trial_index": 2, "time_elapsed": 42699, "internal_node_id": "0.0-2.0-0.0"}}, {"uniqueid": "w67577017:a66455239", "current_trial": 3, "dateTime": 1664873860725, "trialdata": {"view_history": [{"page_index": 0, "viewing_time": 62392}, {"page_index": 1, "viewing_time": 31932}, {"page_index": 2, "viewing_time": 14702}, {"page_index": 3, "viewing_time": 16652}, {"page_index": 4, "viewing_time": 22628}], "rt": 148306, "trial_id": "mouselab_instructions_1", "trial_type": "instructions", "trial_index": 3, "time_elapsed": 191007, "internal_node_id": "0.0-2.0-1.0"}}, {"uniqueid": "w67577017:a66455239", "current_trial": 4, "dateTime": 1664873928872, "trialdata": {"revealed_states": [], "num_clicks_accrued": [0, 0, 0, 0, 0, 0, 0, 0, 0, 0, 0, 0, 0], "stateRewards": ["", -10, 10, -10, 10, -10, 10, -10, -10, 10, -10, -10, -10], "withholdReward": false, "trial_id": "practice_1", "block": "test", "trialIndex": 0, "score": 9, "costs": -3, "simulationMode": [null, null, null], "rewards": [-10, 10, 10], "path": ["0", "0", "1", "2", "4"], "rt": [55663, 892, 1330], "actions": ["up", "up", "left"], "actionTimes": [59470, 60904, 62757], "queries": {"click": {"state": {"target": ["5", "1", "9", "10", "11", "2", "3", "6", "8", "7", "12", "4"], "time": [6524, 20744, 22870, 30430, 35067, 36520, 37369, 39268, 41001, 42663, 44475, 45918]}, "edge": {"target": [], "time": []}}, "mouseover": {"state": {"target": ["5", "0", "1", "9", "10", "11", "4", "11", "2", "3", "6", "8", "7", "12", "12", "4"], "time": [5507, 9272, 10123, 22192, 29621, 33222, 33640, 34240, 35873, 37058, 38809, 39756, 42023, 43492, 44008, 45207]}, "edge": {"target": [], "time": []}}, "mouseout": {"state": {"target": ["6", "5", "0", "5", "0", "1", "9", "10", "9", "11", "4", "11", "2", "3", "2", "1", "6", "8", "6", "7", "5", "12", "12", "10", "4", "2", "3"], "time": [2942, 3120, 5422, 8990, 9907, 21925, 29597, 31840, 33008, 33525, 34173, 35794, 36940, 37742, 37941, 38407, 39607, 41593, 41706, 42906, 43124, 43676, 44892, 45024, 46324, 46374, 46408]}, "edge": {"target": [], "time": []}}}, "displayed_time": "63.31", "trialTime": 67919, "trial_type": "mouselab-mdp", "trial_index": 4, "time_elapsed": 259154, "internal_node_id": "0.0-2.0-2.0-0.0"}}, {"uniqueid": "w67577017:a66455239", "current_trial": 5, "dateTime": 1664873972784, "trialdata": {"revealed_states": [], "num_clicks_accrued": [0, 0, 0, 0, 0, 0, 0, 0, 0, 0, 0, 0, 0], "stateRewards": ["", 10, 10, -10, -10, 10, -10, 10, 10, -10, -10, 10, -10], "withholdReward": false, "trial_id": "practice_2", "block": "test", "trialIndex": 1, "score": 11, "costs": -1, "simulationMode": [null, null, null], "rewards": [10, -10, 10], "path": ["0", "0", "5", "6", "8"], "rt": [24928, 999, 1196], "actions": ["right", "right", "down"], "actionTimes": [34234, 35763, 37509], "queries": {"click": {"state": {"target": ["5", "6", "7", "8"], "time": [13091, 20573, 23048, 30013]}, "edge": {"target": [], "time": []}}, "mouseover": {"state": {"target": ["5", "5", "5", "6", "7", "8"], "time": [10979, 11419, 11760, 15662, 21794, 29411]}, "edge": {"target": [], "time": []}}, "mouseout": {"state": {"target": ["9", "5", "5", "5", "5", "6", "7", "8"], "time": [8361, 11078, 11495, 13561, 15578, 21629, 28788, 30545]}, "edge": {"target": [], "time": []}}}, "displayed_time": "38.03", "trialTime": 43768, "trial_type": "mouselab-mdp", "trial_index": 5, "time_elapsed": 303066, "internal_node_id": "0.0-2.0-2.0-1.0"}}, {"uniqueid": "w67577017:a66455239", "current_trial": 6, "dateTime": 1664874496400, "trialdata": {"view_history": [{"page_index": 0, "viewing_time": 37508}, {"page_index": 1, "viewing_time": 17865}, {"page_index": 2, "viewing_time": 6031}, {"page_index": 1, "viewing_time": 52413}, {"page_index": 0, "viewing_time": 14763}, {"page_index": 1, "viewing_time": 27131}, {"page_index": 2, "viewing_time": 11860}, {"page_index": 1, "viewing_time": 48407}, {"page_index": 0, "viewing_time": 56683}, {"page_index": 1, "viewing_time": 15656}, {"page_index": 2, "viewing_time": 7446}, {"page_index": 1, "viewing_time": 67899}, {"page_index": 0, "viewing_time": 6488}, {"page_index": 1, "viewing_time": 85385}, {"page_index": 2, "viewing_time": 10386}, {"page_index": 1, "viewing_time": 2862}, {"page_index": 0, "viewing_time": 7122}, {"page_index": 1, "viewing_time": 41678}, {"page_index": 2, "viewing_time": 6030}], "rt": 523613, "trial_id": "mouselab_instructions_2_scarce", "trial_type": "instructions", "trial_index": 6, "time_elapsed": 826683, "internal_node_id": "0.0-2.0-3.0"}}, {"uniqueid": "w67577017:a66455239", "current_trial": 7, "dateTime": 1664874563850, "trialdata": {"rt": 67442, "response": {"Q0": "$-10 to $10", "Q1": "The cost is always $0.25.", "Q2": "The better I perform the higher my bonus will be.", "Q3": "No, the amount of cash at each node of the web may be different each time.", "Q4": "The values of the nodes walked through from start to finish.", "Q5": "No, the spider might forget to count the money on some rounds."}, "question_order": [0, 1, 2, 3, 4, 5], "correct": {"Q0": "$-48 to $48", "Q1": "The cost is always $0.25.", "Q2": "The better I perform the higher my bonus will be.", "Q3": "No, the amount of cash at each node of the web may be different each time.", "Q4": "The values of the nodes walked through from start to finish.", "Q5": "No, the spider might forget to count the money on some rounds."}, "trial_id": "mouselab_quiz_scarce", "trial_type": "survey-multi-choice", "trial_index": 7, "time_elapsed": 894133, "internal_node_id": "0.0-2.0-4.0"}}, {"uniqueid": "w67577017:a66455239", "current_trial": 8, "dateTime": 1664874575837, "trialdata": {"success": true, "trial_type": "fullscreen", "trial_index": 8, "time_elapsed": 906120, "internal_node_id": "0.0-2.1-0.1"}}, {"uniqueid": "w67577017:a66455239", "current_trial": 9, "dateTime": 1664874648452, "trialdata": {"view_history": [{"page_index": 0, "viewing_time": 17975}, {"page_index": 1, "viewing_time": 13370}, {"page_index": 2, "viewing_time": 14245}, {"page_index": 3, "viewing_time": 8112}, {"page_index": 4, "viewing_time": 18909}], "rt": 72612, "trial_id": "mouselab_instructions_1", "trial_type": "instructions", "trial_index": 9, "time_elapsed": 978735, "internal_node_id": "0.0-2.1-1.1"}}, {"uniqueid": "w67577017:a66455239", "current_trial": 10, "dateTime": 1664874696828, "trialdata": {"revealed_states": [], "num_clicks_accrued": [0, 0, 0, 0, 0, 0, 0, 0, 0, 0, 0, 0, 0], "stateRewards": ["", -10, 10, -10, 10, -10, 10, -10, -10, 10, -10, -10, -10], "withholdReward": false, "trial_id": "practice_1", "block": "test", "trialIndex": 2, "score": 9.5, "costs": -2.5, "simulationMode": [null, null, null], "rewards": [-10, 10, 10], "path": ["0", "0", "1", "2", "4"], "rt": [32375, 827, 3015], "actions": ["up", "up", "left"], "actionTimes": [37051, 38401, 41922], "queries": {"click": {"state": {"target": ["5", "6", "7", "8", "1", "2", "4", "3", "9", "10"], "time": [7972, 10265, 11963, 13520, 15419, 16643, 18437, 19662, 23084, 24659]}, "edge": {"target": [], "time": []}}, "mouseover": {"state": {"target": ["0", "5", "5", "6", "7", "8", "8", "1", "2", "4", "3", "9", "10", "0"], "time": [5399, 6889, 7204, 9488, 11105, 12789, 12951, 15050, 16273, 17421, 19292, 22138, 23939, 31905]}, "edge": {"target": [], "time": []}}, "mouseout": {"state": {"target": ["5", "0", "0", "5", "5", "6", "7", "6", "8", "8", "5", "1", "2", "4", "2", "3", "1", "1", "9", "10", "8", "5", "6", "0", "5", "6"], "time": [659, 4240, 5471, 7070, 9055, 10972, 12573, 12738, 12853, 14422, 14571, 16156, 17246, 19222, 19272, 20355, 20657, 21839, 23905, 26423, 28174, 30440, 30461, 32813, 32873, 32923]}, "edge": {"target": [], "time": []}}}, "displayed_time": "42.45", "trialTime": 48224, "trial_type": "mouselab-mdp", "trial_index": 10, "time_elapsed": 1027111, "internal_node_id": "0.0-2.1-2.1-0.1"}}, {"uniqueid": "w67577017:a66455239", "current_trial": 11, "dateTime": 1664874725631, "trialdata": {"revealed_states": [], "num_clicks_accrued": [0, 0, 0, 0, 0, 0, 0, 0, 0, 0, 0, 0, 0], "stateRewards": ["", 10, 10, -10, -10, 10, -10, 10, 10, -10, -10, 10, -10], "withholdReward": false, "trial_id": "practice_2", "block": "test", "trialIndex": 3, "score": 11, "costs": -1, "simulationMode": [null, null, null], "rewards": [10, -10, 10], "path": ["0", "0", "5", "6", "7"], "rt": [11851, 691, 1730], "actions": ["right", "right", "up"], "actionTimes": [18842, 20060, 22343], "queries": {"click": {"state": {"target": ["5", "6", "7", "8"], "time": [9908, 11134, 12441, 14014]}, "edge": {"target": [], "time": []}}, "mouseover": {"state": {"target": ["0", "5", "5", "6", "6", "7", "7", "8"], "time": [8912, 9261, 9378, 10545, 10651, 11727, 11876, 13079]}, "edge": {"target": [], "time": []}}, "mouseout": {"state": {"target": ["11", "0", "5", "5", "6", "6", "7", "7", "6", "8"], "time": [6128, 8963, 9295, 10446, 10595, 11678, 11747, 12929, 13030, 14763]}, "edge": {"target": [], "time": []}}}, "displayed_time": "22.87", "trialTime": 28631, "trial_type": "mouselab-mdp", "trial_index": 11, "time_elapsed": 1055914, "internal_node_id": "0.0-2.1-2.1-1.1"}}, {"uniqueid": "w67577017:a66455239", "current_trial": 12, "dateTime": 1664874742125, "trialdata": {"view_history": [{"page_index": 0, "viewing_time": 11253}, {"page_index": 1, "viewing_time": 2130}, {"page_index": 2, "viewing_time": 3107}], "rt": 16490, "trial_id": "mouselab_instructions_2_scarce", "trial_type": "instructions", "trial_index": 12, "time_elapsed": 1072407, "internal_node_id": "0.0-2.1-3.1"}}, {"uniqueid": "w67577017:a66455239", "current_trial": 13, "dateTime": 1664874789380, "trialdata": {"rt": 47248, "response": {"Q0": "$-48 to $48", "Q1": "The cost is always $0.25.", "Q2": "The better I perform the higher my bonus will be.", "Q3": "No, the amount of cash at each node of the web may be different each time.", "Q4": "The values of the nodes walked through from start to finish.", "Q5": "No, the spider might forget to count the money on some rounds."}, "question_order": [0, 1, 2, 3, 4, 5], "correct": {"Q0": "$-48 to $48", "Q1": "The cost is always $0.25.", "Q2": "The better I perform the higher my bonus will be.", "Q3": "No, the amount of cash at each node of the web may be different each time.", "Q4": "The values of the nodes walked through from start to finish.", "Q5": "No, the spider might forget to count the money on some rounds."}, "trial_id": "mouselab_quiz_scarce", "trial_type": "survey-multi-choice", "trial_index": 13, "time_elapsed": 1119663, "internal_node_id": "0.0-2.1-4.1"}}, {"uniqueid": "w67577017:a66455239", "current_trial": 14, "dateTime": 1664874822702, "trialdata": {"rt": 33314, "stimulus": "\n<h1> Get ready to start the game! </h1>\n\nThank you for reading the instructions. Get ready start with the first of 4 block(s) of this game.\n<br><br>\nIn this first block, you will complete 30 rounds of this game before moving on.\n<br><br>\nRemember, the more money the spider gets, the bigger your bonus will be!\n<br><br>\n<div style='text-align: center;'>Press <code>space</code> to begin.</div>\n\n<br><br>\n(If, at any point, the <code>space</code> key does not take you to the next page, click once on the text and try again.)", "response": " ", "trial_id": "mdp_ready_1", "trial_type": "html-keyboard-response", "trial_index": 14, "time_elapsed": 1152985, "internal_node_id": "0.0-4.0-0.0"}}, {"uniqueid": "w67577017:a66455239", "current_trial": 15, "dateTime": 1664874847089, "trialdata": {"revealed_states": [], "num_clicks_accrued": [0, 0, 0, 0, 0, 0, 0, 0, 0, 0, 0, 0, 0], "stateRewards": ["", 4, -8, -24, 24, 2, -4, 24, 24, 2, -4, 48, 48], "withholdReward": true, "trial_id": "mdp_457607480918", "block": "test1", "trialIndex": 4, "score": 49.75, "costs": -1.25, "simulationMode": [null, null, null], "rewards": [2, -4, 48], "path": ["0", "0", "9", "10", "11"], "rt": [15357, 781, 2324], "actions": ["left", "left", "up"], "actionTimes": [17443, 18742, 21581], "queries": {"click": {"state": {"target": ["1", "2", "9", "10", "11"], "time": [3579, 6834, 8891, 10256, 11393]}, "edge": {"target": [], "time": []}}, "mouseover": {"state": {"target": ["1", "2", "9", "9", "10", "11"], "time": [3267, 4865, 8266, 8565, 9716, 11033]}, "edge": {"target": [], "time": []}}, "mouseout": {"state": {"target": ["7", "5", "0", "0", "1", "2", "9", "9", "10", "11"], "time": [964, 1015, 1100, 2983, 4766, 7699, 8348, 9651, 10966, 13449]}, "edge": {"target": [], "time": []}}}, "displayed_time": "22.10", "trialTime": 24205, "trial_type": "mouselab-mdp", "trial_index": 15, "time_elapsed": 1177372, "internal_node_id": "0.0-4.0-1.0-0.0"}}, {"uniqueid": "w67577017:a66455239", "current_trial": 16, "dateTime": 1664874866803, "trialdata": {"revealed_states": [], "num_clicks_accrued": [0, 0, 0, 0, 0, 0, 0, 0, 0, 0, 0, 0, 0], "stateRewards": ["", -4, -4, -24, -24, -2, 4, 48, -24, -2, -4, -24, 48], "withholdReward": true, "trial_id": "mdp_855903341564", "block": "test1", "trialIndex": 5, "score": 54.25, "costs": -0.75, "simulationMode": [null, null, null], "rewards": [-2, 4, 48], "path": ["0", "0", "5", "6", "7"], "rt": [8427, 667, 1263], "actions": ["right", "right", "up"], "actionTimes": [12307, 13490, 15269], "queries": {"click": {"state": {"target": ["5", "6", "7"], "time": [6904, 8383, 9467]}, "edge": {"target": [], "time": []}}, "mouseover": {"state": {"target": ["0", "0", "5", "6", "7"], "time": [4340, 4908, 6363, 7985, 9114]}, "edge": {"target": [], "time": []}}, "mouseout": {"state": {"target": ["0", "0", "0", "5", "6", "7", "6"], "time": [3280, 4602, 6203, 7964, 8981, 17413, 17564]}, "edge": {"target": [], "time": []}}}, "displayed_time": "15.78", "trialTime": 19566, "trial_type": "mouselab-mdp", "trial_index": 16, "time_elapsed": 1197086, "internal_node_id": "0.0-4.0-1.0-1.0"}}, {"uniqueid": "w67577017:a66455239", "current_trial": 17, "dateTime": 1664874893214, "trialdata": {"revealed_states": [], "num_clicks_accrued": [0, 0, 0, 0, 0, 0, 0, 0, 0, 0, 0, 0, 0], "stateRewards": ["", -4, 4, -24, 48, -2, 8, -48, 24, 2, 4, 48, -48], "withholdReward": true, "trial_id": "mdp_366632183904", "block": "test1", "trialIndex": 6, "score": 58, "costs": -1, "simulationMode": [null, null, null], "rewards": [2, 4, 48], "path": ["0", "0", "9", "10", "11"], "rt": [11885, 858, 2088], "actions": ["left", "left", "up"], "actionTimes": [15743, 17145, 19745], "queries": {"click": {"state": {"target": ["9", "10", "12", "11"], "time": [7610, 8758, 9703, 11733]}, "edge": {"target": [], "time": []}}, "mouseover": {"state": {"target": ["9", "1", "9", "10", "12", "11"], "time": [5782, 6266, 7300, 8233, 9282, 10934]}, "edge": {"target": [], "time": []}}, "mouseout": {"state": {"target": ["0", "9", "1", "9", "10", "12", "10", "11", "10", "8", "8"], "time": [5500, 6201, 7067, 8118, 9218, 10601, 10817, 21484, 21567, 23039, 24735]}, "edge": {"target": [], "time": []}}}, "displayed_time": "20.27", "trialTime": 26261, "trial_type": "mouselab-mdp", "trial_index": 17, "time_elapsed": 1223496, "internal_node_id": "0.0-4.0-1.0-2.0"}}, {"uniqueid": "w67577017:a66455239", "current_trial": 18, "dateTime": 1664874917778, "trialdata": {"revealed_states": [], "num_clicks_accrued": [0, 0, 0, 0, 0, 0, 0, 0, 0, 0, 0, 0, 0], "stateRewards": ["", -2, -4, -24, -48, 2, -8, -24, -24, 4, -8, 48, 48], "withholdReward": true, "trial_id": "mdp_950599994674", "block": "test1", "trialIndex": 7, "score": 46, "costs": -3, "simulationMode": [null, null, null], "rewards": [4, -8, 48], "path": ["0", "0", "9", "10", "12"], "rt": [17644, 511, 934], "actions": ["left", "left", "down"], "actionTimes": [19720, 20755, 22245], "queries": {"click": {"state": {"target": ["5", "6", "7", "8", "1", "2", "3", "4", "9", "10", "12", "11"], "time": [3516, 4776, 6002, 7304, 8916, 10000, 11147, 12101, 13859, 14664, 15426, 16721]}, "edge": {"target": [], "time": []}}, "mouseover": {"state": {"target": ["5", "6", "7", "8", "1", "2", "3", "4", "10", "9", "10", "12", "11"], "time": [3140, 4175, 5574, 6792, 8325, 9557, 10725, 11758, 12925, 13473, 14307, 15108, 16376]}, "edge": {"target": [], "time": []}}, "mouseout": {"state": {"target": ["0", "5", "6", "7", "6", "8", "5", "1", "2", "3", "2", "4", "10", "9", "10", "12", "10", "11", "9", "5"], "time": [3009, 4125, 5457, 6640, 6758, 7883, 7990, 9392, 10458, 11508, 11673, 12641, 13350, 14208, 15041, 15859, 16323, 16956, 17157, 18293]}, "edge": {"target": [], "time": []}}}, "displayed_time": "22.77", "trialTime": 24382, "trial_type": "mouselab-mdp", "trial_index": 18, "time_elapsed": 1248060, "internal_node_id": "0.0-4.0-1.0-3.0"}}, {"uniqueid": "w67577017:a66455239", "current_trial": 19, "dateTime": 1664874942847, "trialdata": {"revealed_states": [], "num_clicks_accrued": [0, 0, 0, 0, 0, 0, 0, 0, 0, 0, 0, 0, 0], "stateRewards": ["", 2, 8, -24, -48, 2, 4, -24, 48, 2, -8, 48, -24], "withholdReward": true, "trial_id": "mdp_791659307216", "block": "test1", "trialIndex": 8, "score": 58, "costs": -1, "simulationMode": [null, null, null], "rewards": [2, 4, 48], "path": ["0", "0", "5", "6", "8"], "rt": [11574, 734, 1572], "actions": ["right", "right", "down"], "actionTimes": [16551, 17822, 19941], "queries": {"click": {"state": {"target": ["5", "6", "7", "8"], "time": [10556, 11746, 12753, 14607]}, "edge": {"target": [], "time": []}}, "mouseover": {"state": {"target": ["9", "8", "5", "5", "6", "7", "8"], "time": [6003, 7835, 8385, 9536, 11222, 12435, 13520]}, "edge": {"target": [], "time": []}}, "mouseout": {"state": {"target": ["0", "1", "9", "8", "5", "5", "6", "7", "6", "8"], "time": [3751, 3800, 6021, 8286, 9242, 11201, 12336, 13388, 13485, 15302]}, "edge": {"target": [], "time": []}}}, "displayed_time": "20.46", "trialTime": 24911, "trial_type": "mouselab-mdp", "trial_index": 19, "time_elapsed": 1273130, "internal_node_id": "0.0-4.0-1.0-4.0"}}, {"uniqueid": "w67577017:a66455239", "current_trial": 20, "dateTime": 1664874957204, "trialdata": {"revealed_states": [], "num_clicks_accrued": [0, 0, 0, 0, 0, 0, 0, 0, 0, 0, 0, 0, 0], "stateRewards": ["", 4, -8, 24, 48, 2, 4, 48, 48, 2, 8, -48, -48], "withholdReward": true, "trial_id": "mdp_783704746330", "block": "test1", "trialIndex": 9, "score": 48, "costs": -1, "simulationMode": [null, null, null], "rewards": [4, -8, 48], "path": ["0", "0", "1", "2", "4"], "rt": [7620, 519, 684], "actions": ["up", "up", "left"], "actionTimes": [9939, 10992, 12194], "queries": {"click": {"state": {"target": ["1", "2", "3", "4"], "time": [4101, 5310, 6253, 7662]}, "edge": {"target": [], "time": []}}, "mouseover": {"state": {"target": ["1", "2", "3", "4"], "time": [3401, 4767, 5920, 7352]}, "edge": {"target": [], "time": []}}, "mouseout": {"state": {"target": ["0", "0", "1", "2", "3", "2", "4", "2", "3"], "time": [1434, 3296, 4536, 5868, 7033, 7102, 8119, 8169, 8190]}, "edge": {"target": [], "time": []}}}, "displayed_time": "12.71", "trialTime": 14183, "trial_type": "mouselab-mdp", "trial_index": 20, "time_elapsed": 1287486, "internal_node_id": "0.0-4.0-1.0-5.0"}}, {"uniqueid": "w67577017:a66455239", "current_trial": 21, "dateTime": 1664874993646, "trialdata": {"revealed_states": [], "num_clicks_accrued": [0, 0, 0, 0, 0, 0, 0, 0, 0, 0, 0, 0, 0], "stateRewards": ["", -2, -4, -24, 24, -2, 4, -24, -24, -4, 4, 24, -24], "withholdReward": false, "trial_id": "mdp_999419261719", "block": "test1", "trialIndex": 10, "score": 26, "costs": -3, "simulationMode": [null, null, null], "rewards": [-4, 4, 24], "path": ["0", "0", "9", "10", "11"], "rt": [28480, 472, 1693], "actions": ["left", "left", "up"], "actionTimes": [31507, 32499, 34745], "queries": {"click": {"state": {"target": ["5", "6", "7", "8", "4", "3", "2", "1", "9", "10", "11", "12"], "time": [9671, 11077, 12445, 14123, 15783, 17542, 18740, 20127, 21663, 23037, 24387, 25976]}, "edge": {"target": [], "time": []}}, "mouseover": {"state": {"target": ["0", "9", "6", "5", "6", "7", "8", "1", "4", "2", "3", "2", "1", "9", "10", "11", "12"], "time": [3371, 3615, 8532, 9183, 10632, 11962, 13250, 14815, 15198, 16683, 17016, 18216, 19534, 21114, 22516, 23635, 25484]}, "edge": {"target": [], "time": []}}, "mouseout": {"state": {"target": ["11", "10", "9", "0", "0", "9", "6", "5", "6", "7", "6", "8", "1", "4", "2", "3", "2", "1", "9", "10", "11", "10"], "time": [1881, 1899, 2282, 2432, 3400, 3634, 8848, 10415, 11585, 13072, 13148, 14704, 15114, 16432, 16866, 18100, 19316, 20767, 22285, 23518, 25104, 25218]}, "edge": {"target": [], "time": []}}}, "displayed_time": "35.27", "trialTime": 36272, "trial_type": "mouselab-mdp", "trial_index": 21, "time_elapsed": 1323929, "internal_node_id": "0.0-4.0-1.0-6.0"}}, {"uniqueid": "w67577017:a66455239", "current_trial": 22, "dateTime": 1664875026700, "trialdata": {"revealed_states": [], "num_clicks_accrued": [0, 0, 0, 0, 0, 0, 0, 0, 0, 0, 0, 0, 0], "stateRewards": ["", -2, -8, 48, 24, -2, 8, -48, -24, -2, 4, -48, 48], "withholdReward": true, "trial_id": "mdp_295220852217", "block": "test1", "trialIndex": 11, "score": 52, "costs": -3, "simulationMode": [null, null, null], "rewards": [-2, 4, 48], "path": ["0", "0", "9", "10", "12"], "rt": [26022, 618, 1027], "actions": ["left", "left", "down"], "actionTimes": [28212, 29351, 30891], "queries": {"click": {"state": {"target": ["1", "2", "4", "3", "5", "6", "7", "8", "9", "10", "11", "12"], "time": [4965, 6305, 7533, 9098, 12217, 13655, 15141, 16646, 18406, 19724, 20989, 22225]}, "edge": {"target": [], "time": []}}, "mouseover": {"state": {"target": ["5", "1", "2", "4", "3", "5", "6", "7", "8", "0", "9", "10", "11", "12"], "time": [4295, 4428, 5794, 7013, 8595, 11178, 12995, 14531, 16045, 17400, 17846, 19178, 20379, 21730]}, "edge": {"target": [], "time": []}}, "mouseout": {"state": {"target": ["12", "0", "5", "1", "2", "4", "2", "3", "5", "6", "7", "6", "8", "5", "0", "9", "10", "11", "10", "12"], "time": [961, 3511, 4362, 5518, 6878, 8232, 8329, 11028, 12862, 14498, 15787, 15878, 17313, 17380, 17445, 19044, 20279, 21578, 21661, 22864]}, "edge": {"target": [], "time": []}}}, "displayed_time": "31.42", "trialTime": 32888, "trial_type": "mouselab-mdp", "trial_index": 22, "time_elapsed": 1356983, "internal_node_id": "0.0-4.0-1.0-7.0"}}, {"uniqueid": "w67577017:a66455239", "current_trial": 23, "dateTime": 1664875045627, "trialdata": {"revealed_states": [], "num_clicks_accrued": [0, 0, 0, 0, 0, 0, 0, 0, 0, 0, 0, 0, 0], "stateRewards": ["", -4, -4, -24, 24, -4, 4, -24, 48, -2, 4, 48, -48], "withholdReward": false, "trial_id": "mdp_774757609669", "block": "test1", "trialIndex": 12, "score": 54, "costs": -1, "simulationMode": [null, null, null], "rewards": [-2, 4, 48], "path": ["0", "0", "9", "10", "11"], "rt": [8530, 459, 1086], "actions": ["left", "left", "up"], "actionTimes": [11449, 12462, 14088], "queries": {"click": {"state": {"target": ["9", "10", "12", "11"], "time": [5321, 6718, 8128, 9680]}, "edge": {"target": [], "time": []}}, "mouseover": {"state": {"target": ["0", "9", "10", "12", "11"], "time": [4183, 4717, 6052, 7369, 9184]}, "edge": {"target": [], "time": []}}, "mouseout": {"state": {"target": ["0", "0", "9", "10", "12", "10", "11"], "time": [4113, 4383, 5984, 7317, 8872, 8967, 15567]}, "edge": {"target": [], "time": []}}}, "displayed_time": "14.61", "trialTime": 18752, "trial_type": "mouselab-mdp", "trial_index": 23, "time_elapsed": 1375909, "internal_node_id": "0.0-4.0-1.0-8.0"}}, {"uniqueid": "w67577017:a66455239", "current_trial": 24, "dateTime": 1664875069658, "trialdata": {"revealed_states": [], "num_clicks_accrued": [0, 0, 0, 0, 0, 0, 0, 0, 0, 0, 0, 0, 0], "stateRewards": ["", 2, -8, 24, -48, 2, 4, 48, -48, -2, -8, -48, 48], "withholdReward": true, "trial_id": "mdp_629420544881", "block": "test1", "trialIndex": 13, "score": 57.25, "costs": -1.75, "simulationMode": [null, null, null], "rewards": [2, 4, 48], "path": ["0", "0", "5", "6", "7"], "rt": [15286, 455, 985], "actions": ["right", "right", "up"], "actionTimes": [18989, 19961, 21475], "queries": {"click": {"state": {"target": ["1", "2", "3", "4", "5", "6", "7"], "time": [6078, 8554, 9857, 11589, 13364, 14715, 16270]}, "edge": {"target": [], "time": []}}, "mouseover": {"state": {"target": ["1", "2", "3", "4", "5", "6", "7"], "time": [5570, 7757, 9387, 10720, 12821, 14104, 15388]}, "edge": {"target": [], "time": []}}, "mouseout": {"state": {"target": ["0", "1", "2", "3", "2", "4", "5", "6"], "time": [2402, 7722, 9270, 10556, 10637, 12355, 14037, 15306]}, "edge": {"target": [], "time": []}}}, "displayed_time": "21.99", "trialTime": 23885, "trial_type": "mouselab-mdp", "trial_index": 24, "time_elapsed": 1399940, "internal_node_id": "0.0-4.0-1.0-9.0"}}, {"uniqueid": "w67577017:a66455239", "current_trial": 25, "dateTime": 1664875089729, "trialdata": {"revealed_states": [], "num_clicks_accrued": [0, 0, 0, 0, 0, 0, 0, 0, 0, 0, 0, 0, 0], "stateRewards": ["", 2, 4, 48, 24, -4, 8, 48, 48, 2, -4, -48, -24], "withholdReward": false, "trial_id": "mdp_822099887466", "block": "test1", "trialIndex": 14, "score": 58.5, "costs": -0.5, "simulationMode": [null, null, null], "rewards": [2, 4, 48], "path": ["0", "0", "1", "2", "3"], "rt": [11596, 476, 686], "actions": ["up", "up", "right"], "actionTimes": [13662, 14688, 15929], "queries": {"click": {"state": {"target": ["1", "3"], "time": [7157, 9197]}, "edge": {"target": [], "time": []}}, "mouseover": {"state": {"target": ["5", "0", "9", "0", "1", "2", "3", "2", "4", "2", "2", "0"], "time": [3556, 5241, 5357, 5991, 6206, 8390, 8591, 9978, 10056, 10356, 10911, 12106]}, "edge": {"target": [], "time": []}}, "mouseout": {"state": {"target": ["7", "5", "0", "5", "0", "9", "0", "1", "1", "2", "3", "2", "4", "2", "2", "1", "0"], "time": [957, 1039, 3409, 5213, 5275, 5557, 6013, 7957, 8125, 8474, 9958, 10024, 10272, 10425, 11813, 11958, 12190]}, "edge": {"target": [], "time": []}}}, "displayed_time": "16.48", "trialTime": 19909, "trial_type": "mouselab-mdp", "trial_index": 25, "time_elapsed": 1420012, "internal_node_id": "0.0-4.0-1.0-10.0"}}, {"uniqueid": "w67577017:a66455239", "current_trial": 26, "dateTime": 1664875129391, "trialdata": {"revealed_states": [], "num_clicks_accrued": [0, 0, 0, 0, 0, 0, 0, 0, 0, 0, 0, 0, 0], "stateRewards": ["", -2, -8, 48, 24, 2, 8, -48, 24, -4, 8, 48, 48], "withholdReward": true, "trial_id": "mdp_875436109858", "block": "test1", "trialIndex": 15, "score": 37.25, "costs": -1.75, "simulationMode": [null, null, null], "rewards": [2, 8, 24], "path": ["0", "0", "5", "6", "8"], "rt": [32381, 269, 1204], "actions": ["right", "right", "down"], "actionTimes": [34632, 35451, 37170], "queries": {"click": {"state": {"target": ["3", "2", "1", "6", "7", "8", "5"], "time": [4402, 11980, 13114, 19049, 20745, 22349, 24511]}, "edge": {"target": [], "time": []}}, "mouseover": {"state": {"target": ["3", "2", "1", "2", "1", "2", "2", "1", "7", "6", "7", "8", "8", "5"], "time": [3432, 6548, 6692, 7359, 8042, 9014, 9250, 12628, 16934, 18278, 20245, 21663, 21846, 23861]}, "edge": {"target": [], "time": []}}, "mouseout": {"state": {"target": ["0", "3", "2", "1", "2", "1", "2", "2", "1", "1", "7", "6", "7", "6", "8", "8", "5", "6"], "time": [3142, 5609, 6593, 7314, 7994, 8993, 9126, 12575, 13661, 15109, 18219, 19598, 21377, 21460, 21778, 22894, 25038, 25161]}, "edge": {"target": [], "time": []}}}, "displayed_time": "37.68", "trialTime": 39504, "trial_type": "mouselab-mdp", "trial_index": 26, "time_elapsed": 1459673, "internal_node_id": "0.0-4.0-1.0-11.0"}}, {"uniqueid": "w67577017:a66455239", "current_trial": 27, "dateTime": 1664875144288, "trialdata": {"revealed_states": [], "num_clicks_accrued": [0, 0, 0, 0, 0, 0, 0, 0, 0, 0, 0, 0, 0], "stateRewards": ["", -2, 4, 24, 48, 2, 4, -48, -48, -2, 8, 48, -24], "withholdReward": true, "trial_id": "mdp_305701202606", "block": "test1", "trialIndex": 16, "score": 58.25, "costs": -0.75, "simulationMode": [null, null, null], "rewards": [-2, 8, 48], "path": ["0", "0", "9", "10", "11"], "rt": [7319, 209, 1011], "actions": ["left", "left", "up"], "actionTimes": [10018, 10751, 12284], "queries": {"click": {"state": {"target": ["11", "10", "9"], "time": [5237, 6636, 7921]}, "edge": {"target": [], "time": []}}, "mouseover": {"state": {"target": ["9", "10", "11", "10", "9", "0"], "time": [3502, 3904, 4659, 5954, 7221, 8903]}, "edge": {"target": [], "time": []}}, "mouseout": {"state": {"target": ["6", "0", "0", "9", "10", "11", "10", "9", "0"], "time": [1736, 2101, 3453, 3870, 4637, 5887, 7170, 8820, 13650]}, "edge": {"target": [], "time": []}}}, "displayed_time": "12.84", "trialTime": 14710, "trial_type": "mouselab-mdp", "trial_index": 27, "time_elapsed": 1474570, "internal_node_id": "0.0-4.0-1.0-12.0"}}, {"uniqueid": "w67577017:a66455239", "current_trial": 28, "dateTime": 1664875169959, "trialdata": {"revealed_states": [], "num_clicks_accrued": [0, 0, 0, 0, 0, 0, 0, 0, 0, 0, 0, 0, 0], "stateRewards": ["", 4, 4, -48, -48, 4, 4, -24, -24, -4, 8, -48, 24], "withholdReward": false, "trial_id": "mdp_669785455541", "block": "test1", "trialIndex": 17, "score": 30.5, "costs": -2.5, "simulationMode": [null, null, null], "rewards": [-4, 8, 24], "path": ["0", "0", "9", "10", "12"], "rt": [18514, 198, 746], "actions": ["left", "left", "down"], "actionTimes": [21046, 21767, 23065], "queries": {"click": {"state": {"target": ["7", "8", "3", "4", "11", "12", "10", "9", "5", "6"], "time": [4755, 6129, 7688, 8724, 9967, 11263, 12508, 13855, 16174, 17587]}, "edge": {"target": [], "time": []}}, "mouseover": {"state": {"target": ["5", "7", "6", "8", "5", "3", "2", "4", "11", "10", "12", "10", "9", "1", "5", "6"], "time": [3665, 4035, 5468, 5533, 6717, 7151, 8128, 8203, 9284, 10452, 10529, 11821, 13067, 14751, 15567, 17001]}, "edge": {"target": [], "time": []}}, "mouseout": {"state": {"target": ["0", "5", "7", "6", "8", "5", "3", "2", "4", "11", "10", "12", "10", "9", "1", "5", "6"], "time": [3616, 3717, 5419, 5501, 6684, 6742, 8106, 8166, 9200, 10433, 10501, 11800, 13001, 14716, 15151, 16901, 18406]}, "edge": {"target": [], "time": []}}}, "displayed_time": "23.62", "trialTime": 25511, "trial_type": "mouselab-mdp", "trial_index": 28, "time_elapsed": 1500242, "internal_node_id": "0.0-4.0-1.0-13.0"}}, {"uniqueid": "w67577017:a66455239", "current_trial": 29, "dateTime": 1664875187183, "trialdata": {"revealed_states": [], "num_clicks_accrued": [0, 0, 0, 0, 0, 0, 0, 0, 0, 0, 0, 0, 0], "stateRewards": ["", 2, -4, 24, -24, 2, -8, 48, 48, 4, -4, 24, 48], "withholdReward": true, "trial_id": "mdp_947836623875", "block": "test1", "trialIndex": 18, "score": 52.25, "costs": -0.75, "simulationMode": [null, null, null], "rewards": [4, -4, 48], "path": ["0", "0", "9", "10", "12"], "rt": [8357, 471, 1204], "actions": ["left", "left", "down"], "actionTimes": [11780, 12782, 14506], "queries": {"click": {"state": {"target": ["9", "10", "12"], "time": [5922, 8319, 9707]}, "edge": {"target": [], "time": []}}, "mouseover": {"state": {"target": ["9", "1", "10", "12"], "time": [4459, 6864, 7776, 9011]}, "edge": {"target": [], "time": []}}, "mouseout": {"state": {"target": ["0", "0", "9", "1", "9", "10", "12"], "time": [2460, 4293, 6560, 7593, 7692, 8975, 15959]}, "edge": {"target": [], "time": []}}}, "displayed_time": "15.03", "trialTime": 17060, "trial_type": "mouselab-mdp", "trial_index": 29, "time_elapsed": 1517466, "internal_node_id": "0.0-4.0-1.0-14.0"}}, {"uniqueid": "w67577017:a66455239", "current_trial": 30, "dateTime": 1664875211452, "trialdata": {"revealed_states": [], "num_clicks_accrued": [0, 0, 0, 0, 0, 0, 0, 0, 0, 0, 0, 0, 0], "stateRewards": ["", -4, 4, 48, 24, -4, 4, -24, 48, -2, -8, 24, -48], "withholdReward": true, "trial_id": "mdp_261501605436", "block": "test1", "trialIndex": 19, "score": 51.5, "costs": -1.5, "simulationMode": [null, null, null], "rewards": [-4, 4, 48], "path": ["0", "0", "1", "2", "3"], "rt": [18112, 278, 1122], "actions": ["up", "up", "right"], "actionTimes": [19959, 20792, 22468], "queries": {"click": {"state": {"target": ["5", "1", "9", "11", "12", "3"], "time": [4235, 5860, 7101, 8222, 10425, 12374]}, "edge": {"target": [], "time": []}}, "mouseover": {"state": {"target": ["5", "1", "9", "11", "10", "10", "12", "3", "2", "0", "2", "0"], "time": [3361, 5260, 6460, 7628, 8888, 9227, 9710, 11843, 13627, 17318, 17460, 18178]}, "edge": {"target": [], "time": []}}, "mouseout": {"state": {"target": ["1", "0", "5", "1", "9", "11", "10", "10", "12", "9", "1", "3", "2", "0", "1", "2", "0"], "time": [1161, 3311, 5081, 6327, 7578, 8868, 9012, 9661, 11154, 11228, 11511, 13494, 14828, 17336, 17377, 18144, 18206]}, "edge": {"target": [], "time": []}}}, "displayed_time": "23.02", "trialTime": 24096, "trial_type": "mouselab-mdp", "trial_index": 30, "time_elapsed": 1541735, "internal_node_id": "0.0-4.0-1.0-15.0"}}, {"uniqueid": "w67577017:a66455239", "current_trial": 31, "dateTime": 1664875232381, "trialdata": {"revealed_states": [], "num_clicks_accrued": [0, 0, 0, 0, 0, 0, 0, 0, 0, 0, 0, 0, 0], "stateRewards": ["", 2, 4, -48, 24, -4, 4, -24, 48, -2, -8, -48, 48], "withholdReward": true, "trial_id": "mdp_424193661731", "block": "test1", "trialIndex": 20, "score": 33.5, "costs": -1.5, "simulationMode": [null, null, null], "rewards": [2, 4, 24], "path": ["0", "0", "1", "2", "4"], "rt": [14280, 208, 987], "actions": ["up", "up", "left"], "actionTimes": [16141, 16862, 18373], "queries": {"click": {"state": {"target": ["6", "10", "2", "1", "3", "4"], "time": [5037, 6787, 8366, 11088, 12391, 13793]}, "edge": {"target": [], "time": []}}, "mouseover": {"state": {"target": ["5", "6", "5", "0", "9", "10", "2", "2", "1", "3", "1", "3", "4"], "time": [3017, 4516, 5757, 5850, 6081, 6199, 7583, 7833, 9158, 10032, 10520, 11682, 13182]}, "edge": {"target": [], "time": []}}, "mouseout": {"state": {"target": ["0", "5", "6", "5", "0", "9", "10", "2", "2", "1", "3", "1", "3", "2", "4", "9"], "time": [2984, 4384, 5734, 5817, 5900, 6149, 7501, 7666, 8966, 9986, 10498, 11590, 12984, 13050, 14583, 19800]}, "edge": {"target": [], "time": []}}}, "displayed_time": "18.89", "trialTime": 20763, "trial_type": "mouselab-mdp", "trial_index": 31, "time_elapsed": 1562663, "internal_node_id": "0.0-4.0-1.0-16.0"}}, {"uniqueid": "w67577017:a66455239", "current_trial": 32, "dateTime": 1664875247807, "trialdata": {"revealed_states": [], "num_clicks_accrued": [0, 0, 0, 0, 0, 0, 0, 0, 0, 0, 0, 0, 0], "stateRewards": ["", 4, 4, 48, -24, -4, -8, 24, -24, 2, -8, -24, 24], "withholdReward": true, "trial_id": "mdp_933201675789", "block": "test1", "trialIndex": 21, "score": 60, "costs": -1, "simulationMode": [null, null, null], "rewards": [4, 4, 48], "path": ["0", "0", "1", "2", "3"], "rt": [8494, 336, 964], "actions": ["up", "up", "right"], "actionTimes": [10439, 11302, 12814], "queries": {"click": {"state": {"target": ["10", "2", "1", "3"], "time": [4442, 5941, 7204, 8748]}, "edge": {"target": [], "time": []}}, "mouseover": {"state": {"target": ["9", "9", "10", "2", "1", "3"], "time": [3054, 3481, 3914, 5447, 6698, 7849]}, "edge": {"target": [], "time": []}}, "mouseout": {"state": {"target": ["0", "9", "9", "10", "2", "1", "3"], "time": [3032, 3164, 3813, 5049, 6634, 7697, 14150]}, "edge": {"target": [], "time": []}}}, "displayed_time": "13.33", "trialTime": 15252, "trial_type": "mouselab-mdp", "trial_index": 32, "time_elapsed": 1578089, "internal_node_id": "0.0-4.0-1.0-17.0"}}, {"uniqueid": "w67577017:a66455239", "current_trial": 33, "dateTime": 1664875271369, "trialdata": {"revealed_states": [], "num_clicks_accrued": [0, 0, 0, 0, 0, 0, 0, 0, 0, 0, 0, 0, 0], "stateRewards": ["", -2, -4, -24, -48, -2, 8, -48, 24, 4, -4, -24, -24], "withholdReward": true, "trial_id": "mdp_915304165774", "block": "test1", "trialIndex": 22, "score": 33.25, "costs": -1.75, "simulationMode": [null, null, null], "rewards": [-2, 8, 24], "path": ["0", "0", "5", "6", "8"], "rt": [16040, 268, 1138], "actions": ["right", "right", "down"], "actionTimes": [17660, 18448, 20099], "queries": {"click": {"state": {"target": ["5", "2", "10", "12", "7", "6", "8"], "time": [3657, 5542, 6951, 8607, 10220, 11911, 13704]}, "edge": {"target": [], "time": []}}, "mouseover": {"state": {"target": ["5", "1", "2", "10", "12", "7", "6", "8"], "time": [3142, 4825, 5007, 6224, 7692, 9757, 10891, 13141]}, "edge": {"target": [], "time": []}}, "mouseout": {"state": {"target": ["0", "5", "1", "2", "10", "12", "7", "6", "8"], "time": [3091, 4692, 4942, 6078, 7658, 9210, 10843, 12858, 14707]}, "edge": {"target": [], "time": []}}}, "displayed_time": "20.63", "trialTime": 23374, "trial_type": "mouselab-mdp", "trial_index": 33, "time_elapsed": 1601652, "internal_node_id": "0.0-4.0-1.0-18.0"}}, {"uniqueid": "w67577017:a66455239", "current_trial": 34, "dateTime": 1664875288523, "trialdata": {"revealed_states": [], "num_clicks_accrued": [0, 0, 0, 0, 0, 0, 0, 0, 0, 0, 0, 0, 0], "stateRewards": ["", -4, -4, 24, -48, -2, 8, -24, -48, -4, 4, 24, -48], "withholdReward": true, "trial_id": "mdp_934626330092", "block": "test1", "trialIndex": 23, "score": 28.25, "costs": -0.75, "simulationMode": [null, null, null], "rewards": [-4, 4, 24], "path": ["0", "0", "9", "10", "11"], "rt": [10261, 188, 906], "actions": ["left", "left", "up"], "actionTimes": [12286, 13030, 14495], "queries": {"click": {"state": {"target": ["9", "11", "10"], "time": [3662, 4982, 6096]}, "edge": {"target": [], "time": []}}, "mouseover": {"state": {"target": ["9", "11", "10", "12", "1", "2", "4"], "time": [3123, 4404, 5622, 6904, 8288, 8703, 9204]}, "edge": {"target": [], "time": []}}, "mouseout": {"state": {"target": ["0", "9", "11", "10", "12", "9", "1", "2", "4"], "time": [3072, 4289, 5538, 6787, 7437, 8205, 8337, 9104, 10098]}, "edge": {"target": [], "time": []}}}, "displayed_time": "15.02", "trialTime": 16973, "trial_type": "mouselab-mdp", "trial_index": 34, "time_elapsed": 1618806, "internal_node_id": "0.0-4.0-1.0-19.0"}}, {"uniqueid": "w67577017:a66455239", "current_trial": 35, "dateTime": 1664875305019, "trialdata": {"revealed_states": [], "num_clicks_accrued": [0, 0, 0, 0, 0, 0, 0, 0, 0, 0, 0, 0, 0], "stateRewards": ["", 4, -8, 24, 48, -2, -4, -48, 24, 2, 4, -48, -24], "withholdReward": true, "trial_id": "mdp_749974461966", "block": "test1", "trialIndex": 24, "score": 47.5, "costs": -1.5, "simulationMode": [null, null, null], "rewards": [4, -8, 48], "path": ["0", "0", "1", "2", "4"], "rt": [10336, 344, 818], "actions": ["up", "up", "left"], "actionTimes": [11901, 12771, 14110], "queries": {"click": {"state": {"target": ["5", "7", "3", "1", "2", "4"], "time": [2898, 4295, 5556, 6835, 7981, 9506]}, "edge": {"target": [], "time": []}}, "mouseover": {"state": {"target": ["5", "7", "3", "1", "2", "4"], "time": [2406, 3706, 5057, 6323, 7408, 9023]}, "edge": {"target": [], "time": []}}, "mouseout": {"state": {"target": ["0", "5", "7", "3", "1", "2", "4"], "time": [921, 3606, 4929, 6005, 7382, 8972, 15273]}, "edge": {"target": [], "time": []}}}, "displayed_time": "14.63", "trialTime": 16321, "trial_type": "mouselab-mdp", "trial_index": 35, "time_elapsed": 1635302, "internal_node_id": "0.0-4.0-1.0-20.0"}}, {"uniqueid": "w67577017:a66455239", "current_trial": 36, "dateTime": 1664875331999, "trialdata": {"revealed_states": [], "num_clicks_accrued": [0, 0, 0, 0, 0, 0, 0, 0, 0, 0, 0, 0, 0], "stateRewards": ["", -2, -4, 48, 48, 2, 4, -48, 24, 4, -8, 24, -24], "withholdReward": true, "trial_id": "mdp_628613319495", "block": "test1", "trialIndex": 25, "score": 44.75, "costs": -2.25, "simulationMode": [null, null, null], "rewards": [-2, -4, 48], "path": ["0", "0", "1", "2", "3"], "rt": [19851, 260, 1227], "actions": ["up", "up", "right"], "actionTimes": [21479, 22275, 24060], "queries": {"click": {"state": {"target": ["1", "2", "10", "9", "11", "12", "7", "8", "3"], "time": [3282, 4508, 6616, 7844, 9004, 10637, 12829, 14256, 17500]}, "edge": {"target": [], "time": []}}, "mouseover": {"state": {"target": ["1", "2", "4", "10", "9", "11", "12", "7", "6", "8", "5", "3", "4"], "time": [2777, 3945, 5128, 6077, 7295, 8477, 9977, 12205, 13396, 13811, 15060, 16895, 18961]}, "edge": {"target": [], "time": []}}, "mouseout": {"state": {"target": ["0", "0", "1", "2", "4", "10", "9", "11", "10", "12", "9", "7", "6", "8", "5", "3", "2", "4", "1"], "time": [927, 2678, 3913, 5077, 5760, 7194, 8422, 9851, 9927, 11298, 11362, 13368, 13528, 14896, 16549, 18846, 18912, 19464, 25348]}, "edge": {"target": [], "time": []}}}, "displayed_time": "24.58", "trialTime": 26805, "trial_type": "mouselab-mdp", "trial_index": 36, "time_elapsed": 1662282, "internal_node_id": "0.0-4.0-1.0-21.0"}}, {"uniqueid": "w67577017:a66455239", "current_trial": 37, "dateTime": 1664875352741, "trialdata": {"revealed_states": [], "num_clicks_accrued": [0, 0, 0, 0, 0, 0, 0, 0, 0, 0, 0, 0, 0], "stateRewards": ["", 2, -8, -24, -48, -2, -4, 48, 48, 4, 8, 48, 48], "withholdReward": false, "trial_id": "mdp_347285045422", "block": "test1", "trialIndex": 26, "score": 64, "costs": -1, "simulationMode": [null, null, null], "rewards": [4, 8, 48], "path": ["0", "0", "9", "10", "11"], "rt": [12425, 271, 1014], "actions": ["left", "left", "up"], "actionTimes": [15204, 16030, 17573], "queries": {"click": {"state": {"target": ["6", "2", "10", "11"], "time": [7114, 9400, 11211, 12983]}, "edge": {"target": [], "time": []}}, "mouseover": {"state": {"target": ["0", "5", "6", "5", "1", "2", "10", "10", "11"], "time": [3541, 3673, 4789, 7905, 8295, 8840, 10373, 10656, 12156]}, "edge": {"target": [], "time": []}}, "mouseout": {"state": {"target": ["0", "0", "5", "6", "5", "1", "2", "10", "10", "11", "9"], "time": [2272, 3560, 4742, 7841, 8274, 8780, 10086, 10425, 12040, 18874, 18944]}, "edge": {"target": [], "time": []}}}, "displayed_time": "18.13", "trialTime": 20541, "trial_type": "mouselab-mdp", "trial_index": 37, "time_elapsed": 1683024, "internal_node_id": "0.0-4.0-1.0-22.0"}}, {"uniqueid": "w67577017:a66455239", "current_trial": 38, "dateTime": 1664875369583, "trialdata": {"revealed_states": [], "num_clicks_accrued": [0, 0, 0, 0, 0, 0, 0, 0, 0, 0, 0, 0, 0], "stateRewards": ["", -2, 4, -48, 24, -4, 8, 48, 24, -2, 4, -48, -24], "withholdReward": false, "trial_id": "mdp_740882974347", "block": "test1", "trialIndex": 27, "score": 31.5, "costs": -1.5, "simulationMode": [null, null, null], "rewards": [-4, 8, 24], "path": ["0", "0", "5", "6", "8"], "rt": [11160, 182, 748], "actions": ["right", "right", "down"], "actionTimes": [12792, 13495, 14813], "queries": {"click": {"state": {"target": ["2", "3", "10", "11", "6", "8"], "time": [3690, 5220, 7157, 8246, 10063, 11175]}, "edge": {"target": [], "time": []}}, "mouseover": {"state": {"target": ["1", "2", "3", "1", "10", "11", "1", "6", "8"], "time": [3028, 3131, 4643, 5945, 6547, 7671, 9012, 9512, 10663]}, "edge": {"target": [], "time": []}}, "mouseout": {"state": {"target": ["0", "1", "2", "3", "1", "10", "11", "1", "6"], "time": [761, 3096, 4580, 5901, 6062, 7650, 8962, 9061, 10530]}, "edge": {"target": [], "time": []}}}, "displayed_time": "15.33", "trialTime": 16654, "trial_type": "mouselab-mdp", "trial_index": 38, "time_elapsed": 1699866, "internal_node_id": "0.0-4.0-1.0-23.0"}}, {"uniqueid": "w67577017:a66455239", "current_trial": 39, "dateTime": 1664875385695, "trialdata": {"revealed_states": [], "num_clicks_accrued": [0, 0, 0, 0, 0, 0, 0, 0, 0, 0, 0, 0, 0], "stateRewards": ["", -2, 4, -24, 48, 4, -8, 48, -48, 2, -8, 48, 24], "withholdReward": true, "trial_id": "mdp_501111216502", "block": "test1", "trialIndex": 28, "score": 48.25, "costs": -0.75, "simulationMode": [null, null, null], "rewards": [4, -8, 48], "path": ["0", "0", "5", "6", "7"], "rt": [8863, 323, 1255], "actions": ["right", "right", "up"], "actionTimes": [10888, 11766, 13545], "queries": {"click": {"state": {"target": ["5", "6", "7"], "time": [6047, 7749, 9178]}, "edge": {"target": [], "time": []}}, "mouseover": {"state": {"target": ["0", "5", "6", "7"], "time": [5225, 5357, 6990, 8556]}, "edge": {"target": [], "time": []}}, "mouseout": {"state": {"target": ["8", "0", "0", "5", "6", "7", "8"], "time": [906, 1139, 5274, 6941, 8425, 9807, 15090]}, "edge": {"target": [], "time": []}}}, "displayed_time": "14.06", "trialTime": 15943, "trial_type": "mouselab-mdp", "trial_index": 39, "time_elapsed": 1715977, "internal_node_id": "0.0-4.0-1.0-24.0"}}, {"uniqueid": "w67577017:a66455239", "current_trial": 40, "dateTime": 1664875400355, "trialdata": {"revealed_states": [], "num_clicks_accrued": [0, 0, 0, 0, 0, 0, 0, 0, 0, 0, 0, 0, 0], "stateRewards": ["", 2, 8, 48, 24, -4, 4, -48, 24, 2, 8, 48, 48], "withholdReward": true, "trial_id": "mdp_367344599162", "block": "test1", "trialIndex": 29, "score": 62.25, "costs": -0.75, "simulationMode": [null, null, null], "rewards": [2, 8, 48], "path": ["0", "0", "1", "2", "3"], "rt": [7956, 323, 1049], "actions": ["up", "up", "right"], "actionTimes": [9844, 10730, 12298], "queries": {"click": {"state": {"target": ["1", "4", "3"], "time": [3515, 5206, 7624]}, "edge": {"target": [], "time": []}}, "mouseover": {"state": {"target": ["1", "1", "2", "4", "2", "3", "3"], "time": [2692, 2988, 4222, 4723, 5826, 5875, 6956]}, "edge": {"target": [], "time": []}}, "mouseout": {"state": {"target": ["0", "1", "1", "2", "4", "2", "3", "3"], "time": [2665, 2739, 4105, 4688, 5806, 5873, 6555, 13519]}, "edge": {"target": [], "time": []}}}, "displayed_time": "12.81", "trialTime": 14486, "trial_type": "mouselab-mdp", "trial_index": 40, "time_elapsed": 1730638, "internal_node_id": "0.0-4.0-1.0-25.0"}}, {"uniqueid": "w67577017:a66455239", "current_trial": 41, "dateTime": 1664875424916, "trialdata": {"revealed_states": [], "num_clicks_accrued": [0, 0, 0, 0, 0, 0, 0, 0, 0, 0, 0, 0, 0], "stateRewards": ["", 4, -4, 48, -48, -2, -8, -24, 48, -2, 4, 24, -24], "withholdReward": true, "trial_id": "mdp_507290896735", "block": "test1", "trialIndex": 30, "score": 52.25, "costs": -0.75, "simulationMode": [null, null, null], "rewards": [4, -4, 48], "path": ["0", "0", "1", "2", "3"], "rt": [16644, 174, 968], "actions": ["up", "up", "right"], "actionTimes": [19879, 20582, 22067], "queries": {"click": {"state": {"target": ["11", "12", "3"], "time": [7324, 10918, 13064]}, "edge": {"target": [], "time": []}}, "mouseover": {"state": {"target": ["9", "10", "11", "10", "12", "12", "2", "3", "1"], "time": [4903, 5704, 6220, 8471, 9754, 10411, 11973, 12492, 13872]}, "edge": {"target": [], "time": []}}, "mouseout": {"state": {"target": ["0", "9", "10", "11", "10", "12", "12", "2", "3", "1", "0"], "time": [4853, 5621, 6071, 8438, 9721, 10137, 11533, 12205, 13739, 23496, 23521]}, "edge": {"target": [], "time": []}}}, "displayed_time": "22.59", "trialTime": 24377, "trial_type": "mouselab-mdp", "trial_index": 41, "time_elapsed": 1755199, "internal_node_id": "0.0-4.0-1.0-26.0"}}, {"uniqueid": "w67577017:a66455239", "current_trial": 42, "dateTime": 1664875441875, "trialdata": {"revealed_states": [], "num_clicks_accrued": [0, 0, 0, 0, 0, 0, 0, 0, 0, 0, 0, 0, 0], "stateRewards": ["", 4, -8, -48, 48, -2, 8, -48, 48, -2, -4, 24, -48], "withholdReward": true, "trial_id": "mdp_400558136089", "block": "test1", "trialIndex": 31, "score": 48, "costs": -1, "simulationMode": [null, null, null], "rewards": [4, -8, 48], "path": ["0", "0", "1", "2", "4"], "rt": [9389, 283, 795], "actions": ["up", "up", "left"], "actionTimes": [12649, 13463, 14777], "queries": {"click": {"state": {"target": ["5", "1", "3", "4"], "time": [5800, 7545, 9040, 10290]}, "edge": {"target": [], "time": []}}, "mouseover": {"state": {"target": ["5", "6", "0", "1", "2", "3", "2", "4"], "time": [4475, 6343, 6693, 6908, 8310, 8442, 9614, 9726]}, "edge": {"target": [], "time": []}}, "mouseout": {"state": {"target": ["0", "5", "6", "5", "0", "1", "2", "3", "2"], "time": [4326, 6278, 6592, 6643, 6713, 8129, 8394, 9593, 9677]}, "edge": {"target": [], "time": []}}}, "displayed_time": "15.33", "trialTime": 16774, "trial_type": "mouselab-mdp", "trial_index": 42, "time_elapsed": 1772157, "internal_node_id": "0.0-4.0-1.0-27.0"}}, {"uniqueid": "w67577017:a66455239", "current_trial": 43, "dateTime": 1664875456671, "trialdata": {"revealed_states": [], "num_clicks_accrued": [0, 0, 0, 0, 0, 0, 0, 0, 0, 0, 0, 0, 0], "stateRewards": ["", -4, -4, 48, 24, -4, -4, -24, -48, -4, 4, 48, -24], "withholdReward": false, "trial_id": "mdp_896503755738", "block": "test1", "trialIndex": 32, "score": 52.5, "costs": -0.5, "simulationMode": [null, null, null], "rewards": [-4, 4, 48], "path": ["0", "0", "9", "10", "11"], "rt": [6583, 375, 967], "actions": ["left", "left", "up"], "actionTimes": [9338, 10237, 11729], "queries": {"click": {"state": {"target": ["9", "11"], "time": [4754, 6261]}, "edge": {"target": [], "time": []}}, "mouseover": {"state": {"target": ["1", "9", "9", "11"], "time": [3810, 3991, 4277, 5560]}, "edge": {"target": [], "time": []}}, "mouseout": {"state": {"target": ["4", "0", "1", "9", "9", "11"], "time": [995, 1358, 3908, 4043, 5443, 13526]}, "edge": {"target": [], "time": []}}}, "displayed_time": "12.24", "trialTime": 14619, "trial_type": "mouselab-mdp", "trial_index": 43, "time_elapsed": 1786954, "internal_node_id": "0.0-4.0-1.0-28.0"}}, {"uniqueid": "w67577017:a66455239", "current_trial": 44, "dateTime": 1664875474275, "trialdata": {"revealed_states": [], "num_clicks_accrued": [0, 0, 0, 0, 0, 0, 0, 0, 0, 0, 0, 0, 0], "stateRewards": ["", 2, 4, 48, 48, 4, -8, 24, -48, -4, -8, -24, -48], "withholdReward": false, "trial_id": "mdp_343818007251", "block": "test1", "trialIndex": 33, "score": 58.5, "costs": -0.5, "simulationMode": [null, null, null], "rewards": [2, 4, 48], "path": ["0", "0", "1", "2", "3"], "rt": [4864, 263, 895], "actions": ["up", "up", "right"], "actionTimes": [7271, 8062, 9476], "queries": {"click": {"state": {"target": ["1", "3"], "time": [4285, 5548]}, "edge": {"target": [], "time": []}}, "mouseover": {"state": {"target": ["1", "3"], "time": [3545, 5029]}, "edge": {"target": [], "time": []}}, "mouseout": {"state": {"target": ["0", "1", "3"], "time": [3353, 4918, 10830]}, "edge": {"target": [], "time": []}}}, "displayed_time": "12.60", "trialTime": 17426, "trial_type": "mouselab-mdp", "trial_index": 44, "time_elapsed": 1804558, "internal_node_id": "0.0-4.0-1.0-29.0"}}, {"uniqueid": "w67577017:a66455239", "current_trial": 45, "dateTime": 1664875489397, "trialdata": {"rt": 15113, "stimulus": "<h1> End of block! </h1>\n\nYou have reached the end of the block 1/4. If you need a short break, feel free to take one now before moving on.\n\n<br><br>\nIn the next block, you will complete another 30 rounds of this game.\n\n<br><br>\n<div style='text-align: center;'>Press <code>space</code> to begin.</div>\n<br><br>\n<div style='text-align: center;'>(If the experiment doesn't continue, try clicking on the text and then pressing <code>space</code>.)</div>", "response": " ", "trial_id": "mdp_ready_2", "trial_type": "html-keyboard-response", "trial_index": 45, "time_elapsed": 1819680, "internal_node_id": "0.0-4.0-2.0"}}, {"uniqueid": "w67577017:a66455239", "current_trial": 46, "dateTime": 1664875509816, "trialdata": {"revealed_states": [], "num_clicks_accrued": [0, 0, 0, 0, 0, 0, 0, 0, 0, 0, 0, 0, 0], "stateRewards": ["", 4, -4, 48, -48, 2, 8, -48, 24, -2, -4, -24, 48], "withholdReward": false, "trial_id": "mdp_937564992306", "block": "test2", "trialIndex": 34, "score": 51.75, "costs": -1.25, "simulationMode": [null, null, null], "rewards": [4, -4, 48], "path": ["0", "0", "1", "2", "3"], "rt": [12060, 242, 1174], "actions": ["up", "up", "right"], "actionTimes": [14763, 15534, 17234], "queries": {"click": {"state": {"target": ["10", "2", "8", "7", "3"], "time": [4288, 6110, 8610, 10277, 12098]}, "edge": {"target": [], "time": []}}, "mouseover": {"state": {"target": ["9", "10", "2", "6", "8", "6", "7", "3"], "time": [3622, 3740, 5357, 7458, 8090, 9574, 9706, 11609]}, "edge": {"target": [], "time": []}}, "mouseout": {"state": {"target": ["0", "9", "10", "2", "6", "8", "6", "7", "3", "5"], "time": [3456, 3706, 5008, 6876, 8024, 9540, 9601, 11125, 18872, 18975]}, "edge": {"target": [], "time": []}}}, "displayed_time": "17.76", "trialTime": 20243, "trial_type": "mouselab-mdp", "trial_index": 46, "time_elapsed": 1840099, "internal_node_id": "0.0-4.0-3.0-0.0"}}, {"uniqueid": "w67577017:a66455239", "current_trial": 47, "dateTime": 1664875526541, "trialdata": {"revealed_states": [], "num_clicks_accrued": [0, 0, 0, 0, 0, 0, 0, 0, 0, 0, 0, 0, 0], "stateRewards": ["", -4, 8, -24, -24, 2, 4, 48, 48, -2, 4, 24, -48], "withholdReward": true, "trial_id": "mdp_397308196941", "block": "test2", "trialIndex": 35, "score": 57.75, "costs": -1.25, "simulationMode": [null, null, null], "rewards": [2, 4, 48], "path": ["0", "0", "5", "6", "7"], "rt": [10022, 122, 1410], "actions": ["right", "right", "up"], "actionTimes": [11666, 12318, 14258], "queries": {"click": {"state": {"target": ["11", "12", "4", "3", "7"], "time": [3701, 5118, 6537, 7918, 9395]}, "edge": {"target": [], "time": []}}, "mouseover": {"state": {"target": ["11", "10", "11", "10", "12", "4", "2", "3", "7", "7"], "time": [2779, 2880, 3178, 4497, 4565, 6078, 7145, 7216, 8630, 8877]}, "edge": {"target": [], "time": []}}, "mouseout": {"state": {"target": ["0", "11", "10", "11", "10", "12", "4", "2", "3", "7", "7", "6"], "time": [2362, 2799, 3095, 4470, 4545, 5705, 7106, 7196, 8523, 8694, 15744, 15779]}, "edge": {"target": [], "time": []}}}, "displayed_time": "14.78", "trialTime": 16538, "trial_type": "mouselab-mdp", "trial_index": 47, "time_elapsed": 1856824, "internal_node_id": "0.0-4.0-3.0-1.0"}}, {"uniqueid": "w67577017:a66455239", "current_trial": 48, "dateTime": 1664875541421, "trialdata": {"revealed_states": [], "num_clicks_accrued": [0, 0, 0, 0, 0, 0, 0, 0, 0, 0, 0, 0, 0], "stateRewards": ["", 2, 8, -24, -48, 2, 4, -24, 48, 2, -8, 48, -24], "withholdReward": true, "trial_id": "mdp_791659307216", "block": "test2", "trialIndex": 36, "score": 46.25, "costs": -0.75, "simulationMode": [null, null, null], "rewards": [2, -8, 48], "path": ["0", "0", "9", "10", "11"], "rt": [7590, 231, 1392], "actions": ["left", "left", "up"], "actionTimes": [10053, 10804, 12721], "queries": {"click": {"state": {"target": ["3", "12", "11"], "time": [4652, 6430, 7940]}, "edge": {"target": [], "time": []}}, "mouseover": {"state": {"target": ["3", "3", "1", "9", "12", "10", "11"], "time": [3845, 4146, 5393, 5478, 5889, 7126, 7412]}, "edge": {"target": [], "time": []}}, "mouseout": {"state": {"target": ["1", "0", "3", "3", "1", "9", "12", "10", "11", "10"], "time": [1333, 3781, 3870, 5370, 5430, 5610, 7105, 7244, 14025, 14063]}, "edge": {"target": [], "time": []}}}, "displayed_time": "13.24", "trialTime": 14701, "trial_type": "mouselab-mdp", "trial_index": 48, "time_elapsed": 1871704, "internal_node_id": "0.0-4.0-3.0-2.0"}}, {"uniqueid": "w67577017:a66455239", "current_trial": 49, "dateTime": 1664875554790, "trialdata": {"revealed_states": [], "num_clicks_accrued": [0, 0, 0, 0, 0, 0, 0, 0, 0, 0, 0, 0, 0], "stateRewards": ["", -2, -8, -24, -48, -2, -4, 48, -48, 4, 4, -48, 48], "withholdReward": true, "trial_id": "mdp_156977432949", "block": "test2", "trialIndex": 37, "score": 46.75, "costs": -0.25, "simulationMode": [null, null, null], "rewards": [-2, -4, 48], "path": ["0", "0", "5", "6", "7"], "rt": [4006, 211, 1122], "actions": ["right", "right", "up"], "actionTimes": [5654, 6391, 8067], "queries": {"click": {"state": {"target": ["7"], "time": [3866]}, "edge": {"target": [], "time": []}}, "mouseover": {"state": {"target": ["5", "7"], "time": [2891, 3090]}, "edge": {"target": [], "time": []}}, "mouseout": {"state": {"target": ["0", "5"], "time": [2858, 3008]}, "edge": {"target": [], "time": []}}}, "displayed_time": "10.84", "trialTime": 13181, "trial_type": "mouselab-mdp", "trial_index": 49, "time_elapsed": 1885072, "internal_node_id": "0.0-4.0-3.0-3.0"}}, {"uniqueid": "w67577017:a66455239", "current_trial": 50, "dateTime": 1664875572517, "trialdata": {"revealed_states": [], "num_clicks_accrued": [0, 0, 0, 0, 0, 0, 0, 0, 0, 0, 0, 0, 0], "stateRewards": ["", -2, -4, -48, -48, -2, -8, 48, -48, 4, -8, -48, 24], "withholdReward": true, "trial_id": "mdp_468495641521", "block": "test2", "trialIndex": 38, "score": 41.5, "costs": -1.5, "simulationMode": [null, null, null], "rewards": [-2, -8, 48], "path": ["0", "0", "5", "6", "7"], "rt": [11301, 111, 849], "actions": ["right", "right", "up"], "actionTimes": [13003, 13630, 15045], "queries": {"click": {"state": {"target": ["3", "4", "12", "11", "8", "7"], "time": [3286, 4783, 6303, 8143, 9965, 11234]}, "edge": {"target": [], "time": []}}, "mouseover": {"state": {"target": ["1", "2", "3", "2", "4", "12", "10", "11", "5", "8", "6", "7"], "time": [2510, 2679, 2744, 3995, 4277, 5783, 7280, 7643, 8879, 9362, 10452, 10762]}, "edge": {"target": [], "time": []}}, "mouseout": {"state": {"target": ["7", "5", "0", "1", "2", "3", "2", "4", "12", "10", "11", "5", "8", "6", "7"], "time": [877, 993, 1176, 2545, 2698, 3968, 4077, 5370, 7235, 7362, 8710, 8898, 10432, 10491, 16586]}, "edge": {"target": [], "time": []}}}, "displayed_time": "15.56", "trialTime": 17545, "trial_type": "mouselab-mdp", "trial_index": 50, "time_elapsed": 1902800, "internal_node_id": "0.0-4.0-3.0-4.0"}}, {"uniqueid": "w67577017:a66455239", "current_trial": 51, "dateTime": 1664875587143, "trialdata": {"revealed_states": [], "num_clicks_accrued": [0, 0, 0, 0, 0, 0, 0, 0, 0, 0, 0, 0, 0], "stateRewards": ["", 2, -4, 48, -48, -2, 8, -48, 24, -2, -8, 48, 48], "withholdReward": false, "trial_id": "mdp_949326095747", "block": "test2", "trialIndex": 39, "score": 50.75, "costs": -0.25, "simulationMode": [null, null, null], "rewards": [2, -4, 48], "path": ["0", "0", "1", "2", "3"], "rt": [3991, 237, 771], "actions": ["up", "up", "right"], "actionTimes": [5976, 6767, 8065], "queries": {"click": {"state": {"target": ["3"], "time": [4343]}, "edge": {"target": [], "time": []}}, "mouseover": {"state": {"target": ["1", "2", "3"], "time": [2976, 3128, 3659]}, "edge": {"target": [], "time": []}}, "mouseout": {"state": {"target": ["0", "1", "2", "3", "5"], "time": [1142, 3109, 3626, 9259, 9342]}, "edge": {"target": [], "time": []}}}, "displayed_time": "12.31", "trialTime": 14435, "trial_type": "mouselab-mdp", "trial_index": 51, "time_elapsed": 1917426, "internal_node_id": "0.0-4.0-3.0-5.0"}}, {"uniqueid": "w67577017:a66455239", "current_trial": 52, "dateTime": 1664875600742, "trialdata": {"revealed_states": [], "num_clicks_accrued": [0, 0, 0, 0, 0, 0, 0, 0, 0, 0, 0, 0, 0], "stateRewards": ["", -2, -8, 48, -24, 2, -4, -48, -24, -2, -4, -48, 48], "withholdReward": true, "trial_id": "mdp_143798438087", "block": "test2", "trialIndex": 40, "score": 46.5, "costs": -0.5, "simulationMode": [null, null, null], "rewards": [-2, -4, 48], "path": ["0", "0", "9", "10", "12"], "rt": [4900, 209, 929], "actions": ["left", "left", "down"], "actionTimes": [6659, 7424, 8875], "queries": {"click": {"state": {"target": ["11", "12"], "time": [2994, 4651]}, "edge": {"target": [], "time": []}}, "mouseover": {"state": {"target": ["11", "10", "12"], "time": [2445, 3748, 3945]}, "edge": {"target": [], "time": []}}, "mouseout": {"state": {"target": ["0", "11", "10"], "time": [2328, 3721, 3812]}, "edge": {"target": [], "time": []}}}, "displayed_time": "12.00", "trialTime": 13420, "trial_type": "mouselab-mdp", "trial_index": 52, "time_elapsed": 1931025, "internal_node_id": "0.0-4.0-3.0-6.0"}}, {"uniqueid": "w67577017:a66455239", "current_trial": 53, "dateTime": 1664875611672, "trialdata": {"revealed_states": [], "num_clicks_accrued": [0, 0, 0, 0, 0, 0, 0, 0, 0, 0, 0, 0, 0], "stateRewards": ["", -4, 4, 24, 24, 4, -8, 48, -48, -2, -8, 24, 24], "withholdReward": true, "trial_id": "mdp_395264223239", "block": "test2", "trialIndex": 41, "score": 48.75, "costs": -0.25, "simulationMode": [null, null, null], "rewards": [4, -8, 48], "path": ["0", "0", "5", "6", "7"], "rt": [4056, 208, 1145], "actions": ["right", "right", "up"], "actionTimes": [5895, 6628, 8292], "queries": {"click": {"state": {"target": ["7"], "time": [3837]}, "edge": {"target": [], "time": []}}, "mouseover": {"state": {"target": ["6", "7"], "time": [2879, 3262]}, "edge": {"target": [], "time": []}}, "mouseout": {"state": {"target": ["12", "0", "6", "7"], "time": [979, 2844, 2961, 9509]}, "edge": {"target": [], "time": []}}}, "displayed_time": "9.95", "trialTime": 10750, "trial_type": "mouselab-mdp", "trial_index": 53, "time_elapsed": 1941955, "internal_node_id": "0.0-4.0-3.0-7.0"}}, {"uniqueid": "w67577017:a66455239", "current_trial": 54, "dateTime": 1664875641817, "trialdata": {"revealed_states": [], "num_clicks_accrued": [0, 0, 0, 0, 0, 0, 0, 0, 0, 0, 0, 0, 0], "stateRewards": ["", -4, 4, 24, 24, -2, 8, 24, -48, 4, -8, -24, -48], "withholdReward": true, "trial_id": "mdp_651542905861", "block": "test2", "trialIndex": 42, "score": 32.5, "costs": -2.5, "simulationMode": [null, null, null], "rewards": [-2, 8, 24], "path": ["0", "0", "5", "6", "7"], "rt": [22023, 576, 2566], "actions": ["right", "right", "up"], "actionTimes": [23813, 24918, 28008], "queries": {"click": {"state": {"target": ["3", "4", "12", "7", "8", "11", "1", "2", "5", "6"], "time": [3442, 5018, 7060, 9250, 10765, 12275, 15247, 16647, 18952, 20193]}, "edge": {"target": [], "time": []}}, "mouseover": {"state": {"target": ["1", "3", "2", "4", "11", "10", "12", "12", "10", "11", "1", "7", "8", "0", "9", "11", "11", "1", "2", "5", "6"], "time": [2638, 2969, 4308, 4555, 5856, 6273, 6341, 6589, 7708, 7789, 8443, 8788, 10237, 11404, 11467, 11655, 11838, 14622, 15973, 18285, 19704]}, "edge": {"target": [], "time": []}}, "mouseout": {"state": {"target": ["0", "1", "3", "2", "4", "11", "10", "12", "12", "10", "11", "1", "7", "8", "0", "9", "11", "11", "1", "2", "5", "6"], "time": [1136, 2670, 4281, 4388, 5773, 5879, 6321, 6388, 7688, 7748, 8420, 8488, 10077, 11362, 11439, 11505, 11738, 14138, 15825, 17804, 19589, 20656]}, "edge": {"target": [], "time": []}}}, "displayed_time": "28.53", "trialTime": 29969, "trial_type": "mouselab-mdp", "trial_index": 54, "time_elapsed": 1972099, "internal_node_id": "0.0-4.0-3.0-8.0"}}, {"uniqueid": "w67577017:a66455239", "current_trial": 55, "dateTime": 1664875654222, "trialdata": {"revealed_states": [], "num_clicks_accrued": [0, 0, 0, 0, 0, 0, 0, 0, 0, 0, 0, 0, 0], "stateRewards": ["", -4, 4, 48, 24, -4, 4, -24, 48, -2, -8, 24, -48], "withholdReward": false, "trial_id": "mdp_261501605436", "block": "test2", "trialIndex": 43, "score": 52.75, "costs": -0.25, "simulationMode": [null, null, null], "rewards": [-4, 4, 48], "path": ["0", "0", "1", "2", "3"], "rt": [3844, 369, 946], "actions": ["up", "up", "right"], "actionTimes": [5670, 6566, 8078], "queries": {"click": {"state": {"target": ["3"], "time": [4073]}, "edge": {"target": [], "time": []}}, "mouseover": {"state": {"target": ["3"], "time": [3562]}, "edge": {"target": [], "time": []}}, "mouseout": {"state": {"target": ["6", "5", "0"], "time": [863, 944, 3337]}, "edge": {"target": [], "time": []}}}, "displayed_time": "11.08", "trialTime": 12213, "trial_type": "mouselab-mdp", "trial_index": 55, "time_elapsed": 1984505, "internal_node_id": "0.0-4.0-3.0-9.0"}}, {"uniqueid": "w67577017:a66455239", "current_trial": 56, "dateTime": 1664875683884, "trialdata": {"revealed_states": [], "num_clicks_accrued": [0, 0, 0, 0, 0, 0, 0, 0, 0, 0, 0, 0, 0], "stateRewards": ["", 2, 8, -48, -24, 2, -4, -48, 24, 2, -4, -24, -24], "withholdReward": true, "trial_id": "mdp_954659099093", "block": "test2", "trialIndex": 44, "score": 24.75, "costs": -2.25, "simulationMode": [null, null, null], "rewards": [2, -4, 24], "path": ["0", "0", "5", "6", "8"], "rt": [23614, 179, 930], "actions": ["right", "right", "down"], "actionTimes": [25380, 26088, 27561], "queries": {"click": {"state": {"target": ["8", "11", "3", "12", "7", "4", "9", "5", "6"], "time": [4916, 7025, 8534, 10192, 11683, 12988, 14903, 19308, 20599]}, "edge": {"target": [], "time": []}}, "mouseover": {"state": {"target": ["5", "7", "5", "8", "10", "11", "2", "3", "2", "9", "12", "9", "7", "1", "4", "0", "9", "0", "5", "6"], "time": [2805, 2939, 3139, 3822, 6444, 6505, 7940, 8040, 9227, 9423, 9705, 10751, 11173, 12256, 12472, 14224, 14306, 15678, 15905, 20007]}, "edge": {"target": [], "time": []}}, "mouseout": {"state": {"target": ["3", "1", "0", "5", "7", "5", "8", "10", "11", "2", "3", "2", "9", "12", "9", "7", "1", "4", "0", "9", "0", "5"], "time": [792, 888, 2741, 2857, 3038, 3174, 5944, 6465, 7640, 8005, 9206, 9264, 9523, 10730, 10791, 12206, 12290, 13940, 14258, 15657, 15790, 19915]}, "edge": {"target": [], "time": []}}}, "displayed_time": "28.11", "trialTime": 29469, "trial_type": "mouselab-mdp", "trial_index": 56, "time_elapsed": 2014167, "internal_node_id": "0.0-4.0-3.0-10.0"}}, {"uniqueid": "w67577017:a66455239", "current_trial": 57, "dateTime": 1664875712056, "trialdata": {"revealed_states": [], "num_clicks_accrued": [0, 0, 0, 0, 0, 0, 0, 0, 0, 0, 0, 0, 0], "stateRewards": ["", -2, 8, 48, -48, 4, -8, 24, 24, 4, 4, -48, -24], "withholdReward": true, "trial_id": "mdp_746937869927", "block": "test2", "trialIndex": 45, "score": 57.75, "costs": -1.25, "simulationMode": [null, null, null], "rewards": [-2, 8, 48], "path": ["0", "0", "1", "2", "3"], "rt": [11343, 189, 991], "actions": ["up", "up", "right"], "actionTimes": [12971, 13681, 15200], "queries": {"click": {"state": {"target": ["6", "12", "11", "2", "3"], "time": [4983, 6806, 8223, 9399, 11135]}, "edge": {"target": [], "time": []}}, "mouseover": {"state": {"target": ["8", "8", "6", "5", "9", "12", "10", "11", "2", "3"], "time": [3208, 3568, 4406, 5635, 5773, 6306, 7393, 7506, 8858, 10573]}, "edge": {"target": [], "time": []}}, "mouseout": {"state": {"target": ["6", "5", "0", "8", "8", "6", "5", "9", "12", "10", "11", "2", "3"], "time": [758, 856, 2523, 3356, 4342, 5614, 5675, 5923, 7373, 7457, 8689, 10007, 27292]}, "edge": {"target": [], "time": []}}}, "displayed_time": "15.72", "trialTime": 27957, "trial_type": "mouselab-mdp", "trial_index": 57, "time_elapsed": 2042339, "internal_node_id": "0.0-4.0-3.0-11.0"}}, {"uniqueid": "w67577017:a66455239", "current_trial": 58, "dateTime": 1664875749885, "trialdata": {"revealed_states": [], "num_clicks_accrued": [0, 0, 0, 0, 0, 0, 0, 0, 0, 0, 0, 0, 0], "stateRewards": ["", 2, 4, -48, 24, -4, -4, -24, 24, 2, -4, 24, -24], "withholdReward": false, "trial_id": "mdp_163600331068", "block": "test2", "trialIndex": 46, "score": 32, "costs": -3, "simulationMode": [null, null, null], "rewards": [2, 4, 24], "path": ["0", "0", "1", "2", "4"], "rt": [30750, 630, 647], "actions": ["up", "up", "left"], "actionTimes": [32512, 33669, 34869], "queries": {"click": {"state": {"target": ["6", "7", "3", "12", "11", "10", "9", "4", "8", "5", "2", "1"], "time": [6309, 7568, 9048, 10705, 11855, 14304, 15483, 17734, 20059, 26922, 28595, 29670]}, "edge": {"target": [], "time": []}}, "mouseover": {"state": {"target": ["0", "5", "6", "7", "3", "2", "4", "12", "10", "11", "9", "10", "10", "9", "0", "4", "4", "1", "5", "8", "5", "1", "2", "1"], "time": [5204, 5501, 5817, 7068, 8352, 9673, 9751, 10285, 11228, 11302, 13023, 13305, 13672, 15035, 16777, 16869, 17168, 18618, 18686, 19401, 26085, 27775, 28036, 29169]}, "edge": {"target": [], "time": []}}, "mouseout": {"state": {"target": ["3", "0", "0", "0", "5", "6", "7", "3", "2", "4", "12", "10", "11", "9", "10", "10", "9", "0", "4", "4", "1", "5", "8", "6", "5", "1", "2", "1"], "time": [784, 967, 1184, 5235, 5751, 6918, 8285, 9651, 9719, 9786, 11206, 11266, 12469, 13285, 13385, 14950, 16193, 16798, 16919, 18575, 18640, 18713, 25703, 26002, 27736, 27901, 29126, 30086]}, "edge": {"target": [], "time": []}}}, "displayed_time": "35.42", "trialTime": 37646, "trial_type": "mouselab-mdp", "trial_index": 58, "time_elapsed": 2080167, "internal_node_id": "0.0-4.0-3.0-12.0"}}, {"uniqueid": "w67577017:a66455239", "current_trial": 59, "dateTime": 1664875763011, "trialdata": {"revealed_states": [], "num_clicks_accrued": [0, 0, 0, 0, 0, 0, 0, 0, 0, 0, 0, 0, 0], "stateRewards": ["", -2, -4, -24, 48, -4, 8, 48, 48, 2, 8, -48, -24], "withholdReward": true, "trial_id": "mdp_136376573354", "block": "test2", "trialIndex": 47, "score": 46.75, "costs": -0.25, "simulationMode": [null, null, null], "rewards": [-2, -4, 48], "path": ["0", "0", "1", "2", "4"], "rt": [4884, 304, 500], "actions": ["up", "up", "left"], "actionTimes": [6734, 7557, 8578], "queries": {"click": {"state": {"target": ["4"], "time": [4602]}, "edge": {"target": [], "time": []}}, "mouseover": {"state": {"target": ["1", "4", "2", "4", "4", "10"], "time": [2585, 3049, 3700, 3833, 4117, 5633]}, "edge": {"target": [], "time": []}}, "mouseout": {"state": {"target": ["0", "0", "1", "4", "2", "4", "4", "10"], "time": [1082, 1366, 2833, 3533, 3767, 3853, 5535, 9916]}, "edge": {"target": [], "time": []}}}, "displayed_time": "12.01", "trialTime": 12936, "trial_type": "mouselab-mdp", "trial_index": 59, "time_elapsed": 2093294, "internal_node_id": "0.0-4.0-3.0-13.0"}}, {"uniqueid": "w67577017:a66455239", "current_trial": 60, "dateTime": 1664875779013, "trialdata": {"revealed_states": [], "num_clicks_accrued": [0, 0, 0, 0, 0, 0, 0, 0, 0, 0, 0, 0, 0], "stateRewards": ["", 2, 4, 48, -48, 2, 8, -24, 48, 4, 8, 48, -48], "withholdReward": false, "trial_id": "mdp_110142964375", "block": "test2", "trialIndex": 48, "score": 64.5, "costs": -0.5, "simulationMode": [null, null, null], "rewards": [4, 8, 48], "path": ["0", "0", "9", "10", "11"], "rt": [5422, 379, 971], "actions": ["left", "left", "up"], "actionTimes": [8290, 9201, 10727], "queries": {"click": {"state": {"target": ["12", "11"], "time": [4782, 6144]}, "edge": {"target": [], "time": []}}, "mouseover": {"state": {"target": ["12", "10", "11"], "time": [4202, 5462, 5553]}, "edge": {"target": [], "time": []}}, "mouseout": {"state": {"target": ["0", "0", "12", "10"], "time": [2085, 3493, 5442, 5498]}, "edge": {"target": [], "time": []}}}, "displayed_time": "11.25", "trialTime": 15805, "trial_type": "mouselab-mdp", "trial_index": 60, "time_elapsed": 2109294, "internal_node_id": "0.0-4.0-3.0-14.0"}}, {"uniqueid": "w67577017:a66455239", "current_trial": 61, "dateTime": 1664875791242, "trialdata": {"revealed_states": [], "num_clicks_accrued": [0, 0, 0, 0, 0, 0, 0, 0, 0, 0, 0, 0, 0], "stateRewards": ["", -4, -8, 48, -24, 4, -8, 48, 48, -2, 4, -48, -24], "withholdReward": true, "trial_id": "mdp_925905402462", "block": "test2", "trialIndex": 49, "score": 40.75, "costs": -0.25, "simulationMode": [null, null, null], "rewards": [-4, -8, 48], "path": ["0", "0", "1", "2", "3"], "rt": [3880, 303, 1079], "actions": ["up", "up", "right"], "actionTimes": [6092, 6929, 8524], "queries": {"click": {"state": {"target": ["3"], "time": [4025]}, "edge": {"target": [], "time": []}}, "mouseover": {"state": {"target": ["3"], "time": [3525]}, "edge": {"target": [], "time": []}}, "mouseout": {"state": {"target": ["11", "9", "0", "3"], "time": [1090, 1206, 3333, 9645]}, "edge": {"target": [], "time": []}}}, "displayed_time": "11.29", "trialTime": 12039, "trial_type": "mouselab-mdp", "trial_index": 61, "time_elapsed": 2121525, "internal_node_id": "0.0-4.0-3.0-15.0"}}, {"uniqueid": "w67577017:a66455239", "current_trial": 62, "dateTime": 1664875828992, "trialdata": {"revealed_states": [], "num_clicks_accrued": [0, 0, 0, 0, 0, 0, 0, 0, 0, 0, 0, 0, 0], "stateRewards": ["", -2, -8, -24, 24, -2, -8, -48, 24, -2, -8, 24, 24], "withholdReward": false, "trial_id": "mdp_336617436097", "block": "test2", "trialIndex": 50, "score": 16, "costs": -3, "simulationMode": [null, null, null], "rewards": [-2, -8, 24], "path": ["0", "0", "1", "2", "4"], "rt": [28477, 377, 854], "actions": ["up", "up", "left"], "actionTimes": [30413, 31314, 32696], "queries": {"click": {"state": {"target": ["7", "12", "11", "4", "3", "8", "6", "10", "1", "2", "9", "5"], "time": [3895, 6471, 7823, 9313, 10545, 12261, 14100, 15860, 18517, 19863, 21406, 23010]}, "edge": {"target": [], "time": []}}, "mouseover": {"state": {"target": ["5", "7", "9", "10", "12", "12", "10", "11", "4", "2", "3", "6", "8", "6", "5", "9", "10", "9", "1", "2", "9", "0", "5"], "time": [3157, 3272, 4890, 4958, 5041, 5357, 7193, 7306, 8790, 9957, 10107, 11291, 11736, 13439, 14738, 14974, 15209, 16672, 17975, 19357, 20857, 22275, 22540]}, "edge": {"target": [], "time": []}}, "mouseout": {"state": {"target": ["0", "5", "7", "9", "10", "12", "12", "10", "11", "4", "2", "3", "6", "8", "6", "5", "9", "10", "9", "1", "2", "9", "0"], "time": [3123, 3193, 4790, 4910, 4990, 5060, 7167, 7240, 8424, 9907, 10006, 11169, 11340, 13323, 14714, 14775, 15056, 16508, 17642, 19208, 20508, 22240, 22375]}, "edge": {"target": [], "time": []}}}, "displayed_time": "33.24", "trialTime": 37539, "trial_type": "mouselab-mdp", "trial_index": 62, "time_elapsed": 2159275, "internal_node_id": "0.0-4.0-3.0-16.0"}}, {"uniqueid": "w67577017:a66455239", "current_trial": 63, "dateTime": 1664875841454, "trialdata": {"revealed_states": [], "num_clicks_accrued": [0, 0, 0, 0, 0, 0, 0, 0, 0, 0, 0, 0, 0], "stateRewards": ["", -2, 8, -48, 48, 4, -8, -48, 48, 4, -4, -24, 48], "withholdReward": true, "trial_id": "mdp_144739116828", "block": "test2", "trialIndex": 51, "score": 52.5, "costs": -0.5, "simulationMode": [null, null, null], "rewards": [4, -4, 48], "path": ["0", "0", "9", "10", "12"], "rt": [5700, 380, 854], "actions": ["left", "left", "down"], "actionTimes": [7513, 8409, 9795], "queries": {"click": {"state": {"target": ["3", "12"], "time": [4362, 5835]}, "edge": {"target": [], "time": []}}, "mouseover": {"state": {"target": ["1", "2", "3", "1", "9", "12"], "time": [2821, 3512, 3705, 4999, 5074, 5152]}, "edge": {"target": [], "time": []}}, "mouseout": {"state": {"target": ["5", "0", "1", "2", "3", "1", "9"], "time": [1022, 1270, 3489, 3671, 4977, 5037, 5123]}, "edge": {"target": [], "time": []}}}, "displayed_time": "11.07", "trialTime": 12264, "trial_type": "mouselab-mdp", "trial_index": 63, "time_elapsed": 2171737, "internal_node_id": "0.0-4.0-3.0-17.0"}}, {"uniqueid": "w67577017:a66455239", "current_trial": 64, "dateTime": 1664875867248, "trialdata": {"revealed_states": [], "num_clicks_accrued": [0, 0, 0, 0, 0, 0, 0, 0, 0, 0, 0, 0, 0], "stateRewards": ["", -2, -4, -48, -48, 4, 8, 24, -48, 4, -8, 24, 24], "withholdReward": true, "trial_id": "mdp_749799219195", "block": "test2", "trialIndex": 52, "score": 23.5, "costs": -1.5, "simulationMode": [null, null, null], "rewards": [4, -8, 24], "path": ["0", "0", "9", "10", "11"], "rt": [15951, 2761, 1222], "actions": ["left", "left", "up"], "actionTimes": [18221, 21511, 23264], "queries": {"click": {"state": {"target": ["11", "12", "4", "8", "7", "3"], "time": [4438, 6130, 9704, 11719, 13180, 14787]}, "edge": {"target": [], "time": []}}, "mouseover": {"state": {"target": ["11", "10", "12", "4", "1", "5", "8", "6", "7", "3"], "time": [3806, 5372, 5488, 8721, 10621, 10754, 11222, 12356, 12456, 14072]}, "edge": {"target": [], "time": []}}, "mouseout": {"state": {"target": ["12", "0", "11", "10", "12", "4", "1", "5", "8", "6", "7"], "time": [1170, 3205, 5338, 5421, 8489, 10556, 10672, 10806, 12325, 12406, 13955]}, "edge": {"target": [], "time": []}}}, "displayed_time": "23.79", "trialTime": 25590, "trial_type": "mouselab-mdp", "trial_index": 64, "time_elapsed": 2197531, "internal_node_id": "0.0-4.0-3.0-18.0"}}, {"uniqueid": "w67577017:a66455239", "current_trial": 65, "dateTime": 1664875881436, "trialdata": {"revealed_states": [], "num_clicks_accrued": [0, 0, 0, 0, 0, 0, 0, 0, 0, 0, 0, 0, 0], "stateRewards": ["", 4, -8, 48, 24, 4, -4, 48, 48, -4, 8, -48, 24], "withholdReward": true, "trial_id": "mdp_303828806348", "block": "test2", "trialIndex": 53, "score": 48.75, "costs": -0.25, "simulationMode": [null, null, null], "rewards": [4, -8, 48], "path": ["0", "0", "1", "2", "3"], "rt": [3937, 267, 583], "actions": ["up", "up", "right"], "actionTimes": [6841, 7634, 8785], "queries": {"click": {"state": {"target": ["3"], "time": [5350]}, "edge": {"target": [], "time": []}}, "mouseover": {"state": {"target": ["1", "2", "3"], "time": [4017, 4570, 4899]}, "edge": {"target": [], "time": []}}, "mouseout": {"state": {"target": ["3", "1", "2", "3"], "time": [1998, 4549, 4833, 9967]}, "edge": {"target": [], "time": []}}}, "displayed_time": "13.02", "trialTime": 14005, "trial_type": "mouselab-mdp", "trial_index": 65, "time_elapsed": 2211719, "internal_node_id": "0.0-4.0-3.0-19.0"}}, {"uniqueid": "w67577017:a66455239", "current_trial": 66, "dateTime": 1664875894794, "trialdata": {"revealed_states": [], "num_clicks_accrued": [0, 0, 0, 0, 0, 0, 0, 0, 0, 0, 0, 0, 0], "stateRewards": ["", 4, -8, 48, -24, -4, 4, 24, 24, -2, -4, 24, 24], "withholdReward": false, "trial_id": "mdp_542168715839", "block": "test2", "trialIndex": 54, "score": 48.5, "costs": -0.5, "simulationMode": [null, null, null], "rewards": [4, -8, 48], "path": ["0", "0", "1", "2", "3"], "rt": [6129, 226, 855], "actions": ["up", "up", "right"], "actionTimes": [8728, 9474, 10861], "queries": {"click": {"state": {"target": ["11", "3"], "time": [5154, 7161]}, "edge": {"target": [], "time": []}}, "mouseover": {"state": {"target": ["9", "12", "10", "11", "11", "2", "3"], "time": [3837, 4087, 4320, 4407, 4671, 6339, 6670]}, "edge": {"target": [], "time": []}}, "mouseout": {"state": {"target": ["0", "0", "9", "12", "10", "11", "11", "2", "3"], "time": [1353, 2036, 3920, 4271, 4388, 4487, 6211, 6388, 12037]}, "edge": {"target": [], "time": []}}}, "displayed_time": "11.39", "trialTime": 13167, "trial_type": "mouselab-mdp", "trial_index": 66, "time_elapsed": 2225077, "internal_node_id": "0.0-4.0-3.0-20.0"}}, {"uniqueid": "w67577017:a66455239", "current_trial": 67, "dateTime": 1664875905421, "trialdata": {"revealed_states": [], "num_clicks_accrued": [0, 0, 0, 0, 0, 0, 0, 0, 0, 0, 0, 0, 0], "stateRewards": ["", 2, -8, -24, -48, -2, -4, 48, 48, 4, 8, 48, 48], "withholdReward": true, "trial_id": "mdp_347285045422", "block": "test2", "trialIndex": 55, "score": 46.75, "costs": -0.25, "simulationMode": [null, null, null], "rewards": [-2, -4, 48], "path": ["0", "0", "5", "6", "7"], "rt": [4071, 290, 784], "actions": ["right", "right", "up"], "actionTimes": [5776, 6625, 7926], "queries": {"click": {"state": {"target": ["7"], "time": [3549]}, "edge": {"target": [], "time": []}}, "mouseover": {"state": {"target": ["5", "7"], "time": [2783, 3083]}, "edge": {"target": [], "time": []}}, "mouseout": {"state": {"target": ["0", "5"], "time": [1216, 2806]}, "edge": {"target": [], "time": []}}}, "displayed_time": "9.81", "trialTime": 10423, "trial_type": "mouselab-mdp", "trial_index": 67, "time_elapsed": 2235704, "internal_node_id": "0.0-4.0-3.0-21.0"}}, {"uniqueid": "w67577017:a66455239", "current_trial": 68, "dateTime": 1664875922265, "trialdata": {"revealed_states": [], "num_clicks_accrued": [0, 0, 0, 0, 0, 0, 0, 0, 0, 0, 0, 0, 0], "stateRewards": ["", -2, 4, 24, 48, 2, 4, -48, -48, -2, 8, 48, -24], "withholdReward": true, "trial_id": "mdp_305701202606", "block": "test2", "trialIndex": 56, "score": 58.5, "costs": -0.5, "simulationMode": [null, null, null], "rewards": [-2, 8, 48], "path": ["0", "0", "9", "10", "11"], "rt": [5695, 365, 630], "actions": ["left", "left", "up"], "actionTimes": [7361, 8255, 9408], "queries": {"click": {"state": {"target": ["12", "11"], "time": [3953, 5471]}, "edge": {"target": [], "time": []}}, "mouseover": {"state": {"target": ["0", "12", "10", "11"], "time": [2972, 3426, 4684, 4808]}, "edge": {"target": [], "time": []}}, "mouseout": {"state": {"target": ["7", "5", "0", "0", "12", "10"], "time": [892, 991, 1125, 3011, 4663, 4722]}, "edge": {"target": [], "time": []}}}, "displayed_time": "10.83", "trialTime": 16624, "trial_type": "mouselab-mdp", "trial_index": 68, "time_elapsed": 2252547, "internal_node_id": "0.0-4.0-3.0-22.0"}}, {"uniqueid": "w67577017:a66455239", "current_trial": 69, "dateTime": 1664875938468, "trialdata": {"revealed_states": [], "num_clicks_accrued": [0, 0, 0, 0, 0, 0, 0, 0, 0, 0, 0, 0, 0], "stateRewards": ["", 4, 8, -24, 48, -2, -4, 24, -24, -2, 4, 24, 24], "withholdReward": true, "trial_id": "mdp_948713805479", "block": "test2", "trialIndex": 57, "score": 64, "costs": -1, "simulationMode": [null, null, null], "rewards": [4, 8, 48], "path": ["0", "0", "1", "2", "4"], "rt": [8376, 371, 1068], "actions": ["up", "up", "left"], "actionTimes": [11221, 12107, 13707], "queries": {"click": {"state": {"target": ["7", "8", "3", "4"], "time": [5130, 6601, 8157, 9555]}, "edge": {"target": [], "time": []}}, "mouseover": {"state": {"target": ["5", "7", "6", "8", "3", "2", "4"], "time": [3918, 4434, 5935, 6084, 7601, 8735, 9034]}, "edge": {"target": [], "time": []}}, "mouseout": {"state": {"target": ["11", "0", "5", "7", "6", "8", "3", "2"], "time": [733, 3850, 4367, 5901, 6000, 7182, 8703, 8817]}, "edge": {"target": [], "time": []}}}, "displayed_time": "14.24", "trialTime": 16018, "trial_type": "mouselab-mdp", "trial_index": 69, "time_elapsed": 2268750, "internal_node_id": "0.0-4.0-3.0-23.0"}}, {"uniqueid": "w67577017:a66455239", "current_trial": 70, "dateTime": 1664875951408, "trialdata": {"revealed_states": [], "num_clicks_accrued": [0, 0, 0, 0, 0, 0, 0, 0, 0, 0, 0, 0, 0], "stateRewards": ["", 2, 4, 48, -24, 2, -8, -24, -24, 2, -8, -24, -48], "withholdReward": true, "trial_id": "mdp_274832552938", "block": "test2", "trialIndex": 58, "score": 58.25, "costs": -0.75, "simulationMode": [null, null, null], "rewards": [2, 4, 48], "path": ["0", "0", "1", "2", "3"], "rt": [6188, 287, 564], "actions": ["up", "up", "right"], "actionTimes": [8206, 9027, 10122], "queries": {"click": {"state": {"target": ["11", "4", "3"], "time": [3878, 5296, 6761]}, "edge": {"target": [], "time": []}}, "mouseover": {"state": {"target": ["9", "10", "11", "4", "2", "3", "3"], "time": [2906, 2990, 3338, 4821, 5899, 5988, 6271]}, "edge": {"target": [], "time": []}}, "mouseout": {"state": {"target": ["4", "0", "9", "10", "11", "4", "2", "3", "3"], "time": [765, 2884, 2943, 3254, 4705, 5877, 5937, 6071, 11385]}, "edge": {"target": [], "time": []}}}, "displayed_time": "10.68", "trialTime": 12713, "trial_type": "mouselab-mdp", "trial_index": 70, "time_elapsed": 2281691, "internal_node_id": "0.0-4.0-3.0-24.0"}}, {"uniqueid": "w67577017:a66455239", "current_trial": 71, "dateTime": 1664875967169, "trialdata": {"revealed_states": [], "num_clicks_accrued": [0, 0, 0, 0, 0, 0, 0, 0, 0, 0, 0, 0, 0], "stateRewards": ["", -2, -4, 48, -24, -4, -4, -24, -24, -2, 4, -48, -24], "withholdReward": true, "trial_id": "mdp_410467837196", "block": "test2", "trialIndex": 59, "score": 45.75, "costs": -1.25, "simulationMode": [null, null, null], "rewards": [-2, -4, 48], "path": ["0", "0", "1", "2", "3"], "rt": [9073, 250, 704], "actions": ["up", "up", "right"], "actionTimes": [10631, 11434, 12654], "queries": {"click": {"state": {"target": ["7", "4", "12", "11", "3"], "time": [3186, 4622, 6605, 7950, 9267]}, "edge": {"target": [], "time": []}}, "mouseover": {"state": {"target": ["5", "7", "7", "1", "4", "10", "12", "10", "11", "3"], "time": [2298, 2415, 2709, 3982, 4098, 5714, 5982, 7169, 7347, 8582]}, "edge": {"target": [], "time": []}}, "mouseout": {"state": {"target": ["0", "5", "7", "7", "1", "4", "10", "12", "10", "11", "3", "5"], "time": [2265, 2325, 2498, 3899, 4030, 5603, 5748, 7146, 7215, 8434, 13925, 14014]}, "edge": {"target": [], "time": []}}}, "displayed_time": "13.20", "trialTime": 15566, "trial_type": "mouselab-mdp", "trial_index": 71, "time_elapsed": 2297452, "internal_node_id": "0.0-4.0-3.0-25.0"}}, {"uniqueid": "w67577017:a66455239", "current_trial": 72, "dateTime": 1664875984887, "trialdata": {"revealed_states": [], "num_clicks_accrued": [0, 0, 0, 0, 0, 0, 0, 0, 0, 0, 0, 0, 0], "stateRewards": ["", -4, 8, -24, -24, 4, -8, 48, -24, -4, -8, -24, -48], "withholdReward": true, "trial_id": "mdp_391766721791", "block": "test2", "trialIndex": 60, "score": 47.5, "costs": -1.5, "simulationMode": [null, null, null], "rewards": [4, -8, 48], "path": ["0", "0", "5", "6", "7"], "rt": [11478, 292, 983], "actions": ["right", "right", "up"], "actionTimes": [13374, 14196, 15697], "queries": {"click": {"state": {"target": ["3", "12", "11", "4", "8", "7"], "time": [3987, 5892, 7047, 8355, 10211, 11526]}, "edge": {"target": [], "time": []}}, "mouseover": {"state": {"target": ["3", "9", "12", "10", "11", "4", "8", "6", "7"], "time": [3004, 4986, 5368, 6469, 6536, 7886, 9503, 10731, 10821]}, "edge": {"target": [], "time": []}}, "mouseout": {"state": {"target": ["0", "0", "3", "9", "12", "10", "11", "4", "8", "6"], "time": [1035, 2604, 4630, 5069, 6421, 6491, 7562, 8976, 10707, 10771]}, "edge": {"target": [], "time": []}}}, "displayed_time": "16.21", "trialTime": 17521, "trial_type": "mouselab-mdp", "trial_index": 72, "time_elapsed": 2315169, "internal_node_id": "0.0-4.0-3.0-26.0"}}, {"uniqueid": "w67577017:a66455239", "current_trial": 73, "dateTime": 1664875997725, "trialdata": {"revealed_states": [], "num_clicks_accrued": [0, 0, 0, 0, 0, 0, 0, 0, 0, 0, 0, 0, 0], "stateRewards": ["", -4, 8, 48, -48, 2, -4, 24, -24, -2, 4, -24, -24], "withholdReward": false, "trial_id": "mdp_804988042722", "block": "test2", "trialIndex": 61, "score": 56.5, "costs": -0.5, "simulationMode": [null, null, null], "rewards": [-4, 8, 48], "path": ["0", "0", "1", "2", "3"], "rt": [5816, 253, 668], "actions": ["up", "up", "right"], "actionTimes": [7766, 8576, 9774], "queries": {"click": {"state": {"target": ["7", "3"], "time": [3846, 6132]}, "edge": {"target": [], "time": []}}, "mouseover": {"state": {"target": ["5", "7", "6", "8", "8", "3", "1"], "time": [2952, 3236, 4727, 4819, 5204, 5487, 6755]}, "edge": {"target": [], "time": []}}, "mouseout": {"state": {"target": ["7", "5", "0", "0", "5", "7", "6", "8", "8", "3"], "time": [836, 952, 1018, 2904, 3086, 4694, 4786, 5018, 5386, 6704]}, "edge": {"target": [], "time": []}}}, "displayed_time": "12.06", "trialTime": 12659, "trial_type": "mouselab-mdp", "trial_index": 73, "time_elapsed": 2328007, "internal_node_id": "0.0-4.0-3.0-27.0"}}, {"uniqueid": "w67577017:a66455239", "current_trial": 74, "dateTime": 1664876015251, "trialdata": {"revealed_states": [], "num_clicks_accrued": [0, 0, 0, 0, 0, 0, 0, 0, 0, 0, 0, 0, 0], "stateRewards": ["", 2, 4, 24, 48, -2, 8, 24, -24, -4, -4, 48, 48], "withholdReward": true, "trial_id": "mdp_753439303214", "block": "test2", "trialIndex": 62, "score": 58.25, "costs": -0.75, "simulationMode": [null, null, null], "rewards": [2, 4, 48], "path": ["0", "0", "1", "2", "4"], "rt": [7506, 82, 599], "actions": ["up", "up", "left"], "actionTimes": [13778, 14391, 15544], "queries": {"click": {"state": {"target": ["7", "3", "4"], "time": [9394, 10707, 12214]}, "edge": {"target": [], "time": []}}, "mouseover": {"state": {"target": ["5", "7", "3", "4"], "time": [7490, 8940, 10141, 11758]}, "edge": {"target": [], "time": []}}, "mouseout": {"state": {"target": ["1", "0", "5", "7", "3"], "time": [706, 7257, 8641, 9991, 11342]}, "edge": {"target": [], "time": []}}}, "displayed_time": "16.08", "trialTime": 17323, "trial_type": "mouselab-mdp", "trial_index": 74, "time_elapsed": 2345534, "internal_node_id": "0.0-4.0-3.0-28.0"}}, {"uniqueid": "w67577017:a66455239", "current_trial": 75, "dateTime": 1664876028193, "trialdata": {"revealed_states": [], "num_clicks_accrued": [0, 0, 0, 0, 0, 0, 0, 0, 0, 0, 0, 0, 0], "stateRewards": ["", -4, -8, -48, -48, 4, -8, 48, 48, 2, 8, 48, 24], "withholdReward": true, "trial_id": "mdp_880437222492", "block": "test2", "trialIndex": 63, "score": 62.25, "costs": -0.75, "simulationMode": [null, null, null], "rewards": [2, 8, 48], "path": ["0", "0", "9", "10", "11"], "rt": [6236, 260, 814], "actions": ["left", "left", "up"], "actionTimes": [8660, 9444, 10807], "queries": {"click": {"state": {"target": ["4", "12", "11"], "time": [4254, 5952, 7169]}, "edge": {"target": [], "time": []}}, "mouseover": {"state": {"target": ["1", "2", "4", "12", "10", "11"], "time": [3140, 3407, 3807, 5391, 6510, 6657]}, "edge": {"target": [], "time": []}}, "mouseout": {"state": {"target": ["4", "1", "0", "1", "2", "4", "12", "10", "11"], "time": [672, 772, 1957, 3239, 3589, 5090, 6489, 6549, 12019]}, "edge": {"target": [], "time": []}}}, "displayed_time": "11.36", "trialTime": 12729, "trial_type": "mouselab-mdp", "trial_index": 75, "time_elapsed": 2358476, "internal_node_id": "0.0-4.0-3.0-29.0"}}, {"uniqueid": "w67577017:a66455239", "current_trial": 76, "dateTime": 1664876040891, "trialdata": {"rt": 12692, "stimulus": "<h1> End of block! </h1>\n\nYou have reached the end of the block 2/4. If you need a short break, feel free to take one now before moving on.\n\n<br><br>\nIn the next block, you will complete another 30 rounds of this game.\n\n<br><br>\n<div style='text-align: center;'>Press <code>space</code> to begin.</div>\n<br><br>\n<div style='text-align: center;'>(If the experiment doesn't continue, try clicking on the text and then pressing <code>space</code>.)</div>", "response": " ", "trial_id": "mdp_ready_3", "trial_type": "html-keyboard-response", "trial_index": 76, "time_elapsed": 2371173, "internal_node_id": "0.0-4.0-4.0"}}, {"uniqueid": "w67577017:a66455239", "current_trial": 77, "dateTime": 1664876051259, "trialdata": {"revealed_states": [], "num_clicks_accrued": [0, 0, 0, 0, 0, 0, 0, 0, 0, 0, 0, 0, 0], "stateRewards": ["", -2, 8, -48, 48, 4, -8, -48, 48, 4, -4, -24, 48], "withholdReward": true, "trial_id": "mdp_144739116828", "block": "test3", "trialIndex": 64, "score": 58.75, "costs": -0.25, "simulationMode": [null, null, null], "rewards": [-2, 8, 48], "path": ["0", "0", "1", "2", "4"], "rt": [3343, 205, 643], "actions": ["up", "up", "left"], "actionTimes": [5351, 6078, 7245], "queries": {"click": {"state": {"target": ["4"], "time": [3524]}, "edge": {"target": [], "time": []}}, "mouseover": {"state": {"target": ["1", "4"], "time": [2851, 3084]}, "edge": {"target": [], "time": []}}, "mouseout": {"state": {"target": ["9", "9", "0", "1", "4"], "time": [949, 1083, 2781, 2985, 4150]}, "edge": {"target": [], "time": []}}}, "displayed_time": "9.07", "trialTime": 10155, "trial_type": "mouselab-mdp", "trial_index": 77, "time_elapsed": 2381541, "internal_node_id": "0.0-4.0-5.0-0.0"}}, {"uniqueid": "w67577017:a66455239", "current_trial": 78, "dateTime": 1664876063029, "trialdata": {"revealed_states": [], "num_clicks_accrued": [0, 0, 0, 0, 0, 0, 0, 0, 0, 0, 0, 0, 0], "stateRewards": ["", 2, -8, 48, -24, 2, -4, 24, 48, 4, -4, 48, -24], "withholdReward": true, "trial_id": "mdp_656500928756", "block": "test3", "trialIndex": 65, "score": 46.75, "costs": -0.25, "simulationMode": [null, null, null], "rewards": [2, -8, 48], "path": ["0", "0", "1", "2", "3"], "rt": [2622, 387, 869], "actions": ["up", "up", "right"], "actionTimes": [4306, 5219, 6613], "queries": {"click": {"state": {"target": ["3"], "time": [3002]}, "edge": {"target": [], "time": []}}, "mouseover": {"state": {"target": ["3"], "time": [2429]}, "edge": {"target": [], "time": []}}, "mouseout": {"state": {"target": ["0", "0"], "time": [896, 2201]}, "edge": {"target": [], "time": []}}}, "displayed_time": "10.88", "trialTime": 11569, "trial_type": "mouselab-mdp", "trial_index": 78, "time_elapsed": 2393312, "internal_node_id": "0.0-4.0-5.0-1.0"}}, {"uniqueid": "w67577017:a66455239", "current_trial": 79, "dateTime": 1664876088675, "trialdata": {"revealed_states": [], "num_clicks_accrued": [0, 0, 0, 0, 0, 0, 0, 0, 0, 0, 0, 0, 0], "stateRewards": ["", -2, -8, -24, 24, -2, -8, -48, 24, -2, -8, 24, 24], "withholdReward": true, "trial_id": "mdp_336617436097", "block": "test3", "trialIndex": 66, "score": 16.5, "costs": -2.5, "simulationMode": [null, null, null], "rewards": [-2, -8, 24], "path": ["0", "0", "9", "10", "11"], "rt": [18790, 560, 1047], "actions": ["left", "left", "up"], "actionTimes": [20634, 21724, 23329], "queries": {"click": {"state": {"target": ["11", "4", "3", "7", "8", "12", "10", "9", "2", "1"], "time": [3115, 4906, 6380, 7847, 9055, 10653, 12261, 13578, 17504, 18633]}, "edge": {"target": [], "time": []}}, "mouseover": {"state": {"target": ["9", "11", "4", "2", "3", "7", "6", "8", "12", "10", "9", "1", "2", "2", "1"], "time": [2510, 2660, 4226, 5626, 5828, 7312, 8443, 8543, 10210, 11679, 12976, 14294, 15410, 16978, 18127]}, "edge": {"target": [], "time": []}}, "mouseout": {"state": {"target": ["3", "0", "9", "11", "4", "2", "3", "7", "6", "8", "12", "10", "9", "1", "2", "2", "1"], "time": [860, 2479, 2578, 4112, 5584, 5710, 7211, 8404, 8510, 9783, 11614, 12894, 14164, 14594, 16277, 18048, 19112]}, "edge": {"target": [], "time": []}}}, "displayed_time": "23.85", "trialTime": 25446, "trial_type": "mouselab-mdp", "trial_index": 79, "time_elapsed": 2418958, "internal_node_id": "0.0-4.0-5.0-2.0"}}, {"uniqueid": "w67577017:a66455239", "current_trial": 80, "dateTime": 1664876115994, "trialdata": {"revealed_states": [], "num_clicks_accrued": [0, 0, 0, 0, 0, 0, 0, 0, 0, 0, 0, 0, 0], "stateRewards": ["", -4, 4, 24, 24, -2, 8, 24, -48, 4, -8, -24, -48], "withholdReward": false, "trial_id": "mdp_651542905861", "block": "test3", "trialIndex": 67, "score": 27.5, "costs": -1.5, "simulationMode": [null, null, null], "rewards": [-4, 4, 24], "path": ["0", "0", "1", "2", "3"], "rt": [17680, 362, 1302], "actions": ["up", "up", "right"], "actionTimes": [19325, 20216, 22042], "queries": {"click": {"state": {"target": ["3", "12", "11", "4", "7", "8"], "time": [4622, 6204, 7733, 9083, 11367, 13028]}, "edge": {"target": [], "time": []}}, "mouseover": {"state": {"target": ["1", "2", "1", "3", "1", "9", "12", "10", "11", "4", "1", "7", "6", "8"], "time": [2634, 2734, 3140, 4100, 5319, 5386, 5685, 6782, 7150, 8400, 10001, 10535, 12056, 12152]}, "edge": {"target": [], "time": []}}, "mouseout": {"state": {"target": ["0", "1", "2", "1", "3", "1", "9", "12", "10", "11", "4", "1", "7", "6", "8"], "time": [2555, 2685, 3117, 3817, 5283, 5344, 5434, 6758, 6900, 8314, 9733, 10068, 12034, 12119, 23906]}, "edge": {"target": [], "time": []}}}, "displayed_time": "22.55", "trialTime": 27104, "trial_type": "mouselab-mdp", "trial_index": 80, "time_elapsed": 2446277, "internal_node_id": "0.0-4.0-5.0-3.0"}}, {"uniqueid": "w67577017:a66455239", "current_trial": 81, "dateTime": 1664876129004, "trialdata": {"revealed_states": [], "num_clicks_accrued": [0, 0, 0, 0, 0, 0, 0, 0, 0, 0, 0, 0, 0], "stateRewards": ["", -4, -8, 48, -24, 4, -8, 48, 48, -2, 4, -48, -24], "withholdReward": true, "trial_id": "mdp_925905402462", "block": "test3", "trialIndex": 68, "score": 40.5, "costs": -0.5, "simulationMode": [null, null, null], "rewards": [-4, -8, 48], "path": ["0", "0", "1", "2", "3"], "rt": [4591, 366, 829], "actions": ["up", "up", "right"], "actionTimes": [7235, 8123, 9490], "queries": {"click": {"state": {"target": ["4", "3"], "time": [4219, 5654]}, "edge": {"target": [], "time": []}}, "mouseover": {"state": {"target": ["1", "2", "4", "2", "3"], "time": [3355, 3443, 3754, 4877, 5071]}, "edge": {"target": [], "time": []}}, "mouseout": {"state": {"target": ["0", "0", "1", "2", "4", "2", "3"], "time": [1887, 3225, 3422, 3704, 4854, 4922, 10824]}, "edge": {"target": [], "time": []}}}, "displayed_time": "11.78", "trialTime": 12783, "trial_type": "mouselab-mdp", "trial_index": 81, "time_elapsed": 2459287, "internal_node_id": "0.0-4.0-5.0-4.0"}}, {"uniqueid": "w67577017:a66455239", "current_trial": 82, "dateTime": 1664876143867, "trialdata": {"revealed_states": [], "num_clicks_accrued": [0, 0, 0, 0, 0, 0, 0, 0, 0, 0, 0, 0, 0], "stateRewards": ["", -2, 4, -48, 24, -4, 8, 48, 24, -2, 4, -48, -24], "withholdReward": true, "trial_id": "mdp_740882974347", "block": "test3", "trialIndex": 69, "score": 56, "costs": -1, "simulationMode": [null, null, null], "rewards": [-4, 8, 48], "path": ["0", "0", "5", "6", "7"], "rt": [8484, 350, 600], "actions": ["right", "right", "up"], "actionTimes": [10875, 11743, 12860], "queries": {"click": {"state": {"target": ["3", "12", "4", "7"], "time": [4273, 6043, 7505, 9127]}, "edge": {"target": [], "time": []}}, "mouseover": {"state": {"target": ["1", "3", "2", "12", "10", "11", "4", "7"], "time": [3423, 3590, 5156, 5555, 6592, 6653, 7005, 8423]}, "edge": {"target": [], "time": []}}, "mouseout": {"state": {"target": ["0", "1", "3", "2", "12", "10", "11", "4"], "time": [3106, 3474, 5128, 5222, 6589, 6611, 6707, 8317]}, "edge": {"target": [], "time": []}}}, "displayed_time": "13.38", "trialTime": 14629, "trial_type": "mouselab-mdp", "trial_index": 82, "time_elapsed": 2474149, "internal_node_id": "0.0-4.0-5.0-5.0"}}, {"uniqueid": "w67577017:a66455239", "current_trial": 83, "dateTime": 1664876154463, "trialdata": {"revealed_states": [], "num_clicks_accrued": [0, 0, 0, 0, 0, 0, 0, 0, 0, 0, 0, 0, 0], "stateRewards": ["", 2, 8, -48, 24, -2, 4, 48, 48, -2, -8, 48, 24], "withholdReward": true, "trial_id": "mdp_157355418411", "block": "test3", "trialIndex": 70, "score": 54.75, "costs": -0.25, "simulationMode": [null, null, null], "rewards": [-2, 4, 48], "path": ["0", "0", "5", "6", "7"], "rt": [3113, 330, 680], "actions": ["right", "right", "up"], "actionTimes": [4469, 5332, 6564], "queries": {"click": {"state": {"target": ["7"], "time": [3029]}, "edge": {"target": [], "time": []}}, "mouseover": {"state": {"target": ["7"], "time": [2547]}, "edge": {"target": [], "time": []}}, "mouseout": {"state": {"target": ["7", "5", "0"], "time": [530, 597, 913]}, "edge": {"target": [], "time": []}}}, "displayed_time": "9.44", "trialTime": 10383, "trial_type": "mouselab-mdp", "trial_index": 83, "time_elapsed": 2484745, "internal_node_id": "0.0-4.0-5.0-6.0"}}, {"uniqueid": "w67577017:a66455239", "current_trial": 84, "dateTime": 1664876171586, "trialdata": {"revealed_states": [], "num_clicks_accrued": [0, 0, 0, 0, 0, 0, 0, 0, 0, 0, 0, 0, 0], "stateRewards": ["", 4, -8, -24, 24, 2, -4, 24, 24, 2, -4, 48, 48], "withholdReward": true, "trial_id": "mdp_457607480918", "block": "test3", "trialIndex": 71, "score": 50, "costs": -1, "simulationMode": [null, null, null], "rewards": [2, -4, 48], "path": ["0", "0", "9", "10", "12"], "rt": [9584, 197, 646], "actions": ["left", "left", "down"], "actionTimes": [11783, 12514, 13680], "queries": {"click": {"state": {"target": ["7", "8", "3", "12"], "time": [5150, 6951, 8250, 9865]}, "edge": {"target": [], "time": []}}, "mouseover": {"state": {"target": ["0", "7", "6", "8", "8", "5", "3", "9", "12"], "time": [2351, 4215, 6098, 6160, 6404, 7515, 7615, 9000, 9181]}, "edge": {"target": [], "time": []}}, "mouseout": {"state": {"target": ["7", "0", "7", "6", "8", "8", "5", "3", "9"], "time": [1599, 4053, 6058, 6132, 6198, 7484, 7547, 8865, 9022]}, "edge": {"target": [], "time": []}}}, "displayed_time": "14.20", "trialTime": 16907, "trial_type": "mouselab-mdp", "trial_index": 84, "time_elapsed": 2501869, "internal_node_id": "0.0-4.0-5.0-7.0"}}, {"uniqueid": "w67577017:a66455239", "current_trial": 85, "dateTime": 1664876183680, "trialdata": {"revealed_states": [], "num_clicks_accrued": [0, 0, 0, 0, 0, 0, 0, 0, 0, 0, 0, 0, 0], "stateRewards": ["", -4, 4, 48, 24, -4, 4, -24, 48, -2, -8, 24, -48], "withholdReward": false, "trial_id": "mdp_261501605436", "block": "test3", "trialIndex": 72, "score": 52.25, "costs": -0.75, "simulationMode": [null, null, null], "rewards": [-4, 4, 48], "path": ["0", "0", "1", "2", "3"], "rt": [5845, 210, 635], "actions": ["up", "up", "right"], "actionTimes": [7656, 8386, 9546], "queries": {"click": {"state": {"target": ["12", "11", "3"], "time": [3477, 4777, 6164]}, "edge": {"target": [], "time": []}}, "mouseover": {"state": {"target": ["0", "12", "10", "11", "2", "3"], "time": [2676, 2967, 4102, 4235, 5401, 5701]}, "edge": {"target": [], "time": []}}, "mouseout": {"state": {"target": ["12", "9", "0", "12", "10", "11", "2", "3"], "time": [901, 983, 2735, 4070, 4168