{"condition": 0, "counterbalance": 0, "assignmentId": "a73643660", "workerId": "w98012083", "hitId": "h77731849", "currenttrial": 959, "bonus": 0, "data": [{"uniqueid": "w98012083:a73643660", "current_trial": 0, "dateTime": 1664555157231, "trialdata": {"success": true, "trial_type": "fullscreen", "trial_index": 0, "time_elapsed": 5848, "internal_node_id": "0.0-0.0"}}, {"uniqueid": "w98012083:a73643660", "current_trial": 1, "dateTime": 1664555189752, "trialdata": {"view_history": [{"page_index": 0, "viewing_time": 32515}], "rt": 32515, "trial_id": "exp_instructions_distractor", "trial_type": "instructions", "trial_index": 1, "time_elapsed": 38370, "internal_node_id": "0.0-1.0"}}, {"uniqueid": "w98012083:a73643660", "current_trial": 2, "dateTime": 1664555229613, "trialdata": {"view_history": [{"page_index": 0, "viewing_time": 39858}], "rt": 39858, "trial_id": "color_game_instructions", "trial_type": "instructions", "trial_index": 2, "time_elapsed": 78231, "internal_node_id": "0.0-2.0"}}, {"uniqueid": "w98012083:a73643660", "current_trial": 3, "dateTime": 1664555255858, "trialdata": {"rt": 26240, "stimulus": "<h1> Get ready to start the game! </h1>\n\nThank you for reading the instructions. Get ready start with the first of 5 block(s) of this game.\n<br><br>\nIn this first block, you will complete 90 rounds of this game before moving on.\n<br><br>\nRemember, the better you perform, the bigger your bonus will be!\n<br><br>\n<div style='text-align: center;'>Press <code>space</code> to begin.</div>", "response": " ", "trial_id": "stroop_1_ready_1", "trial_type": "html-keyboard-response", "trial_index": 3, "time_elapsed": 104476, "internal_node_id": "0.0-3.0"}}, {"uniqueid": "w98012083:a73643660", "current_trial": 4, "dateTime": 1664555257309, "trialdata": {"rt": 1442, "stimulus": "<p id='stroop-text' class='stroop-red'>SHIP</p>", "response": "r", "stimulus-type": "unrelated", "word": "SHIP", "color": "red", "correct_response": "r", "trial_id": "stroop-trial-1-unrelated-1", "trial_type": "html-keyboard-response", "trial_index": 4, "time_elapsed": 105925, "internal_node_id": "0.0-4.0-0.0"}}, {"uniqueid": "w98012083:a73643660", "current_trial": 5, "dateTime": 1664555259046, "trialdata": {"rt": 1231, "stimulus": "<p id='stroop-text' class='stroop-blue'>WINDOW</p>", "response": "b", "stimulus-type": "unrelated", "word": "WINDOW", "color": "blue", "correct_response": "b", "trial_id": "stroop-trial-1-unrelated-29", "trial_type": "html-keyboard-response", "trial_index": 5, "time_elapsed": 107663, "internal_node_id": "0.0-4.0-1.0"}}, {"uniqueid": "w98012083:a73643660", "current_trial": 6, "dateTime": 1664555260663, "trialdata": {"rt": 1112, "stimulus": "<p id='stroop-text' class='stroop-red'>GREEN</p>", "response": "r", "stimulus-type": "incongruent", "word": "green", "color": "red", "correct_response": "r", "trial_id": "stroop-trial-1-incongruent-17", "trial_type": "html-keyboard-response", "trial_index": 6, "time_elapsed": 109280, "internal_node_id": "0.0-4.0-2.0"}}, {"uniqueid": "w98012083:a73643660", "current_trial": 7, "dateTime": 1664555262141, "trialdata": {"rt": 973, "stimulus": "<p id='stroop-text' class='stroop-yellow'>BLUE</p>", "response": "y", "stimulus-type": "incongruent", "word": "blue", "color": "yellow", "correct_response": "y", "trial_id": "stroop-trial-1-incongruent-3", "trial_type": "html-keyboard-response", "trial_index": 7, "time_elapsed": 110759, "internal_node_id": "0.0-4.0-3.0"}}, {"uniqueid": "w98012083:a73643660", "current_trial": 8, "dateTime": 1664555264071, "trialdata": {"rt": 1424, "stimulus": "<p id='stroop-text' class='stroop-green'>WINDOW</p>", "response": "g", "stimulus-type": "unrelated", "word": "WINDOW", "color": "green", "correct_response": "g", "trial_id": "stroop-trial-1-unrelated-30", "trial_type": "html-keyboard-response", "trial_index": 8, "time_elapsed": 112689, "internal_node_id": "0.0-4.0-4.0"}}, {"uniqueid": "w98012083:a73643660", "current_trial": 9, "dateTime": 1664555265433, "trialdata": {"rt": 855, "stimulus": "<p id='stroop-text' class='stroop-red'>BRAIN</p>", "response": "r", "stimulus-type": "unrelated", "word": "BRAIN", "color": "red", "correct_response": "r", "trial_id": "stroop-trial-1-unrelated-14", "trial_type": "html-keyboard-response", "trial_index": 9, "time_elapsed": 114050, "internal_node_id": "0.0-4.0-5.0"}}, {"uniqueid": "w98012083:a73643660", "current_trial": 10, "dateTime": 1664555266620, "trialdata": {"rt": 682, "stimulus": "<p id='stroop-text' class='stroop-red'>BRIDGE</p>", "response": "r", "stimulus-type": "unrelated", "word": "BRIDGE", "color": "red", "correct_response": "r", "trial_id": "stroop-trial-1-unrelated-24", "trial_type": "html-keyboard-response", "trial_index": 10, "time_elapsed": 115237, "internal_node_id": "0.0-4.0-6.0"}}, {"uniqueid": "w98012083:a73643660", "current_trial": 11, "dateTime": 1664555268130, "trialdata": {"rt": 1005, "stimulus": "<p id='stroop-text' class='stroop-blue'>SHIP</p>", "response": "b", "stimulus-type": "unrelated", "word": "SHIP", "color": "blue", "correct_response": "b", "trial_id": "stroop-trial-1-unrelated-7", "trial_type": "html-keyboard-response", "trial_index": 11, "time_elapsed": 116748, "internal_node_id": "0.0-4.0-7.0"}}, {"uniqueid": "w98012083:a73643660", "current_trial": 12, "dateTime": 1664555269517, "trialdata": {"rt": 880, "stimulus": "<p id='stroop-text' class='stroop-yellow'>GREEN</p>", "response": "y", "stimulus-type": "incongruent", "word": "green", "color": "yellow", "correct_response": "y", "trial_id": "stroop-trial-1-incongruent-8", "trial_type": "html-keyboard-response", "trial_index": 12, "time_elapsed": 118134, "internal_node_id": "0.0-4.0-8.0"}}, {"uniqueid": "w98012083:a73643660", "current_trial": 13, "dateTime": 1664555270726, "trialdata": {"rt": 703, "stimulus": "<p id='stroop-text' class='stroop-red'>BOTTLE</p>", "response": "r", "stimulus-type": "unrelated", "word": "BOTTLE", "color": "red", "correct_response": "r", "trial_id": "stroop-trial-1-unrelated-9", "trial_type": "html-keyboard-response", "trial_index": 13, "time_elapsed": 119343, "internal_node_id": "0.0-4.0-9.0"}}, {"uniqueid": "w98012083:a73643660", "current_trial": 14, "dateTime": 1664555272293, "trialdata": {"rt": 1062, "stimulus": "<p id='stroop-text' class='stroop-red'>RED</p>", "response": "r", "stimulus-type": "congruent", "word": "red", "color": "red", "correct_response": "r", "trial_id": "stroop-trial-1-congruent-11", "trial_type": "html-keyboard-response", "trial_index": 14, "time_elapsed": 120911, "internal_node_id": "0.0-4.0-10.0"}}, {"uniqueid": "w98012083:a73643660", "current_trial": 15, "dateTime": 1664555273834, "trialdata": {"rt": 1035, "stimulus": "<p id='stroop-text' class='stroop-yellow'>BOTTLE</p>", "response": "y", "stimulus-type": "unrelated", "word": "BOTTLE", "color": "yellow", "correct_response": "y", "trial_id": "stroop-trial-1-unrelated-4", "trial_type": "html-keyboard-response", "trial_index": 15, "time_elapsed": 122452, "internal_node_id": "0.0-4.0-11.0"}}, {"uniqueid": "w98012083:a73643660", "current_trial": 16, "dateTime": 1664555275187, "trialdata": {"rt": 846, "stimulus": "<p id='stroop-text' class='stroop-yellow'>WINDOW</p>", "response": "y", "stimulus-type": "unrelated", "word": "WINDOW", "color": "yellow", "correct_response": "y", "trial_id": "stroop-trial-1-unrelated-12", "trial_type": "html-keyboard-response", "trial_index": 16, "time_elapsed": 123804, "internal_node_id": "0.0-4.0-12.0"}}, {"uniqueid": "w98012083:a73643660", "current_trial": 17, "dateTime": 1664555276480, "trialdata": {"rt": 788, "stimulus": "<p id='stroop-text' class='stroop-red'>MONKEY</p>", "response": "r", "stimulus-type": "unrelated", "word": "MONKEY", "color": "red", "correct_response": "r", "trial_id": "stroop-trial-1-unrelated-18", "trial_type": "html-keyboard-response", "trial_index": 17, "time_elapsed": 125097, "internal_node_id": "0.0-4.0-13.0"}}, {"uniqueid": "w98012083:a73643660", "current_trial": 18, "dateTime": 1664555277804, "trialdata": {"rt": 817, "stimulus": "<p id='stroop-text' class='stroop-red'>RED</p>", "response": "r", "stimulus-type": "congruent", "word": "red", "color": "red", "correct_response": "r", "trial_id": "stroop-trial-1-congruent-27", "trial_type": "html-keyboard-response", "trial_index": 18, "time_elapsed": 126421, "internal_node_id": "0.0-4.0-14.0"}}, {"uniqueid": "w98012083:a73643660", "current_trial": 19, "dateTime": 1664555279199, "trialdata": {"rt": 888, "stimulus": "<p id='stroop-text' class='stroop-green'>SHIP</p>", "response": "g", "stimulus-type": "unrelated", "word": "SHIP", "color": "green", "correct_response": "g", "trial_id": "stroop-trial-1-unrelated-23", "trial_type": "html-keyboard-response", "trial_index": 19, "time_elapsed": 127816, "internal_node_id": "0.0-4.0-15.0"}}, {"uniqueid": "w98012083:a73643660", "current_trial": 20, "dateTime": 1664555280659, "trialdata": {"rt": 954, "stimulus": "<p id='stroop-text' class='stroop-red'>YELLOW</p>", "response": "r", "stimulus-type": "incongruent", "word": "yellow", "color": "red", "correct_response": "r", "trial_id": "stroop-trial-1-incongruent-28", "trial_type": "html-keyboard-response", "trial_index": 20, "time_elapsed": 129276, "internal_node_id": "0.0-4.0-16.0"}}, {"uniqueid": "w98012083:a73643660", "current_trial": 21, "dateTime": 1664555282067, "trialdata": {"rt": 902, "stimulus": "<p id='stroop-text' class='stroop-green'>RED</p>", "response": "g", "stimulus-type": "incongruent", "word": "red", "color": "green", "correct_response": "g", "trial_id": "stroop-trial-1-incongruent-4", "trial_type": "html-keyboard-response", "trial_index": 21, "time_elapsed": 130684, "internal_node_id": "0.0-4.0-17.0"}}, {"uniqueid": "w98012083:a73643660", "current_trial": 22, "dateTime": 1664555283426, "trialdata": {"rt": 853, "stimulus": "<p id='stroop-text' class='stroop-green'>GREEN</p>", "response": "g", "stimulus-type": "congruent", "word": "green", "color": "green", "correct_response": "g", "trial_id": "stroop-trial-1-congruent-24", "trial_type": "html-keyboard-response", "trial_index": 22, "time_elapsed": 132043, "internal_node_id": "0.0-4.0-18.0"}}, {"uniqueid": "w98012083:a73643660", "current_trial": 23, "dateTime": 1664555284817, "trialdata": {"rt": 885, "stimulus": "<p id='stroop-text' class='stroop-yellow'>YELLOW</p>", "response": "y", "stimulus-type": "congruent", "word": "yellow", "color": "yellow", "correct_response": "y", "trial_id": "stroop-trial-1-congruent-7", "trial_type": "html-keyboard-response", "trial_index": 23, "time_elapsed": 133434, "internal_node_id": "0.0-4.0-19.0"}}, {"uniqueid": "w98012083:a73643660", "current_trial": 24, "dateTime": 1664555286237, "trialdata": {"rt": 915, "stimulus": "<p id='stroop-text' class='stroop-red'>YELLOW</p>", "response": "r", "stimulus-type": "incongruent", "word": "yellow", "color": "red", "correct_response": "r", "trial_id": "stroop-trial-1-incongruent-23", "trial_type": "html-keyboard-response", "trial_index": 24, "time_elapsed": 134855, "internal_node_id": "0.0-4.0-20.0"}}, {"uniqueid": "w98012083:a73643660", "current_trial": 25, "dateTime": 1664555287523, "trialdata": {"rt": 781, "stimulus": "<p id='stroop-text' class='stroop-green'>BLUE</p>", "response": "g", "stimulus-type": "incongruent", "word": "blue", "color": "green", "correct_response": "g", "trial_id": "stroop-trial-1-incongruent-15", "trial_type": "html-keyboard-response", "trial_index": 25, "time_elapsed": 136141, "internal_node_id": "0.0-4.0-21.0"}}, {"uniqueid": "w98012083:a73643660", "current_trial": 26, "dateTime": 1664555288641, "trialdata": {"rt": 612, "stimulus": "<p id='stroop-text' class='stroop-green'>GREEN</p>", "response": "g", "stimulus-type": "congruent", "word": "green", "color": "green", "correct_response": "g", "trial_id": "stroop-trial-1-congruent-21", "trial_type": "html-keyboard-response", "trial_index": 26, "time_elapsed": 137259, "internal_node_id": "0.0-4.0-22.0"}}, {"uniqueid": "w98012083:a73643660", "current_trial": 27, "dateTime": 1664555289817, "trialdata": {"rt": 670, "stimulus": "<p id='stroop-text' class='stroop-yellow'>YELLOW</p>", "response": "y", "stimulus-type": "congruent", "word": "yellow", "color": "yellow", "correct_response": "y", "trial_id": "stroop-trial-1-congruent-10", "trial_type": "html-keyboard-response", "trial_index": 27, "time_elapsed": 138435, "internal_node_id": "0.0-4.0-23.0"}}, {"uniqueid": "w98012083:a73643660", "current_trial": 28, "dateTime": 1664555291003, "trialdata": {"rt": 680, "stimulus": "<p id='stroop-text' class='stroop-green'>GREEN</p>", "response": "g", "stimulus-type": "congruent", "word": "green", "color": "green", "correct_response": "g", "trial_id": "stroop-trial-1-congruent-8", "trial_type": "html-keyboard-response", "trial_index": 28, "time_elapsed": 139620, "internal_node_id": "0.0-4.0-24.0"}}, {"uniqueid": "w98012083:a73643660", "current_trial": 29, "dateTime": 1664555292490, "trialdata": {"rt": 982, "stimulus": "<p id='stroop-text' class='stroop-blue'>BLUE</p>", "response": "b", "stimulus-type": "congruent", "word": "blue", "color": "blue", "correct_response": "b", "trial_id": "stroop-trial-1-congruent-18", "trial_type": "html-keyboard-response", "trial_index": 29, "time_elapsed": 141108, "internal_node_id": "0.0-4.0-25.0"}}, {"uniqueid": "w98012083:a73643660", "current_trial": 30, "dateTime": 1664555293804, "trialdata": {"rt": 809, "stimulus": "<p id='stroop-text' class='stroop-yellow'>RED</p>", "response": "y", "stimulus-type": "incongruent", "word": "red", "color": "yellow", "correct_response": "y", "trial_id": "stroop-trial-1-incongruent-19", "trial_type": "html-keyboard-response", "trial_index": 30, "time_elapsed": 142422, "internal_node_id": "0.0-4.0-26.0"}}, {"uniqueid": "w98012083:a73643660", "current_trial": 31, "dateTime": 1664555295081, "trialdata": {"rt": 771, "stimulus": "<p id='stroop-text' class='stroop-red'>CHAIR</p>", "response": "r", "stimulus-type": "unrelated", "word": "CHAIR", "color": "red", "correct_response": "r", "trial_id": "stroop-trial-1-unrelated-19", "trial_type": "html-keyboard-response", "trial_index": 31, "time_elapsed": 143699, "internal_node_id": "0.0-4.0-27.0"}}, {"uniqueid": "w98012083:a73643660", "current_trial": 32, "dateTime": 1664555296281, "trialdata": {"rt": 694, "stimulus": "<p id='stroop-text' class='stroop-blue'>RED</p>", "response": "b", "stimulus-type": "incongruent", "word": "red", "color": "blue", "correct_response": "b", "trial_id": "stroop-trial-1-incongruent-30", "trial_type": "html-keyboard-response", "trial_index": 32, "time_elapsed": 144898, "internal_node_id": "0.0-4.0-28.0"}}, {"uniqueid": "w98012083:a73643660", "current_trial": 33, "dateTime": 1664555297833, "trialdata": {"rt": 1046, "stimulus": "<p id='stroop-text' class='stroop-yellow'>BLUE</p>", "response": "y", "stimulus-type": "incongruent", "word": "blue", "color": "yellow", "correct_response": "y", "trial_id": "stroop-trial-1-incongruent-16", "trial_type": "html-keyboard-response", "trial_index": 33, "time_elapsed": 146450, "internal_node_id": "0.0-4.0-29.0"}}, {"uniqueid": "w98012083:a73643660", "current_trial": 34, "dateTime": 1664555299116, "trialdata": {"rt": 777, "stimulus": "<p id='stroop-text' class='stroop-green'>YELLOW</p>", "response": "g", "stimulus-type": "incongruent", "word": "yellow", "color": "green", "correct_response": "g", "trial_id": "stroop-trial-1-incongruent-29", "trial_type": "html-keyboard-response", "trial_index": 34, "time_elapsed": 147733, "internal_node_id": "0.0-4.0-30.0"}}, {"uniqueid": "w98012083:a73643660", "current_trial": 35, "dateTime": 1664555300320, "trialdata": {"rt": 698, "stimulus": "<p id='stroop-text' class='stroop-green'>GREEN</p>", "response": "g", "stimulus-type": "congruent", "word": "green", "color": "green", "correct_response": "g", "trial_id": "stroop-trial-1-congruent-16", "trial_type": "html-keyboard-response", "trial_index": 35, "time_elapsed": 148937, "internal_node_id": "0.0-4.0-31.0"}}, {"uniqueid": "w98012083:a73643660", "current_trial": 36, "dateTime": 1664555301490, "trialdata": {"rt": 665, "stimulus": "<p id='stroop-text' class='stroop-red'>RED</p>", "response": "r", "stimulus-type": "congruent", "word": "red", "color": "red", "correct_response": "r", "trial_id": "stroop-trial-1-congruent-17", "trial_type": "html-keyboard-response", "trial_index": 36, "time_elapsed": 150108, "internal_node_id": "0.0-4.0-32.0"}}, {"uniqueid": "w98012083:a73643660", "current_trial": 37, "dateTime": 1664555302650, "trialdata": {"rt": 654, "stimulus": "<p id='stroop-text' class='stroop-yellow'>RED</p>", "response": "y", "stimulus-type": "incongruent", "word": "red", "color": "yellow", "correct_response": "y", "trial_id": "stroop-trial-1-incongruent-1", "trial_type": "html-keyboard-response", "trial_index": 37, "time_elapsed": 151267, "internal_node_id": "0.0-4.0-33.0"}}, {"uniqueid": "w98012083:a73643660", "current_trial": 38, "dateTime": 1664555303908, "trialdata": {"rt": 753, "stimulus": "<p id='stroop-text' class='stroop-red'>SHIP</p>", "response": "r", "stimulus-type": "unrelated", "word": "SHIP", "color": "red", "correct_response": "r", "trial_id": "stroop-trial-1-unrelated-20", "trial_type": "html-keyboard-response", "trial_index": 38, "time_elapsed": 152525, "internal_node_id": "0.0-4.0-34.0"}}, {"uniqueid": "w98012083:a73643660", "current_trial": 39, "dateTime": 1664555305088, "trialdata": {"rt": 675, "stimulus": "<p id='stroop-text' class='stroop-green'>RED</p>", "response": "g", "stimulus-type": "incongruent", "word": "red", "color": "green", "correct_response": "g", "trial_id": "stroop-trial-1-incongruent-12", "trial_type": "html-keyboard-response", "trial_index": 39, "time_elapsed": 153705, "internal_node_id": "0.0-4.0-35.0"}}, {"uniqueid": "w98012083:a73643660", "current_trial": 40, "dateTime": 1664555306464, "trialdata": {"rt": 871, "stimulus": "<p id='stroop-text' class='stroop-red'>BOTTLE</p>", "response": "r", "stimulus-type": "unrelated", "word": "BOTTLE", "color": "red", "correct_response": "r", "trial_id": "stroop-trial-1-unrelated-8", "trial_type": "html-keyboard-response", "trial_index": 40, "time_elapsed": 155081, "internal_node_id": "0.0-4.0-36.0"}}, {"uniqueid": "w98012083:a73643660", "current_trial": 41, "dateTime": 1664555307678, "trialdata": {"rt": 709, "stimulus": "<p id='stroop-text' class='stroop-yellow'>RED</p>", "response": "y", "stimulus-type": "incongruent", "word": "red", "color": "yellow", "correct_response": "y", "trial_id": "stroop-trial-1-incongruent-11", "trial_type": "html-keyboard-response", "trial_index": 41, "time_elapsed": 156295, "internal_node_id": "0.0-4.0-37.0"}}, {"uniqueid": "w98012083:a73643660", "current_trial": 42, "dateTime": 1664555309047, "trialdata": {"rt": 863, "stimulus": "<p id='stroop-text' class='stroop-red'>BLUE</p>", "response": "r", "stimulus-type": "incongruent", "word": "blue", "color": "red", "correct_response": "r", "trial_id": "stroop-trial-1-incongruent-2", "trial_type": "html-keyboard-response", "trial_index": 42, "time_elapsed": 157664, "internal_node_id": "0.0-4.0-38.0"}}, {"uniqueid": "w98012083:a73643660", "current_trial": 43, "dateTime": 1664555310294, "trialdata": {"rt": 742, "stimulus": "<p id='stroop-text' class='stroop-green'>GREEN</p>", "response": "g", "stimulus-type": "congruent", "word": "green", "color": "green", "correct_response": "g", "trial_id": "stroop-trial-1-congruent-23", "trial_type": "html-keyboard-response", "trial_index": 43, "time_elapsed": 158912, "internal_node_id": "0.0-4.0-39.0"}}, {"uniqueid": "w98012083:a73643660", "current_trial": 44, "dateTime": 1664555311529, "trialdata": {"rt": 728, "stimulus": "<p id='stroop-text' class='stroop-blue'>BLUE</p>", "response": "b", "stimulus-type": "congruent", "word": "blue", "color": "blue", "correct_response": "b", "trial_id": "stroop-trial-1-congruent-1", "trial_type": "html-keyboard-response", "trial_index": 44, "time_elapsed": 160146, "internal_node_id": "0.0-4.0-40.0"}}, {"uniqueid": "w98012083:a73643660", "current_trial": 45, "dateTime": 1664555312639, "trialdata": {"rt": 606, "stimulus": "<p id='stroop-text' class='stroop-yellow'>YELLOW</p>", "response": "y", "stimulus-type": "congruent", "word": "yellow", "color": "yellow", "correct_response": "y", "trial_id": "stroop-trial-1-congruent-6", "trial_type": "html-keyboard-response", "trial_index": 45, "time_elapsed": 161256, "internal_node_id": "0.0-4.0-41.0"}}, {"uniqueid": "w98012083:a73643660", "current_trial": 46, "dateTime": 1664555314287, "trialdata": {"rt": 1142, "stimulus": "<p id='stroop-text' class='stroop-green'>YELLOW</p>", "response": "g", "stimulus-type": "incongruent", "word": "yellow", "color": "green", "correct_response": "g", "trial_id": "stroop-trial-1-incongruent-21", "trial_type": "html-keyboard-response", "trial_index": 46, "time_elapsed": 162904, "internal_node_id": "0.0-4.0-42.0"}}, {"uniqueid": "w98012083:a73643660", "current_trial": 47, "dateTime": 1664555315609, "trialdata": {"rt": 816, "stimulus": "<p id='stroop-text' class='stroop-yellow'>RED</p>", "response": "y", "stimulus-type": "incongruent", "word": "red", "color": "yellow", "correct_response": "y", "trial_id": "stroop-trial-1-incongruent-14", "trial_type": "html-keyboard-response", "trial_index": 47, "time_elapsed": 164226, "internal_node_id": "0.0-4.0-43.0"}}, {"uniqueid": "w98012083:a73643660", "current_trial": 48, "dateTime": 1664555316875, "trialdata": {"rt": 760, "stimulus": "<p id='stroop-text' class='stroop-red'>MONKEY</p>", "response": "r", "stimulus-type": "unrelated", "word": "MONKEY", "color": "red", "correct_response": "r", "trial_id": "stroop-trial-1-unrelated-3", "trial_type": "html-keyboard-response", "trial_index": 48, "time_elapsed": 165492, "internal_node_id": "0.0-4.0-44.0"}}, {"uniqueid": "w98012083:a73643660", "current_trial": 49, "dateTime": 1664555318151, "trialdata": {"rt": 771, "stimulus": "<p id='stroop-text' class='stroop-green'>GREEN</p>", "response": "g", "stimulus-type": "congruent", "word": "green", "color": "green", "correct_response": "g", "trial_id": "stroop-trial-1-congruent-4", "trial_type": "html-keyboard-response", "trial_index": 49, "time_elapsed": 166769, "internal_node_id": "0.0-4.0-45.0"}}, {"uniqueid": "w98012083:a73643660", "current_trial": 50, "dateTime": 1664555319368, "trialdata": {"rt": 712, "stimulus": "<p id='stroop-text' class='stroop-yellow'>YELLOW</p>", "response": "y", "stimulus-type": "congruent", "word": "yellow", "color": "yellow", "correct_response": "y", "trial_id": "stroop-trial-1-congruent-12", "trial_type": "html-keyboard-response", "trial_index": 50, "time_elapsed": 167985, "internal_node_id": "0.0-4.0-46.0"}}, {"uniqueid": "w98012083:a73643660", "current_trial": 51, "dateTime": 1664555320523, "trialdata": {"rt": 649, "stimulus": "<p id='stroop-text' class='stroop-red'>FORK</p>", "response": "r", "stimulus-type": "unrelated", "word": "FORK", "color": "red", "correct_response": "r", "trial_id": "stroop-trial-1-unrelated-5", "trial_type": "html-keyboard-response", "trial_index": 51, "time_elapsed": 169140, "internal_node_id": "0.0-4.0-47.0"}}, {"uniqueid": "w98012083:a73643660", "current_trial": 52, "dateTime": 1664555321739, "trialdata": {"rt": 710, "stimulus": "<p id='stroop-text' class='stroop-blue'>RED</p>", "response": "b", "stimulus-type": "incongruent", "word": "red", "color": "blue", "correct_response": "b", "trial_id": "stroop-trial-1-incongruent-26", "trial_type": "html-keyboard-response", "trial_index": 52, "time_elapsed": 170356, "internal_node_id": "0.0-4.0-48.0"}}, {"uniqueid": "w98012083:a73643660", "current_trial": 53, "dateTime": 1664555322965, "trialdata": {"rt": 721, "stimulus": "<p id='stroop-text' class='stroop-yellow'>YELLOW</p>", "response": "y", "stimulus-type": "congruent", "word": "yellow", "color": "yellow", "correct_response": "y", "trial_id": "stroop-trial-1-congruent-15", "trial_type": "html-keyboard-response", "trial_index": 53, "time_elapsed": 171583, "internal_node_id": "0.0-4.0-49.0"}}, {"uniqueid": "w98012083:a73643660", "current_trial": 54, "dateTime": 1664555324285, "trialdata": {"rt": 814, "stimulus": "<p id='stroop-text' class='stroop-green'>RED</p>", "response": "g", "stimulus-type": "incongruent", "word": "red", "color": "green", "correct_response": "g", "trial_id": "stroop-trial-1-incongruent-24", "trial_type": "html-keyboard-response", "trial_index": 54, "time_elapsed": 172902, "internal_node_id": "0.0-4.0-50.0"}}, {"uniqueid": "w98012083:a73643660", "current_trial": 55, "dateTime": 1664555325520, "trialdata": {"rt": 729, "stimulus": "<p id='stroop-text' class='stroop-red'>BOTTLE</p>", "response": "r", "stimulus-type": "unrelated", "word": "BOTTLE", "color": "red", "correct_response": "r", "trial_id": "stroop-trial-1-unrelated-15", "trial_type": "html-keyboard-response", "trial_index": 55, "time_elapsed": 174137, "internal_node_id": "0.0-4.0-51.0"}}, {"uniqueid": "w98012083:a73643660", "current_trial": 56, "dateTime": 1664555326867, "trialdata": {"rt": 841, "stimulus": "<p id='stroop-text' class='stroop-blue'>FORK</p>", "response": "b", "stimulus-type": "unrelated", "word": "FORK", "color": "blue", "correct_response": "b", "trial_id": "stroop-trial-1-unrelated-27", "trial_type": "html-keyboard-response", "trial_index": 56, "time_elapsed": 175484, "internal_node_id": "0.0-4.0-52.0"}}, {"uniqueid": "w98012083:a73643660", "current_trial": 57, "dateTime": 1664555329592, "trialdata": {"rt": 2219, "stimulus": "<p id='stroop-text' class='stroop-green'>GREEN</p>", "response": "g", "stimulus-type": "congruent", "word": "green", "color": "green", "correct_response": "g", "trial_id": "stroop-trial-1-congruent-2", "trial_type": "html-keyboard-response", "trial_index": 57, "time_elapsed": 178209, "internal_node_id": "0.0-4.0-53.0"}}, {"uniqueid": "w98012083:a73643660", "current_trial": 58, "dateTime": 1664555330823, "trialdata": {"rt": 727, "stimulus": "<p id='stroop-text' class='stroop-blue'>BLUE</p>", "response": "b", "stimulus-type": "congruent", "word": "blue", "color": "blue", "correct_response": "b", "trial_id": "stroop-trial-1-congruent-19", "trial_type": "html-keyboard-response", "trial_index": 58, "time_elapsed": 179441, "internal_node_id": "0.0-4.0-54.0"}}, {"uniqueid": "w98012083:a73643660", "current_trial": 59, "dateTime": 1664555331949, "trialdata": {"rt": 620, "stimulus": "<p id='stroop-text' class='stroop-blue'>BLUE</p>", "response": "b", "stimulus-type": "congruent", "word": "blue", "color": "blue", "correct_response": "b", "trial_id": "stroop-trial-1-congruent-25", "trial_type": "html-keyboard-response", "trial_index": 59, "time_elapsed": 180567, "internal_node_id": "0.0-4.0-55.0"}}, {"uniqueid": "w98012083:a73643660", "current_trial": 60, "dateTime": 1664555333084, "trialdata": {"rt": 628, "stimulus": "<p id='stroop-text' class='stroop-blue'>RED</p>", "response": "b", "stimulus-type": "incongruent", "word": "red", "color": "blue", "correct_response": "b", "trial_id": "stroop-trial-1-incongruent-9", "trial_type": "html-keyboard-response", "trial_index": 60, "time_elapsed": 181701, "internal_node_id": "0.0-4.0-56.0"}}, {"uniqueid": "w98012083:a73643660", "current_trial": 61, "dateTime": 1664555334252, "trialdata": {"rt": 663, "stimulus": "<p id='stroop-text' class='stroop-blue'>RED</p>", "response": "b", "stimulus-type": "incongruent", "word": "red", "color": "blue", "correct_response": "b", "trial_id": "stroop-trial-1-incongruent-22", "trial_type": "html-keyboard-response", "trial_index": 61, "time_elapsed": 182869, "internal_node_id": "0.0-4.0-57.0"}}, {"uniqueid": "w98012083:a73643660", "current_trial": 62, "dateTime": 1664555335554, "trialdata": {"rt": 796, "stimulus": "<p id='stroop-text' class='stroop-green'>BLUE</p>", "response": "g", "stimulus-type": "incongruent", "word": "blue", "color": "green", "correct_response": "g", "trial_id": "stroop-trial-1-incongruent-13", "trial_type": "html-keyboard-response", "trial_index": 62, "time_elapsed": 184171, "internal_node_id": "0.0-4.0-58.0"}}, {"uniqueid": "w98012083:a73643660", "current_trial": 63, "dateTime": 1664555336659, "trialdata": {"rt": 600, "stimulus": "<p id='stroop-text' class='stroop-red'>RED</p>", "response": "r", "stimulus-type": "congruent", "word": "red", "color": "red", "correct_response": "r", "trial_id": "stroop-trial-1-congruent-28", "trial_type": "html-keyboard-response", "trial_index": 63, "time_elapsed": 185277, "internal_node_id": "0.0-4.0-59.0"}}, {"uniqueid": "w98012083:a73643660", "current_trial": 64, "dateTime": 1664555337770, "trialdata": {"rt": 606, "stimulus": "<p id='stroop-text' class='stroop-yellow'>CHAIR</p>", "response": "y", "stimulus-type": "unrelated", "word": "CHAIR", "color": "yellow", "correct_response": "y", "trial_id": "stroop-trial-1-unrelated-16", "trial_type": "html-keyboard-response", "trial_index": 64, "time_elapsed": 186388, "internal_node_id": "0.0-4.0-60.0"}}, {"uniqueid": "w98012083:a73643660", "current_trial": 65, "dateTime": 1664555339040, "trialdata": {"rt": 765, "stimulus": "<p id='stroop-text' class='stroop-blue'>BLUE</p>", "response": "b", "stimulus-type": "congruent", "word": "blue", "color": "blue", "correct_response": "b", "trial_id": "stroop-trial-1-congruent-22", "trial_type": "html-keyboard-response", "trial_index": 65, "time_elapsed": 187658, "internal_node_id": "0.0-4.0-61.0"}}, {"uniqueid": "w98012083:a73643660", "current_trial": 66, "dateTime": 1664555340189, "trialdata": {"rt": 643, "stimulus": "<p id='stroop-text' class='stroop-red'>CHAIR</p>", "response": "r", "stimulus-type": "unrelated", "word": "CHAIR", "color": "red", "correct_response": "r", "trial_id": "stroop-trial-1-unrelated-26", "trial_type": "html-keyboard-response", "trial_index": 66, "time_elapsed": 188807, "internal_node_id": "0.0-4.0-62.0"}}, {"uniqueid": "w98012083:a73643660", "current_trial": 67, "dateTime": 1664555341468, "trialdata": {"rt": 773, "stimulus": "<p id='stroop-text' class='stroop-green'>RED</p>", "response": "g", "stimulus-type": "incongruent", "word": "red", "color": "green", "correct_response": "g", "trial_id": "stroop-trial-1-incongruent-25", "trial_type": "html-keyboard-response", "trial_index": 67, "time_elapsed": 190085, "internal_node_id": "0.0-4.0-63.0"}}, {"uniqueid": "w98012083:a73643660", "current_trial": 68, "dateTime": 1664555342730, "trialdata": {"rt": 757, "stimulus": "<p id='stroop-text' class='stroop-blue'>GREEN</p>", "response": "b", "stimulus-type": "incongruent", "word": "green", "color": "blue", "correct_response": "b", "trial_id": "stroop-trial-1-incongruent-18", "trial_type": "html-keyboard-response", "trial_index": 68, "time_elapsed": 191347, "internal_node_id": "0.0-4.0-64.0"}}, {"uniqueid": "w98012083:a73643660", "current_trial": 69, "dateTime": 1664555343871, "trialdata": {"rt": 635, "stimulus": "<p id='stroop-text' class='stroop-blue'>GREEN</p>", "response": "b", "stimulus-type": "incongruent", "word": "green", "color": "blue", "correct_response": "b", "trial_id": "stroop-trial-1-incongruent-20", "trial_type": "html-keyboard-response", "trial_index": 69, "time_elapsed": 192488, "internal_node_id": "0.0-4.0-65.0"}}, {"uniqueid": "w98012083:a73643660", "current_trial": 70, "dateTime": 1664555345025, "trialdata": {"rt": 649, "stimulus": "<p id='stroop-text' class='stroop-yellow'>SHIP</p>", "response": "y", "stimulus-type": "unrelated", "word": "SHIP", "color": "yellow", "correct_response": "y", "trial_id": "stroop-trial-1-unrelated-10", "trial_type": "html-keyboard-response", "trial_index": 70, "time_elapsed": 193642, "internal_node_id": "0.0-4.0-66.0"}}, {"uniqueid": "w98012083:a73643660", "current_trial": 71, "dateTime": 1664555346317, "trialdata": {"rt": 786, "stimulus": "<p id='stroop-text' class='stroop-green'>DOG</p>", "response": "g", "stimulus-type": "unrelated", "word": "DOG", "color": "green", "correct_response": "g", "trial_id": "stroop-trial-1-unrelated-21", "trial_type": "html-keyboard-response", "trial_index": 71, "time_elapsed": 194934, "internal_node_id": "0.0-4.0-67.0"}}, {"uniqueid": "w98012083:a73643660", "current_trial": 72, "dateTime": 1664555347509, "trialdata": {"rt": 686, "stimulus": "<p id='stroop-text' class='stroop-red'>GREEN</p>", "response": "r", "stimulus-type": "incongruent", "word": "green", "color": "red", "correct_response": "r", "trial_id": "stroop-trial-1-incongruent-27", "trial_type": "html-keyboard-response", "trial_index": 72, "time_elapsed": 196126, "internal_node_id": "0.0-4.0-68.0"}}, {"uniqueid": "w98012083:a73643660", "current_trial": 73, "dateTime": 1664555348943, "trialdata": {"rt": 929, "stimulus": "<p id='stroop-text' class='stroop-blue'>CHAIR</p>", "response": "b", "stimulus-type": "unrelated", "word": "CHAIR", "color": "blue", "correct_response": "b", "trial_id": "stroop-trial-1-unrelated-25", "trial_type": "html-keyboard-response", "trial_index": 73, "time_elapsed": 197560, "internal_node_id": "0.0-4.0-69.0"}}, {"uniqueid": "w98012083:a73643660", "current_trial": 74, "dateTime": 1664555350254, "trialdata": {"rt": 805, "stimulus": "<p id='stroop-text' class='stroop-green'>FORK</p>", "response": "g", "stimulus-type": "unrelated", "word": "FORK", "color": "green", "correct_response": "g", "trial_id": "stroop-trial-1-unrelated-2", "trial_type": "html-keyboard-response", "trial_index": 74, "time_elapsed": 198871, "internal_node_id": "0.0-4.0-70.0"}}, {"uniqueid": "w98012083:a73643660", "current_trial": 75, "dateTime": 1664555351411, "trialdata": {"rt": 651, "stimulus": "<p id='stroop-text' class='stroop-red'>RED</p>", "response": "r", "stimulus-type": "congruent", "word": "red", "color": "red", "correct_response": "r", "trial_id": "stroop-trial-1-congruent-30", "trial_type": "html-keyboard-response", "trial_index": 75, "time_elapsed": 200028, "internal_node_id": "0.0-4.0-71.0"}}, {"uniqueid": "w98012083:a73643660", "current_trial": 76, "dateTime": 1664555352636, "trialdata": {"rt": 720, "stimulus": "<p id='stroop-text' class='stroop-yellow'>BOAT</p>", "response": "y", "stimulus-type": "unrelated", "word": "BOAT", "color": "yellow", "correct_response": "y", "trial_id": "stroop-trial-1-unrelated-28", "trial_type": "html-keyboard-response", "trial_index": 76, "time_elapsed": 201253, "internal_node_id": "0.0-4.0-72.0"}}, {"uniqueid": "w98012083:a73643660", "current_trial": 77, "dateTime": 1664555353829, "trialdata": {"rt": 687, "stimulus": "<p id='stroop-text' class='stroop-yellow'>STONE</p>", "response": "y", "stimulus-type": "unrelated", "word": "STONE", "color": "yellow", "correct_response": "y", "trial_id": "stroop-trial-1-unrelated-22", "trial_type": "html-keyboard-response", "trial_index": 77, "time_elapsed": 202446, "internal_node_id": "0.0-4.0-73.0"}}, {"uniqueid": "w98012083:a73643660", "current_trial": 78, "dateTime": 1664555355117, "trialdata": {"rt": 782, "stimulus": "<p id='stroop-text' class='stroop-blue'>CHAIR</p>", "response": "b", "stimulus-type": "unrelated", "word": "CHAIR", "color": "blue", "correct_response": "b", "trial_id": "stroop-trial-1-unrelated-17", "trial_type": "html-keyboard-response", "trial_index": 78, "time_elapsed": 203734, "internal_node_id": "0.0-4.0-74.0"}}, {"uniqueid": "w98012083:a73643660", "current_trial": 79, "dateTime": 1664555356370, "trialdata": {"rt": 748, "stimulus": "<p id='stroop-text' class='stroop-yellow'>GREEN</p>", "response": "g", "stimulus-type": "incongruent", "word": "green", "color": "yellow", "correct_response": "y", "trial_id": "stroop-trial-1-incongruent-5", "trial_type": "html-keyboard-response", "trial_index": 79, "time_elapsed": 204987, "internal_node_id": "0.0-4.0-75.0"}}, {"uniqueid": "w98012083:a73643660", "current_trial": 80, "dateTime": 1664555358280, "trialdata": {"rt": 1404, "stimulus": "<p id='stroop-text' class='stroop-blue'>BLUE</p>", "response": "b", "stimulus-type": "congruent", "word": "blue", "color": "blue", "correct_response": "b", "trial_id": "stroop-trial-1-congruent-3", "trial_type": "html-keyboard-response", "trial_index": 80, "time_elapsed": 206897, "internal_node_id": "0.0-4.0-76.0"}}, {"uniqueid": "w98012083:a73643660", "current_trial": 81, "dateTime": 1664555359641, "trialdata": {"rt": 854, "stimulus": "<p id='stroop-text' class='stroop-blue'>BLUE</p>", "response": "b", "stimulus-type": "congruent", "word": "blue", "color": "blue", "correct_response": "b", "trial_id": "stroop-trial-1-congruent-26", "trial_type": "html-keyboard-response", "trial_index": 81, "time_elapsed": 208258, "internal_node_id": "0.0-4.0-77.0"}}, {"uniqueid": "w98012083:a73643660", "current_trial": 82, "dateTime": 1664555360872, "trialdata": {"rt": 725, "stimulus": "<p id='stroop-text' class='stroop-yellow'>CHAIR</p>", "response": "y", "stimulus-type": "unrelated", "word": "CHAIR", "color": "yellow", "correct_response": "y", "trial_id": "stroop-trial-1-unrelated-11", "trial_type": "html-keyboard-response", "trial_index": 82, "time_elapsed": 209489, "internal_node_id": "0.0-4.0-78.0"}}, {"uniqueid": "w98012083:a73643660", "current_trial": 83, "dateTime": 1664555362215, "trialdata": {"rt": 837, "stimulus": "<p id='stroop-text' class='stroop-green'>GREEN</p>", "response": "g", "stimulus-type": "congruent", "word": "green", "color": "green", "correct_response": "g", "trial_id": "stroop-trial-1-congruent-13", "trial_type": "html-keyboard-response", "trial_index": 83, "time_elapsed": 210832, "internal_node_id": "0.0-4.0-79.0"}}, {"uniqueid": "w98012083:a73643660", "current_trial": 84, "dateTime": 1664555363842, "trialdata": {"rt": 1121, "stimulus": "<p id='stroop-text' class='stroop-blue'>DOG</p>", "response": "b", "stimulus-type": "unrelated", "word": "DOG", "color": "blue", "correct_response": "b", "trial_id": "stroop-trial-1-unrelated-6", "trial_type": "html-keyboard-response", "trial_index": 84, "time_elapsed": 212459, "internal_node_id": "0.0-4.0-80.0"}}, {"uniqueid": "w98012083:a73643660", "current_trial": 85, "dateTime": 1664555364996, "trialdata": {"rt": 648, "stimulus": "<p id='stroop-text' class='stroop-yellow'>YELLOW</p>", "response": "y", "stimulus-type": "congruent", "word": "yellow", "color": "yellow", "correct_response": "y", "trial_id": "stroop-trial-1-congruent-20", "trial_type": "html-keyboard-response", "trial_index": 85, "time_elapsed": 213613, "internal_node_id": "0.0-4.0-81.0"}}, {"uniqueid": "w98012083:a73643660", "current_trial": 86, "dateTime": 1664555367180, "trialdata": {"rt": 1678, "stimulus": "<p id='stroop-text' class='stroop-blue'>BLUE</p>", "response": "b", "stimulus-type": "congruent", "word": "blue", "color": "blue", "correct_response": "b", "trial_id": "stroop-trial-1-congruent-14", "trial_type": "html-keyboard-response", "trial_index": 86, "time_elapsed": 215797, "internal_node_id": "0.0-4.0-82.0"}}, {"uniqueid": "w98012083:a73643660", "current_trial": 87, "dateTime": 1664555368296, "trialdata": {"rt": 610, "stimulus": "<p id='stroop-text' class='stroop-blue'>BLUE</p>", "response": "b", "stimulus-type": "congruent", "word": "blue", "color": "blue", "correct_response": "b", "trial_id": "stroop-trial-1-congruent-9", "trial_type": "html-keyboard-response", "trial_index": 87, "time_elapsed": 216913, "internal_node_id": "0.0-4.0-83.0"}}, {"uniqueid": "w98012083:a73643660", "current_trial": 88, "dateTime": 1664555369411, "trialdata": {"rt": 609, "stimulus": "<p id='stroop-text' class='stroop-red'>BLUE</p>", "response": "r", "stimulus-type": "incongruent", "word": "blue", "color": "red", "correct_response": "r", "trial_id": "stroop-trial-1-incongruent-10", "trial_type": "html-keyboard-response", "trial_index": 88, "time_elapsed": 218029, "internal_node_id": "0.0-4.0-84.0"}}, {"uniqueid": "w98012083:a73643660", "current_trial": 89, "dateTime": 1664555370606, "trialdata": {"rt": 689, "stimulus": "<p id='stroop-text' class='stroop-blue'>BRAIN</p>", "response": "b", "stimulus-type": "unrelated", "word": "BRAIN", "color": "blue", "correct_response": "b", "trial_id": "stroop-trial-1-unrelated-13", "trial_type": "html-keyboard-response", "trial_index": 89, "time_elapsed": 219223, "internal_node_id": "0.0-4.0-85.0"}}, {"uniqueid": "w98012083:a73643660", "current_trial": 90, "dateTime": 1664555371906, "trialdata": {"rt": 796, "stimulus": "<p id='stroop-text' class='stroop-green'>RED</p>", "response": "g", "stimulus-type": "incongruent", "word": "red", "color": "green", "correct_response": "g", "trial_id": "stroop-trial-1-incongruent-6", "trial_type": "html-keyboard-response", "trial_index": 90, "time_elapsed": 220524, "internal_node_id": "0.0-4.0-86.0"}}, {"uniqueid": "w98012083:a73643660", "current_trial": 91, "dateTime": 1664555373123, "trialdata": {"rt": 711, "stimulus": "<p id='stroop-text' class='stroop-blue'>RED</p>", "response": "b", "stimulus-type": "incongruent", "word": "red", "color": "blue", "correct_response": "b", "trial_id": "stroop-trial-1-incongruent-7", "trial_type": "html-keyboard-response", "trial_index": 91, "time_elapsed": 221741, "internal_node_id": "0.0-4.0-87.0"}}, {"uniqueid": "w98012083:a73643660", "current_trial": 92, "dateTime": 1664555374284, "trialdata": {"rt": 656, "stimulus": "<p id='stroop-text' class='stroop-green'>GREEN</p>", "response": "g", "stimulus-type": "congruent", "word": "green", "color": "green", "correct_response": "g", "trial_id": "stroop-trial-1-congruent-29", "trial_type": "html-keyboard-response", "trial_index": 92, "time_elapsed": 222902, "internal_node_id": "0.0-4.0-88.0"}}, {"uniqueid": "w98012083:a73643660", "current_trial": 93, "dateTime": 1664555375378, "trialdata": {"rt": 588, "stimulus": "<p id='stroop-text' class='stroop-yellow'>YELLOW</p>", "response": "y", "stimulus-type": "congruent", "word": "yellow", "color": "yellow", "correct_response": "y", "trial_id": "stroop-trial-1-congruent-5", "trial_type": "html-keyboard-response", "trial_index": 93, "time_elapsed": 223996, "internal_node_id": "0.0-4.0-89.0"}}, {"uniqueid": "w98012083:a73643660", "current_trial": 94, "dateTime": 1664555418113, "trialdata": {"rt": 42227, "stimulus": "  <h1> End of block! </h1>\n\n  You have reached the end of the block 1/5. If you need a short break, feel free to take one now before moving on.\n\n  <br><br>\n  In the next block, you will complete another 90 rounds of this game.\n\n  <br><br>\n  <div style='text-align: center;'>Press <code>space</code> to begin.</div>\n  <br><br>\n<div style='text-align: center;'>(If the experiment doesn't continue, try clicking on the text and then pressing <code>space</code>.)</div>", "response": " ", "trial_id": "stroop_1_ready_2", "trial_type": "html-keyboard-response", "trial_index": 94, "time_elapsed": 266730, "internal_node_id": "0.0-5.0"}}, {"uniqueid": "w98012083:a73643660", "current_trial": 95, "dateTime": 1664555419705, "trialdata": {"rt": 1587, "stimulus": "<p id='stroop-text' class='stroop-yellow'>DOG</p>", "response": "y", "stimulus-type": "unrelated", "word": "DOG", "color": "yellow", "correct_response": "y", "trial_id": "stroop-trial-1-unrelated-16", "trial_type": "html-keyboard-response", "trial_index": 95, "time_elapsed": 268322, "internal_node_id": "0.0-6.0-0.0"}}, {"uniqueid": "w98012083:a73643660", "current_trial": 96, "dateTime": 1664555421056, "trialdata": {"rt": 844, "stimulus": "<p id='stroop-text' class='stroop-red'>RED</p>", "response": "r", "stimulus-type": "congruent", "word": "red", "color": "red", "correct_response": "r", "trial_id": "stroop-trial-1-congruent-4", "trial_type": "html-keyboard-response", "trial_index": 96, "time_elapsed": 269673, "internal_node_id": "0.0-6.0-1.0"}}, {"uniqueid": "w98012083:a73643660", "current_trial": 97, "dateTime": 1664555421964, "trialdata": {"rt": 401, "stimulus": "<p id='stroop-text' class='stroop-red'>GREEN</p>", "response": "r", "stimulus-type": "incongruent", "word": "green", "color": "red", "correct_response": "r", "trial_id": "stroop-trial-1-incongruent-20", "trial_type": "html-keyboard-response", "trial_index": 97, "time_elapsed": 270581, "internal_node_id": "0.0-6.0-2.0"}}, {"uniqueid": "w98012083:a73643660", "current_trial": 98, "dateTime": 1664555423129, "trialdata": {"rt": 659, "stimulus": "<p id='stroop-text' class='stroop-yellow'>DOG</p>", "response": "y", "stimulus-type": "unrelated", "word": "DOG", "color": "yellow", "correct_response": "y", "trial_id": "stroop-trial-1-unrelated-7", "trial_type": "html-keyboard-response", "trial_index": 98, "time_elapsed": 271746, "internal_node_id": "0.0-6.0-3.0"}}, {"uniqueid": "w98012083:a73643660", "current_trial": 99, "dateTime": 1664555424342, "trialdata": {"rt": 707, "stimulus": "<p id='stroop-text' class='stroop-red'>RED</p>", "response": "r", "stimulus-type": "congruent", "word": "red", "color": "red", "correct_response": "r", "trial_id": "stroop-trial-1-congruent-12", "trial_type": "html-keyboard-response", "trial_index": 99, "time_elapsed": 272959, "internal_node_id": "0.0-6.0-4.0"}}, {"uniqueid": "w98012083:a73643660", "current_trial": 100, "dateTime": 1664555425520, "trialdata": {"rt": 671, "stimulus": "<p id='stroop-text' class='stroop-green'>GREEN</p>", "response": "g", "stimulus-type": "congruent", "word": "green", "color": "green", "correct_response": "g", "trial_id": "stroop-trial-1-congruent-13", "trial_type": "html-keyboard-response", "trial_index": 100, "time_elapsed": 274137, "internal_node_id": "0.0-6.0-5.0"}}, {"uniqueid": "w98012083:a73643660", "current_trial": 101, "dateTime": 1664555426735, "trialdata": {"rt": 709, "stimulus": "<p id='stroop-text' class='stroop-blue'>YELLOW</p>", "response": "b", "stimulus-type": "incongruent", "word": "yellow", "color": "blue", "correct_response": "b", "trial_id": "stroop-trial-1-incongruent-18", "trial_type": "html-keyboard-response", "trial_index": 101, "time_elapsed": 275353, "internal_node_id": "0.0-6.0-6.0"}}, {"uniqueid": "w98012083:a73643660", "current_trial": 102, "dateTime": 1664555427931, "trialdata": {"rt": 689, "stimulus": "<p id='stroop-text' class='stroop-blue'>GREEN</p>", "response": "b", "stimulus-type": "incongruent", "word": "green", "color": "blue", "correct_response": "b", "trial_id": "stroop-trial-1-incongruent-9", "trial_type": "html-keyboard-response", "trial_index": 102, "time_elapsed": 276548, "internal_node_id": "0.0-6.0-7.0"}}, {"uniqueid": "w98012083:a73643660", "current_trial": 103, "dateTime": 1664555429152, "trialdata": {"rt": 714, "stimulus": "<p id='stroop-text' class='stroop-yellow'>CHAIR</p>", "response": "y", "stimulus-type": "unrelated", "word": "CHAIR", "color": "yellow", "correct_response": "y", "trial_id": "stroop-trial-1-unrelated-23", "trial_type": "html-keyboard-response", "trial_index": 103, "time_elapsed": 277769, "internal_node_id": "0.0-6.0-8.0"}}, {"uniqueid": "w98012083:a73643660", "current_trial": 104, "dateTime": 1664555430474, "trialdata": {"rt": 816, "stimulus": "<p id='stroop-text' class='stroop-red'>GREEN</p>", "response": "r", "stimulus-type": "incongruent", "word": "green", "color": "red", "correct_response": "r", "trial_id": "stroop-trial-1-incongruent-2", "trial_type": "html-keyboard-response", "trial_index": 104, "time_elapsed": 279092, "internal_node_id": "0.0-6.0-9.0"}}, {"uniqueid": "w98012083:a73643660", "current_trial": 105, "dateTime": 1664555431718, "trialdata": {"rt": 737, "stimulus": "<p id='stroop-text' class='stroop-blue'>YELLOW</p>", "response": "b", "stimulus-type": "incongruent", "word": "yellow", "color": "blue", "correct_response": "b", "trial_id": "stroop-trial-1-incongruent-6", "trial_type": "html-keyboard-response", "trial_index": 105, "time_elapsed": 280336, "internal_node_id": "0.0-6.0-10.0"}}, {"uniqueid": "w98012083:a73643660", "current_trial": 106, "dateTime": 1664555432931, "trialdata": {"rt": 707, "stimulus": "<p id='stroop-text' class='stroop-yellow'>MONKEY</p>", "response": "y", "stimulus-type": "unrelated", "word": "MONKEY", "color": "yellow", "correct_response": "y", "trial_id": "stroop-trial-1-unrelated-17", "trial_type": "html-keyboard-response", "trial_index": 106, "time_elapsed": 281548, "internal_node_id": "0.0-6.0-11.0"}}, {"uniqueid": "w98012083:a73643660", "current_trial": 107, "dateTime": 1664555434153, "trialdata": {"rt": 716, "stimulus": "<p id='stroop-text' class='stroop-green'>GREEN</p>", "response": "g", "stimulus-type": "congruent", "word": "green", "color": "green", "correct_response": "g", "trial_id": "stroop-trial-1-congruent-17", "trial_type": "html-keyboard-response", "trial_index": 107, "time_elapsed": 282771, "internal_node_id": "0.0-6.0-12.0"}}, {"uniqueid": "w98012083:a73643660", "current_trial": 108, "dateTime": 1664555435391, "trialdata": {"rt": 733, "stimulus": "<p id='stroop-text' class='stroop-red'>RED</p>", "response": "r", "stimulus-type": "congruent", "word": "red", "color": "red", "correct_response": "r", "trial_id": "stroop-trial-1-congruent-25", "trial_type": "html-keyboard-response", "trial_index": 108, "time_elapsed": 284008, "internal_node_id": "0.0-6.0-13.0"}}, {"uniqueid": "w98012083:a73643660", "current_trial": 109, "dateTime": 1664555436576, "trialdata": {"rt": 679, "stimulus": "<p id='stroop-text' class='stroop-red'>YELLOW</p>", "response": "r", "stimulus-type": "incongruent", "word": "yellow", "color": "red", "correct_response": "r", "trial_id": "stroop-trial-1-incongruent-21", "trial_type": "html-keyboard-response", "trial_index": 109, "time_elapsed": 285194, "internal_node_id": "0.0-6.0-14.0"}}, {"uniqueid": "w98012083:a73643660", "current_trial": 110, "dateTime": 1664555438106, "trialdata": {"rt": 1023, "stimulus": "<p id='stroop-text' class='stroop-green'>BRAIN</p>", "response": "g", "stimulus-type": "unrelated", "word": "BRAIN", "color": "green", "correct_response": "g", "trial_id": "stroop-trial-1-unrelated-11", "trial_type": "html-keyboard-response", "trial_index": 110, "time_elapsed": 286723, "internal_node_id": "0.0-6.0-15.0"}}, {"uniqueid": "w98012083:a73643660", "current_trial": 111, "dateTime": 1664555439307, "trialdata": {"rt": 695, "stimulus": "<p id='stroop-text' class='stroop-yellow'>BRIDGE</p>", "response": "y", "stimulus-type": "unrelated", "word": "BRIDGE", "color": "yellow", "correct_response": "y", "trial_id": "stroop-trial-1-unrelated-18", "trial_type": "html-keyboard-response", "trial_index": 111, "time_elapsed": 287924, "internal_node_id": "0.0-6.0-16.0"}}, {"uniqueid": "w98012083:a73643660", "current_trial": 112, "dateTime": 1664555440633, "trialdata": {"rt": 820, "stimulus": "<p id='stroop-text' class='stroop-green'>SHIP</p>", "response": "g", "stimulus-type": "unrelated", "word": "SHIP", "color": "green", "correct_response": "g", "trial_id": "stroop-trial-1-unrelated-29", "trial_type": "html-keyboard-response", "trial_index": 112, "time_elapsed": 289250, "internal_node_id": "0.0-6.0-17.0"}}, {"uniqueid": "w98012083:a73643660", "current_trial": 113, "dateTime": 1664555441765, "trialdata": {"rt": 624, "stimulus": "<p id='stroop-text' class='stroop-yellow'>FORK</p>", "response": "y", "stimulus-type": "unrelated", "word": "FORK", "color": "yellow", "correct_response": "y", "trial_id": "stroop-trial-1-unrelated-12", "trial_type": "html-keyboard-response", "trial_index": 113, "time_elapsed": 290382, "internal_node_id": "0.0-6.0-18.0"}}, {"uniqueid": "w98012083:a73643660", "current_trial": 114, "dateTime": 1664555442770, "trialdata": {"rt": 499, "stimulus": "<p id='stroop-text' class='stroop-yellow'>GREEN</p>", "response": "y", "stimulus-type": "incongruent", "word": "green", "color": "yellow", "correct_response": "y", "trial_id": "stroop-trial-1-incongruent-7", "trial_type": "html-keyboard-response", "trial_index": 114, "time_elapsed": 291387, "internal_node_id": "0.0-6.0-19.0"}}, {"uniqueid": "w98012083:a73643660", "current_trial": 115, "dateTime": 1664555443903, "trialdata": {"rt": 628, "stimulus": "<p id='stroop-text' class='stroop-red'>RED</p>", "response": "r", "stimulus-type": "congruent", "word": "red", "color": "red", "correct_response": "r", "trial_id": "stroop-trial-1-congruent-30", "trial_type": "html-keyboard-response", "trial_index": 115, "time_elapsed": 292520, "internal_node_id": "0.0-6.0-20.0"}}, {"uniqueid": "w98012083:a73643660", "current_trial": 116, "dateTime": 1664555445218, "trialdata": {"rt": 809, "stimulus": "<p id='stroop-text' class='stroop-yellow'>RED</p>", "response": "y", "stimulus-type": "incongruent", "word": "red", "color": "yellow", "correct_response": "y", "trial_id": "stroop-trial-1-incongruent-11", "trial_type": "html-keyboard-response", "trial_index": 116, "time_elapsed": 293835, "internal_node_id": "0.0-6.0-21.0"}}, {"uniqueid": "w98012083:a73643660", "current_trial": 117, "dateTime": 1664555446400, "trialdata": {"rt": 676, "stimulus": "<p id='stroop-text' class='stroop-red'>BOTTLE</p>", "response": "r", "stimulus-type": "unrelated", "word": "BOTTLE", "color": "red", "correct_response": "r", "trial_id": "stroop-trial-1-unrelated-19", "trial_type": "html-keyboard-response", "trial_index": 117, "time_elapsed": 295017, "internal_node_id": "0.0-6.0-22.0"}}, {"uniqueid": "w98012083:a73643660", "current_trial": 118, "dateTime": 1664555447969, "trialdata": {"rt": 1063, "stimulus": "<p id='stroop-text' class='stroop-green'>STONE</p>", "response": "g", "stimulus-type": "unrelated", "word": "STONE", "color": "green", "correct_response": "g", "trial_id": "stroop-trial-1-unrelated-20", "trial_type": "html-keyboard-response", "trial_index": 118, "time_elapsed": 296586, "internal_node_id": "0.0-6.0-23.0"}}, {"uniqueid": "w98012083:a73643660", "current_trial": 119, "dateTime": 1664555449018, "trialdata": {"rt": 543, "stimulus": "<p id='stroop-text' class='stroop-green'>GREEN</p>", "response": "g", "stimulus-type": "congruent", "word": "green", "color": "green", "correct_response": "g", "trial_id": "stroop-trial-1-congruent-19", "trial_type": "html-keyboard-response", "trial_index": 119, "time_elapsed": 297635, "internal_node_id": "0.0-6.0-24.0"}}, {"uniqueid": "w98012083:a73643660", "current_trial": 120, "dateTime": 1664555450131, "trialdata": {"rt": 607, "stimulus": "<p id='stroop-text' class='stroop-yellow'>BRIDGE</p>", "response": "y", "stimulus-type": "unrelated", "word": "BRIDGE", "color": "yellow", "correct_response": "y", "trial_id": "stroop-trial-1-unrelated-2", "trial_type": "html-keyboard-response", "trial_index": 120, "time_elapsed": 298748, "internal_node_id": "0.0-6.0-25.0"}}, {"uniqueid": "w98012083:a73643660", "current_trial": 121, "dateTime": 1664555451192, "trialdata": {"rt": 555, "stimulus": "<p id='stroop-text' class='stroop-blue'>STONE</p>", "response": "b", "stimulus-type": "unrelated", "word": "STONE", "color": "blue", "correct_response": "b", "trial_id": "stroop-trial-1-unrelated-14", "trial_type": "html-keyboard-response", "trial_index": 121, "time_elapsed": 299809, "internal_node_id": "0.0-6.0-26.0"}}, {"uniqueid": "w98012083:a73643660", "current_trial": 122, "dateTime": 1664555452275, "trialdata": {"rt": 577, "stimulus": "<p id='stroop-text' class='stroop-green'>STONE</p>", "response": "g", "stimulus-type": "unrelated", "word": "STONE", "color": "green", "correct_response": "g", "trial_id": "stroop-trial-1-unrelated-27", "trial_type": "html-keyboard-response", "trial_index": 122, "time_elapsed": 300892, "internal_node_id": "0.0-6.0-27.0"}}, {"uniqueid": "w98012083:a73643660", "current_trial": 123, "dateTime": 1664555453386, "trialdata": {"rt": 605, "stimulus": "<p id='stroop-text' class='stroop-green'>BLUE</p>", "response": "g", "stimulus-type": "incongruent", "word": "blue", "color": "green", "correct_response": "g", "trial_id": "stroop-trial-1-incongruent-16", "trial_type": "html-keyboard-response", "trial_index": 123, "time_elapsed": 302004, "internal_node_id": "0.0-6.0-28.0"}}, {"uniqueid": "w98012083:a73643660", "current_trial": 124, "dateTime": 1664555454412, "trialdata": {"rt": 520, "stimulus": "<p id='stroop-text' class='stroop-red'>DOG</p>", "response": "r", "stimulus-type": "unrelated", "word": "DOG", "color": "red", "correct_response": "r", "trial_id": "stroop-trial-1-unrelated-9", "trial_type": "html-keyboard-response", "trial_index": 124, "time_elapsed": 303029, "internal_node_id": "0.0-6.0-29.0"}}, {"uniqueid": "w98012083:a73643660", "current_trial": 125, "dateTime": 1664555455612, "trialdata": {"rt": 694, "stimulus": "<p id='stroop-text' class='stroop-blue'>BRAIN</p>", "response": "b", "stimulus-type": "unrelated", "word": "BRAIN", "color": "blue", "correct_response": "b", "trial_id": "stroop-trial-1-unrelated-1", "trial_type": "html-keyboard-response", "trial_index": 125, "time_elapsed": 304229, "internal_node_id": "0.0-6.0-30.0"}}, {"uniqueid": "w98012083:a73643660", "current_trial": 126, "dateTime": 1664555456873, "trialdata": {"rt": 756, "stimulus": "<p id='stroop-text' class='stroop-blue'>YELLOW</p>", "response": "b", "stimulus-type": "incongruent", "word": "yellow", "color": "blue", "correct_response": "b", "trial_id": "stroop-trial-1-incongruent-8", "trial_type": "html-keyboard-response", "trial_index": 126, "time_elapsed": 305490, "internal_node_id": "0.0-6.0-31.0"}}, {"uniqueid": "w98012083:a73643660", "current_trial": 127, "dateTime": 1664555457966, "trialdata": {"rt": 586, "stimulus": "<p id='stroop-text' class='stroop-red'>RED</p>", "response": "r", "stimulus-type": "congruent", "word": "red", "color": "red", "correct_response": "r", "trial_id": "stroop-trial-1-congruent-20", "trial_type": "html-keyboard-response", "trial_index": 127, "time_elapsed": 306583, "internal_node_id": "0.0-6.0-32.0"}}, {"uniqueid": "w98012083:a73643660", "current_trial": 128, "dateTime": 1664555459128, "trialdata": {"rt": 656, "stimulus": "<p id='stroop-text' class='stroop-blue'>BLUE</p>", "response": "b", "stimulus-type": "congruent", "word": "blue", "color": "blue", "correct_response": "b", "trial_id": "stroop-trial-1-congruent-7", "trial_type": "html-keyboard-response", "trial_index": 128, "time_elapsed": 307745, "internal_node_id": "0.0-6.0-33.0"}}, {"uniqueid": "w98012083:a73643660", "current_trial": 129, "dateTime": 1664555460276, "trialdata": {"rt": 641, "stimulus": "<p id='stroop-text' class='stroop-blue'>YELLOW</p>", "response": "b", "stimulus-type": "incongruent", "word": "yellow", "color": "blue", "correct_response": "b", "trial_id": "stroop-trial-1-incongruent-22", "trial_type": "html-keyboard-response", "trial_index": 129, "time_elapsed": 308893, "internal_node_id": "0.0-6.0-34.0"}}, {"uniqueid": "w98012083:a73643660", "current_trial": 130, "dateTime": 1664555461389, "trialdata": {"rt": 607, "stimulus": "<p id='stroop-text' class='stroop-green'>DOG</p>", "response": "g", "stimulus-type": "unrelated", "word": "DOG", "color": "green", "correct_response": "g", "trial_id": "stroop-trial-1-unrelated-13", "trial_type": "html-keyboard-response", "trial_index": 130, "time_elapsed": 310006, "internal_node_id": "0.0-6.0-35.0"}}, {"uniqueid": "w98012083:a73643660", "current_trial": 131, "dateTime": 1664555462514, "trialdata": {"rt": 618, "stimulus": "<p id='stroop-text' class='stroop-green'>GREEN</p>", "response": "g", "stimulus-type": "congruent", "word": "green", "color": "green", "correct_response": "g", "trial_id": "stroop-trial-1-congruent-28", "trial_type": "html-keyboard-response", "trial_index": 131, "time_elapsed": 311131, "internal_node_id": "0.0-6.0-36.0"}}, {"uniqueid": "w98012083:a73643660", "current_trial": 132, "dateTime": 1664555463666, "trialdata": {"rt": 645, "stimulus": "<p id='stroop-text' class='stroop-blue'>SHIP</p>", "response": "b", "stimulus-type": "unrelated", "word": "SHIP", "color": "blue", "correct_response": "b", "trial_id": "stroop-trial-1-unrelated-24", "trial_type": "html-keyboard-response", "trial_index": 132, "time_elapsed": 312283, "internal_node_id": "0.0-6.0-37.0"}}, {"uniqueid": "w98012083:a73643660", "current_trial": 133, "dateTime": 1664555464740, "trialdata": {"rt": 567, "stimulus": "<p id='stroop-text' class='stroop-green'>CHAIR</p>", "response": "g", "stimulus-type": "unrelated", "word": "CHAIR", "color": "green", "correct_response": "g", "trial_id": "stroop-trial-1-unrelated-8", "trial_type": "html-keyboard-response", "trial_index": 133, "time_elapsed": 313357, "internal_node_id": "0.0-6.0-38.0"}}, {"uniqueid": "w98012083:a73643660", "current_trial": 134, "dateTime": 1664555465758, "trialdata": {"rt": 511, "stimulus": "<p id='stroop-text' class='stroop-blue'>BOTTLE</p>", "response": "b", "stimulus-type": "unrelated", "word": "BOTTLE", "color": "blue", "correct_response": "b", "trial_id": "stroop-trial-1-unrelated-21", "trial_type": "html-keyboard-response", "trial_index": 134, "time_elapsed": 314375, "internal_node_id": "0.0-6.0-39.0"}}, {"uniqueid": "w98012083:a73643660", "current_trial": 135, "dateTime": 1664555466918, "trialdata": {"rt": 654, "stimulus": "<p id='stroop-text' class='stroop-red'>BLUE</p>", "response": "r", "stimulus-type": "incongruent", "word": "blue", "color": "red", "correct_response": "r", "trial_id": "stroop-trial-1-incongruent-23", "trial_type": "html-keyboard-response", "trial_index": 135, "time_elapsed": 315535, "internal_node_id": "0.0-6.0-40.0"}}, {"uniqueid": "w98012083:a73643660", "current_trial": 136, "dateTime": 1664555468088, "trialdata": {"rt": 663, "stimulus": "<p id='stroop-text' class='stroop-red'>GREEN</p>", "response": "r", "stimulus-type": "incongruent", "word": "green", "color": "red", "correct_response": "r", "trial_id": "stroop-trial-1-incongruent-14", "trial_type": "html-keyboard-response", "trial_index": 136, "time_elapsed": 316705, "internal_node_id": "0.0-6.0-41.0"}}, {"uniqueid": "w98012083:a73643660", "current_trial": 137, "dateTime": 1664555469248, "trialdata": {"rt": 653, "stimulus": "<p id='stroop-text' class='stroop-red'>RED</p>", "response": "r", "stimulus-type": "congruent", "word": "red", "color": "red", "correct_response": "r", "trial_id": "stroop-trial-1-congruent-23", "trial_type": "html-keyboard-response", "trial_index": 137, "time_elapsed": 317865, "internal_node_id": "0.0-6.0-42.0"}}, {"uniqueid": "w98012083:a73643660", "current_trial": 138, "dateTime": 1664555470452, "trialdata": {"rt": 698, "stimulus": "<p id='stroop-text' class='stroop-green'>WINDOW</p>", "response": "g", "stimulus-type": "unrelated", "word": "WINDOW", "color": "green", "correct_response": "g", "trial_id": "stroop-trial-1-unrelated-6", "trial_type": "html-keyboard-response", "trial_index": 138, "time_elapsed": 319069, "internal_node_id": "0.0-6.0-43.0"}}, {"uniqueid": "w98012083:a73643660", "current_trial": 139, "dateTime": 1664555471542, "trialdata": {"rt": 582, "stimulus": "<p id='stroop-text' class='stroop-yellow'>YELLOW</p>", "response": "y", "stimulus-type": "congruent", "word": "yellow", "color": "yellow", "correct_response": "y", "trial_id": "stroop-trial-1-congruent-10", "trial_type": "html-keyboard-response", "trial_index": 139, "time_elapsed": 320159, "internal_node_id": "0.0-6.0-44.0"}}, {"uniqueid": "w98012083:a73643660", "current_trial": 140, "dateTime": 1664555472836, "trialdata": {"rt": 788, "stimulus": "<p id='stroop-text' class='stroop-blue'>GREEN</p>", "response": "b", "stimulus-type": "incongruent", "word": "green", "color": "blue", "correct_response": "b", "trial_id": "stroop-trial-1-incongruent-12", "trial_type": "html-keyboard-response", "trial_index": 140, "time_elapsed": 321454, "internal_node_id": "0.0-6.0-45.0"}}, {"uniqueid": "w98012083:a73643660", "current_trial": 141, "dateTime": 1664555473927, "trialdata": {"rt": 584, "stimulus": "<p id='stroop-text' class='stroop-red'>RED</p>", "response": "r", "stimulus-type": "congruent", "word": "red", "color": "red", "correct_response": "r", "trial_id": "stroop-trial-1-congruent-2", "trial_type": "html-keyboard-response", "trial_index": 141, "time_elapsed": 322544, "internal_node_id": "0.0-6.0-46.0"}}, {"uniqueid": "w98012083:a73643660", "current_trial": 142, "dateTime": 1664555475116, "trialdata": {"rt": 682, "stimulus": "<p id='stroop-text' class='stroop-yellow'>YELLOW</p>", "response": "y", "stimulus-type": "congruent", "word": "yellow", "color": "yellow", "correct_response": "y", "trial_id": "stroop-trial-1-congruent-18", "trial_type": "html-keyboard-response", "trial_index": 142, "time_elapsed": 323733, "internal_node_id": "0.0-6.0-47.0"}}, {"uniqueid": "w98012083:a73643660", "current_trial": 143, "dateTime": 1664555478772, "trialdata": {"rt": 3150, "stimulus": "<p id='stroop-text' class='stroop-green'>BLUE</p>", "response": "g", "stimulus-type": "incongruent", "word": "blue", "color": "green", "correct_response": "g", "trial_id": "stroop-trial-1-incongruent-5", "trial_type": "html-keyboard-response", "trial_index": 143, "time_elapsed": 327390, "internal_node_id": "0.0-6.0-48.0"}}, {"uniqueid": "w98012083:a73643660", "current_trial": 144, "dateTime": 1664555480277, "trialdata": {"rt": 998, "stimulus": "<p id='stroop-text' class='stroop-red'>BLUE</p>", "response": "r", "stimulus-type": "incongruent", "word": "blue", "color": "red", "correct_response": "r", "trial_id": "stroop-trial-1-incongruent-13", "trial_type": "html-keyboard-response", "trial_index": 144, "time_elapsed": 328895, "internal_node_id": "0.0-6.0-49.0"}}, {"uniqueid": "w98012083:a73643660", "current_trial": 145, "dateTime": 1664555481421, "trialdata": {"rt": 637, "stimulus": "<p id='stroop-text' class='stroop-blue'>BLUE</p>", "response": "b", "stimulus-type": "congruent", "word": "blue", "color": "blue", "correct_response": "b", "trial_id": "stroop-trial-1-congruent-9", "trial_type": "html-keyboard-response", "trial_index": 145, "time_elapsed": 330038, "internal_node_id": "0.0-6.0-50.0"}}, {"uniqueid": "w98012083:a73643660", "current_trial": 146, "dateTime": 1664555482472, "trialdata": {"rt": 544, "stimulus": "<p id='stroop-text' class='stroop-green'>GREEN</p>", "response": "g", "stimulus-type": "congruent", "word": "green", "color": "green", "correct_response": "g", "trial_id": "stroop-trial-1-congruent-11", "trial_type": "html-keyboard-response", "trial_index": 146, "time_elapsed": 331089, "internal_node_id": "0.0-6.0-51.0"}}, {"uniqueid": "w98012083:a73643660", "current_trial": 147, "dateTime": 1664555484823, "trialdata": {"rt": 1844, "stimulus": "<p id='stroop-text' class='stroop-yellow'>BOAT</p>", "response": "y", "stimulus-type": "unrelated", "word": "BOAT", "color": "yellow", "correct_response": "y", "trial_id": "stroop-trial-1-unrelated-3", "trial_type": "html-keyboard-response", "trial_index": 147, "time_elapsed": 333440, "internal_node_id": "0.0-6.0-52.0"}}, {"uniqueid": "w98012083:a73643660", "current_trial": 148, "dateTime": 1664555485808, "trialdata": {"rt": 479, "stimulus": "<p id='stroop-text' class='stroop-red'>RED</p>", "response": "r", "stimulus-type": "congruent", "word": "red", "color": "red", "correct_response": "r", "trial_id": "stroop-trial-1-congruent-5", "trial_type": "html-keyboard-response", "trial_index": 148, "time_elapsed": 334425, "internal_node_id": "0.0-6.0-53.0"}}, {"uniqueid": "w98012083:a73643660", "current_trial": 149, "dateTime": 1664555486815, "trialdata": {"rt": 500, "stimulus": "<p id='stroop-text' class='stroop-red'>RED</p>", "response": "r", "stimulus-type": "congruent", "word": "red", "color": "red", "correct_response": "r", "trial_id": "stroop-trial-1-congruent-27", "trial_type": "html-keyboard-response", "trial_index": 149, "time_elapsed": 335432, "internal_node_id": "0.0-6.0-54.0"}}, {"uniqueid": "w98012083:a73643660", "current_trial": 150, "dateTime": 1664555487765, "trialdata": {"rt": 443, "stimulus": "<p id='stroop-text' class='stroop-red'>RED</p>", "response": "r", "stimulus-type": "congruent", "word": "red", "color": "red", "correct_response": "r", "trial_id": "stroop-trial-1-congruent-8", "trial_type": "html-keyboard-response", "trial_index": 150, "time_elapsed": 336382, "internal_node_id": "0.0-6.0-55.0"}}, {"uniqueid": "w98012083:a73643660", "current_trial": 151, "dateTime": 1664555489153, "trialdata": {"rt": 881, "stimulus": "<p id='stroop-text' class='stroop-blue'>FORK</p>", "response": "b", "stimulus-type": "unrelated", "word": "FORK", "color": "blue", "correct_response": "b", "trial_id": "stroop-trial-1-unrelated-10", "trial_type": "html-keyboard-response", "trial_index": 151, "time_elapsed": 337770, "internal_node_id": "0.0-6.0-56.0"}}, {"uniqueid": "w98012083:a73643660", "current_trial": 152, "dateTime": 1664555490641, "trialdata": {"rt": 982, "stimulus": "<p id='stroop-text' class='stroop-yellow'>GREEN</p>", "response": "y", "stimulus-type": "incongruent", "word": "green", "color": "yellow", "correct_response": "y", "trial_id": "stroop-trial-1-incongruent-3", "trial_type": "html-keyboard-response", "trial_index": 152, "time_elapsed": 339258, "internal_node_id": "0.0-6.0-57.0"}}, {"uniqueid": "w98012083:a73643660", "current_trial": 153, "dateTime": 1664555491726, "trialdata": {"rt": 579, "stimulus": "<p id='stroop-text' class='stroop-yellow'>FORK</p>", "response": "y", "stimulus-type": "unrelated", "word": "FORK", "color": "yellow", "correct_response": "y", "trial_id": "stroop-trial-1-unrelated-4", "trial_type": "html-keyboard-response", "trial_index": 153, "time_elapsed": 340343, "internal_node_id": "0.0-6.0-58.0"}}, {"uniqueid": "w98012083:a73643660", "current_trial": 154, "dateTime": 1664555492789, "trialdata": {"rt": 555, "stimulus": "<p id='stroop-text' class='stroop-green'>GREEN</p>", "response": "g", "stimulus-type": "congruent", "word": "green", "color": "green", "correct_response": "g", "trial_id": "stroop-trial-1-congruent-15", "trial_type": "html-keyboard-response", "trial_index": 154, "time_elapsed": 341406, "internal_node_id": "0.0-6.0-59.0"}}, {"uniqueid": "w98012083:a73643660", "current_trial": 155, "dateTime": 1664555493894, "trialdata": {"rt": 598, "stimulus": "<p id='stroop-text' class='stroop-yellow'>GREEN</p>", "response": "y", "stimulus-type": "incongruent", "word": "green", "color": "yellow", "correct_response": "y", "trial_id": "stroop-trial-1-incongruent-1", "trial_type": "html-keyboard-response", "trial_index": 155, "time_elapsed": 342511, "internal_node_id": "0.0-6.0-60.0"}}, {"uniqueid": "w98012083:a73643660", "current_trial": 156, "dateTime": 1664555494860, "trialdata": {"rt": 459, "stimulus": "<p id='stroop-text' class='stroop-green'>GREEN</p>", "response": "g", "stimulus-type": "congruent", "word": "green", "color": "green", "correct_response": "g", "trial_id": "stroop-trial-1-congruent-16", "trial_type": "html-keyboard-response", "trial_index": 156, "time_elapsed": 343477, "internal_node_id": "0.0-6.0-61.0"}}, {"uniqueid": "w98012083:a73643660", "current_trial": 157, "dateTime": 1664555495860, "trialdata": {"rt": 493, "stimulus": "<p id='stroop-text' class='stroop-green'>GREEN</p>", "response": "g", "stimulus-type": "congruent", "word": "green", "color": "green", "correct_response": "g", "trial_id": "stroop-trial-1-congruent-14", "trial_type": "html-keyboard-response", "trial_index": 157, "time_elapsed": 344477, "internal_node_id": "0.0-6.0-62.0"}}, {"uniqueid": "w98012083:a73643660", "current_trial": 158, "dateTime": 1664555497425, "trialdata": {"rt": 1059, "stimulus": "<p id='stroop-text' class='stroop-yellow'>RED</p>", "response": "y", "stimulus-type": "incongruent", "word": "red", "color": "yellow", "correct_response": "y", "trial_id": "stroop-trial-1-incongruent-15", "trial_type": "html-keyboard-response", "trial_index": 158, "time_elapsed": 346042, "internal_node_id": "0.0-6.0-63.0"}}, {"uniqueid": "w98012083:a73643660", "current_trial": 159, "dateTime": 1664555498587, "trialdata": {"rt": 656, "stimulus": "<p id='stroop-text' class='stroop-red'>GREEN</p>", "response": "r", "stimulus-type": "incongruent", "word": "green", "color": "red", "correct_response": "r", "trial_id": "stroop-trial-1-incongruent-24", "trial_type": "html-keyboard-response", "trial_index": 159, "time_elapsed": 347204, "internal_node_id": "0.0-6.0-64.0"}}, {"uniqueid": "w98012083:a73643660", "current_trial": 160, "dateTime": 1664555499714, "trialdata": {"rt": 621, "stimulus": "<p id='stroop-text' class='stroop-green'>RED</p>", "response": "g", "stimulus-type": "incongruent", "word": "red", "color": "green", "correct_response": "g", "trial_id": "stroop-trial-1-incongruent-29", "trial_type": "html-keyboard-response", "trial_index": 160, "time_elapsed": 348331, "internal_node_id": "0.0-6.0-65.0"}}, {"uniqueid": "w98012083:a73643660", "current_trial": 161, "dateTime": 1664555500687, "trialdata": {"rt": 468, "stimulus": "<p id='stroop-text' class='stroop-green'>GREEN</p>", "response": "g", "stimulus-type": "congruent", "word": "green", "color": "green", "correct_response": "g", "trial_id": "stroop-trial-1-congruent-24", "trial_type": "html-keyboard-response", "trial_index": 161, "time_elapsed": 349304, "internal_node_id": "0.0-6.0-66.0"}}, {"uniqueid": "w98012083:a73643660", "current_trial": 162, "dateTime": 1664555501837, "trialdata": {"rt": 644, "stimulus": "<p id='stroop-text' class='stroop-green'>YELLOW</p>", "response": "y", "stimulus-type": "incongruent", "word": "yellow", "color": "green", "correct_response": "g", "trial_id": "stroop-trial-1-incongruent-17", "trial_type": "html-keyboard-response", "trial_index": 162, "time_elapsed": 350454, "internal_node_id": "0.0-6.0-67.0"}}, {"uniqueid": "w98012083:a73643660", "current_trial": 163, "dateTime": 1664555503318, "trialdata": {"rt": 974, "stimulus": "<p id='stroop-text' class='stroop-red'>FORK</p>", "response": "r", "stimulus-type": "unrelated", "word": "FORK", "color": "red", "correct_response": "r", "trial_id": "stroop-trial-1-unrelated-28", "trial_type": "html-keyboard-response", "trial_index": 163, "time_elapsed": 351935, "internal_node_id": "0.0-6.0-68.0"}}, {"uniqueid": "w98012083:a73643660", "current_trial": 164, "dateTime": 1664555504683, "trialdata": {"rt": 858, "stimulus": "<p id='stroop-text' class='stroop-red'>BLUE</p>", "response": "b", "stimulus-type": "incongruent", "word": "blue", "color": "red", "correct_response": "r", "trial_id": "stroop-trial-1-incongruent-19", "trial_type": "html-keyboard-response", "trial_index": 164, "time_elapsed": 353300, "internal_node_id": "0.0-6.0-69.0"}}, {"uniqueid": "w98012083:a73643660", "current_trial": 165, "dateTime": 1664555506416, "trialdata": {"rt": 1226, "stimulus": "<p id='stroop-text' class='stroop-blue'>RED</p>", "response": "b", "stimulus-type": "incongruent", "word": "red", "color": "blue", "correct_response": "b", "trial_id": "stroop-trial-1-incongruent-10", "trial_type": "html-keyboard-response", "trial_index": 165, "time_elapsed": 355033, "internal_node_id": "0.0-6.0-70.0"}}, {"uniqueid": "w98012083:a73643660", "current_trial": 166, "dateTime": 1664555507773, "trialdata": {"rt": 849, "stimulus": "<p id='stroop-text' class='stroop-yellow'>WINDOW</p>", "response": "y", "stimulus-type": "unrelated", "word": "WINDOW", "color": "yellow", "correct_response": "y", "trial_id": "stroop-trial-1-unrelated-15", "trial_type": "html-keyboard-response", "trial_index": 166, "time_elapsed": 356390, "internal_node_id": "0.0-6.0-71.0"}}, {"uniqueid": "w98012083:a73643660", "current_trial": 167, "dateTime": 1664555509227, "trialdata": {"rt": 948, "stimulus": "<p id='stroop-text' class='stroop-green'>RED</p>", "response": "g", "stimulus-type": "incongruent", "word": "red", "color": "green", "correct_response": "g", "trial_id": "stroop-trial-1-incongruent-25", "trial_type": "html-keyboard-response", "trial_index": 167, "time_elapsed": 357845, "internal_node_id": "0.0-6.0-72.0"}}, {"uniqueid": "w98012083:a73643660", "current_trial": 168, "dateTime": 1664555510294, "trialdata": {"rt": 560, "stimulus": "<p id='stroop-text' class='stroop-red'>RED</p>", "response": "r", "stimulus-type": "congruent", "word": "red", "color": "red", "correct_response": "r", "trial_id": "stroop-trial-1-congruent-3", "trial_type": "html-keyboard-response", "trial_index": 168, "time_elapsed": 358911, "internal_node_id": "0.0-6.0-73.0"}}, {"uniqueid": "w98012083:a73643660", "current_trial": 169, "dateTime": 1664555511274, "trialdata": {"rt": 474, "stimulus": "<p id='stroop-text' class='stroop-red'>RED</p>", "response": "r", "stimulus-type": "congruent", "word": "red", "color": "red", "correct_response": "r", "trial_id": "stroop-trial-1-congruent-26", "trial_type": "html-keyboard-response", "trial_index": 169, "time_elapsed": 359891, "internal_node_id": "0.0-6.0-74.0"}}, {"uniqueid": "w98012083:a73643660", "current_trial": 170, "dateTime": 1664555512643, "trialdata": {"rt": 862, "stimulus": "<p id='stroop-text' class='stroop-blue'>YELLOW</p>", "response": "b", "stimulus-type": "incongruent", "word": "yellow", "color": "blue", "correct_response": "b", "trial_id": "stroop-trial-1-incongruent-28", "trial_type": "html-keyboard-response", "trial_index": 170, "time_elapsed": 361261, "internal_node_id": "0.0-6.0-75.0"}}, {"uniqueid": "w98012083:a73643660", "current_trial": 171, "dateTime": 1664555513805, "trialdata": {"rt": 655, "stimulus": "<p id='stroop-text' class='stroop-blue'>BLUE</p>", "response": "b", "stimulus-type": "congruent", "word": "blue", "color": "blue", "correct_response": "b", "trial_id": "stroop-trial-1-congruent-6", "trial_type": "html-keyboard-response", "trial_index": 171, "time_elapsed": 362423, "internal_node_id": "0.0-6.0-76.0"}}, {"uniqueid": "w98012083:a73643660", "current_trial": 172, "dateTime": 1664555515524, "trialdata": {"rt": 1212, "stimulus": "<p id='stroop-text' class='stroop-yellow'>BOTTLE</p>", "response": "y", "stimulus-type": "unrelated", "word": "BOTTLE", "color": "yellow", "correct_response": "y", "trial_id": "stroop-trial-1-unrelated-22", "trial_type": "html-keyboard-response", "trial_index": 172, "time_elapsed": 364141, "internal_node_id": "0.0-6.0-77.0"}}, {"uniqueid": "w98012083:a73643660", "current_trial": 173, "dateTime": 1664555516766, "trialdata": {"rt": 736, "stimulus": "<p id='stroop-text' class='stroop-red'>RED</p>", "response": "r", "stimulus-type": "congruent", "word": "red", "color": "red", "correct_response": "r", "trial_id": "stroop-trial-1-congruent-1", "trial_type": "html-keyboard-response", "trial_index": 173, "time_elapsed": 365383, "internal_node_id": "0.0-6.0-78.0"}}, {"uniqueid": "w98012083:a73643660", "current_trial": 174, "dateTime": 1664555518101, "trialdata": {"rt": 828, "stimulus": "<p id='stroop-text' class='stroop-blue'>BLUE</p>", "response": "b", "stimulus-type": "congruent", "word": "blue", "color": "blue", "correct_response": "b", "trial_id": "stroop-trial-1-congruent-29", "trial_type": "html-keyboard-response", "trial_index": 174, "time_elapsed": 366718, "internal_node_id": "0.0-6.0-79.0"}}, {"uniqueid": "w98012083:a73643660", "current_trial": 175, "dateTime": 1664555519234, "trialdata": {"rt": 627, "stimulus": "<p id='stroop-text' class='stroop-yellow'>YELLOW</p>", "response": "y", "stimulus-type": "congruent", "word": "yellow", "color": "yellow", "correct_response": "y", "trial_id": "stroop-trial-1-congruent-22", "trial_type": "html-keyboard-response", "trial_index": 175, "time_elapsed": 367852, "internal_node_id": "0.0-6.0-80.0"}}, {"uniqueid": "w98012083:a73643660", "current_trial": 176, "dateTime": 1664555520671, "trialdata": {"rt": 932, "stimulus": "<p id='stroop-text' class='stroop-green'>CHAIR</p>", "response": "g", "stimulus-type": "unrelated", "word": "CHAIR", "color": "green", "correct_response": "g", "trial_id": "stroop-trial-1-unrelated-25", "trial_type": "html-keyboard-response", "trial_index": 176, "time_elapsed": 369288, "internal_node_id": "0.0-6.0-81.0"}}, {"uniqueid": "w98012083:a73643660", "current_trial": 177, "dateTime": 1664555522261, "trialdata": {"rt": 1084, "stimulus": "<p id='stroop-text' class='stroop-yellow'>BLUE</p>", "response": "y", "stimulus-type": "incongruent", "word": "blue", "color": "yellow", "correct_response": "y", "trial_id": "stroop-trial-1-incongruent-27", "trial_type": "html-keyboard-response", "trial_index": 177, "time_elapsed": 370878, "internal_node_id": "0.0-6.0-82.0"}}, {"uniqueid": "w98012083:a73643660", "current_trial": 178, "dateTime": 1664555523386, "trialdata": {"rt": 619, "stimulus": "<p id='stroop-text' class='stroop-yellow'>YELLOW</p>", "response": "y", "stimulus-type": "congruent", "word": "yellow", "color": "yellow", "correct_response": "y", "trial_id": "stroop-trial-1-congruent-21", "trial_type": "html-keyboard-response", "trial_index": 178, "time_elapsed": 372003, "internal_node_id": "0.0-6.0-83.0"}}, {"uniqueid": "w98012083:a73643660", "current_trial": 179, "dateTime": 1664555524635, "trialdata": {"rt": 744, "stimulus": "<p id='stroop-text' class='stroop-red'>DOG</p>", "response": "r", "stimulus-type": "unrelated", "word": "DOG", "color": "red", "correct_response": "r", "trial_id": "stroop-trial-1-unrelated-30", "trial_type": "html-keyboard-response", "trial_index": 179, "time_elapsed": 373253, "internal_node_id": "0.0-6.0-84.0"}}, {"uniqueid": "w98012083:a73643660", "current_trial": 180, "dateTime": 1664555526775, "trialdata": {"rt": 1633, "stimulus": "<p id='stroop-text' class='stroop-red'>YELLOW</p>", "response": "r", "stimulus-type": "incongruent", "word": "yellow", "color": "red", "correct_response": "r", "trial_id": "stroop-trial-1-incongruent-30", "trial_type": "html-keyboard-response", "trial_index": 180, "time_elapsed": 375392, "internal_node_id": "0.0-6.0-85.0"}}, {"uniqueid": "w98012083:a73643660", "current_trial": 181, "dateTime": 1664555527938, "trialdata": {"rt": 659, "stimulus": "<p id='stroop-text' class='stroop-green'>FORK</p>", "response": "g", "stimulus-type": "unrelated", "word": "FORK", "color": "green", "correct_response": "g", "trial_id": "stroop-trial-1-unrelated-26", "trial_type": "html-keyboard-response", "trial_index": 181, "time_elapsed": 376556, "internal_node_id": "0.0-6.0-86.0"}}, {"uniqueid": "w98012083:a73643660", "current_trial": 182, "dateTime": 1664555529150, "trialdata": {"rt": 707, "stimulus": "<p id='stroop-text' class='stroop-blue'>BRAIN</p>", "response": "b", "stimulus-type": "unrelated", "word": "BRAIN", "color": "blue", "correct_response": "b", "trial_id": "stroop-trial-1-unrelated-5", "trial_type": "html-keyboard-response", "trial_index": 182, "time_elapsed": 377768, "internal_node_id": "0.0-6.0-87.0"}}, {"uniqueid": "w98012083:a73643660", "current_trial": 183, "dateTime": 1664555530899, "trialdata": {"rt": 1242, "stimulus": "<p id='stroop-text' class='stroop-yellow'>BLUE</p>", "response": "y", "stimulus-type": "incongruent", "word": "blue", "color": "yellow", "correct_response": "y", "trial_id": "stroop-trial-1-incongruent-4", "trial_type": "html-keyboard-response", "trial_index": 183, "time_elapsed": 379517, "internal_node_id": "0.0-6.0-88.0"}}, {"uniqueid": "w98012083:a73643660", "current_trial": 184, "dateTime": 1664555532325, "trialdata": {"rt": 920, "stimulus": "<p id='stroop-text' class='stroop-green'>YELLOW</p>", "response": "g", "stimulus-type": "incongruent", "word": "yellow", "color": "green", "correct_response": "g", "trial_id": "stroop-trial-1-incongruent-26", "trial_type": "html-keyboard-response", "trial_index": 184, "time_elapsed": 380943, "internal_node_id": "0.0-6.0-89.0"}}, {"uniqueid": "w98012083:a73643660", "current_trial": 185, "dateTime": 1664555635233, "trialdata": {"rt": 102395, "stimulus": "  <h1> End of block! </h1>\n\n  You have reached the end of the block 2/5. If you need a short break, feel free to take one now before moving on.\n\n  <br><br>\n  In the next block, you will complete another 90 rounds of this game.\n\n  <br><br>\n  <div style='text-align: center;'>Press <code>space</code> to begin.</div>\n  <br><br>\n<div style='text-align: center;'>(If the experiment doesn't continue, try clicking on the text and then pressing <code>space</code>.)</div>", "response": " ", "trial_id": "stroop_1_ready_3", "trial_type": "html-keyboard-response", "trial_index": 185, "time_elapsed": 483850, "internal_node_id": "0.0-7.0"}}, {"uniqueid": "w98012083:a73643660", "current_trial": 186, "dateTime": 1664555636265, "trialdata": {"rt": 1025, "stimulus": "<p id='stroop-text' class='stroop-red'>BLUE</p>", "response": "r", "stimulus-type": "incongruent", "word": "blue", "color": "red", "correct_response": "r", "trial_id": "stroop-trial-1-incongruent-3", "trial_type": "html-keyboard-response", "trial_index": 186, "time_elapsed": 484882, "internal_node_id": "0.0-8.0-0.0"}}, {"uniqueid": "w98012083:a73643660", "current_trial": 187, "dateTime": 1664555637536, "trialdata": {"rt": 763, "stimulus": "<p id='stroop-text' class='stroop-blue'>GREEN</p>", "response": "b", "stimulus-type": "incongruent", "word": "green", "color": "blue", "correct_response": "b", "trial_id": "stroop-trial-1-incongruent-29", "trial_type": "html-keyboard-response", "trial_index": 187, "time_elapsed": 486153, "internal_node_id": "0.0-8.0-1.0"}}, {"uniqueid": "w98012083:a73643660", "current_trial": 188, "dateTime": 1664555638728, "trialdata": {"rt": 685, "stimulus": "<p id='stroop-text' class='stroop-green'>GREEN</p>", "response": "g", "stimulus-type": "congruent", "word": "green", "color": "green", "correct_response": "g", "trial_id": "stroop-trial-1-congruent-23", "trial_type": "html-keyboard-response", "trial_index": 188, "time_elapsed": 487346, "internal_node_id": "0.0-8.0-2.0"}}, {"uniqueid": "w98012083:a73643660", "current_trial": 189, "dateTime": 1664555639843, "trialdata": {"rt": 608, "stimulus": "<p id='stroop-text' class='stroop-green'>FORK</p>", "response": "g", "stimulus-type": "unrelated", "word": "FORK", "color": "green", "correct_response": "g", "trial_id": "stroop-trial-1-unrelated-9", "trial_type": "html-keyboard-response", "trial_index": 189, "time_elapsed": 488461, "internal_node_id": "0.0-8.0-3.0"}}, {"uniqueid": "w98012083:a73643660", "current_trial": 190, "dateTime": 1664555640951, "trialdata": {"rt": 601, "stimulus": "<p id='stroop-text' class='stroop-red'>RED</p>", "response": "r", "stimulus-type": "congruent", "word": "red", "color": "red", "correct_response": "r", "trial_id": "stroop-trial-1-congruent-8", "trial_type": "html-keyboard-response", "trial_index": 190, "time_elapsed": 489568, "internal_node_id": "0.0-8.0-4.0"}}, {"uniqueid": "w98012083:a73643660", "current_trial": 191, "dateTime": 1664555642589, "trialdata": {"rt": 1134, "stimulus": "<p id='stroop-text' class='stroop-green'>SHIP</p>", "response": "g", "stimulus-type": "unrelated", "word": "SHIP", "color": "green", "correct_response": "g", "trial_id": "stroop-trial-1-unrelated-2", "trial_type": "html-keyboard-response", "trial_index": 191, "time_elapsed": 491207, "internal_node_id": "0.0-8.0-5.0"}}, {"uniqueid": "w98012083:a73643660", "current_trial": 192, "dateTime": 1664555643688, "trialdata": {"rt": 592, "stimulus": "<p id='stroop-text' class='stroop-green'>STONE</p>", "response": "g", "stimulus-type": "unrelated", "word": "STONE", "color": "green", "correct_response": "g", "trial_id": "stroop-trial-1-unrelated-29", "trial_type": "html-keyboard-response", "trial_index": 192, "time_elapsed": 492305, "internal_node_id": "0.0-8.0-6.0"}}, {"uniqueid": "w98012083:a73643660", "current_trial": 193, "dateTime": 1664555644741, "trialdata": {"rt": 545, "stimulus": "<p id='stroop-text' class='stroop-red'>CHAIR</p>", "response": "r", "stimulus-type": "unrelated", "word": "CHAIR", "color": "red", "correct_response": "r", "trial_id": "stroop-trial-1-unrelated-22", "trial_type": "html-keyboard-response", "trial_index": 193, "time_elapsed": 493358, "internal_node_id": "0.0-8.0-7.0"}}, {"uniqueid": "w98012083:a73643660", "current_trial": 194, "dateTime": 1664555645853, "trialdata": {"rt": 605, "stimulus": "<p id='stroop-text' class='stroop-green'>GREEN</p>", "response": "g", "stimulus-type": "congruent", "word": "green", "color": "green", "correct_response": "g", "trial_id": "stroop-trial-1-congruent-30", "trial_type": "html-keyboard-response", "trial_index": 194, "time_elapsed": 494470, "internal_node_id": "0.0-8.0-8.0"}}, {"uniqueid": "w98012083:a73643660", "current_trial": 195, "dateTime": 1664555647004, "trialdata": {"rt": 643, "stimulus": "<p id='stroop-text' class='stroop-blue'>BLUE</p>", "response": "b", "stimulus-type": "congruent", "word": "blue", "color": "blue", "correct_response": "b", "trial_id": "stroop-trial-1-congruent-22", "trial_type": "html-keyboard-response", "trial_index": 195, "time_elapsed": 495621, "internal_node_id": "0.0-8.0-9.0"}}, {"uniqueid": "w98012083:a73643660", "current_trial": 196, "dateTime": 1664555648009, "trialdata": {"rt": 498, "stimulus": "<p id='stroop-text' class='stroop-green'>SHIP</p>", "response": "g", "stimulus-type": "unrelated", "word": "SHIP", "color": "green", "correct_response": "g", "trial_id": "stroop-trial-1-unrelated-30", "trial_type": "html-keyboard-response", "trial_index": 196, "time_elapsed": 496626, "internal_node_id": "0.0-8.0-10.0"}}, {"uniqueid": "w98012083:a73643660", "current_trial": 197, "dateTime": 1664555649891, "trialdata": {"rt": 1376, "stimulus": "<p id='stroop-text' class='stroop-yellow'>YELLOW</p>", "response": "y", "stimulus-type": "congruent", "word": "yellow", "color": "yellow", "correct_response": "y", "trial_id": "stroop-trial-1-congruent-12", "trial_type": "html-keyboard-response", "trial_index": 197, "time_elapsed": 498508, "internal_node_id": "0.0-8.0-11.0"}}, {"uniqueid": "w98012083:a73643660", "current_trial": 198, "dateTime": 1664555651035, "trialdata": {"rt": 637, "stimulus": "<p id='stroop-text' class='stroop-yellow'>YELLOW</p>", "response": "y", "stimulus-type": "congruent", "word": "yellow", "color": "yellow", "correct_response": "y", "trial_id": "stroop-trial-1-congruent-25", "trial_type": "html-keyboard-response", "trial_index": 198, "time_elapsed": 499652, "internal_node_id": "0.0-8.0-12.0"}}, {"uniqueid": "w98012083:a73643660", "current_trial": 199, "dateTime": 1664555652226, "trialdata": {"rt": 685, "stimulus": "<p id='stroop-text' class='stroop-red'>MONKEY</p>", "response": "r", "stimulus-type": "unrelated", "word": "MONKEY", "color": "red", "correct_response": "r", "trial_id": "stroop-trial-1-unrelated-5", "trial_type": "html-keyboard-response", "trial_index": 199, "time_elapsed": 500844, "internal_node_id": "0.0-8.0-13.0"}}, {"uniqueid": "w98012083:a73643660", "current_trial": 200, "dateTime": 1664555653300, "trialdata": {"rt": 567, "stimulus": "<p id='stroop-text' class='stroop-red'>RED</p>", "response": "r", "stimulus-type": "congruent", "word": "red", "color": "red", "correct_response": "r", "trial_id": "stroop-trial-1-congruent-7", "trial_type": "html-keyboard-response", "trial_index": 200, "time_elapsed": 501918, "internal_node_id": "0.0-8.0-14.0"}}, {"uniqueid": "w98012083:a73643660", "current_trial": 201, "dateTime": 1664555654602, "trialdata": {"rt": 794, "stimulus": "<p id='stroop-text' class='stroop-blue'>GREEN</p>", "response": "b", "stimulus-type": "incongruent", "word": "green", "color": "blue", "correct_response": "b", "trial_id": "stroop-trial-1-incongruent-21", "trial_type": "html-keyboard-response", "trial_index": 201, "time_elapsed": 503219, "internal_node_id": "0.0-8.0-15.0"}}, {"uniqueid": "w98012083:a73643660", "current_trial": 202, "dateTime": 1664555655805, "trialdata": {"rt": 696, "stimulus": "<p id='stroop-text' class='stroop-yellow'>STONE</p>", "response": "y", "stimulus-type": "unrelated", "word": "STONE", "color": "yellow", "correct_response": "y", "trial_id": "stroop-trial-1-unrelated-24", "trial_type": "html-keyboard-response", "trial_index": 202, "time_elapsed": 504423, "internal_node_id": "0.0-8.0-16.0"}}, {"uniqueid": "w98012083:a73643660", "current_trial": 203, "dateTime": 1664555656867, "trialdata": {"rt": 554, "stimulus": "<p id='stroop-text' class='stroop-yellow'>RED</p>", "response": "y", "stimulus-type": "incongruent", "word": "red", "color": "yellow", "correct_response": "y", "trial_id": "stroop-trial-1-incongruent-1", "trial_type": "html-keyboard-response", "trial_index": 203, "time_elapsed": 505484, "internal_node_id": "0.0-8.0-17.0"}}, {"uniqueid": "w98012083:a73643660", "current_trial": 204, "dateTime": 1664555658045, "trialdata": {"rt": 671, "stimulus": "<p id='stroop-text' class='stroop-red'>BLUE</p>", "response": "r", "stimulus-type": "incongruent", "word": "blue", "color": "red", "correct_response": "r", "trial_id": "stroop-trial-1-incongruent-6", "trial_type": "html-keyboard-response", "trial_index": 204, "time_elapsed": 506663, "internal_node_id": "0.0-8.0-18.0"}}, {"uniqueid": "w98012083:a73643660", "current_trial": 205, "dateTime": 1664555659221, "trialdata": {"rt": 669, "stimulus": "<p id='stroop-text' class='stroop-yellow'>RED</p>", "response": "y", "stimulus-type": "incongruent", "word": "red", "color": "yellow", "correct_response": "y", "trial_id": "stroop-trial-1-incongruent-14", "trial_type": "html-keyboard-response", "trial_index": 205, "time_elapsed": 507839, "internal_node_id": "0.0-8.0-19.0"}}, {"uniqueid": "w98012083:a73643660", "current_trial": 206, "dateTime": 1664555660674, "trialdata": {"rt": 945, "stimulus": "<p id='stroop-text' class='stroop-blue'>RED</p>", "response": "b", "stimulus-type": "incongruent", "word": "red", "color": "blue", "correct_response": "b", "trial_id": "stroop-trial-1-incongruent-23", "trial_type": "html-keyboard-response", "trial_index": 206, "time_elapsed": 509291, "internal_node_id": "0.0-8.0-20.0"}}, {"uniqueid": "w98012083:a73643660", "current_trial": 207, "dateTime": 1664555662235, "trialdata": {"rt": 1054, "stimulus": "<p id='stroop-text' class='stroop-green'>GREEN</p>", "response": "g", "stimulus-type": "congruent", "word": "green", "color": "green", "correct_response": "g", "trial_id": "stroop-trial-1-congruent-6", "trial_type": "html-keyboard-response", "trial_index": 207, "time_elapsed": 510852, "internal_node_id": "0.0-8.0-21.0"}}, {"uniqueid": "w98012083:a73643660", "current_trial": 208, "dateTime": 1664555663445, "trialdata": {"rt": 703, "stimulus": "<p id='stroop-text' class='stroop-red'>RED</p>", "response": "r", "stimulus-type": "congruent", "word": "red", "color": "red", "correct_response": "r", "trial_id": "stroop-trial-1-congruent-3", "trial_type": "html-keyboard-response", "trial_index": 208, "time_elapsed": 512063, "internal_node_id": "0.0-8.0-22.0"}}, {"uniqueid": "w98012083:a73643660", "current_trial": 209, "dateTime": 1664555664858, "trialdata": {"rt": 908, "stimulus": "<p id='stroop-text' class='stroop-green'>MONKEY</p>", "response": "g", "stimulus-type": "unrelated", "word": "MONKEY", "color": "green", "correct_response": "g", "trial_id": "stroop-trial-1-unrelated-19", "trial_type": "html-keyboard-response", "trial_index": 209, "time_elapsed": 513475, "internal_node_id": "0.0-8.0-23.0"}}, {"uniqueid": "w98012083:a73643660", "current_trial": 210, "dateTime": 1664555666038, "trialdata": {"rt": 673, "stimulus": "<p id='stroop-text' class='stroop-yellow'>DOG</p>", "response": "y", "stimulus-type": "unrelated", "word": "DOG", "color": "yellow", "correct_response": "y", "trial_id": "stroop-trial-1-unrelated-7", "trial_type": "html-keyboard-response", "trial_index": 210, "time_elapsed": 514655, "internal_node_id": "0.0-8.0-24.0"}}, {"uniqueid": "w98012083:a73643660", "current_trial": 211, "dateTime": 1664555667481, "trialdata": {"rt": 936, "stimulus": "<p id='stroop-text' class='stroop-blue'>BRIDGE</p>", "response": "b", "stimulus-type": "unrelated", "word": "BRIDGE", "color": "blue", "correct_response": "b", "trial_id": "stroop-trial-1-unrelated-26", "trial_type": "html-keyboard-response", "trial_index": 211, "time_elapsed": 516098, "internal_node_id": "0.0-8.0-25.0"}}, {"uniqueid": "w98012083:a73643660", "current_trial": 212, "dateTime": 1664555668884, "trialdata": {"rt": 897, "stimulus": "<p id='stroop-text' class='stroop-yellow'>BRAIN</p>", "response": "y", "stimulus-type": "unrelated", "word": "BRAIN", "color": "yellow", "correct_response": "y", "trial_id": "stroop-trial-1-unrelated-20", "trial_type": "html-keyboard-response", "trial_index": 212, "time_elapsed": 517502, "internal_node_id": "0.0-8.0-26.0"}}, {"uniqueid": "w98012083:a73643660", "current_trial": 213, "dateTime": 1664555670090, "trialdata": {"rt": 693, "stimulus": "<p id='stroop-text' class='stroop-green'>GREEN</p>", "response": "g", "stimulus-type": "congruent", "word": "green", "color": "green", "correct_response": "g", "trial_id": "stroop-trial-1-congruent-4", "trial_type": "html-keyboard-response", "trial_index": 213, "time_elapsed": 518702, "internal_node_id": "0.0-8.0-27.0"}}, {"uniqueid": "w98012083:a73643660", "current_trial": 214, "dateTime": 1664555672075, "trialdata": {"rt": 1478, "stimulus": "<p id='stroop-text' class='stroop-green'>RED</p>", "response": "g", "stimulus-type": "incongruent", "word": "red", "color": "green", "correct_response": "g", "trial_id": "stroop-trial-1-incongruent-18", "trial_type": "html-keyboard-response", "trial_index": 214, "time_elapsed": 520692, "internal_node_id": "0.0-8.0-28.0"}}, {"uniqueid": "w98012083:a73643660", "current_trial": 215, "dateTime": 1664555674316, "trialdata": {"rt": 1733, "stimulus": "<p id='stroop-text' class='stroop-red'>GREEN</p>", "response": "r", "stimulus-type": "incongruent", "word": "green", "color": "red", "correct_response": "r", "trial_id": "stroop-trial-1-incongruent-26", "trial_type": "html-keyboard-response", "trial_index": 215, "time_elapsed": 522933, "internal_node_id": "0.0-8.0-29.0"}}, {"uniqueid": "w98012083:a73643660", "current_trial": 216, "dateTime": 1664555676068, "trialdata": {"rt": 1243, "stimulus": "<p id='stroop-text' class='stroop-yellow'>BLUE</p>", "response": "y", "stimulus-type": "incongruent", "word": "blue", "color": "yellow", "correct_response": "y", "trial_id": "stroop-trial-1-incongruent-15", "trial_type": "html-keyboard-response", "trial_index": 216, "time_elapsed": 524685, "internal_node_id": "0.0-8.0-30.0"}}, {"uniqueid": "w98012083:a73643660", "current_trial": 217, "dateTime": 1664555677108, "trialdata": {"rt": 532, "stimulus": "<p id='stroop-text' class='stroop-yellow'>GREEN</p>", "response": "y", "stimulus-type": "incongruent", "word": "green", "color": "yellow", "correct_response": "y", "trial_id": "stroop-trial-1-incongruent-12", "trial_type": "html-keyboard-response", "trial_index": 217, "time_elapsed": 525725, "internal_node_id": "0.0-8.0-31.0"}}, {"uniqueid": "w98012083:a73643660", "current_trial": 218, "dateTime": 1664555678036, "trialdata": {"rt": 420, "stimulus": "<p id='stroop-text' class='stroop-yellow'>YELLOW</p>", "response": "y", "stimulus-type": "congruent", "word": "yellow", "color": "yellow", "correct_response": "y", "trial_id": "stroop-trial-1-congruent-28", "trial_type": "html-keyboard-response", "trial_index": 218, "time_elapsed": 526653, "internal_node_id": "0.0-8.0-32.0"}}, {"uniqueid": "w98012083:a73643660", "current_trial": 219, "dateTime": 1664555679160, "trialdata": {"rt": 617, "stimulus": "<p id='stroop-text' class='stroop-green'>GREEN</p>", "response": "g", "stimulus-type": "congruent", "word": "green", "color": "green", "correct_response": "g", "trial_id": "stroop-trial-1-congruent-24", "trial_type": "html-keyboard-response", "trial_index": 219, "time_elapsed": 527778, "internal_node_id": "0.0-8.0-33.0"}}, {"uniqueid": "w98012083:a73643660", "current_trial": 220, "dateTime": 1664555680227, "trialdata": {"rt": 560, "stimulus": "<p id='stroop-text' class='stroop-blue'>YELLOW</p>", "response": "b", "stimulus-type": "incongruent", "word": "yellow", "color": "blue", "correct_response": "b", "trial_id": "stroop-trial-1-incongruent-9", "trial_type": "html-keyboard-response", "trial_index": 220, "time_elapsed": 528844, "internal_node_id": "0.0-8.0-34.0"}}, {"uniqueid": "w98012083:a73643660", "current_trial": 221, "dateTime": 1664555681294, "trialdata": {"rt": 559, "stimulus": "<p id='stroop-text' class='stroop-red'>GREEN</p>", "response": "r", "stimulus-type": "incongruent", "word": "green", "color": "red", "correct_response": "r", "trial_id": "stroop-trial-1-incongruent-4", "trial_type": "html-keyboard-response", "trial_index": 221, "time_elapsed": 529911, "internal_node_id": "0.0-8.0-35.0"}}, {"uniqueid": "w98012083:a73643660", "current_trial": 222, "dateTime": 1664555682247, "trialdata": {"rt": 446, "stimulus": "<p id='stroop-text' class='stroop-red'>GREEN</p>", "response": "r", "stimulus-type": "incongruent", "word": "green", "color": "red", "correct_response": "r", "trial_id": "stroop-trial-1-incongruent-27", "trial_type": "html-keyboard-response", "trial_index": 222, "time_elapsed": 530865, "inter