{"condition": 1, "counterbalance": 0, "assignmentId": "a96821613", "workerId": "w91500875", "hitId": "h25455981", "currenttrial": 143, "bonus": 0, "data": [{"uniqueid": "w91500875:a96821613", "current_trial": 0, "dateTime": 1664368019490, "trialdata": {"success": true, "trial_type": "fullscreen", "trial_index": 0, "time_elapsed": 2856, "internal_node_id": "0.0-0.0"}}, {"uniqueid": "w91500875:a96821613", "current_trial": 1, "dateTime": 1664368021210, "trialdata": {"view_history": [{"page_index": 0, "viewing_time": 1700}], "rt": 1700, "trial_id": "exp_instructions_no_distractor", "trial_type": "instructions", "trial_index": 1, "time_elapsed": 4577, "internal_node_id": "0.0-1.0"}}, {"uniqueid": "w91500875:a96821613", "current_trial": 2, "dateTime": 1664368025049, "trialdata": {"success": true, "trial_type": "fullscreen", "trial_index": 2, "time_elapsed": 8415, "internal_node_id": "0.0-2.0-0.0"}}, {"uniqueid": "w91500875:a96821613", "current_trial": 3, "dateTime": 1664368150891, "trialdata": {"view_history": [{"page_index": 0, "viewing_time": 65183}, {"page_index": 1, "viewing_time": 29347}, {"page_index": 2, "viewing_time": 10828}, {"page_index": 3, "viewing_time": 10253}, {"page_index": 4, "viewing_time": 10224}], "rt": 125836, "trial_id": "mouselab_instructions_1", "trial_type": "instructions", "trial_index": 3, "time_elapsed": 134258, "internal_node_id": "0.0-2.0-1.0"}}, {"uniqueid": "w91500875:a96821613", "current_trial": 4, "dateTime": 1664368181120, "trialdata": {"revealed_states": [], "num_clicks_accrued": [0, 0, 0, 0, 0, 0, 0, 0, 0, 0, 0, 0, 0], "stateRewards": ["", -10, -10, 10, 10, -10, -10, 10, -10, 10, -10, 10, -10], "withholdReward": false, "trial_id": "practice_1", "block": "test", "trialIndex": 0, "score": 11.5, "costs": -0.5, "simulationMode": [null, null, null], "rewards": [10, -10, 10], "path": ["0", "0", "9", "10", "11"], "rt": [19072, 2120, 385], "actions": ["left", "left", "up"], "actionTimes": [23155, 25783, 26678], "queries": {"click": {"state": {"target": ["1", "5"], "time": [7533, 20566]}, "edge": {"target": [], "time": []}}, "mouseover": {"state": {"target": ["5", "1", "1", "5", "0", "5"], "time": [5505, 5671, 6305, 8929, 10008, 19704]}, "edge": {"target": [], "time": []}}, "mouseout": {"state": {"target": ["5", "1", "0", "5", "1", "1", "5", "0", "5", "0", "7"], "time": [1228, 2564, 3134, 5521, 5757, 8646, 9924, 10057, 21908, 28777, 28830]}, "edge": {"target": [], "time": []}}}, "displayed_time": "27.20", "trialTime": 29982, "trial_type": "mouselab-mdp", "trial_index": 4, "time_elapsed": 164485, "internal_node_id": "0.0-2.0-2.0-0.0"}}, {"uniqueid": "w91500875:a96821613", "current_trial": 5, "dateTime": 1664368196375, "trialdata": {"revealed_states": [], "num_clicks_accrued": [0, 0, 0, 0, 0, 0, 0, 0, 0, 0, 0, 0, 0], "stateRewards": ["", 10, 10, -10, -10, -10, 10, 10, -10, 10, -10, -10, 10], "withholdReward": false, "trial_id": "practice_2", "block": "test", "trialIndex": 1, "score": 11.5, "costs": -0.5, "simulationMode": [null, null, null], "rewards": [10, 10, -10], "path": ["0", "0", "1", "2", "4"], "rt": [9585, 520, 532], "actions": ["up", "up", "left"], "actionTimes": [11383, 12412, 13456], "queries": {"click": {"state": {"target": ["5", "1"], "time": [5365, 10642]}, "edge": {"target": [], "time": []}}, "mouseover": {"state": {"target": ["5", "5", "1", "9", "1"], "time": [3529, 3882, 6484, 7468, 9201]}, "edge": {"target": [], "time": []}}, "mouseout": {"state": {"target": ["6", "5", "0", "5", "5", "1", "9"], "time": [1270, 1354, 3500, 3561, 6102, 7369, 8168]}, "edge": {"target": [], "time": []}}}, "displayed_time": "13.97", "trialTime": 15156, "trial_type": "mouselab-mdp", "trial_index": 5, "time_elapsed": 179742, "internal_node_id": "0.0-2.0-2.0-1.0"}}, {"uniqueid": "w91500875:a96821613", "current_trial": 6, "dateTime": 1664368232003, "trialdata": {"view_history": [{"page_index": 0, "viewing_time": 26631}, {"page_index": 1, "viewing_time": 6788}, {"page_index": 2, "viewing_time": 2204}], "rt": 35623, "trial_id": "mouselab_instructions_2_scarce", "trial_type": "instructions", "trial_index": 6, "time_elapsed": 215369, "internal_node_id": "0.0-2.0-3.0"}}, {"uniqueid": "w91500875:a96821613", "current_trial": 7, "dateTime": 1664368295706, "trialdata": {"rt": 63696, "response": {"Q0": "$-48 to $48", "Q1": "The cost is always $0.25.", "Q2": "The better I perform the higher my bonus will be.", "Q3": "No, the structure of the web will be different each time.", "Q4": "The values of the nodes walked through from start to finish.", "Q5": "Yes."}, "question_order": [0, 1, 2, 3, 4, 5], "correct": {"Q0": "$-48 to $48", "Q1": "The cost is always $0.25.", "Q2": "The better I perform the higher my bonus will be.", "Q3": "No, the amount of cash at each node of the web may be different each time.", "Q4": "The values of the nodes walked through from start to finish.", "Q5": "No, the spider might forget to count the money on some rounds."}, "trial_id": "mouselab_quiz_scarce", "trial_type": "survey-multi-choice", "trial_index": 7, "time_elapsed": 279073, "internal_node_id": "0.0-2.0-4.0"}}, {"uniqueid": "w91500875:a96821613", "current_trial": 8, "dateTime": 1664368304517, "trialdata": {"success": true, "trial_type": "fullscreen", "trial_index": 8, "time_elapsed": 287884, "internal_node_id": "0.0-2.1-0.1"}}, {"uniqueid": "w91500875:a96821613", "current_trial": 9, "dateTime": 1664368468723, "trialdata": {"view_history": [{"page_index": 0, "viewing_time": 73746}, {"page_index": 1, "viewing_time": 40419}, {"page_index": 2, "viewing_time": 14984}, {"page_index": 3, "viewing_time": 4446}, {"page_index": 4, "viewing_time": 30604}], "rt": 164199, "trial_id": "mouselab_instructions_1", "trial_type": "instructions", "trial_index": 9, "time_elapsed": 452090, "internal_node_id": "0.0-2.1-1.1"}}, {"uniqueid": "w91500875:a96821613", "current_trial": 10, "dateTime": 1664368476206, "trialdata": {"revealed_states": [], "num_clicks_accrued": [0, 0, 0, 0, 0, 0, 0, 0, 0, 0, 0, 0, 0], "stateRewards": ["", -10, -10, 10, 10, -10, -10, 10, -10, 10, -10, 10, -10], "withholdReward": false, "trial_id": "practice_1", "block": "test", "trialIndex": 2, "score": 11.5, "costs": -0.5, "simulationMode": [null, null, null], "rewards": [10, -10, 10], "path": ["0", "0", "9", "10", "11"], "rt": [3324, 56, 43], "actions": ["left", "left", "up"], "actionTimes": [4793, 5358, 5909], "queries": {"click": {"state": {"target": ["5", "9"], "time": [2848, 3852]}, "edge": {"target": [], "time": []}}, "mouseover": {"state": {"target": ["5", "0", "9"], "time": [2376, 3368, 3433]}, "edge": {"target": [], "time": []}}, "mouseout": {"state": {"target": ["5", "0", "5", "0"], "time": [837, 2195, 3334, 3383]}, "edge": {"target": [], "time": []}}}, "displayed_time": "6.42", "trialTime": 7403, "trial_type": "mouselab-mdp", "trial_index": 10, "time_elapsed": 459573, "internal_node_id": "0.0-2.1-2.1-0.1"}}, {"uniqueid": "w91500875:a96821613", "current_trial": 11, "dateTime": 1664368488396, "trialdata": {"revealed_states": [], "num_clicks_accrued": [0, 0, 0, 0, 0, 0, 0, 0, 0, 0, 0, 0, 0], "stateRewards": ["", 10, 10, -10, -10, -10, 10, 10, -10, 10, -10, -10, 10], "withholdReward": false, "trial_id": "practice_2", "block": "test", "trialIndex": 3, "score": 11.75, "costs": -0.25, "simulationMode": [null, null, null], "rewards": [10, -10, 10], "path": ["0", "0", "9", "10", "12"], "rt": [1879, 77, 377], "actions": ["left", "left", "down"], "actionTimes": [9141, 9728, 10611], "queries": {"click": {"state": {"target": ["9"], "time": [8387]}, "edge": {"target": [], "time": []}}, "mouseover": {"state": {"target": ["9"], "time": [7923]}, "edge": {"target": [], "time": []}}, "mouseout": {"state": {"target": ["9", "0", "0"], "time": [5769, 6665, 7809]}, "edge": {"target": [], "time": []}}}, "displayed_time": "11.10", "trialTime": 12112, "trial_type": "mouselab-mdp", "trial_index": 11, "time_elapsed": 471763, "internal_node_id": "0.0-2.1-2.1-1.1"}}, {"uniqueid": "w91500875:a96821613", "current_trial": 12, "dateTime": 1664368577533, "trialdata": {"view_history": [{"page_index": 0, "viewing_time": 40255}, {"page_index": 1, "viewing_time": 44692}, {"page_index": 2, "viewing_time": 4187}], "rt": 89135, "trial_id": "mouselab_instructions_2_scarce", "trial_type": "instructions", "trial_index": 12, "time_elapsed": 560900, "internal_node_id": "0.0-2.1-3.1"}}, {"uniqueid": "w91500875:a96821613", "current_trial": 13, "dateTime": 1664368623597, "trialdata": {"rt": 46060, "response": {"Q0": "$-48 to $48", "Q1": "The cost is always $0.25.", "Q2": "The better I perform the higher my bonus will be.", "Q3": "No, the amount of cash at each node of the web may be different each time.", "Q4": "The values of the nodes walked through from start to finish.", "Q5": "No, the spider might forget to count the money on some rounds."}, "question_order": [0, 1, 2, 3, 4, 5], "correct": {"Q0": "$-48 to $48", "Q1": "The cost is always $0.25.", "Q2": "The better I perform the higher my bonus will be.", "Q3": "No, the amount of cash at each node of the web may be different each time.", "Q4": "The values of the nodes walked through from start to finish.", "Q5": "No, the spider might forget to count the money on some rounds."}, "trial_id": "mouselab_quiz_scarce", "trial_type": "survey-multi-choice", "trial_index": 13, "time_elapsed": 606964, "internal_node_id": "0.0-2.1-4.1"}}, {"uniqueid": "w91500875:a96821613", "current_trial": 14, "dateTime": 1664368626738, "trialdata": {"rt": 3129, "stimulus": "\n<h1> Get ready to start the game! </h1>\n\nThank you for reading the instructions. Get ready start with the first of 4 block(s) of this game.\n<br><br>\nIn this first block, you will complete 30 rounds of this game before moving on.\n<br><br>\nRemember, the more money the spider gets, the bigger your bonus will be!\n<br><br>\n<div style='text-align: center;'>Press <code>space</code> to begin.</div>\n\n<br><br>\n(If, at any point, the <code>space</code> key does not take you to the next page, click once on the text and try again.)", "response": " ", "trial_id": "mdp_ready_1", "trial_type": "html-keyboard-response", "trial_index": 14, "time_elapsed": 610105, "internal_node_id": "0.0-4.0-0.0"}}, {"uniqueid": "w91500875:a96821613", "current_trial": 15, "dateTime": 1664368640512, "trialdata": {"revealed_states": [], "num_clicks_accrued": [0, 0, 0, 0, 0, 0, 0, 0, 0, 0, 0, 0, 0], "stateRewards": ["", -4, 4, -48, -48, -2, -8, -48, -24, 4, 8, -24, 24], "withholdReward": true, "trial_id": "mdp_449260894259", "block": "test1", "trialIndex": 4, "score": -7.5, "costs": -0.5, "simulationMode": [null, null, null], "rewards": [4, 8, -24], "path": ["0", "0", "9", "10", "11"], "rt": [3950, 630, 283], "actions": ["left", "left", "up"], "actionTimes": [5529, 6666, 7457], "queries": {"click": {"state": {"target": ["5", "1"], "time": [2756, 4305]}, "edge": {"target": [], "time": []}}, "mouseover": {"state": {"target": ["5", "1", "9"], "time": [2328, 3612, 5092]}, "edge": {"target": [], "time": []}}, "mouseout": {"state": {"target": ["0", "5", "1"], "time": [924, 3430, 4831]}, "edge": {"target": [], "time": []}}}, "displayed_time": "10.58", "trialTime": 13693, "trial_type": "mouselab-mdp", "trial_index": 15, "time_elapsed": 623878, "internal_node_id": "0.0-4.0-1.0-0.0"}}, {"uniqueid": "w91500875:a96821613", "current_trial": 16, "dateTime": 1664368652516, "trialdata": {"revealed_states": [], "num_clicks_accrued": [0, 0, 0, 0, 0, 0, 0, 0, 0, 0, 0, 0, 0], "stateRewards": ["", -2, 8, 48, 24, 2, -4, 48, -48, 2, 8, 24, -24], "withholdReward": false, "trial_id": "mdp_176207245985", "block": "test1", "trialIndex": 5, "score": 50.5, "costs": -0.5, "simulationMode": [null, null, null], "rewards": [2, -4, 48], "path": ["0", "0", "5", "6", "7"], "rt": [2562, 200, 143], "actions": ["right", "right", "up"], "actionTimes": [4123, 4832, 5484], "queries": {"click": {"state": {"target": ["1", "5"], "time": [2581, 3634]}, "edge": {"target": [], "time": []}}, "mouseover": {"state": {"target": ["1", "5"], "time": [2151, 3253]}, "edge": {"target": [], "time": []}}, "mouseout": {"state": {"target": ["9", "0", "1"], "time": [926, 2004, 3088]}, "edge": {"target": [], "time": []}}}, "displayed_time": "10.56", "trialTime": 11899, "trial_type": "mouselab-mdp", "trial_index": 16, "time_elapsed": 635883, "internal_node_id": "0.0-4.0-1.0-1.0"}}, {"uniqueid": "w91500875:a96821613", "current_trial": 17, "dateTime": 1664368662866, "trialdata": {"revealed_states": [], "num_clicks_accrued": [0, 0, 0, 0, 0, 0, 0, 0, 0, 0, 0, 0, 0], "stateRewards": ["", -4, -4, -24, 48, -4, -8, -24, 48, 2, 4, 48, 48], "withholdReward": false, "trial_id": "mdp_810954007398", "block": "test1", "trialIndex": 6, "score": 58.75, "costs": -0.25, "simulationMode": [null, null, null], "rewards": [2, 4, 48], "path": ["0", "0", "9", "10", "12"], "rt": [1241, 52, 12], "actions": ["left", "left", "down"], "actionTimes": [2420, 2980, 3506], "queries": {"click": {"state": {"target": ["9"], "time": [2005]}, "edge": {"target": [], "time": []}}, "mouseover": {"state": {"target": ["9"], "time": [1704]}, "edge": {"target": [], "time": []}}, "mouseout": {"state": {"target": ["5", "0"], "time": [685, 1607]}, "edge": {"target": [], "time": []}}}, "displayed_time": "9.18", "trialTime": 10271, "trial_type": "mouselab-mdp", "trial_index": 17, "time_elapsed": 646233, "internal_node_id": "0.0-4.0-1.0-2.0"}}, {"uniqueid": "w91500875:a96821613", "current_trial": 18, "dateTime": 1664368674452, "trialdata": {"revealed_states": [], "num_clicks_accrued": [0, 0, 0, 0, 0, 0, 0, 0, 0, 0, 0, 0, 0], "stateRewards": ["", -2, -8, -24, 24, -2, -8, -48, 24, -2, -8, 24, 24], "withholdReward": true, "trial_id": "mdp_336617436097", "block": "test1", "trialIndex": 7, "score": 18.5, "costs": -0.5, "simulationMode": [null, null, null], "rewards": [-2, -8, 24], "path": ["0", "0", "9", "10", "11"], "rt": [2873, 166, 37], "actions": ["left", "left", "up"], "actionTimes": [4336, 5016, 5558], "queries": {"click": {"state": {"target": ["1", "5"], "time": [2228, 3613]}, "edge": {"target": [], "time": []}}, "mouseover": {"state": {"target": ["1", "5"], "time": [1866, 3062]}, "edge": {"target": [], "time": []}}, "mouseout": {"state": {"target": ["9", "0", "1"], "time": [943, 1799, 3029]}, "edge": {"target": [], "time": []}}}, "displayed_time": "10.46", "trialTime": 11504, "trial_type": "mouselab-mdp", "trial_index": 18, "time_elapsed": 657819, "internal_node_id": "0.0-4.0-1.0-3.0"}}, {"uniqueid": "w91500875:a96821613", "current_trial": 19, "dateTime": 1664368684610, "trialdata": {"revealed_states": [], "num_clicks_accrued": [0, 0, 0, 0, 0, 0, 0, 0, 0, 0, 0, 0, 0], "stateRewards": ["", 4, 8, -48, 24, -2, 8, -48, -48, -4, 4, 48, -48], "withholdReward": true, "trial_id": "mdp_693807815190", "block": "test1", "trialIndex": 8, "score": -31.25, "costs": -0.25, "simulationMode": [null, null, null], "rewards": [4, 8, -48], "path": ["0", "0", "1", "2", "3"], "rt": [2218, 139, 103], "actions": ["up", "up", "right"], "actionTimes": [3600, 4230, 4844], "queries": {"click": {"state": {"target": ["1"], "time": [2840]}, "edge": {"target": [], "time": []}}, "mouseover": {"state": {"target": ["1"], "time": [2297]}, "edge": {"target": [], "time": []}}, "mouseout": {"state": {"target": ["5", "0", "1"], "time": [846, 2134, 5783]}, "edge": {"target": [], "time": []}}}, "displayed_time": "9.38", "trialTime": 10061, "trial_type": "mouselab-mdp", "trial_index": 19, "time_elapsed": 667976, "internal_node_id": "0.0-4.0-1.0-4.0"}}, {"uniqueid": "w91500875:a96821613", "current_trial": 20, "dateTime": 1664368697303, "trialdata": {"revealed_states": [], "num_clicks_accrued": [0, 0, 0, 0, 0, 0, 0, 0, 0, 0, 0, 0, 0], "stateRewards": ["", 2, -4, -48, 24, -4, 4, 24, 24, 2, -8, -24, -48], "withholdReward": true, "trial_id": "mdp_807654778305", "block": "test1", "trialIndex": 9, "score": -49.25, "costs": -0.25, "simulationMode": [null, null, null], "rewards": [2, -8, -48], "path": ["0", "0", "9", "10", "12"], "rt": [1550, 70, 21], "actions": ["left", "left", "down"], "actionTimes": [3380, 3959, 4493], "queries": {"click": {"state": {"target": ["9"], "time": [2957]}, "edge": {"target": [], "time": []}}, "mouseover": {"state": {"target": ["9"], "time": [2672]}, "edge": {"target": [], "time": []}}, "mouseout": {"state": {"target": ["7", "0", "9"], "time": [1236, 2538, 5269]}, "edge": {"target": [], "time": []}}}, "displayed_time": "10.83", "trialTime": 12623, "trial_type": "mouselab-mdp", "trial_index": 20, "time_elapsed": 680670, "internal_node_id": "0.0-4.0-1.0-5.0"}}, {"uniqueid": "w91500875:a96821613", "current_trial": 21, "dateTime": 1664368710137, "trialdata": {"revealed_states": [], "num_clicks_accrued": [0, 0, 0, 0, 0, 0, 0, 0, 0, 0, 0, 0, 0], "stateRewards": ["", 4, 8, -48, -48, 2, 4, -24, -48, 2, 8, 48, -48], "withholdReward": false, "trial_id": "mdp_902172716465", "block": "test1", "trialIndex": 10, "score": -13.25, "costs": -0.25, "simulationMode": [null, null, null], "rewards": [2, 4, -24], "path": ["0", "0", "5", "6", "7"], "rt": [3988, 340, 961], "actions": ["right", "right", "up"], "actionTimes": [5374, 6222, 7692], "queries": {"click": {"state": {"target": ["5"], "time": [3992]}, "edge": {"target": [], "time": []}}, "mouseover": {"state": {"target": ["9", "6", "5"], "time": [2807, 3532, 3648]}, "edge": {"target": [], "time": []}}, "mouseout": {"state": {"target": ["9", "0", "9", "6"], "time": [773, 2776, 3282, 3581]}, "edge": {"target": [], "time": []}}}, "displayed_time": "10.39", "trialTime": 12753, "trial_type": "mouselab-mdp", "trial_index": 21, "time_elapsed": 693503, "internal_node_id": "0.0-4.0-1.0-6.0"}}, {"uniqueid": "w91500875:a96821613", "current_trial": 22, "dateTime": 1664368721535, "trialdata": {"revealed_states": [], "num_clicks_accrued": [0, 0, 0, 0, 0, 0, 0, 0, 0, 0, 0, 0, 0], "stateRewards": ["", -4, 4, -24, 24, -2, -4, 48, 24, 2, 8, -48, 24], "withholdReward": false, "trial_id": "mdp_150340189492", "block": "test1", "trialIndex": 11, "score": 38.25, "costs": -0.75, "simulationMode": [null, null, null], "rewards": [2, 8, 24], "path": ["0", "0", "9", "10", "12"], "rt": [4136, 65, 133], "actions": ["left", "left", "down"], "actionTimes": [6458, 7035, 7698], "queries": {"click": {"state": {"target": ["1", "9", "11"], "time": [3229, 4295, 5584]}, "edge": {"target": [], "time": []}}, "mouseover": {"state": {"target": ["1", "9", "11"], "time": [2888, 3888, 5098]}, "edge": {"target": [], "time": []}}, "mouseout": {"state": {"target": ["5", "0", "0", "1", "9"], "time": [720, 933, 2775, 3839, 4917]}, "edge": {"target": [], "time": []}}}, "displayed_time": "10.32", "trialTime": 11320, "trial_type": "mouselab-mdp", "trial_index": 22, "time_elapsed": 704902, "internal_node_id": "0.0-4.0-1.0-7.0"}}, {"uniqueid": "w91500875:a96821613", "current_trial": 23, "dateTime": 1664368731961, "trialdata": {"revealed_states": [], "num_clicks_accrued": [0, 0, 0, 0, 0, 0, 0, 0, 0, 0, 0, 0, 0], "stateRewards": ["", 4, 8, -24, 48, -2, -4, 24, -24, -2, 4, 24, 24], "withholdReward": false, "trial_id": "mdp_948713805479", "block": "test1", "trialIndex": 12, "score": 64.5, "costs": -0.5, "simulationMode": [null, null, null], "rewards": [4, 8, 48], "path": ["0", "0", "1", "2", "4"], "rt": [2195, 83, 48], "actions": ["up", "up", "left"], "actionTimes": [3625, 4216, 4781], "queries": {"click": {"state": {"target": ["1", "3"], "time": [2117, 3156]}, "edge": {"target": [], "time": []}}, "mouseover": {"state": {"target": ["1", "3"], "time": [1808, 2723]}, "edge": {"target": [], "time": []}}, "mouseout": {"state": {"target": ["11", "0", "1"], "time": [649, 1675, 2657]}, "edge": {"target": [], "time": []}}}, "displayed_time": "9.43", "trialTime": 10294, "trial_type": "mouselab-mdp", "trial_index": 23, "time_elapsed": 715327, "internal_node_id": "0.0-4.0-1.0-8.0"}}, {"uniqueid": "w91500875:a96821613", "current_trial": 24, "dateTime": 1664368743506, "trialdata": {"revealed_states": [], "num_clicks_accrued": [0, 0, 0, 0, 0, 0, 0, 0, 0, 0, 0, 0, 0], "stateRewards": ["", 2, 8, -48, -24, 4, 4, 24, 48, 4, -4, -48, 48], "withholdReward": true, "trial_id": "mdp_665096999232", "block": "test1", "trialIndex": 13, "score": 60.5, "costs": -0.5, "simulationMode": [null, null, null], "rewards": [4, 4, 48], "path": ["0", "0", "5", "6", "8"], "rt": [2615, 132, 121], "actions": ["right", "right", "down"], "actionTimes": [3992, 4616, 5238], "queries": {"click": {"state": {"target": ["5", "8"], "time": [2242, 3450]}, "edge": {"target": [], "time": []}}, "mouseover": {"state": {"target": ["5", "8"], "time": [1907, 3124]}, "edge": {"target": [], "time": []}}, "mouseout": {"state": {"target": ["3", "1", "5", "8"], "time": [701, 832, 2694, 6576]}, "edge": {"target": [], "time": []}}}, "displayed_time": "10.38", "trialTime": 11469, "trial_type": "mouselab-mdp", "trial_index": 24, "time_elapsed": 726873, "internal_node_id": "0.0-4.0-1.0-9.0"}}, {"uniqueid": "w91500875:a96821613", "current_trial": 25, "dateTime": 1664368755218, "trialdata": {"revealed_states": [], "num_clicks_accrued": [0, 0, 0, 0, 0, 0, 0, 0, 0, 0, 0, 0, 0], "stateRewards": ["", 2, 8, 24, -48, 4, 8, 24, 24, 4, -8, 48, 48], "withholdReward": true, "trial_id": "mdp_646103824875", "block": "test1", "trialIndex": 14, "score": 48.5, "costs": -0.5, "simulationMode": [null, null, null], "rewards": [4, -8, 48], "path": ["0", "0", "9", "10", "12"], "rt": [2695, 60, 29], "actions": ["left", "left", "down"], "actionTimes": [4382, 4935, 5485], "queries": {"click": {"state": {"target": ["9", "12"], "time": [2716, 3805]}, "edge": {"target": [], "time": []}}, "mouseover": {"state": {"target": ["1", "9", "12"], "time": [2068, 2371, 3282]}, "edge": {"target": [], "time": []}}, "mouseout": {"state": {"target": ["5", "0", "1", "9", "12"], "time": [1102, 1969, 2256, 3033, 10698]}, "edge": {"target": [], "time": []}}}, "displayed_time": "10.69", "trialTime": 11632, "trial_type": "mouselab-mdp", "trial_index": 25, "time_elapsed": 738585, "internal_node_id": "0.0-4.0-1.0-10.0"}}, {"uniqueid": "w91500875:a96821613", "current_trial": 26, "dateTime": 1664368770266, "trialdata": {"revealed_states": [], "num_clicks_accrued": [0, 0, 0, 0, 0, 0, 0, 0, 0, 0, 0, 0, 0], "stateRewards": ["", -4, -4, -24, 24, 4, 4, -24, -24, -4, 4, 24, 24], "withholdReward": false, "trial_id": "mdp_787781487383", "block": "test1", "trialIndex": 15, "score": -11.5, "costs": -0.5, "simulationMode": [null, null, null], "rewards": [4, 4, -24], "path": ["0", "0", "5", "6", "7"], "rt": [2969, 24, 853], "actions": ["right", "right", "up"], "actionTimes": [4668, 5183, 6562], "queries": {"click": {"state": {"target": ["5", "8"], "time": [2973, 4256]}, "edge": {"target": [], "time": []}}, "mouseover": {"state": {"target": ["5", "6", "8"], "time": [2584, 3513, 3880]}, "edge": {"target": [], "time": []}}, "mouseout": {"state": {"target": ["0", "5", "6"], "time": [1341, 3480, 3579]}, "edge": {"target": [], "time": []}}}, "displayed_time": "11.70", "trialTime": 14944, "trial_type": "mouselab-mdp", "trial_index": 26, "time_elapsed": 753632, "internal_node_id": "0.0-4.0-1.0-11.0"}}, {"uniqueid": "w91500875:a96821613", "current_trial": 27, "dateTime": 1664368784785, "trialdata": {"revealed_states": [], "num_clicks_accrued": [0, 0, 0, 0, 0, 0, 0, 0, 0, 0, 0, 0, 0], "stateRewards": ["", -2, -4, -48, 48, -4, 4, -48, 24, -4, -8, 24, 48], "withholdReward": true, "trial_id": "mdp_264482284450", "block": "test1", "trialIndex": 16, "score": 45.75, "costs": -1.25, "simulationMode": [null, null, null], "rewards": [-2, -4, 48], "path": ["0", "0", "1", "2", "4"], "rt": [10561, 89, 58], "actions": ["up", "up", "left"], "actionTimes": [11941, 12540, 13108], "queries": {"click": {"state": {"target": ["1", "9", "5", "7", "4"], "time": [2373, 3368, 4869, 7032, 10142]}, "edge": {"target": [], "time": []}}, "mouseover": {"state": {"target": ["1", "9", "5", "3", "7", "4"], "time": [2019, 3006, 4232, 6227, 6625, 9701]}, "edge": {"target": [], "time": []}}, "mouseout": {"state": {"target": ["8", "0", "1", "9", "5", "3", "7", "1", "5", "5"], "time": [780, 1892, 2908, 3931, 6127, 6544, 7992, 8671, 8787, 9270]}, "edge": {"target": [], "time": []}}}, "displayed_time": "13.61", "trialTime": 14430, "trial_type": "mouselab-mdp", "trial_index": 27, "time_elapsed": 768151, "internal_node_id": "0.0-4.0-1.0-12.0"}}, {"uniqueid": "w91500875:a96821613", "current_trial": 28, "dateTime": 1664368796132, "trialdata": {"revealed_states": [], "num_clicks_accrued": [0, 0, 0, 0, 0, 0, 0, 0, 0, 0, 0, 0, 0], "stateRewards": ["", 2, -8, 24, -24, -2, 8, -48, -48, 2, -8, -24, -48], "withholdReward": true, "trial_id": "mdp_744278669205", "block": "test1", "trialIndex": 17, "score": 22.5, "costs": -0.5, "simulationMode": [null, null, null], "rewards": [2, -8, 24], "path": ["0", "0", "1", "2", "3"], "rt": [2619, 127, 133], "actions": ["up", "up", "right"], "actionTimes": [3973, 4592, 5214], "queries": {"click": {"state": {"target": ["1", "3"], "time": [2404, 3415]}, "edge": {"target": [], "time": []}}, "mouseover": {"state": {"target": ["1", "3"], "time": [2063, 2967]}, "edge": {"target": [], "time": []}}, "mouseout": {"state": {"target": ["4", "1", "3", "0"], "time": [717, 2919, 10946, 11095]}, "edge": {"target": [], "time": []}}}, "displayed_time": "10.36", "trialTime": 11243, "trial_type": "mouselab-mdp", "trial_index": 28, "time_elapsed": 779499, "internal_node_id": "0.0-4.0-1.0-13.0"}}, {"uniqueid": "w91500875:a96821613", "current_trial": 29, "dateTime": 1664368806469, "trialdata": {"revealed_states": [], "num_clicks_accrued": [0, 0, 0, 0, 0, 0, 0, 0, 0, 0, 0, 0, 0], "stateRewards": ["", -4, -8, 48, 48, -4, 4, 48, -24, 4, 8, -24, -48], "withholdReward": true, "trial_id": "mdp_142906093415", "block": "test1", "trialIndex": 18, "score": 52.75, "costs": -0.25, "simulationMode": [null, null, null], "rewards": [-4, 4, 48], "path": ["0", "0", "5", "6", "7"], "rt": [1957, 13, 347], "actions": ["right", "right", "up"], "actionTimes": [3188, 3708, 4560], "queries": {"click": {"state": {"target": ["7"], "time": [2283]}, "edge": {"target": [], "time": []}}, "mouseover": {"state": {"target": ["7"], "time": [1704]}, "edge": {"target": [], "time": []}}, "mouseout": {"state": {"target": ["0", "7"], "time": [1640, 2903]}, "edge": {"target": [], "time": []}}}, "displayed_time": "9.23", "trialTime": 10224, "trial_type": "mouselab-mdp", "trial_index": 29, "time_elapsed": 789835, "internal_node_id": "0.0-4.0-1.0-14.0"}}, {"uniqueid": "w91500875:a96821613", "current_trial": 30, "dateTime": 1664368817766, "trialdata": {"revealed_states": [], "num_clicks_accrued": [0, 0, 0, 0, 0, 0, 0, 0, 0, 0, 0, 0, 0], "stateRewards": ["", -2, 4, 48, -24, 2, 8, 24, 48, 2, 4, -24, -48], "withholdReward": true, "trial_id": "mdp_892412058587", "block": "test1", "trialIndex": 19, "score": 54.5, "costs": -0.5, "simulationMode": [null, null, null], "rewards": [-2, 4, 48], "path": ["0", "0", "1", "2", "3"], "rt": [2737, 73, 118], "actions": ["up", "up", "right"], "actionTimes": [4262, 4843, 5471], "queries": {"click": {"state": {"target": ["4", "3"], "time": [2554, 3614]}, "edge": {"target": [], "time": []}}, "mouseover": {"state": {"target": ["4", "2", "3"], "time": [2203, 3081, 3112]}, "edge": {"target": [], "time": []}}, "mouseout": {"state": {"target": ["6", "5", "0", "4", "2"], "time": [724, 741, 1855, 3067, 3097]}, "edge": {"target": [], "time": []}}}, "displayed_time": "10.53", "trialTime": 11221, "trial_type": "mouselab-mdp", "trial_index": 30, "time_elapsed": 801133, "internal_node_id": "0.0-4.0-1.0-15.0"}}, {"uniqueid": "w91500875:a96821613", "current_trial": 31, "dateTime": 1664368828927, "trialdata": {"revealed_states": [], "num_clicks_accrued": [0, 0, 0, 0, 0, 0, 0, 0, 0, 0, 0, 0, 0], "stateRewards": ["", 4, -8, -48, 24, 4, 4, -24, -24, 2, 4, -48, 24], "withholdReward": true, "trial_id": "mdp_626971397185", "block": "test1", "trialIndex": 20, "score": 23.5, "costs": -1.5, "simulationMode": [null, null, null], "rewards": [4, -8, 24], "path": ["0", "0", "1", "2", "4"], "rt": [7147, 53, 95], "actions": ["up", "up", "left"], "actionTimes": [8382, 8946, 9566], "queries": {"click": {"state": {"target": ["7", "8", "11", "12", "3", "4"], "time": [2168, 3083, 4210, 5240, 6407, 7438]}, "edge": {"target": [], "time": []}}, "mouseover": {"state": {"target": ["5", "7", "6", "8", "0", "11", "11", "10", "12", "2", "3", "2", "4"], "time": [1564, 1881, 2535, 2600, 3477, 3508, 3842, 4562, 4695, 5745, 6141, 6940, 7074]}, "edge": {"target": [], "time": []}}, "mouseout": {"state": {"target": ["3", "0", "5", "7", "6", "8", "0", "11", "11", "10", "12", "2", "3", "2"], "time": [625, 1530, 1581, 2503, 2567, 3462, 3491, 3541, 4550, 4611, 5644, 6025, 6908, 6974]}, "edge": {"target": [], "time": []}}}, "displayed_time": "10.06", "trialTime": 11058, "trial_type": "mouselab-mdp", "trial_index": 31, "time_elapsed": 812294, "internal_node_id": "0.0-4.0-1.0-16.0"}}, {"uniqueid": "w91500875:a96821613", "current_trial": 32, "dateTime": 1664368839864, "trialdata": {"revealed_states": [], "num_clicks_accrued": [0, 0, 0, 0, 0, 0, 0, 0, 0, 0, 0, 0, 0], "stateRewards": ["", -2, -4, -48, -48, 4, -4, 48, 24, 4, 4, 48, 48], "withholdReward": true, "trial_id": "mdp_950960813932", "block": "test1", "trialIndex": 21, "score": 52.75, "costs": -0.25, "simulationMode": [null, null, null], "rewards": [4, -4, 48], "path": ["0", "0", "5", "6", "7"], "rt": [1481, 129, 133], "actions": ["right", "right", "up"], "actionTimes": [3651, 4289, 4942], "queries": {"click": {"state": {"target": ["7"], "time": [2972]}, "edge": {"target": [], "time": []}}, "mouseover": {"state": {"target": ["5", "7"], "time": [2435, 2634]}, "edge": {"target": [], "time": []}}, "mouseout": {"state": {"target": ["4", "1", "5"], "time": [1423, 1621, 2452]}, "edge": {"target": [], "time": []}}}, "displayed_time": "10.17", "trialTime": 10856, "trial_type": "mouselab-mdp", "trial_index": 32, "time_elapsed": 823231, "internal_node_id": "0.0-4.0-1.0-17.0"}}, {"uniqueid": "w91500875:a96821613", "current_trial": 33, "dateTime": 1664368851040, "trialdata": {"revealed_states": [], "num_clicks_accrued": [0, 0, 0, 0, 0, 0, 0, 0, 0, 0, 0, 0, 0], "stateRewards": ["", -4, -4, -48, 48, -4, -8, -24, -48, -2, 8, 48, 24], "withholdReward": true, "trial_id": "mdp_365393526663", "block": "test1", "trialIndex": 22, "score": 58.75, "costs": -0.25, "simulationMode": [null, null, null], "rewards": [-2, 8, 48], "path": ["0", "0", "9", "10", "11"], "rt": [1591, 206, 22], "actions": ["left", "left", "up"], "actionTimes": [3064, 3777, 4308], "queries": {"click": {"state": {"target": ["11"], "time": [2471]}, "edge": {"target": [], "time": []}}, "mouseover": {"state": {"target": ["11"], "time": [2096]}, "edge": {"target": [], "time": []}}, "mouseout": {"state": {"target": ["7", "11", "11"], "time": [695, 10336, 10395]}, "edge": {"target": [], "time": []}}}, "displayed_time": "10.47", "trialTime": 11096, "trial_type": "mouselab-mdp", "trial_index": 33, "time_elapsed": 834407, "internal_node_id": "0.0-4.0-1.0-18.0"}}, {"uniqueid": "w91500875:a96821613", "current_trial": 34, "dateTime": 1664368860741, "trialdata": {"revealed_states": [], "num_clicks_accrued": [0, 0, 0, 0, 0, 0, 0, 0, 0, 0, 0, 0, 0], "stateRewards": ["", 4, -8, -48, 48, -2, 8, -48, 48, -2, -4, 24, -48], "withholdReward": true, "trial_id": "mdp_400558136089", "block": "test1", "trialIndex": 23, "score": 48.5, "costs": -0.5, "simulationMode": [null, null, null], "rewards": [4, -8, 48], "path": ["0", "0", "1", "2", "4"], "rt": [2913, 51, 70], "actions": ["up", "up", "left"], "actionTimes": [4041, 4582, 5184], "queries": {"click": {"state": {"target": ["3", "4"], "time": [2202, 3329]}, "edge": {"target": [], "time": []}}, "mouseover": {"state": {"target": ["1", "3", "2", "4"], "time": [1578, 1728, 2832, 2966]}, "edge": {"target": [], "time": []}}, "mouseout": {"state": {"target": ["0", "0", "1", "3", "2", "4", "1"], "time": [627, 1480, 1595, 2819, 2881, 8852, 8981]}, "edge": {"target": [], "time": []}}}, "displayed_time": "9.13", "trialTime": 9593, "trial_type": "mouselab-mdp", "trial_index": 34, "time_elapsed": 844108, "internal_node_id": "0.0-4.0-1.0-19.0"}}, {"uniqueid": "w91500875:a96821613", "current_trial": 35, "dateTime": 1664368878805, "trialdata": {"revealed_states": [], "num_clicks_accrued": [0, 0, 0, 0, 0, 0, 0, 0, 0, 0, 0, 0, 0], "stateRewards": ["", 2, 8, -24, -48, -4, 8, -48, -48, -2, -8, -24, -24], "withholdReward": true, "trial_id": "mdp_978177451072", "block": "test1", "trialIndex": 24, "score": -11, "costs": -2, "simulationMode": [null, null, null], "rewards": [2, 8, -24], "path": ["0", "0", "1", "2", "3"], "rt": [14293, 99, 161], "actions": ["up", "up", "right"], "actionTimes": [15367, 15975, 16652], "queries": {"click": {"state": {"target": ["7", "8", "4", "3", "11", "12", "9", "1"], "time": [2110, 3323, 4636, 5914, 7190, 8187, 11763, 13867]}, "edge": {"target": [], "time": []}}, "mouseover": {"state": {"target": ["7", "7", "6", "8", "5", "2", "4", "2", "3", "1", "11", "10", "12", "9", "9", "1"], "time": [1425, 1761, 2688, 2888, 4031, 4147, 4364, 5411, 5594, 6540, 6885, 7559, 7674, 11205, 11406, 12495]}, "edge": {"target": [], "time": []}}, "mouseout": {"state": {"target": ["0", "0", "7", "7", "6", "8", "5", "2", "4", "2", "3", "1", "11", "10", "12", "9", "9"], "time": [623, 1362, 1443, 2657, 2705, 4016, 4046, 4164, 5330, 5460, 6533, 6583, 7544, 7624, 10990, 11253, 12447]}, "edge": {"target": [], "time": []}}}, "displayed_time": "17.16", "trialTime": 17960, "trial_type": "mouselab-mdp", "trial_index": 35, "time_elapsed": 862171, "internal_node_id": "0.0-4.0-1.0-20.0"}}, {"uniqueid": "w91500875:a96821613", "current_trial": 36, "dateTime": 1664368888732, "trialdata": {"revealed_states": [], "num_clicks_accrued": [0, 0, 0, 0, 0, 0, 0, 0, 0, 0, 0, 0, 0], "stateRewards": ["", -4, 8, 24, -24, -2, 4, -24, 48, -2, 8, -48, -24], "withholdReward": true, "trial_id": "mdp_799359103169", "block": "test1", "trialIndex": 25, "score": 54.5, "costs": -0.5, "simulationMode": [null, null, null], "rewards": [-2, 4, 48], "path": ["0", "0", "5", "6", "8"], "rt": [3307, 65, 60], "actions": ["right", "right", "down"], "actionTimes": [4582, 5155, 5731], "queries": {"click": {"state": {"target": ["7", "8"], "time": [2726, 3680]}, "edge": {"target": [], "time": []}}, "mouseover": {"state": {"target": ["5", "7", "6", "8", "6"], "time": [1920, 2353, 3205, 3254, 4119]}, "edge": {"target": [], "time": []}}, "mouseout": {"state": {"target": ["1", "5", "7", "6", "8", "6", "5"], "time": [716, 2235, 3191, 3221, 4117, 4133, 7662]}, "edge": {"target": [], "time": []}}}, "displayed_time": "9.28", "trialTime": 9849, "trial_type": "mouselab-mdp", "trial_index": 36, "time_elapsed": 872099, "internal_node_id": "0.0-4.0-1.0-21.0"}}, {"uniqueid": "w91500875:a96821613", "current_trial": 37, "dateTime": 1664368899357, "trialdata": {"revealed_states": [], "num_clicks_accrued": [0, 0, 0, 0, 0, 0, 0, 0, 0, 0, 0, 0, 0], "stateRewards": ["", -4, 8, -24, -24, 2, 4, 48, 48, -2, 4, 24, -48], "withholdReward": true, "trial_id": "mdp_397308196941", "block": "test1", "trialIndex": 26, "score": 58.25, "costs": -0.75, "simulationMode": [null, null, null], "rewards": [2, 4, 48], "path": ["0", "0", "5", "6", "7"], "rt": [3979, 77, 346], "actions": ["right", "right", "up"], "actionTimes": [5106, 5688, 6540], "queries": {"click": {"state": {"target": ["3", "4", "7"], "time": [2146, 3157, 4192]}, "edge": {"target": [], "time": []}}, "mouseover": {"state": {"target": ["3", "2", "4", "2", "7", "6"], "time": [1459, 2674, 2706, 3530, 3697, 4622]}, "edge": {"target": [], "time": []}}, "mouseout": {"state": {"target": ["0", "3", "2", "4", "2", "7", "6"], "time": [1379, 2659, 2690, 3515, 3564, 4606, 4655]}, "edge": {"target": [], "time": []}}}, "displayed_time": "10.13", "trialTime": 10523, "trial_type": "mouselab-mdp", "trial_index": 37, "time_elapsed": 882724, "internal_node_id": "0.0-4.0-1.0-22.0"}}, {"uniqueid": "w91500875:a96821613", "current_trial": 38, "dateTime": 1664368909495, "trialdata": {"revealed_states": [], "num_clicks_accrued": [0, 0, 0, 0, 0, 0, 0, 0, 0, 0, 0, 0, 0], "stateRewards": ["", 2, -8, -24, 48, -4, -8, 24, -48, 4, -8, -24, -24], "withholdReward": true, "trial_id": "mdp_928911266656", "block": "test1", "trialIndex": 27, "score": 46, "costs": -1, "simulationMode": [null, null, null], "rewards": [2, -8, 48], "path": ["0", "0", "1", "2", "4"], "rt": [5435, 102, 161], "actions": ["up", "up", "left"], "actionTimes": [6902, 7499, 8156], "queries": {"click": {"state": {"target": ["11", "12", "3", "4"], "time": [2400, 3571, 4937, 6041]}, "edge": {"target": [], "time": []}}, "mouseover": {"state": {"target": ["11", "10", "12", "1", "3", "3", "2", "4", "2"], "time": [2060, 2991, 3158, 4179, 4213, 4545, 5419, 5701, 6322]}, "edge": {"target": [], "time": []}}, "mouseout": {"state": {"target": ["6", "5", "0", "11", "10", "12", "1", "3", "3", "2", "4", "2"], "time": [849, 979, 1728, 2968, 3058, 4146, 4196, 4229, 5387, 5468, 6306, 6358]}, "edge": {"target": [], "time": []}}}, "displayed_time": "9.47", "trialTime": 10056, "trial_type": "mouselab-mdp", "trial_index": 38, "time_elapsed": 892862, "internal_node_id": "0.0-4.0-1.0-23.0"}}, {"uniqueid": "w91500875:a96821613", "current_trial": 39, "dateTime": 1664368921267, "trialdata": {"revealed_states": [], "num_clicks_accrued": [0, 0, 0, 0, 0, 0, 0, 0, 0, 0, 0, 0, 0], "stateRewards": ["", -2, -4, 48, -24, -4, -4, -24, -24, -2, 4, -48, -24], "withholdReward": false, "trial_id": "mdp_410467837196", "block": "test1", "trialIndex": 28, "score": 46.25, "costs": -0.75, "simulationMode": [null, null, null], "rewards": [-2, -4, 48], "path": ["0", "0", "1", "2", "3"], "rt": [3954, 49, 149], "actions": ["up", "up", "right"], "actionTimes": [5160, 5717, 6400], "queries": {"click": {"state": {"target": ["7", "8", "3"], "time": [2156, 3233, 4376]}, "edge": {"target": [], "time": []}}, "mouseover": {"state": {"target": ["5", "7", "6", "8", "3"], "time": [1495, 1774, 2706, 2906, 4008]}, "edge": {"target": [], "time": []}}, "mouseout": {"state": {"target": ["0", "5", "7", "6", "8", "3", "0"], "time": [1461, 1511, 2622, 2807, 3647, 10501, 10601]}, "edge": {"target": [], "time": []}}}, "displayed_time": "10.21", "trialTime": 11686, "trial_type": "mouselab-mdp", "trial_index": 39, "time_elapsed": 904634, "internal_node_id": "0.0-4.0-1.0-24.0"}}, {"uniqueid": "w91500875:a96821613", "current_trial": 40, "dateTime": 1664368932244, "trialdata": {"revealed_states": [], "num_clicks_accrued": [0, 0, 0, 0, 0, 0, 0, 0, 0, 0, 0, 0, 0], "stateRewards": ["", -2, 8, -24, 24, 2, -8, 48, -24, 2, 8, -24, -24], "withholdReward": true, "trial_id": "mdp_674708270444", "block": "test1", "trialIndex": 29, "score": 46.5, "costs": -0.5, "simulationMode": [null, null, null], "rewards": [2, -8, 48], "path": ["0", "0", "5", "6", "7"], "rt": [2670, 50, 95], "actions": ["right", "right", "up"], "actionTimes": [3898, 4455, 5083], "queries": {"click": {"state": {"target": ["3", "7"], "time": [2171, 3226]}, "edge": {"target": [], "time": []}}, "mouseover": {"state": {"target": ["1", "3", "7", "6"], "time": [1588, 1751, 2830, 3624]}, "edge": {"target": [], "time": []}}, "mouseout": {"state": {"target": ["0", "1", "3", "7"], "time": [773, 1605, 2561, 3560]}, "edge": {"target": [], "time": []}}}, "displayed_time": "10.23", "trialTime": 10891, "trial_type": "mouselab-mdp", "trial_index": 40, "time_elapsed": 915611, "internal_node_id": "0.0-4.0-1.0-25.0"}}, {"uniqueid": "w91500875:a96821613", "current_trial": 41, "dateTime": 1664368942824, "trialdata": {"revealed_states": [], "num_clicks_accrued": [0, 0, 0, 0, 0, 0, 0, 0, 0, 0, 0, 0, 0], "stateRewards": ["", -4, 4, 48, 24, -4, 4, -24, 48, -2, -8, 24, -48], "withholdReward": true, "trial_id": "mdp_261501605436", "block": "test1", "trialIndex": 30, "score": 52.5, "costs": -0.5, "simulationMode": [null, null, null], "rewards": [-4, 4, 48], "path": ["0", "0", "1", "2", "3"], "rt": [3382, 54, 101], "actions": ["up", "up", "right"], "actionTimes": [4640, 5202, 5814], "queries": {"click": {"state": {"target": ["4", "3"], "time": [2216, 3625]}, "edge": {"target": [], "time": []}}, "mouseover": {"state": {"target": ["4", "2", "3"], "time": [1886, 3004, 3071]}, "edge": {"target": [], "time": []}}, "mouseout": {"state": {"target": ["6", "5", "0", "4", "2", "3"], "time": [676, 794, 1489, 2970, 3037, 4168]}, "edge": {"target": [], "time": []}}}, "displayed_time": "10.26", "trialTime": 10495, "trial_type": "mouselab-mdp", "trial_index": 41, "time_elapsed": 926191, "internal_node_id": "0.0-4.0-1.0-26.0"}}, {"uniqueid": "w91500875:a96821613", "current_trial": 42, "dateTime": 1664368960416, "trialdata": {"revealed_states": [], "num_clicks_accrued": [0, 0, 0, 0, 0, 0, 0, 0, 0, 0, 0, 0, 0], "stateRewards": ["", -4, -4, -24, -24, -2, 4, 48, -24, -2, -4, -24, 48], "withholdReward": true, "trial_id": "mdp_855903341564", "block": "test1", "trialIndex": 31, "score": 54.75, "costs": -0.25, "simulationMode": [null, null, null], "rewards": [-2, 4, 48], "path": ["0", "0", "5", "6", "7"], "rt": [1560, 135, 128], "actions": ["right", "right", "up"], "actionTimes": [2781, 3424, 4067], "queries": {"click": {"state": {"target": ["7"], "time": [2191]}, "edge": {"target": [], "time": []}}, "mouseover": {"state": {"target": ["7", "7"], "time": [1527, 1891]}, "edge": {"target": [], "time": []}}, "mouseout": {"state": {"target": ["1", "7"], "time": [693, 1572]}, "edge": {"target": [], "time": []}}}, "displayed_time": "10.22", "trialTime": 17506, "trial_type": "mouselab-mdp", "trial_index": 42, "time_elapsed": 943783, "internal_node_id": "0.0-4.0-1.0-27.0"}}, {"uniqueid": "w91500875:a96821613", "current_trial": 43, "dateTime": 1664368976438, "trialdata": {"revealed_states": [], "num_clicks_accrued": [0, 0, 0, 0, 0, 0, 0, 0, 0, 0, 0, 0, 0], "stateRewards": ["", -2, -8, 24, -48, -4, 8, -48, -24, 4, 8, -24, 24], "withholdReward": true, "trial_id": "mdp_940444641142", "block": "test1", "trialIndex": 32, "score": 38.75, "costs": -2.25, "simulationMode": [null, null, null], "rewards": [4, 8, 24], "path": ["0", "0", "9", "10", "12"], "rt": [11731, 79, 184], "actions": ["left", "left", "down"], "actionTimes": [13475, 14062, 14749], "queries": {"click": {"state": {"target": ["11", "3", "4", "7", "8", "12", "2", "6", "10"], "time": [2608, 3545, 4419, 5519, 6412, 7583, 10323, 11661, 13075]}, "edge": {"target": [], "time": []}}, "mouseover": {"state": {"target": ["11", "2", "3", "2", "4", "2", "7", "6", "8", "12", "9", "2", "6", "5", "9", "10", "10"], "time": [2242, 3110, 3140, 4016, 4082, 4810, 5209, 5955, 6021, 7228, 9531, 9881, 11213, 12094, 12122, 12140, 12727]}, "edge": {"target": [], "time": []}}, "mouseout": {"state": {"target": ["7", "5", "0", "11", "2", "3", "2", "4", "2", "3", "7", "6", "8", "12", "9", "2", "6", "5", "9", "10"], "time": [954, 1086, 2043, 3075, 3126, 3985, 4032, 4778, 4826, 4842, 5922, 5988, 6912, 9514, 9580, 11134, 12077, 12106, 12139, 12177]}, "edge": {"target": [], "time": []}}}, "displayed_time": "15.26", "trialTime": 15909, "trial_type": "mouselab-mdp", "trial_index": 43, "time_elapsed": 959804, "internal_node_id": "0.0-4.0-1.0-28.0"}}, {"uniqueid": "w91500875:a96821613", "current_trial": 44, "dateTime": 1664368987957, "trialdata": {"revealed_states": [], "num_clicks_accrued": [0, 0, 0, 0, 0, 0, 0, 0, 0, 0, 0, 0, 0], "stateRewards": ["", -2, 8, 48, 24, 2, -8, -24, -48, -4, 8, -48, 24], "withholdReward": false, "trial_id": "mdp_224053025943", "block": "test1", "trialIndex": 33, "score": 58.75, "costs": -0.25, "simulationMode": [null, null, null], "rewards": [-2, 8, 48], "path": ["0", "0", "1", "2", "3"], "rt": [1604, 136, 106], "actions": ["up", "up", "right"], "actionTimes": [3134, 3777, 4381], "queries": {"click": {"state": {"target": ["3"], "time": [2315]}, "edge": {"target": [], "time": []}}, "mouseover": {"state": {"target": ["3", "7"], "time": [1886, 2787]}, "edge": {"target": [], "time": []}}, "mouseout": {"state": {"target": ["10", "9", "0", "3", "7", "0", "9"], "time": [730, 845, 1738, 2740, 5381, 5443, 5477]}, "edge": {"target": [], "time": []}}}, "displayed_time": "10.53", "trialTime": 11409, "trial_type": "mouselab-mdp", "trial_index": 44, "time_elapsed": 971323, "internal_node_id": "0.0-4.0-1.0-29.0"}}, {"uniqueid": "w91500875:a96821613", "current_trial": 45, "dateTime": 1664369363676, "trialdata": {"rt": 375710, "stimulus": "<h1> End of block! </h1>\n\nYou have reached the end of the block 1/4. If you need a short break, feel free to take one now before moving on.\n\n<br><br>\nIn the next block, you will complete another 30 rounds of this game.\n\n<br><br>\n<div style='text-align: center;'>Press <code>space</code> to begin.</div>\n<br><br>\n<div style='text-align: center;'>(If the experiment doesn't continue, try clicking on the text and then pressing <code>space</code>.)</div>", "response": " ", "trial_id": "mdp_ready_2", "trial_type": "html-keyboard-response", "trial_index": 45, "time_elapsed": 1347042, "internal_node_id": "0.0-4.0-2.0"}}, {"uniqueid": "w91500875:a96821613", "current_trial": 46, "dateTime": 1664369375921, "trialdata": {"revealed_states": [], "num_clicks_accrued": [0, 0, 0, 0, 0, 0, 0, 0, 0, 0, 0, 0, 0], "stateRewards": ["", 4, -8, -48, -24, 2, -8, -48, 48, -4, 8, 48, -48], "withholdReward": true, "trial_id": "mdp_605757196263", "block": "test2", "trialIndex": 34, "score": 46.5, "costs": -0.5, "simulationMode": [null, null, null], "rewards": [2, -8, 48], "path": ["0", "0", "5", "6", "8"], "rt": [3232, 188, 280], "actions": ["right", "right", "down"], "actionTimes": [5882, 6578, 7365], "queries": {"click": {"state": {"target": ["7", "8"], "time": [3802, 5501]}, "edge": {"target": [], "time": []}}, "mouseover": {"state": {"target": ["7", "6", "8", "8"], "time": [3386, 4614, 4646, 5189]}, "edge": {"target": [], "time": []}}, "mouseout": {"state": {"target": ["2", "1", "5", "0", "7", "6", "8"], "time": [1732, 1865, 1964, 3004, 4581, 4629, 4696]}, "edge": {"target": [], "time": []}}}, "displayed_time": "11.65", "trialTime": 12071, "trial_type": "mouselab-mdp", "trial_index": 46, "time_elapsed": 1359288, "internal_node_id": "0.0-4.0-3.0-0.0"}}, {"uniqueid": "w91500875:a96821613", "current_trial": 47, "dateTime": 1664369386310, "trialdata": {"revealed_states": [], "num_clicks_accrued": [0, 0, 0, 0, 0, 0, 0, 0, 0, 0, 0, 0, 0], "stateRewards": ["", 2, 4, -24, -48, 4, -4, 24, 48, -4, -4, -24, 48], "withholdReward": false, "trial_id": "mdp_181958792175", "block": "test2", "trialIndex": 35, "score": 52, "costs": -1, "simulationMode": [null, null, null], "rewards": [4, -4, 48], "path": ["0", "0", "5", "6", "8"], "rt": [5622, 44, 524], "actions": ["right", "right", "down"], "actionTimes": [7007, 7558, 8588], "queries": {"click": {"state": {"target": ["4", "3", "7", "8"], "time": [2604, 3547, 4735, 6375]}, "edge": {"target": [], "time": []}}, "mouseover": {"state": {"target": ["1", "4", "2", "3", "7", "6", "8"], "time": [1663, 2310, 2957, 3240, 4359, 5636, 5937]}, "edge": {"target": [], "time": []}}, "mouseout": {"state": {"target": ["8", "5", "0", "1", "4", "2", "3", "7", "6"], "time": [720, 901, 1660, 1679, 2926, 2989, 4176, 5620, 5754]}, "edge": {"target": [], "time": []}}}, "displayed_time": "9.39", "trialTime": 10302, "trial_type": "mouselab-mdp", "trial_index": 47, "time_elapsed": 1369677, "internal_node_id": "0.0-4.0-3.0-1.0"}}, {"uniqueid": "w91500875:a96821613", "current_trial": 48, "dateTime": 1664369397514, "trialdata": {"revealed_states": [], "num_clicks_accrued": [0, 0, 0, 0, 0, 0, 0, 0, 0, 0, 0, 0, 0], "stateRewards": ["", 2, 8, 24, 24, 2, -8, -24, -48, 2, 8, -48, 48], "withholdReward": true, "trial_id": "mdp_745175888812", "block": "test2", "trialIndex": 36, "score": 62, "costs": -1, "simulationMode": [null, null, null], "rewards": [2, 8, 48], "path": ["0", "0", "9", "10", "12"], "rt": [5250, 118, 125], "actions": ["left", "left", "down"], "actionTimes": [6560, 7186, 7828], "queries": {"click": {"state": {"target": ["3", "4", "11", "12"], "time": [2232, 3448, 4416, 5410]}, "edge": {"target": [], "time": []}}, "mouseover": {"state": {"target": ["3", "2", "4", "4", "11", "10", "12"], "time": [1831, 2647, 2746, 3080, 3979, 4822, 5072]}, "edge": {"target": [], "time": []}}, "mouseout": {"state": {"target": ["8", "0", "3", "2", "4", "4", "11", "10", "12"], "time": [604, 1516, 2630, 2696, 2879, 3796, 4773, 4872, 10843]}, "edge": {"target": [], "time": []}}}, "displayed_time": "10.31", "trialTime": 11100, "trial_type": "mouselab-mdp", "trial_index": 48, "time_elapsed": 1380881, "internal_node_id": "0.0-4.0-3.0-2.0"}}, {"uniqueid": "w91500875:a96821613", "current_trial": 49, "dateTime": 1664369415388, "trialdata": {"revealed_states": [], "num_clicks_accrued": [0, 0, 0, 0, 0, 0, 0, 0, 0, 0, 0, 0, 0], "stateRewards": ["", 2, -4, -48, -48, -2, -4, -24, -48, -2, 8, 24, 24], "withholdReward": true, "trial_id": "mdp_656069446729", "block": "test2", "trialIndex": 37, "score": 33.5, "costs": -1.5, "simulationMode": [null, null, null], "rewards": [-2, 8, 24], "path": ["0", "0", "9", "10", "12"], "rt": [9785, 3218, 1073], "actions": ["left", "left", "down"], "actionTimes": [11109, 14834, 16418], "queries": {"click": {"state": {"target": ["7", "8", "3", "4", "11", "12"], "time": [2596, 3948, 5157, 6183, 7443, 8471]}, "edge": {"target": [], "time": []}}, "mouseover": {"state": {"target": ["7", "6", "8", "8", "6", "3", "2", "4", "11", "10", "12"], "time": [2248, 3065, 3098, 3481, 4370, 4706, 5676, 5759, 7082, 7792, 7959]}, "edge": {"target": [], "time": []}}, "mouseout": {"state": {"target": ["0", "7", "6", "8", "8", "6", "3", "2", "4", "11", "10"], "time": [894, 3037, 3082, 3181, 4354, 4387, 5648, 5726, 6817, 7761, 7876]}, "edge": {"target": [], "time": []}}}, "displayed_time": "16.92", "trialTime": 17767, "trial_type": "mouselab-mdp", "trial_index": 49, "time_elapsed": 1398754, "internal_node_id": "0.0-4.0-3.0-3.0"}}, {"uniqueid": "w91500875:a96821613", "current_trial": 50, "dateTime": 1664369427754, "trialdata": {"revealed_states": [], "num_clicks_accrued": [0, 0, 0, 0, 0, 0, 0, 0, 0, 0, 0, 0, 0], "stateRewards": ["", -4, -4, -24, -24, -2, 4, 48, -24, -2, -4, -24, 48], "withholdReward": true, "trial_id": "mdp_855903341564", "block": "test2", "trialIndex": 38, "score": 54.25, "costs": -0.75, "simulationMode": [null, null, null], "rewards": [-2, 4, 48], "path": ["0", "0", "5", "6", "7"], "rt": [4480, 2744, 859], "actions": ["right", "right", "up"], "actionTimes": [6494, 9745, 11096], "queries": {"click": {"state": {"target": ["3", "4", "7"], "time": [3058, 4134, 5278]}, "edge": {"target": [], "time": []}}, "mouseover": {"state": {"target": ["3", "2", "4", "2", "7", "7"], "time": [2484, 3623, 3823, 4550, 4618, 4917]}, "edge": {"target": [], "time": []}}, "mouseout": {"state": {"target": ["12", "0", "3", "2", "4", "2", "7"], "time": [1348, 1700, 3609, 3672, 4536, 4566, 4649]}, "edge": {"target": [], "time": []}}}, "displayed_time": "11.59", "trialTime": 12269, "trial_type": "mouselab-mdp", "trial_index": 50, "time_elapsed": 1411120, "internal_node_id": "0.0-4.0-3.0-4.0"}}, {"uniqueid": "w91500875:a96821613", "current_trial": 51, "dateTime": 1664369442265, "trialdata": {"revealed_states": [], "num_clicks_accrued": [0, 0, 0, 0, 0, 0, 0, 0, 0, 0, 0, 0, 0], "stateRewards": ["", 4, -8, -48, 24, 4, 4, -24, -24, 2, 4, -48, 24], "withholdReward": false, "trial_id": "mdp_626971397185", "block": "test2", "trialIndex": 39, "score": 33, "costs": -2, "simulationMode": [null, null, null], "rewards": [2, 4, 24], "path": ["0", "0", "9", "10", "12"], "rt": [9622, 122, 496], "actions": ["left", "left", "down"], "actionTimes": [11073, 11704, 12710], "queries": {"click": {"state": {"target": ["4", "3", "7", "8", "11", "12", "2", "10"], "time": [2458, 3696, 4613, 5468, 6475, 7304, 9465, 10522]}, "edge": {"target": [], "time": []}}, "mouseover": {"state": {"target": ["4", "4", "2", "3", "3", "7", "6", "8", "9", "10", "11", "10", "12", "9", "1", "2", "10"], "time": [1731, 2132, 2870, 3002, 3402, 4129, 5005, 5121, 5864, 5897, 6130, 6796, 6929, 7808, 7841, 8918, 10240]}, "edge": {"target": [], "time": []}}, "mouseout": {"state": {"target": ["7", "0", "4", "4", "2", "3", "3", "7", "6", "8", "9", "10", "11", "10", "12", "9", "1", "3", "2"], "time": [695, 1701, 1746, 2854, 2900, 3185, 4045, 4992, 5055, 5815, 5880, 6064, 6750, 6880, 7792, 7824, 7858, 8868, 9821]}, "edge": {"target": [], "time": []}}}, "displayed_time": "13.22", "trialTime": 14418, "trial_type": "mouselab-mdp", "trial_index": 51, "time_elapsed": 1425631, "internal_node_id": "0.0-4.0-3.0-5.0"}}, {"uniqueid": "w91500875:a96821613", "current_trial": 52, "dateTime": 1664369453195, "trialdata": {"revealed_states": [], "num_clicks_accrued": [0, 0, 0, 0, 0, 0, 0, 0, 0, 0, 0, 0, 0], "stateRewards": ["", 2, 4, -48, 24, -4, 4, -24, 48, -2, -8, -48, 48], "withholdReward": true, "trial_id": "mdp_424193661731", "block": "test2", "trialIndex": 40, "score": 42, "costs": -1, "simulationMode": [null, null, null], "rewards": [-2, -8, 48], "path": ["0", "0", "9", "10", "12"], "rt": [5569, 155, 181], "actions": ["left", "left", "down"], "actionTimes": [6920, 7583, 8276], "queries": {"click": {"state": {"target": ["3", "4", "11", "12"], "time": [2433, 3699, 4623, 5998]}, "edge": {"target": [], "time": []}}, "mouseover": {"state": {"target": ["1", "3", "3", "4", "11", "10", "12", "12"], "time": [1770, 1803, 2120, 3394, 4179, 5048, 5134, 5643]}, "edge": {"target": [], "time": []}}, "mouseout": {"state": {"target": ["10", "9", "0", "1", "3", "3", "4", "11", "10", "12", "12"], "time": [633, 806, 1755, 1786, 1819, 2925, 4097, 5034, 5081, 5265, 10349]}, "edge": {"target": [], "time": []}}}, "displayed_time": "10.36", "trialTime": 10837, "trial_type": "mouselab-mdp", "trial_index": 52, "time_elapsed": 1436562, "internal_node_id": "0.0-4.0-3.0-6.0"}}, {"uniqueid": "w91500875:a96821613", "current_trial": 53, "dateTime": 1664369464119, "trialdata": {"revealed_states": [], "num_clicks_accrued": [0, 0, 0, 0, 0, 0, 0, 0, 0, 0, 0, 0, 0], "stateRewards": ["", -2, 4, -48, -48, 4, 4, 48, -48, 2, 8, 24, 48], "withholdReward": false, "trial_id": "mdp_686771069745", "block": "test2", "trialIndex": 41, "score": 60.75, "costs": -0.25, "simulationMode": [null, null, null], "rewards": [4, 4, 48], "path": ["0", "0", "5", "6", "7"], "rt": [1985, 126, 99], "actions": ["right", "right", "up"], "actionTimes": [3195, 3829, 4436], "queries": {"click": {"state": {"target": ["7"], "time": [2399]}, "edge": {"target": [], "time": []}}, "mouseover": {"state": {"target": ["5", "7"], "time": [1592, 2035]}, "edge": {"target": [], "time": []}}, "mouseout": {"state": {"target": ["0", "5", "7", "5"], "time": [1572, 1635, 10363, 10491]}, "edge": {"target": [], "time": []}}}, "displayed_time": "10.21", "trialTime": 10820, "trial_type": "mouselab-mdp", "trial_index": 53, "time_elapsed": 1447486, "internal_node_id": "0.0-4.0-3.0-7.0"}}, {"uniqueid": "w91500875:a96821613", "current_trial": 54, "dateTime": 1664369475103, "trialdata": {"revealed_states": [], "num_clicks_accrued": [0, 0, 0, 0, 0, 0, 0, 0, 0, 0, 0, 0, 0], "stateRewards": ["", -2, 8, 48, -24, 2, 4, -48, -24, -4, 8, -48, -48], "withholdReward": true, "trial_id": "mdp_539167561933", "block": "test2", "trialIndex": 42, "score": 58.5, "costs": -0.5, "simulationMode": [null, null, null], "rewards": [-2, 8, 48], "path": ["0", "0", "1", "2", "3"], "rt": [2994, 114, 99], "actions": ["up", "up", "right"], "actionTimes": [4388, 5009, 5609], "queries": {"click": {"state": {"target": ["4", "3"], "time": [2358, 3325]}, "edge": {"target": [], "time": []}}, "mouseover": {"state": {"target": ["4", "2", "3"], "time": [1953, 2837, 2937]}, "edge": {"target": [], "time": []}}, "mouseout": {"state": {"target": ["0", "4", "2", "3"], "time": [1074, 2808, 2887, 3766]}, "edge": {"target": [], "time": []}}}, "displayed_time": "10.39", "trialTime": 10889, "trial_type": "mouselab-mdp", "trial_index": 54, "time_elapsed": 1458470, "internal_node_id": "0.0-4.0-3.0-8.0"}}, {"uniqueid": "w91500875:a96821613", "current_trial": 55, "dateTime": 1664369486311, "trialdata": {"revealed_states": [], "num_clicks_accrued": [0, 0, 0, 0, 0, 0, 0, 0, 0, 0, 0, 0, 0], "stateRewards": ["", 2, 4, -48, 24, -4, -4, -24, 24, 2, -4, 24, -24], "withholdReward": true, "trial_id": "mdp_163600331068", "block": "test2", "trialIndex": 43, "score": 33.5, "costs": -1.5, "simulationMode": [null, null, null], "rewards": [2, 4, 24], "path": ["0", "0", "1", "2", "4"], "rt": [7595, 102, 2], "actions": ["up", "up", "left"], "actionTimes": [8854, 9448, 9967], "queries": {"click": {"state": {"target": ["7", "8", "3", "4", "11", "12"], "time": [2121, 3003, 4049, 4890, 5874, 7524]}, "edge": {"target": [], "time": []}}, "mouseover": {"state": {"target": ["5", "7", "6", "8", "3", "2", "4", "11", "10", "12", "12"], "time": [1511, 1777, 2483, 2650, 3775, 4404, 4552, 5520, 6220, 6320, 7097]}, "edge": {"target": [], "time": []}}, "mouseout": {"state": {"target": ["5", "7", "6", "8", "3", "2", "4", "11", "10", "12"], "time": [1528, 2470, 2567, 3395, 4371, 4486, 5355, 6171, 6270, 6487]}, "edge": {"target": [], "time": []}}}, "displayed_time": "10.49", "trialTime": 11116, "trial_type": "mouselab-mdp", "trial_index": 55, "time_elapsed": 1469677, "internal_node_id": "0.0-4.0-3.0-9.0"}}, {"uniqueid": "w91500875:a96821613", "current_trial": 56, "dateTime": 1664369497136, "trialdata": {"revealed_states": [], "num_clicks_accrued": [0, 0, 0, 0, 0, 0, 0, 0, 0, 0, 0, 0, 0], "stateRewards": ["", 2, -8, -24, 48, 4, -8, -24, -24, 2, 8, -24, 24], "withholdReward": true, "trial_id": "mdp_480787552818", "block": "test2", "trialIndex": 44, "score": 46, "costs": -1, "simulationMode": [null, null, null], "rewards": [2, -8, 48], "path": ["0", "0", "1", "2", "4"], "rt": [5260, 49, 108], "actions": ["up", "up", "left"], "actionTimes": [7363, 7920, 8562], "queries": {"click": {"state": {"target": ["3", "7", "8", "4"], "time": [3019, 3927, 5331, 6391]}, "edge": {"target": [], "time": []}}, "mouseover": {"state": {"target": ["3", "7", "6", "8", "5", "1", "4"], "time": [2535, 3506, 4631, 4764, 5702, 5734, 6067]}, "edge": {"target": [], "time": []}}, "mouseout": {"state": {"target": ["12", "0", "3", "7", "6", "8", "5", "1", "4", "4", "1"], "time": [1174, 2470, 3390, 4597, 4732, 5685, 5718, 5785, 6888, 10406, 10455]}, "edge": {"target": [], "time": []}}}, "displayed_time": "10.10", "trialTime": 10693, "trial_type": "mouselab-mdp", "trial_index": 56, "time_elapsed": 1480503, "internal_node_id": "0.0-4.0-3.0-10.0"}}, {"uniqueid": "w91500875:a96821613", "current_trial": 57, "dateTime": 1664369507032, "trialdata": {"revealed_states": [], "num_clicks_accrued": [0, 0, 0, 0, 0, 0, 0, 0, 0, 0, 0, 0, 0], "stateRewards": ["", -2, 4, 24, 48, 2, 4, -48, -48, 2, 8, 48, -48], "withholdReward": true, "trial_id": "mdp_409609775558", "block": "test2", "trialIndex": 45, "score": 54.75, "costs": -0.25, "simulationMode": [null, null, null], "rewards": [-2, 4, 48], "path": ["0", "0", "1", "2", "4"], "rt": [2054, 135, 103], "actions": ["up", "up", "left"], "actionTimes": [3250, 3892, 4509], "queries": {"click": {"state": {"target": ["4"], "time": [2060]}, "edge": {"target": [], "time": []}}, "mouseover": {"state": {"target": ["4"], "time": [1657]}, "edge": {"target": [], "time": []}}, "mouseout": {"state": {"target": ["0", "4", "1"], "time": [1409, 9472, 9556]}, "edge": {"target": [], "time": []}}}, "displayed_time": "9.20", "trialTime": 9785, "trial_type": "mouselab-mdp", "trial_index": 57, "time_elapsed": 1490399, "internal_node_id": "0.0-4.0-3.0-11.0"}}, {"uniqueid": "w91500875:a96821613", "current_trial": 58, "dateTime": 1664369517868, "trialdata": {"revealed_states": [], "num_clicks_accrued": [0, 0, 0, 0, 0, 0, 0, 0, 0, 0, 0, 0, 0], "stateRewards": ["", -2, 8, -24, 48, -4, 4, -48, 24, 4, -8, 48, -24], "withholdReward": true, "trial_id": "mdp_425320427962", "block": "test2", "trialIndex": 46, "score": 58.5, "costs": -0.5, "simulationMode": [null, null, null], "rewards": [-2, 8, 48], "path": ["0", "0", "1", "2", "4"], "rt": [2956, 215, 140], "actions": ["up", "up", "left"], "actionTimes": [3962, 4685, 5333], "queries": {"click": {"state": {"target": ["3", "4"], "time": [2168, 3133]}, "edge": {"target": [], "time": []}}, "mouseover": {"state": {"target": ["1", "3", "2", "4", "11"], "time": [1495, 1874, 2647, 2729, 3574]}, "edge": {"target": [], "time": []}}, "mouseout": {"state": {"target": ["0", "1", "3", "2", "4", "11"], "time": [559, 1525, 2615, 2680, 3510, 10350]}, "edge": {"target": [], "time": []}}}, "displayed_time": "10.01", "trialTime": 10681, "trial_type": "mouselab-mdp", "trial_index": 58, "time_elapsed": 1501234, "internal_node_id": "0.0-4.0-3.0-12.0"}}, {"uniqueid": "w91500875:a96821613", "current_trial": 59, "dateTime": 1664369531782, "trialdata": {"revealed_states": [], "num_clicks_accrued": [0, 0, 0, 0, 0, 0, 0, 0, 0, 0, 0, 0, 0], "stateRewards": ["", -4, -8, -24, 24, 4, 4, -48, -48, -4, -4, 24, -48], "withholdReward": true, "trial_id": "mdp_431592223624", "block": "test2", "trialIndex": 47, "score": 19, "costs": -2, "simulationMode": [null, null, null], "rewards": [-4, -4, 24], "path": ["0", "0", "9", "10", "11"], "rt": [10006, 105, 29], "actions": ["left", "left", "up"], "actionTimes": [11156, 11769, 12311], "queries": {"click": {"state": {"target": ["11", "12", "4", "3", "7", "8", "2", "10"], "time": [1908, 2860, 4041, 5017, 6159, 7305, 9449, 10409]}, "edge": {"target": [], "time": []}}, "mouseover": {"state": {"target": ["11", "10", "12", "4", "2", "3", "7", "6", "8", "5", "2", "10"], "time": [1541, 2359, 2477, 3731, 4465, 4697, 5812, 6751, 6818, 8756, 9059, 10111]}, "edge": {"target": [], "time": []}}, "mouseout": {"state": {"target": ["11", "10", "12", "4", "2", "3", "7", "6", "8", "5", "2"], "time": [2344, 2443, 3314, 4449, 4514, 5498, 6734, 6786, 8707, 8823, 9896]}, "edge": {"target": [], "time": []}}}, "displayed_time": "12.81", "trialTime": 13800, "trial_type": "mouselab-mdp", "trial_index": 59, "time_elapsed": 1515149, "internal_node_id": "0.0-4.0-3.0-13.0"}}, {"uniqueid": "w91500875:a96821613", "current_trial": 60, "dateTime": 1664369545249, "trialdata": {"revealed_states": [], "num_clicks_accrued": [0, 0, 0, 0, 0, 0, 0, 0, 0, 0, 0, 0, 0], "stateRewards": ["", 4, 4, -24, -48, 2, 4, 24, -48, 2, 4, 24, 24], "withholdReward": true, "trial_id": "mdp_223558518218", "block": "test2", "trialIndex": 48, "score": 33.25, "costs": -1.75, "simulationMode": [null, null, null], "rewards": [2, 4, 24], "path": ["0", "0", "9", "10", "12"], "rt": [9687, 99, 103], "actions": ["left", "left", "down"], "actionTimes": [10911, 11502, 12107], "queries": {"click": {"state": {"target": ["3", "4", "7", "8", "11", "12", "10"], "time": [2046, 3112, 4250, 5200, 6913, 8302, 9835]}, "edge": {"target": [], "time": []}}, "mouseover": {"state": {"target": ["3", "2", "4", "2", "7", "7", "6", "8", "0", "9", "11", "11", "10", "12", "12", "10", "9"], "time": [1566, 2582, 2849, 3489, 3588, 3905, 4565, 4880, 5553, 5587, 5637, 6532, 7396, 7496, 7916, 8933, 10285]}, "edge": {"target": [], "time": []}}, "mouseout": {"state": {"target": ["10", "9", "0", "3", "2", "4", "2", "7", "7", "6", "8", "0", "9", "11", "11", "10", "12", "12", "10", "9"], "time": [592, 689, 1437, 2566, 2699, 3456, 3521, 3605, 4531, 4747, 5517, 5566, 5601, 5738, 7381, 7445, 7546, 8833, 10253, 10317]}, "edge": {"target": [], "time": []}}}, "displayed_time": "12.62", "trialTime": 13323, "trial_type": "mouselab-mdp", "trial_index": 60, "time_elapsed": 1528616, "internal_node_id": "0.0-4.0-3.0-14.0"}}, {"uniqueid": "w91500875:a96821613", "current_trial": 61, "dateTime": 1664369555058, "trialdata": {"revealed_states": [], "num_clicks_accrued": [0, 0, 0, 0, 0, 0, 0, 0, 0, 0, 0, 0, 0], "stateRewards": ["", 2, 8, -48, 24, -2, 4, 48, 48, -2, -8, 48, 24], "withholdReward": false, "trial_id": "mdp_157355418411", "block": "test2", "trialIndex": 49, "score": 54.75, "costs": -0.25, "simulationMode": [null, null, null], "rewards": [-2, 4, 48], "path": ["0", "0", "5", "6", "7"], "rt": [2423, 1754, 107], "actions": ["right", "right", "up"], "actionTimes": [3588, 5832, 6448], "queries": {"click": {"state": {"target": ["7"], "time": [2297]}, "edge": {"target": [], "time": []}}, "mouseover": {"state": {"target": ["7"], "time": [1948]}, "edge": {"target": [], "time": []}}, "mouseout": {"state": {"target": ["0", "0", "7", "7", "5"], "time": [609, 1567, 9141, 9281, 9415]}, "edge": {"target": [], "time": []}}}, "displayed_time": "9.16", "trialTime": 9689, "trial_type": "mouselab-mdp", "trial_index": 61, "time_elapsed": 1538424, "internal_node_id": "0.0-4.0-3.0-15.0"}}, {"uniqueid": "w91500875:a96821613", "current_trial": 62, "dateTime": 1664369563842, "trialdata": {"revealed_states": [], "num_clicks_accrued": [0, 0, 0, 0, 0, 0, 0, 0, 0, 0, 0, 0, 0], "stateRewards": ["", 4, -4, 48, 24, 2, -8, 24, -48, -2, -4, -48, -48], "withholdReward": true, "trial_id": "mdp_655302318695", "block": "test2", "trialIndex": 50, "score": 52.75, "costs": -0.25, "simulationMode": [null, null, null], "rewards": [4, -4, 48], "path": ["0", "0", "1", "2", "3"], "rt": [2098, 828, 292], "actions": ["up", "up", "right"], "actionTimes": [3153, 4489, 5271], "queries": {"click": {"state": {"target": ["3"], "time": [1990]}, "edge": {"target": [], "time": []}}, "mouseover": {"state": {"target": ["1", "3"], "time": [1487, 1553]}, "edge": {"target": [], "time": []}}, "mouseout": {"state": {"target": ["0", "1"], "time": [1455, 1504]}, "edge": {"target": [], "time": []}}}, "displayed_time": "8.06", "trialTime": 8626, "trial_type": "mouselab-mdp", "trial_index": 62, "time_elapsed": 1547209, "internal_node_id": "0.0-4.0-3.0-16.0"}}, {"uniqueid": "w91500875:a96821613", "current_trial": 63, "dateTime": 1664369574276, "trialdata": {"revealed_states": [], "num_clicks_accrued": [0, 0, 0, 0, 0, 0, 0, 0, 0, 0, 0, 0, 0], "stateRewards": ["", 4, 8, 48, 48, 4, 4, -24, -48, 4, 8, -48, -48], "withholdReward": true, "trial_id": "mdp_984548726931", "block": "test2", "trialIndex": 51, "score": 64.25, "costs": -0.75, "simulationMode": [null, null, null], "rewards": [4, 8, 48], "path": ["0", "0", "1", "2", "3"], "rt": [4471, 333, 120], "actions": ["up", "up", "right"], "actionTimes": [6097, 6921, 7548], "queries": {"click": {"state": {"target": ["7", "8", "3"], "time": [2401, 3403, 4460]}, "edge": {"target": [], "time": []}}, "mouseover": {"state": {"target": ["7", "6", "8", "6", "3", "2", "4"], "time": [1985, 2901, 3088, 3812, 4129, 4968, 5002]}, "edge": {"target": [], "time": []}}, "mouseout": {"state": {"target": ["3", "0", "0", "7", "6", "8", "6", "3", "2", "4"], "time": [617, 799, 1886, 2868, 2951, 3795, 3833, 4939, 4985, 10097]}, "edge": {"target": [], "time": []}}}, "displayed_time": "9.63", "trialTime": 10338, "trial_type": "mouselab-mdp", "trial_index": 63, "time_elapsed": 1557643, "internal_node_id": "0.0-4.0-3.0-17.0"}}, {"uniqueid": "w91500875:a96821613", "current_trial": 64, "dateTime": 1664369585939, "trialdata": {"revealed_states": [], "num_clicks_accrued": [0, 0, 0, 0, 0, 0, 0, 0, 0, 0, 0, 0, 0], "stateRewards": ["", 2, -8, 24, 24, 4, -4, -24, -48, 4, 8, 24, 24], "withholdReward": true, "trial_id": "mdp_249803813713", "block": "test2", "trialIndex": 52, "score": 39.25, "costs": -1.75, "simulationMode": [null, null, null], "rewards": [4, 8, 24], "path": ["0", "0", "9", "10", "11"], "rt": [8004, 97, 147], "actions": ["left", "left", "up"], "actionTimes": [9196, 9801, 10449], "queries": {"click": {"state": {"target": ["4", "3", "7", "8", "11", "12", "10"], "time": [2081, 3524, 4317, 5048, 6108, 6906, 8374]}, "edge": {"target": [], "time": []}}, "mouseover": {"state": {"target": ["4", "2", "3", "7", "6", "8", "0", "9", "11", "10", "12", "10"], "time": [1797, 2657, 3215, 3907, 4623, 4755, 5513, 5562, 5762, 6441, 6524, 8030]}, "edge": {"target": [], "time": []}}, "mouseout": {"state": {"target": ["0", "4", "2", "3", "7", "6", "8", "0", "9", "11", "10", "12"], "time": [675, 2627, 2723, 3857, 4606, 4689, 5479, 5546, 5595, 6408, 6507, 7914]}, "edge": {"target": [], "time": []}}}, "displayed_time": "10.94", "trialTime": 11551, "trial_type": "mouselab-mdp", "trial_index": 64, "time_elapsed": 1569306, "internal_node_id": "0.0-4.0-3.0-18.0"}}, {"uniqueid": "w91500875:a96821613", "current_trial": 65, "dateTime": 1664369597207, "trialdata": {"revealed_states": [], "num_clicks_accrued": [0, 0, 0, 0, 0, 0, 0, 0, 0, 0, 0, 0, 0], "stateRewards": ["", 4, -4, 48, -48, 2, 8, -48, 24, -2, -4, -24, 48], "withholdReward": true, "trial_id": "mdp_937564992306", "block": "test2", "trialIndex": 53, "score": 52.75, "costs": -0.25, "simulationMode": [null, null, null], "rewards": [4, -4, 48], "path": ["0", "0", "1", "2", "3"], "rt": [1894, 97, 147], "actions": ["up", "up", "right"], "actionTimes": [3530, 4135, 4801], "queries": {"click": {"state": {"target": ["3"], "time": [2515]}, "edge": {"target": [], "time": []}}, "mouseover": {"state": {"target": ["1", "3"], "time": [1888, 2236]}, "edge": {"target": [], "time": []}}, "mouseout": {"state": {"target": ["10", "1", "1"], "time": [766, 805, 1906]}, "edge": {"target": [], "time": []}}}, "displayed_time": "10.64", "trialTime": 11173, "trial_type": "mouselab-mdp", "trial_index": 65, "time_elapsed": 1580574, "internal_node_id": "0.0-4.0-3.0-19.0"}}, {"uniqueid": "w91500875:a96821613", "current_trial": 66, "dateTime": 1664369608024, "trialdata": {"revealed_states": [], "num_clicks_accrued": [0, 0, 0, 0, 0, 0, 0, 0, 0, 0, 0, 0, 0], "stateRewards": ["", -2, -8, -24, -24, 4, -4, -48, 48, 2, 8, 48, -48], "withholdReward": true, "trial_id": "mdp_498095124548", "block": "test2", "trialIndex": 54, "score": 52.5, "costs": -0.5, "simulationMode": [null, null, null], "rewards": [4, -4, 48], "path": ["0", "0", "5", "6", "8"], "rt": [2936, 1446, 103], "actions": ["right", "right", "down"], "actionTimes": [4234, 6187, 6799], "queries": {"click": {"state": {"target": ["7", "8"], "time": [2043, 3056]}, "edge": {"target": [], "time": []}}, "mouseover": {"state": {"target": ["7", "6", "8", "6"], "time": [1763, 2448, 2634, 3534]}, "edge": {"target": [], "time": []}}, "mouseout": {"state": {"target": ["3", "7", "6", "8", "6", "7", "1"], "time": [693, 2419, 2480, 3518, 3551, 9918, 10237]}, "edge": {"target": [], "time": []}}}, "displayed_time": "10.30", "trialTime": 10726, "trial_type": "mouselab-mdp", "trial_index": 66, "time_elapsed": 1591391, "internal_node_id": "0.0-4.0-3.0-20.0"}}, {"uniqueid": "w91500875:a96821613", "current_trial": 67, "dateTime": 1664369618799, "trialdata": {"revealed_states": [], "num_clicks_accrued": [0, 0, 0, 0, 0, 0, 0, 0, 0, 0, 0, 0, 0], "stateRewards": ["", -2, 8, 48, 48, 4, -8, -48, 48, 2, -4, -48, 48], "withholdReward": true, "trial_id": "mdp_132958048709", "block": "test2", "trialIndex": 55, "score": 58.75, "costs": -0.25, "simulationMode": [null, null, null], "rewards": [-2, 8, 48], "path": ["0", "0", "1", "2", "4"], "rt": [2974, 949, 666], "actions": ["up", "up", "left"], "actionTimes": [4177, 5633, 6810], "queries": {"click": {"state": {"target": ["4"], "time": [3198]}, "edge": {"target": [], "time": []}}, "mouseover": {"state": {"target": ["4", "4", "2"], "time": [2617, 2819, 3585]}, "edge": {"target": [], "time": []}}, "mouseout": {"state": {"target": ["4", "4", "2"], "time": [2683, 3569, 3617]}, "edge": {"target": [], "time": []}}}, "displayed_time": "10.20", "trialTime": 10665, "trial_type": "mouselab-mdp", "trial_index": 67, "time_elapsed": 1602166, "internal_node_id": "0.0-4.0-3.0-21.0"}}, {"uniqueid": "w91500875:a96821613", "current_trial": 68, "dateTime": 1664369628546, "trialdata": {"revealed_states": [], "num_clicks_accrued": [0, 0, 0, 0, 0, 0, 0, 0, 0, 0, 0, 0, 0], "stateRewards": ["", -2, 8, -48, 48, 4, -8, -48, 48, 4, -4, -24, 48], "withholdReward": true, "trial_id": "mdp_144739116828", "block": "test2", "trialIndex": 56, "score": 52.75, "costs": -0.25, "simulationMode": [null, null, null], "rewards": [4, -4, 48], "path": ["0", "0", "9", "10", "12"], "rt": [2788, 1063, 183], "actions": ["left", "left", "down"], "actionTimes": [4045, 5616, 6305], "queries": {"click": {"state": {"target": ["12"], "time": [3047]}, "edge": {"target": [], "time": []}}, "mouseover": {"state": {"target": ["12", "12", "10", "11"], "time": [1840, 2673, 3512, 3596]}, "edge": {"target": [], "time": []}}, "mouseout": {"state": {"target": ["1", "0", "12", "12", "10"], "time": [754, 1756, 1955, 3496, 3562]}, "edge": {"target": [], "time": []}}}, "displayed_time": "9.26", "trialTime": 9643, "trial_type": "mouselab-mdp", "trial_index": 68, "time_elapsed": 1611913, "internal_node_id": "0.0-4.0-3.0-22.0"}}, {"uniqueid": "w91500875:a96821613", "current_trial": 69, "dateTime": 1664369638328, "trialdata": {"revealed_states": [], "num_clicks_accrued": [0, 0, 0, 0, 0, 0, 0, 0, 0, 0, 0, 0, 0], "stateRewards": ["", 4, 4, 48, -24, 2, -4, 48, 24, -4, -4, -48, 24], "withholdReward": false, "trial_id": "mdp_496003763005", "block": "test2", "trialIndex": 57, "score": 60.75, "costs": -0.25, "simulationMode": [null, null, null], "rewards": [4, 4, 48], "path": ["0", "0", "1", "2", "3"], "rt": [2453, 1274, 301], "actions": ["up", "up", "right"], "actionTimes": [3796, 5578, 6386], "queries": {"click": {"state": {"target": ["3"], "time": [2074]}, "edge": {"target": [], "time": []}}, "mouseover": {"state": {"target": ["1", "3"], "time": [1550, 1765]}, "edge": {"target": [], "time": []}}, "mouseout": {"state": {"target": ["11", "1", "3", "0"], "time": [608, 1569, 8382, 8478]}, "edge": {"target": [], "time": []}}}, "displayed_time": "8.35", "trialTime": 9660, "trial_type": "mouselab-mdp", "trial_index": 69, "time_elapsed": 1621695, "internal_node_id": "0.0-4.0-3.0-23.0"}}, {"uniqueid": "w91500875:a96821613", "current_trial": 70, "dateTime": 1664369648344, "trialdata": {"revealed_states": [], "num_clicks_accrued": [0, 0, 0, 0, 0, 0, 0, 0, 0, 0, 0, 0, 0], "stateRewards": ["", -4, -4, -24, 48, -4, -8, -24, 48, 2, 4, 48, 48], "withholdReward": false, "trial_id": "mdp_810954007398", "block": "test2", "trialIndex": 58, "score": 58.75, "costs": -0.25, "simulationMode": [null, null, null], "rewards": [2, 4, 48], "path": ["0", "0", "9", "10", "11"], "rt": [1963, 1968, 237], "actions": ["left", "left", "up"], "actionTimes": [3136, 5611, 6359], "queries": {"click": {"state": {"target": ["11"], "time": [2018]}, "edge": {"target": [], "time": []}}, "mouseover": {"state": {"target": ["11"], "time": [1674]}, "edge": {"target": [], "time": []}}, "mouseout": {"state": {"target": ["0"], "time": [1395]}, "edge": {"target": [], "time": []}}}, "displayed_time": "9.17", "trialTime": 9915, "trial_type": "mouselab-mdp", "trial_index": 70, "time_elapsed": 1631711, "internal_node_id": "0.0-4.0-3.0-24.0"}}, {"uniqueid": "w91500875:a96821613", "current_trial": 71, "dateTime": 1664369662217, "trialdata": {"revealed_states": [], "num_clicks_accrued": [0, 0, 0, 0, 0, 0, 0, 0, 0, 0, 0, 0, 0], "stateRewards": ["", -2, -8, -24, 24, -2, -8, -48, 24, -2, -8, 24, 24], "withholdReward": false, "trial_id": "mdp_336617436097", "block": "test2", "trialIndex": 59, "score": 17, "costs": -2, "simulationMode": [null, null, null], "rewards": [-2, -8, 24], "path": ["0", "0", "1", "2", "4"], "rt": [9526, 174, 175], "actions": ["up", "up", "left"], "actionTimes": [10942, 11625, 12297], "queries": {"click": {"state": {"target": ["7", "3", "4", "8", "11", "12", "10", "2"], "time": [2146, 3069, 4706, 5931, 7019, 7843, 9119, 10115]}, "edge": {"target": [], "time": []}}, "mouseover": {"state": {"target": ["7", "3", "2", "4", "1", "6", "8", "9", "11", "10", "12", "10", "2"], "time": [1736, 2716, 3522, 4378, 5236, 5268, 5602, 6529, 6595, 7389, 7489, 8732, 9740]}, "edge": {"target": [], "time": []}}, "mouseout": {"state": {"target": ["11", "7", "3", "2", "4", "1", "6", "8", "9", "11", "10", "12", "10"], "time": [696, 2683, 3490, 3606, 5220, 5252, 5285, 6481, 6545, 7340, 7456, 8533, 9505]}, "edge": {"target": [], "time": []}}}, "displayed_time": "12.79", "trialTime": 13776, "trial_type": "mouselab-mdp", "trial_index": 71, "time_elapsed": 1645583, "internal_node_id": "0.0-4.0-3.0-25.0"}}, {"uniqueid": "w91500875:a96821613", "current_trial": 72, "dateTime": 1664369676291, "trialdata": {"revealed_states": [], "num_clicks_accrued": [0, 0, 0, 0, 0, 0, 0, 0, 0, 0, 0, 0, 0], "stateRewards": ["", -2, -8, 24, -48, 4, 4, -24, -48, -2, -8, -48, 24], "withholdReward": true, "trial_id": "mdp_556006673466", "block": "test2", "trialIndex": 60, "score": 17, "costs": -2, "simulationMode": [null, null, null], "rewards": [-2, -8, 24], "path": ["0", "0", "9", "10", "12"], "rt": [9872, 144, 122], "actions": ["left", "left", "down"], "actionTimes": [11285, 11938, 12565], "queries": {"click": {"state": {"target": ["7", "3", "4", "11", "12", "8", "2", "10"], "time": [2296, 3181, 4235, 5136, 6110, 7253, 9791, 10733]}, "edge": {"target": [], "time": []}}, "mouseover": {"state": {"target": ["5", "7", "3", "2", "4", "11", "10", "12", "8", "2", "10"], "time": [1720, 1967, 2868, 3705, 3838, 4720, 5643, 5793, 6875, 8833, 10324]}, "edge": {"target": [], "time": []}}, "mouseout": {"state": {"target": ["2", "1", "0", "5", "7", "3", "2", "4", "11", "10", "12", "8", "2"], "time": [744, 914, 1669, 1753, 2801, 3689, 3755, 4583, 5613, 5693, 6385, 7885, 10142]}, "edge": {"target": [], "time": []}}}, "displayed_time": "13.06", "trialTime": 13974, "trial_type": "mouselab-mdp", "trial_index": 72, "time_elapsed": 1659658, "internal_node_id": "0.0-4.0-3.0-26.0"}}, {"uniqueid": "w91500875:a96821613", "current_trial": 73, "dateTime": 1664369687114, "trialdata": {"revealed_states": [], "num_clicks_accrued": [0, 0, 0, 0, 0, 0, 0, 0, 0, 0, 0, 0, 0], "stateRewards": ["", -2, -8, 48, 24, -2, 8, -48, -24, -2, 4, -48, 48], "withholdReward": true, "trial_id": "mdp_295220852217", "block": "test2", "trialIndex": 61, "score": 42.75, "costs": -0.25, "simulationMode": [null, null, null], "rewards": [-2, -8, 48], "path": ["0", "0", "1", "2", "3"], "rt": [1749, 1450, 1188], "actions": ["up", "up", "right"], "actionTimes": [3200, 5159, 6855], "queries": {"click": {"state": {"target": ["3"], "time": [2209]}, "edge": {"target": [], "time": []}}, "mouseover": {"state": {"target": ["3"], "time": [1908]}, "edge": {"target": [], "time": []}}, "mouseout": {"state": {"target": ["10", "9"], "time": [630, 647]}, "edge": {"target": [], "time": []}}}, "displayed_time": "10.45", "trialTime": 10723, "trial_type": "mouselab-mdp", "trial_index": 73, "time_elapsed": 1670480, "internal_node_id": "0.0-4.0-3.0-27.0"}}, {"uniqueid": "w91500875:a96821613", "current_trial": 74, "dateTime": 1664369696147, "trialdata": {"revealed_states": [], "num_clicks_accrued": [0, 0, 0, 0, 0, 0, 0, 0, 0, 0, 0, 0, 0], "stateRewards": ["", 2, -8, 48, -24, -4, -8, -24, 48, -2, 4, 24, -48], "withholdReward": true, "trial_id": "mdp_186932504904", "block": "test2", "trialIndex": 62, "score": 40.25, "costs": -0.75, "simulationMode": [null, null, null], "rewards": [-4, -8, 48], "path": ["0", "0", "5", "6", "8"], "rt": [4079, 803, 115], "actions": ["right", "right", "down"], "actionTimes": [5418, 6728, 7351], "queries": {"click": {"state": {"target": ["4", "7", "8"], "time": [2216, 3628, 4564]}, "edge": {"target": [], "time": []}}, "mouseover": {"state": {"target": ["4", "2", "3", "7", "6", "8", "6"], "time": [1938, 2813, 2829, 3263, 4103, 4271, 4845]}, "edge": {"target": [], "time": []}}, "mouseout": {"state": {"target": ["3", "4", "2", "3", "7", "6", "8", "6"], "time": [620, 2798, 2829, 2879, 4071, 4170, 4829, 4861]}, "edge": {"target": [], "time": []}}}, "displayed_time": "8.34", "trialTime": 8928, "trial_type": "mouselab-mdp", "trial_index": 74, "time_elapsed": 1679514, "internal_node_id": "0.0-4.0-3.0-28.0"}}, {"uniqueid": "w91500875:a96821613", "current_trial": 75, "dateTime": 1664369707752, "trialdata": {"revealed_states": [], "num_clicks_accrued": [0, 0, 0, 0, 0, 0, 0, 0, 0, 0, 0, 0, 0], "stateRewards": ["", -2, -4, -24, -48, -2, 8, -48, 24, 4, -4, -24, -24], "withholdReward": false, "trial_id": "mdp_915304165774", "block": "test2", "trialIndex": 63, "score": 33.5, "costs": -1.5, "simulationMode": [null, null, null], "rewards": [-2, 8, 24], "path": ["0", "0", "5", "6", "8"], "rt": [7681, 89, 105], "actions": ["right", "right", "down"], "actionTimes": [8966, 9567, 10163], "queries": {"click": {"state": {"target": ["11", "12", "3", "4", "7", "8"], "time": [2009, 3741, 4760, 5706, 6647, 7527]}, "edge": {"target": [], "time": []}}, "mouseover": {"state": {"target": ["11", "10", "12", "12", "9", "1", "3", "4", "2", "7", "6", "8"], "time": [1708, 2495, 2561, 3322, 4154, 4186, 4472, 5317, 6004, 6169, 7075, 7173]}, "edge": {"target": [], "time": []}}, "mouseout": {"state": {"target": ["3", "11", "10", "12", "12", "9", "1", "3", "4", "2", "7", "6"], "time": [627, 2462, 2527, 2694, 4120, 4169, 4236, 5217, 5989, 6038, 7034, 7124]}, "edge": {"target": [], "time": []}}}, "displayed_time": "10.67", "trialTime": 11502, "trial_type": "mouselab-mdp", "trial_index": 75, "time_elapsed": 1691119, "internal_node_id": "0.0-4.0-3.0-29.0"}}, {"uniqueid": "w91500875:a96821613", "current_trial": 76, "dateTime": 1664369719003, "trialdata": {"rt": 11243, "stimulus": "<h1> End of block! </h1>\n\nYou have reached the end of the block 2/4. If you need a short break, feel free to take one now before moving on.\n\n<br><br>\nIn the next block, you will complete another 30 rounds of this game.\n\n<br><br>\n<div style='text-align: center;'>Press <code>space</code> to begin.</div>\n<br><br>\n<div style='text-align: center;'>(If the experiment doesn't continue, try clicking on the text and then pressing <code>space</code>.)</div>", "response": " ", "trial_id": "mdp_ready_3", "trial_type": "html-keyboard-response", "trial_index": 76, "time_elapsed": 1702370, "internal_node_id": "0.0-4.0-4.0"}}, {"uniqueid": "w91500875:a96821613", "current_trial": 77, "dateTime": 1664369736064, "trialdata": {"revealed_states": [], "num_clicks_accrued": [0, 0, 0, 0, 0, 0, 0, 0, 0, 0, 0, 0, 0], "stateRewards": ["", -2, -8, -24, 24, -2, -8, -48, 24, -2, -8, 24, 24], "withholdReward": true, "trial_id": "mdp_336617436097", "block": "test3", "trialIndex": 64, "score": 16.75, "costs": -2.25, "simulationMode": [null, null, null], "rewards": [-2, -8, 24], "path": ["0", "0", "1", "2", "4"], "rt": [13113, 137, 70], "actions": ["up", "up", "left"], "actionTimes": [14569, 15197, 15780], "queries": {"click": {"state": {"target": ["3", "4", "11", "12", "7", "8", "6", "2", "10"], "time": [3269, 4893, 5723, 6523, 8218, 9200, 10736, 11956, 13192]}, "edge": {"target": [], "time": []}}, "mouseover": {"state": {"target": ["3", "2", "4", "4", "11", "10", "12", "6", "7", "6", "8", "6", "2", "2", "9", "10"], "time": [2897, 3707, 3757, 4562, 5326, 6057, 6209, 7626, 7775, 8524, 8809, 10385, 11309, 11585, 12522, 12823]}, "edge": {"target": [], "time": []}}, "mouseout": {"state": {"target": ["8", "0", "3", "2", "4", "4", "11", "10", "12", "6", "7", "6", "8", "6", "2", "2", "9"], "time": [853, 1664, 3690, 3740, 3807, 5227, 6024, 6124, 6821, 7642, 8493, 8607, 10151, 11244, 11326, 12407, 12540]}, "edge": {"target": [], "time": []}}}, "displayed_time": "16.29", "trialTime": 16910, "trial_type": "mouselab-mdp", "trial_index": 77, "time_elapsed": 1719430, "internal_node_id": "0.0-4.0-5.0-0.0"}}, {"uniqueid": "w91500875:a96821613", "current_trial": 78, "dateTime": 1664369746046, "trialdata": {"revealed_states": [], "num_clicks_accrued": [0, 0, 0, 0, 0, 0, 0, 0, 0, 0, 0, 0, 0], "stateRewards": ["", -2, -8, 48, 24, 2, 4, 24, -24, -2, -4, 48, -48], "withholdReward": true, "trial_id": "mdp_411152402386", "block": "test3", "trialIndex": 65, "score": 42.75, "costs": -0.25, "simulationMode": [null, null, null], "rewards": [-2, -8, 48], "path": ["0", "0", "1", "2", "3"], "rt": [1921, 71, 69], "actions": ["up", "up", "right"], "actionTimes": [3183, 3745, 4327], "queries": {"click": {"state": {"target": ["3"], "time": [2088]}, "edge": {"target": [], "time": []}}, "mouseover": {"state": {"target": ["3"], "time": [1804]}, "edge": {"target": [], "time": []}}, "mouseout": {"state": {"target": ["10", "9", "0", "3"], "time": [602, 831, 1455, 2657]}, "edge": {"target": [], "time": []}}}, "displayed_time": "9.26", "trialTime": 9866, "trial_type": "mouselab-mdp", "trial_index": 78, "time_elapsed": 1729413, "internal_node_id": "0.0-4.0-5.0-1.0"}}, {"uniqueid": "w91500875:a96821613", "current_trial": 79, "dateTime": 1664369757711, "trialdata": {"revealed_states": [], "num_clicks_accrued": [0, 0, 0, 0, 0, 0, 0, 0, 0, 0, 0, 0, 0], "stateRewards": ["", 2, 8, -48, 48, -4, -8, 24, 24, -2, -8, 24, -24], "withholdReward": true, "trial_id": "mdp_910248289075", "block": "test3", "trialIndex": 66, "score": 62, "costs": -1, "simulationMode": [null, null, null], "rewards": [2, 8, 48], "path": ["0", "0", "1", "2", "4"], "rt": [4256, 58, 22], "actions": ["up", "up", "left"], "actionTimes": [6879, 7444, 7991], "queries": {"click": {"state": {"target": ["7", "8", "3", "4"], "time": [3603, 4518, 5329, 6080]}, "edge": {"target": [], "time": []}}, "mouseover": {"state": {"target": ["7", "6", "8", "3", "2", "4"], "time": [3237, 4136, 4236, 5041, 5713, 5845]}, "edge": {"target": [], "time": []}}, "mouseout": {"state": {"target": ["5", "0", "7", "6", "8", "3", "2", "4", "11", "9"], "time": [648, 3093, 4085, 4186, 4858, 5663, 5748, 6481, 11064, 11128]}, "edge": {"target": [], "time": []}}}, "displayed_time": "10.62", "trialTime": 11547, "trial_type": "mouselab-mdp", "trial_index": 79, "time_elapsed": 1741077, "internal_node_id": "0.0-4.0-5.0-2.0"}}, {"uniqueid": "w91500875:a96821613", "current_trial": 80, "dateTime": 1664369768973, "trialdata": {"revealed_states": [], "num_clicks_accrued": [0, 0, 0, 0, 0, 0, 0, 0, 0, 0, 0, 0, 0], "stateRewards": ["", 4, 4, 48, -48, -2, 4, 48, -48, -4, 4, -24, -24], "withholdReward": false, "trial_id": "mdp_753324812898", "block": "test3", "trialIndex": 67, "score": 60.25, "costs": -0.75, "simulationMode": [null, null, null], "rewards": [4, 4, 48], "path": ["0", "0", "1", "2", "3"], "rt": [4822, 83, 71], "actions": ["up", "up", "right"], "actionTimes": [5954, 6544, 7131], "queries": {"click": {"state": {"target": ["11", "12", "3"], "time": [2081, 3451, 4520]}, "edge": {"target": [], "time": []}}, "mouseover": {"state": {"target": ["11", "10", "12", "12", "9", "1", "3"], "time": [1698, 2525, 2591, 3081, 3835, 3899, 4233]}, "edge": {"target": [], "time": []}}, "mouseout": {"state": {"target": ["0", "11", "10", "12", "12", "9", "1"], "time": [772, 2508, 2574, 2675, 3799, 3849, 3983]}, "edge": {"target": [], "time": []}}}, "displayed_time": "10.13", "trialTime": 11114, "trial_type": "mouselab-mdp", "trial_index": 80, "time_elapsed": 1752340, "internal_node_id": "0.0-4.0-5.0-3.0"}}, {"uniqueid": "w91500875:a96821613", "current_trial": 81, "dateTime": 1664369780507, "trialdata": {"revealed_states": [], "num_clicks_accrued": [0, 0, 0, 0, 0, 0, 0, 0, 0, 0, 0, 0, 0], "stateRewards": ["", 2, 8, -24, -48, 2, 4, -24, 48, 2, -8, 48, -24], "withholdReward": true, "trial_id": "mdp_791659307216", "block": "test3", "trialIndex": 68, "score": 58.5, "costs": -0.5, "simulationMode": [null, null, null], "rewards": [2, 4, 48], "path": ["0", "0", "5", "6", "8"], "rt": [2883, 568, 95], "actions": ["right", "right", "down"], "actionTimes": [4087, 5146, 5748], "queries": {"click": {"state": {"target": ["7", "8"], "time": [2166, 3137]}, "edge": {"target": [], "time": []}}, "mouseover": {"state": {"target": ["7", "6", "8"], "time": [1852, 2620, 2787]}, "edge": {"target": [], "time": []}}, "mouseout": {"state": {"target": ["3", "7", "6", "8"], "time": [608, 2587, 2687, 3457]}, "edge": {"target": [], "time": []}}}, "displayed_time": "11.21", "trialTime": 11432, "trial_type": "mouselab-mdp", "trial_index": 81, "time_elapsed": 1763874, "internal_node_id": "0.0-4.0-5.0-4.0"}}, {"uniqueid": "w91500875:a96821613", "current_trial": 82, "dateTime": 1664369794738, "trialdata": {"revealed_states": [], "num_clicks_accrued": [0, 0, 0, 0, 0, 0, 0, 0, 0, 0, 0, 0, 0], "stateRewards": ["", -2, -4, -24, -48, -2, 8, -48, 24, 4, -4, -24, -24], "withholdReward": false, "trial_id": "mdp_915304165774", "block": "test3", "trialIndex": 69, "score": 33, "costs": -2, "simulationMode": [null, null, null], "rewards": [-2, 8, 24], "path": ["0", "0", "5", "6", "8"], "rt": [9608, 41, 136], "actions": ["right", "right", "down"], "actionTimes": [10852, 11402, 12046], "queries": {"click": {"state": {"target": ["4", "3", "8", "7", "11", "12", "10", "6"], "time": [2027, 3757, 4838, 5773, 6844, 7656, 8805, 10105]}, "edge": {"target": [], "time": []}}, "mouseover": {"state": {"target": ["4", "3", "6", "8", "6", "7", "1", "11", "10", "12", "10", "9", "5", "6"], "time": [1600, 3423, 4311, 4410, 5331, 5414, 6140, 6523, 7157, 7289, 8271, 9278, 9377, 9694]}, "edge": {"target": [], "time": []}}, "mouseout": {"state": {"target": ["3", "0", "4", "3", "6", "8", "6", "7", "1", "11", "10", "12", "10", "9", "5"], "time": [639, 1481, 2534, 4211, 4344, 5298, 5364, 6074, 6173, 7135, 7222, 8171, 9262, 9294, 9427]}, "edge": {"target": [], "time": []}}}, "displayed_time": "12.54", "trialTime": 14131, "trial_type": "mouselab-mdp", "trial_index": 82, "time_elapsed": 1778104, "internal_node_id": "0.0-4.0-5.0-5.0"}}, {"uniqueid": "w91500875:a96821613", "current_trial": 83, "dateTime": 1664369804636, "trialdata": {"revealed_states": [], "num_clicks_accrued": [0, 0, 0, 0, 0, 0, 0, 0, 0, 0, 0, 0, 0], "stateRewards": ["", -2, -4, -48, -48, 4, -4, 48, 24, 4, 4, 48, 48], "withholdReward": true, "trial_id": "mdp_950960813932", "block": "test3", "trialIndex": 70, "score": 60.25, "costs": -0.75, "simulationMode": [null, null, null], "rewards": [4, 4, 48], "path": ["0", "0", "9", "10", "11"], "rt": [4126, 185, 134], "actions": ["left", "left", "up"], "actionTimes": [5303, 5996, 6637], "queries": {"click": {"state": {"target": ["3", "4", "11"], "time": [2111, 3225, 4278]}, "edge": {"target": [], "time": []}}, "mouseover": {"state": {"target": ["1", "3", "4", "4", "11"], "time": [1423, 1825, 2599, 2900, 3690]}, "edge": {"target": [], "time": []}}, "mouseout": {"state": {"target": ["6", "5", "0", "1", "3", "4", "4", "11", "0"], "time": [635, 732, 1406, 1439, 2566, 2649, 3609, 9568, 9640]}, "edge": {"target": [], "time": []}}}, "displayed_time": "9.18", "trialTime": 9781, "trial_type": "mouselab-mdp", "trial_index": 83, "time_elapsed": 1788003, "internal_node_id": "0.0-4.0-5.0-6.0"}}, {"uniqueid": "w91500875:a96821613", "current_trial": 84, "dateTime": 1664369815332, "trialdata": {"revealed_states": [], "num_clicks_accrued": [0, 0, 0, 0, 0, 0, 0, 0, 0, 0, 0, 0, 0], "stateRewards": ["", 2, -4, 48, -48, -2, 8, -48, 24, -2, -8, 48, 48], "withholdReward": true, "trial_id": "mdp_949326095747", "block": "test3", "trialIndex": 71, "score": 50.75, "costs": -0.25, "simulationMode": [null, null, null], "rewards": [2, -4, 48], "path": ["0", "0", "1", "2", "3"], "rt": [1707, 117, 1128], "actions": ["up", "up", "right"], "actionTimes": [2912, 3519, 5163], "queries": {"click": {"state": {"target": ["3"], "time": [1937]}, "edge": {"target": [], "time": []}}, "mouseover": {"state": {"target": ["3"], "time": [1610]}, "edge": {"target": [], "time": []}}, "mouseout": {"state": {"target": ["0"], "time": [1429]}, "edge": {"target": [], "time": []}}}, "displayed_time": "10.21", "trialTime": 10573, "trial_type": "mouselab-mdp", "trial_index": 84, "time_elapsed": 1798699, "internal_node_id": "0.0-4.0-5.0-7.0"}}, {"uniqueid": "w91500875:a96821613", "current_trial": 85, "dateTime": 1664369828508, "trialdata": {"revealed_states": [], "num_clicks_accrued": [0, 0, 0, 0, 0, 0, 0, 0, 0, 0, 0, 0, 0], "stateRewards": ["", -4, 4, -48, -48, -2, -8, -48, -24, 4, 8, -24, 24], "withholdReward": true, "trial_id": "mdp_449260894259", "block": "test3", "trialIndex": 72, "score": 39.25, "costs": -1.75, "simulationMode": [null, null, null], "rewards": [4, 8, 24], "path": ["0", "0", "9", "10", "12"], "rt": [9505, 48, 17], "actions": ["left", "left", "down"], "actionTimes": [10720, 11275, 11826], "queries": {"click": {"state": {"target": ["7", "8", "3", "4", "11", "12", "10"], "time": [2090, 3595, 4855, 5885, 7541, 9325, 10328]}, "edge": {"target": [], "time": []}}, "mouseover": {"state": {"target": ["7", "6", "8", "8", "3", "2", "4", "11", "11", "10", "12", "10"], "time": [1584, 2789, 2874, 3225, 4587, 5392, 5491, 6381, 7171, 7873, 8859, 9863]}, "edge": {"target": [], "time": []}}, "mouseout": {"state": {"target": ["3", "7", "6", "8", "8", "3", "2", "4", "11", "11", "10", "12"], "time": [655, 2756, 2822, 3005, 4154, 5358, 5424, 6315, 6464, 7823, 7940, 9761]}, "edge": {"target": [], "time": []}}}, "displayed_time": "12.33", "trialTime": 13076, "trial_type": "mouselab-mdp", "trial_index": 85, "time_elapsed": 1811874, "internal_node_id": "0.0-4.0-5.0-8.0"}}, {"uniqueid": "w91500875:a96821613", "current_trial": 86, "dateTime": 1664369839058, "trialdata": {"revealed_states": [], "num_clicks_accrued": [0, 0, 0, 0, 0, 0, 0, 0, 0, 0, 0, 0, 0], "stateRewards": ["", 4, -4, 48, -48, 2, 8, -48, 24, -2, -4, -24, 48], "withholdReward": true, "trial_id": "mdp_937564992306", "block": "test3", "trialIndex": 73, "score": 52.75, "costs": -0.25, "simulationMode": [null, null, null], "rewards": [4, -4, 48], "path": ["0", "0", "1", "2", "3"], "rt": [2137, 221, 175], "actions": ["up", "up", "right"], "actionTimes": [3324, 4052, 4734], "queries": {"click": {"state": {"target": ["3"], "time": [1977]}, "edge": {"target": [], "time": []}}, "mouseover": {"state": {"target": ["3"], "time": [1592]}, "edge": {"target": [], "time": []}}, "mouseout": {"state": {"target": ["10", "9", "0"], "time": [618, 731, 1408]}, "edge": {"target": [], "time": []}}}, "displayed_time": "10.19", "trialTime": 10444, "trial_type": "mouselab-mdp", "trial_index": 86, "time_elapsed": 1822424, "internal_node_id": "0.0-4.0-5.0-9.0"}}, {"uniqueid": "w91500875:a96821613", "current_trial": 87, "dateTime": 1664369850294, "trialdata": {"revealed_states": [], "num_clicks_accrued": [0, 0, 0, 0, 0, 0, 0, 0, 0, 0, 0, 0, 0], "stateRewards": ["", -2, -8, 48, -24, 2, -4, -48, -24, -2, -4, -48, 48], "withholdReward": true, "trial_id": "mdp_143798438087", "block": "test3", "trialIndex": 74, "score": 42.75, "costs": -0.25, "simulationMode": [null, null, null], "rewards": [-2, -8, 48], "path": ["0", "0", "1", "2", "3"], "rt": [2272, 96, 203], "actions": ["up", "up", "right"], "actionTimes": [3497, 4084, 4806], "queries": {"click": {"state": {"target": ["3"], "time": [2121]}, "edge": {"target": [], "time": []}}, "mouseover": {"state": {"target": ["3", "3"], "time": [1539, 1805]}, "edge": {"target": [], "time": []}}, "mouseout": {"state": {"target": ["3", "0", "3", "3", "0"], "time": [616, 1388, 1588, 2553, 10016]}, "edge": {"target": [], "time": []}}}, "displayed_time": "10.22", "trialTime": 11106, "trial_type": "mouselab-mdp", "trial_index": 87, "time_elapsed": 1833661, "internal_node_id": "0.0-4.0-5.0-10.0"}}, {"uniqueid": "w91500875:a96821613", "current_trial": 88, "dateTime": 1664369860781, "trialdata": {"revealed_states": [], "num_clicks_accrued": [0, 0, 0, 0, 0, 0, 0, 0, 0, 0, 0, 0, 0], "stateRewards": ["", -4, -4, 24, 48, 4, -4, -24, 24, -4, -4, 24, 24], "withholdReward": true, "trial_id": "mdp_357725458160", "block": "test3", "trialIndex": 75, "score": 44, "costs": -1, "simulationMode": [null, null, null], "rewards": [-4, -4, 48], "path": ["0", "0", "1", "2", "4"], "rt": [4828, 1144, 275], "actions": ["up", "up", "left"], "actionTimes": [5924, 7575, 8343], "queries": {"click": {"state": {"target": ["7", "8", "3", "4"], "time": [1965, 2942, 3918, 4906]}, "edge": {"target": [], "time": []}}, "mouseover": {"state": {"target": ["5", "7", "6", "8", "6", "3", "2", "4", "11"], "time": [1327, 1658, 2449, 2616, 3300, 3449, 4436, 4636, 5376]}, "edge": {"target": [], "time": []}}, "mouseout": {"state": {"target": ["0", "5", "7", "6", "8", "6", "3", "2", "4"], "time": [1277, 1346, 2419, 2515, 3299, 3333, 4388, 4537, 5260]}, "edge": {"target": [], "time": []}}}, "displayed_time": "9.10", "trialTime": 10359, "trial_type": "mouselab-mdp", "trial_index": 88, "time_elapsed": 1844147, "internal_node_id": "0.0-4.0-5.0-11.0"}}, {"uniqueid": "w91500875:a96821613", "current_trial": 89, "dateTime": 1664369871441, "trialdata": {"revealed_states": [], "num_clicks_accrued": [0, 0, 0, 0, 0, 0, 0, 0, 0, 0, 0, 0, 0], "stateRewards": ["", 2, -8, -24, 48, 4, -8, -24, -24, 2, 8, -24, 24], "withholdReward": true, "trial_id": "mdp_480787552818", "block": "test3", "trialIndex": 76, "score": 46, "costs": -1, "simulationMode": [null, null, null], "rewards": [2, -8, 48], "path": ["0", "0", "1", "2", "4"], "rt": [4596, 108, 66], "actions": ["up", "up", "left"], "actionTimes": [5844, 6459, 7035], "queries": {"click": {"state": {"target": ["11", "12", "3", "4"], "time": [2061, 2959, 4059, 4848]}, "edge": {"target": [], "time": []}}, "mouseover": {"state": {"target": ["11", "10", "12", "3", "2", "4", "2"], "time": [1700, 2433, 2499, 3741, 4425, 4507, 5113]}, "edge": {"target": [], "time": []}}, "mouseout": {"state": {"target": ["11", "9", "0", "11", "10", "12", "3", "2", "4", "2"], "time": [607, 696, 1452, 2418, 2482, 3342, 4391, 4474, 5082, 5128]}, "edge": {"target": [], "time": []}}}, "displayed_time": "10.25", "trialTime": 10549, "trial_type": "mouselab-mdp", "trial_index": 89, "time_elapsed": 1854808, "internal_node_id": "0.0-4.0-5.0-12.0"}}, {"uniqueid": "w91500875:a96821613", "current_trial": 90, "dateTime": 1664369892427, "trialdata": {"revealed_states": [], "num_clicks_accrued": [0, 0, 0, 0, 0, 0, 0, 0, 0, 0, 0, 0, 0], "stateRewards": ["", -4, -8, 24, -48, 2, 4, -48, -48, 2, -8, 24, 48], "withholdReward": true, "trial_id": "mdp_111262146724", "block": "test3", "trialIndex": 77, "score": 45.5, "costs": -1.5, "simulationMode": [null, null, null], "rewards": [2, -8, 48], "path": ["0", "0", "9", "10", "12"], "rt": [11573, 84, 133], "actions": ["left", "left", "down"], "actionTimes": [12893, 13485, 14118], "queries": {"click": {"state": {"target": ["4", "3", "7", "8", "11", "12"], "time": [5943, 6962, 7956, 9198, 10160, 11152]}, "edge": {"target": [], "time": []}}, "mouseover": {"state": {"target": ["1", "4", "2", "3", "7", "6", "8", "8", "11", "10", "12", "10"], "time": [5443, 5525, 6343, 6626, 7640, 8500, 8533, 8821, 9786, 10495, 10596, 11693]}, "edge": {"target": [], "time": []}}, "mouseout": {"state": {"target": ["1", "4", "2", "3", "7", "6", "8", "8", "11", "10", "12"], "time": [5475, 6311, 6443, 7357, 8483, 8517, 8645, 9552, 10463, 10533, 11627]}, "edge": {"target": [], "time": []}}}, "displayed_time": "14.63", "trialTime": 20862, "trial_type": "mouselab-mdp", "trial_index": 90, "time_elapsed": 1875794, "internal_node_id": "0.0-4.0-5.0-13.0"}}, {"uniqueid": "w91500875:a96821613", "current_trial": 91, "dateTime": 1664369912937, "trialdata": {"revealed_states": [], "num_clicks_accrued": [0, 0, 0, 0, 0, 0, 0, 0, 0, 0, 0, 0, 0], "stateRewards": ["", 2, 8, 24, -48, 4, 8, 24, 24, 4, -8, 48, 48], "withholdReward": false, "trial_id": "mdp_646103824875", "block": "test3", "trialIndex": 78, "score": 47.75, "costs": -1.25, "simulationMode": [null, null, null], "rewards": [4, -8, 48], "path": ["0", "0", "9", "10", "11"], "rt": [9948, 72, 88], "actions": ["left", "left", "up"], "actionTimes": [11293, 11855, 12473], "queries": {"click": {"state": {"target": ["3", "4", "7", "8", "11"], "time": [6023, 6944, 8241, 9369, 10446]}, "edge": {"target": [], "time": []}}, "mouseover": {"state": {"target": ["3", "2", "4", "7", "6", "8", "0", "11", "10", "12"], "time": [5666, 6490, 6540, 7865, 8770, 9070, 9745, 10146, 10713, 10829]}, "edge": {"target": [], "time": []}}, "mouseout": {"state": {"target": ["10", "9", "3", "2", "4", "7", "6", "8", "0", "11", "10"], "time": [630, 794, 6461, 6523, 7394, 8754, 8873, 9713, 9761, 10679, 10779]}, "edge": {"target": [], "time": []}}}, "displayed_time": "12.98", "trialTime": 20400, "trial_type": "mouselab-mdp", "trial_index": 91, "time_elapsed": 1896304, "internal_node_id": "0.0-4.0-5.0-14.0"}}, {"uniqueid": "w91500875:a96821613", "current_trial": 92, "dateTime": 1664369926379, "trialdata": {"revealed_states": [], "num_clicks_accrued": [0, 0, 0, 0, 0, 0, 0, 0, 0, 0, 0, 0, 0], "stateRewards": ["", -2, 8, 48, 24, 2, -4, 48, -48, 2, 8, 24, -24], "withholdReward": true, "trial_id": "mdp_176207245