{"condition": 1, "counterbalance": 0, "assignmentId": "a65482811", "workerId": "w92387285", "hitId": "h22058416", "currenttrial": 137, "bonus": 0, "data": [{"uniqueid": "w92387285:a65482811", "current_trial": 0, "dateTime": 1664554993609, "trialdata": {"success": true, "trial_type": "fullscreen", "trial_index": 0, "time_elapsed": 16043, "internal_node_id": "0.0-0.0"}}, {"uniqueid": "w92387285:a65482811", "current_trial": 1, "dateTime": 1664555087604, "trialdata": {"view_history": [{"page_index": 0, "viewing_time": 93978}], "rt": 93979, "trial_id": "exp_instructions_no_distractor", "trial_type": "instructions", "trial_index": 1, "time_elapsed": 110040, "internal_node_id": "0.0-1.0"}}, {"uniqueid": "w92387285:a65482811", "current_trial": 2, "dateTime": 1664555092417, "trialdata": {"success": true, "trial_type": "fullscreen", "trial_index": 2, "time_elapsed": 114853, "internal_node_id": "0.0-2.0-0.0"}}, {"uniqueid": "w92387285:a65482811", "current_trial": 3, "dateTime": 1664555373627, "trialdata": {"view_history": [{"page_index": 0, "viewing_time": 116152}, {"page_index": 1, "viewing_time": 64902}, {"page_index": 2, "viewing_time": 29316}, {"page_index": 3, "viewing_time": 20022}, {"page_index": 4, "viewing_time": 50812}], "rt": 281205, "trial_id": "mouselab_instructions_1", "trial_type": "instructions", "trial_index": 3, "time_elapsed": 396063, "internal_node_id": "0.0-2.0-1.0"}}, {"uniqueid": "w92387285:a65482811", "current_trial": 4, "dateTime": 1664555435640, "trialdata": {"revealed_states": [], "num_clicks_accrued": [0, 0, 0, 0, 0, 0, 0, 0, 0, 0, 0, 0, 0], "stateRewards": ["", -10, 10, -10, 10, 10, -10, 10, 10, 10, -10, 10, 10], "withholdReward": false, "trial_id": "practice_1", "block": "test", "trialIndex": 0, "score": 9, "costs": -3, "simulationMode": [null, null, null], "rewards": [-10, 10, 10], "path": ["0", "0", "1", "2", "4"], "rt": [40525, 2087, 716], "actions": ["up", "up", "left"], "actionTimes": [50309, 52883, 54095], "queries": {"click": {"state": {"target": ["1", "2", "3", "4", "11", "10", "9", "12", "5", "6", "7", "8"], "time": [22558, 24999, 25777, 26828, 29870, 30675, 31334, 33652, 34679, 35369, 36053, 36614]}, "edge": {"target": [], "time": []}}, "mouseover": {"state": {"target": ["0", "1", "0", "2", "3", "4", "9", "9", "11", "10", "9", "12", "0", "5", "6", "7", "8", "0"], "time": [10670, 22134, 24299, 24451, 25515, 26315, 28681, 29414, 29631, 30181, 31031, 33365, 34196, 34313, 35103, 35713, 36377, 37247]}, "edge": {"target": [], "time": []}}, "mouseout": {"state": {"target": ["5", "12", "0", "0", "1", "0", "1", "2", "3", "2", "4", "9", "9", "11", "10", "9", "12", "0", "5", "6", "7", "6", "8", "0", "5", "7"], "time": [4153, 4583, 9451, 10701, 23766, 24318, 24395, 25431, 26067, 26195, 28648, 28714, 29431, 30132, 30980, 33097, 33927, 34262, 34963, 35577, 36227, 36311, 36963, 37313, 37880, 38079]}, "edge": {"target": [], "time": []}}}, "displayed_time": "54.61", "trialTime": 61231, "trial_type": "mouselab-mdp", "trial_index": 4, "time_elapsed": 458075, "internal_node_id": "0.0-2.0-2.0-0.0"}}, {"uniqueid": "w92387285:a65482811", "current_trial": 5, "dateTime": 1664555458834, "trialdata": {"revealed_states": [], "num_clicks_accrued": [0, 0, 0, 0, 0, 0, 0, 0, 0, 0, 0, 0, 0], "stateRewards": ["", 10, -10, -10, -10, -10, -10, -10, 10, -10, 10, 10, 10], "withholdReward": false, "trial_id": "practice_2", "block": "test", "trialIndex": 1, "score": 9, "costs": -3, "simulationMode": [null, null, null], "rewards": [-10, 10, 10], "path": ["0", "0", "9", "10", "12"], "rt": [16792, 714, 142], "actions": ["left", "left", "down"], "actionTimes": [19235, 20452, 21108], "queries": {"click": {"state": {"target": ["1", "2", "3", "4", "11", "10", "9", "12", "5", "6", "7", "8"], "time": [7371, 7993, 8686, 9252, 9862, 10375, 10810, 11385, 12216, 12801, 13220, 13725]}, "edge": {"target": [], "time": []}}, "mouseover": {"state": {"target": ["0", "5", "1", "2", "3", "4", "11", "10", "9", "12", "0", "5", "6", "7", "8"], "time": [3867, 6934, 7017, 7768, 8467, 9084, 9584, 10184, 10631, 11181, 11833, 11983, 12631, 13083, 13580]}, "edge": {"target": [], "time": []}}, "mouseout": {"state": {"target": ["5", "0", "0", "5", "1", "2", "3", "2", "4", "11", "10", "9", "12", "0", "5", "6", "7", "6", "8", "6"], "time": [1850, 2200, 3887, 6984, 7718, 8351, 8900, 9001, 9517, 10117, 10581, 11114, 11615, 11917, 12414, 12980, 13414, 13497, 13952, 14080]}, "edge": {"target": [], "time": []}}}, "displayed_time": "21.60", "trialTime": 23083, "trial_type": "mouselab-mdp", "trial_index": 5, "time_elapsed": 481269, "internal_node_id": "0.0-2.0-2.0-1.0"}}, {"uniqueid": "w92387285:a65482811", "current_trial": 6, "dateTime": 1664555596252, "trialdata": {"view_history": [{"page_index": 0, "viewing_time": 90164}, {"page_index": 1, "viewing_time": 24762}, {"page_index": 2, "viewing_time": 22484}], "rt": 137410, "trial_id": "mouselab_instructions_2_scarce", "trial_type": "instructions", "trial_index": 6, "time_elapsed": 618688, "internal_node_id": "0.0-2.0-3.0"}}, {"uniqueid": "w92387285:a65482811", "current_trial": 7, "dateTime": 1664555664470, "trialdata": {"rt": 68211, "response": {"Q0": "$-48 to $48", "Q1": "The cost is always $0.25.", "Q2": "The better I perform the higher my bonus will be.", "Q3": "No, the amount of cash at each node of the web may be different each time.", "Q4": "The values of the nodes walked through from start to finish.", "Q5": "No, the spider might forget to count the money on some rounds."}, "question_order": [0, 1, 2, 3, 4, 5], "correct": {"Q0": "$-48 to $48", "Q1": "The cost is always $0.25.", "Q2": "The better I perform the higher my bonus will be.", "Q3": "No, the amount of cash at each node of the web may be different each time.", "Q4": "The values of the nodes walked through from start to finish.", "Q5": "No, the spider might forget to count the money on some rounds."}, "trial_id": "mouselab_quiz_scarce", "trial_type": "survey-multi-choice", "trial_index": 7, "time_elapsed": 686906, "internal_node_id": "0.0-2.0-4.0"}}, {"uniqueid": "w92387285:a65482811", "current_trial": 8, "dateTime": 1664555698177, "trialdata": {"rt": 33693, "stimulus": "\n<h1> Get ready to start the game! </h1>\n\nThank you for reading the instructions. Get ready start with the first of 4 block(s) of this game.\n<br><br>\nIn this first block, you will complete 30 rounds of this game before moving on.\n<br><br>\nRemember, the more money the spider gets, the bigger your bonus will be!\n<br><br>\n<div style='text-align: center;'>Press <code>space</code> to begin.</div>\n\n<br><br>\n(If, at any point, the <code>space</code> key does not take you to the next page, click once on the text and try again.)", "response": " ", "trial_id": "mdp_ready_1", "trial_type": "html-keyboard-response", "trial_index": 8, "time_elapsed": 720613, "internal_node_id": "0.0-4.0-0.0"}}, {"uniqueid": "w92387285:a65482811", "current_trial": 9, "dateTime": 1664555715655, "trialdata": {"revealed_states": [], "num_clicks_accrued": [0, 0, 0, 0, 0, 0, 0, 0, 0, 0, 0, 0, 0], "stateRewards": ["", -2, 8, 48, 48, 2, 4, -48, 24, -4, -8, 48, 24], "withholdReward": true, "trial_id": "mdp_572910394648", "block": "test1", "trialIndex": 2, "score": 59, "costs": 0, "simulationMode": [null, null, null], "rewards": [-2, 8, 48], "path": ["0", "0", "1", "2", "3"], "rt": [3073, 1029, 561], "actions": ["up", "up", "right"], "actionTimes": [6771, 8319, 9399], "queries": {"click": {"state": {"target": [], "time": []}, "edge": {"target": [], "time": []}}, "mouseover": {"state": {"target": ["6"], "time": [5056]}, "edge": {"target": [], "time": []}}, "mouseout": {"state": {"target": ["5", "6"], "time": [2688, 5073]}, "edge": {"target": [], "time": []}}}, "displayed_time": "12.70", "trialTime": 17360, "trial_type": "mouselab-mdp", "trial_index": 9, "time_elapsed": 738090, "internal_node_id": "0.0-4.0-1.0-0.0"}}, {"uniqueid": "w92387285:a65482811", "current_trial": 10, "dateTime": 1664555731911, "trialdata": {"revealed_states": [], "num_clicks_accrued": [0, 0, 0, 0, 0, 0, 0, 0, 0, 0, 0, 0, 0], "stateRewards": ["", 2, -8, 48, -24, -4, -8, -24, 48, -2, 4, 24, -48], "withholdReward": false, "trial_id": "mdp_186932504904", "block": "test1", "trialIndex": 3, "score": -31, "costs": 0, "simulationMode": [null, null, null], "rewards": [-4, -8, -24], "path": ["0", "0", "5", "6", "7"], "rt": [2301, 743, 562], "actions": ["right", "right", "up"], "actionTimes": [5049, 6302, 7371], "queries": {"click": {"state": {"target": [], "time": []}, "edge": {"target": [], "time": []}}, "mouseover": {"state": {"target": [], "time": []}, "edge": {"target": [], "time": []}}, "mouseout": {"state": {"target": ["8", "12", "9", "0"], "time": [1989, 2189, 2339, 2406]}, "edge": {"target": [], "time": []}}}, "displayed_time": "11.75", "trialTime": 16153, "trial_type": "mouselab-mdp", "trial_index": 10, "time_elapsed": 754347, "internal_node_id": "0.0-4.0-1.0-1.0"}}, {"uniqueid": "w92387285:a65482811", "current_trial": 11, "dateTime": 1664555748355, "trialdata": {"revealed_states": [], "num_clicks_accrued": [0, 0, 0, 0, 0, 0, 0, 0, 0, 0, 0, 0, 0], "stateRewards": ["", 4, 8, -24, 48, 4, -8, -48, 48, -4, 8, -24, -48], "withholdReward": true, "trial_id": "mdp_376126356841", "block": "test1", "trialIndex": 4, "score": 62, "costs": -3, "simulationMode": [null, null, null], "rewards": [4, 8, 48], "path": ["0", "0", "1", "2", "4"], "rt": [10259, 212, 674], "actions": ["up", "up", "left"], "actionTimes": [12025, 12734, 13926], "queries": {"click": {"state": {"target": ["9", "10", "11", "12", "4", "2", "1", "3", "5", "6", "7", "8"], "time": [3302, 4110, 4626, 5246, 6078, 6958, 7402, 8106, 8763, 9400, 9805, 10373]}, "edge": {"target": [], "time": []}}, "mouseover": {"state": {"target": ["9", "10", "9", "10", "11", "12", "4", "4", "2", "1", "3", "3", "5", "5", "6", "7", "8"], "time": [2638, 2755, 2955, 3736, 4372, 4936, 5704, 5904, 6521, 7202, 7652, 7938, 8368, 8554, 9135, 9637, 10137]}, "edge": {"target": [], "time": []}}, "mouseout": {"state": {"target": ["0", "9", "10", "9", "10", "11", "10", "12", "4", "4", "2", "1", "3", "3", "5", "5", "6", "7", "6", "8"], "time": [1698, 2688, 2871, 3638, 4269, 4802, 4852, 5452, 5738, 6388, 7168, 7551, 7704, 8301, 8435, 9018, 9568, 9951, 10020, 10634]}, "edge": {"target": [], "time": []}}}, "displayed_time": "14.44", "trialTime": 16331, "trial_type": "mouselab-mdp", "trial_index": 11, "time_elapsed": 770791, "internal_node_id": "0.0-4.0-1.0-2.0"}}, {"uniqueid": "w92387285:a65482811", "current_trial": 12, "dateTime": 1664555769880, "trialdata": {"revealed_states": [], "num_clicks_accrued": [0, 0, 0, 0, 0, 0, 0, 0, 0, 0, 0, 0, 0], "stateRewards": ["", 2, 8, -48, 24, -4, 8, 48, -24, 2, 8, 24, 24], "withholdReward": true, "trial_id": "mdp_175372499314", "block": "test1", "trialIndex": 5, "score": 36, "costs": -3, "simulationMode": [null, null, null], "rewards": [2, 8, 24], "path": ["0", "0", "9", "10", "12"], "rt": [11747, 186, 131], "actions": ["left", "left", "down"], "actionTimes": [16893, 17580, 18222], "queries": {"click": {"state": {"target": ["1", "2", "3", "4", "9", "12", "10", "11", "7", "6", "8", "5"], "time": [6585, 7083, 7631, 8591, 9362, 9973, 10643, 11090, 12000, 12614, 13054, 13617]}, "edge": {"target": [], "time": []}}, "mouseover": {"state": {"target": ["1", "2", "3", "4", "9", "12", "10", "10", "11", "7", "6", "8", "5"], "time": [6404, 6921, 7461, 8357, 9073, 9637, 10054, 10373, 10920, 11490, 12254, 12856, 13387]}, "edge": {"target": [], "time": []}}, "mouseout": {"state": {"target": ["6", "0", "1", "2", "3", "2", "4", "9", "12", "10", "10", "11", "7", "6", "8", "5"], "time": [4606, 5928, 6821, 7274, 7838, 7992, 8874, 9537, 10037, 10120, 10837, 11320, 12203, 12787, 13157, 13853]}, "edge": {"target": [], "time": []}}}, "displayed_time": "18.72", "trialTime": 21394, "trial_type": "mouselab-mdp", "trial_index": 12, "time_elapsed": 792315, "internal_node_id": "0.0-4.0-1.0-3.0"}}, {"uniqueid": "w92387285:a65482811", "current_trial": 13, "dateTime": 1664555782950, "trialdata": {"revealed_states": [], "num_clicks_accrued": [0, 0, 0, 0, 0, 0, 0, 0, 0, 0, 0, 0, 0], "stateRewards": ["", -4, 8, -24, 48, 2, -8, 24, 48, 2, -8, -24, -48], "withholdReward": true, "trial_id": "mdp_493778446445", "block": "test1", "trialIndex": 6, "score": -15, "costs": 0, "simulationMode": [null, null, null], "rewards": [-4, 8, -24], "path": ["0", "0", "1", "2", "3"], "rt": [3428, 143, 293], "actions": ["up", "up", "right"], "actionTimes": [5562, 6218, 7007], "queries": {"click": {"state": {"target": [], "time": []}, "edge": {"target": [], "time": []}}, "mouseover": {"state": {"target": [], "time": []}, "edge": {"target": [], "time": []}}, "mouseout": {"state": {"target": ["0"], "time": [1623]}, "edge": {"target": [], "time": []}}}, "displayed_time": "10.15", "trialTime": 12968, "trial_type": "mouselab-mdp", "trial_index": 13, "time_elapsed": 805386, "internal_node_id": "0.0-4.0-1.0-4.0"}}, {"uniqueid": "w92387285:a65482811", "current_trial": 14, "dateTime": 1664555794708, "trialdata": {"revealed_states": [], "num_clicks_accrued": [0, 0, 0, 0, 0, 0, 0, 0, 0, 0, 0, 0, 0], "stateRewards": ["", -4, -4, 24, -24, 4, 4, 24, 48, 4, -4, 48, -48], "withholdReward": true, "trial_id": "mdp_522385334882", "block": "test1", "trialIndex": 7, "score": -27, "costs": 0, "simulationMode": [null, null, null], "rewards": [-4, -4, -24], "path": ["0", "0", "1", "2", "4"], "rt": [2221, 101, 213], "actions": ["up", "up", "left"], "actionTimes": [3109, 3719, 4431], "queries": {"click": {"state": {"target": [], "time": []}, "edge": {"target": [], "time": []}}, "mouseover": {"state": {"target": [], "time": []}, "edge": {"target": [], "time": []}}, "mouseout": {"state": {"target": ["0"], "time": [827]}, "edge": {"target": [], "time": []}}}, "displayed_time": "9.89", "trialTime": 11650, "trial_type": "mouselab-mdp", "trial_index": 14, "time_elapsed": 817144, "internal_node_id": "0.0-4.0-1.0-5.0"}}, {"uniqueid": "w92387285:a65482811", "current_trial": 15, "dateTime": 1664555806203, "trialdata": {"revealed_states": [], "num_clicks_accrued": [0, 0, 0, 0, 0, 0, 0, 0, 0, 0, 0, 0, 0], "stateRewards": ["", 2, -4, -48, 24, -4, 4, 24, 24, 2, -8, -24, -48], "withholdReward": true, "trial_id": "mdp_807654778305", "block": "test1", "trialIndex": 8, "score": 29, "costs": 0, "simulationMode": [null, null, null], "rewards": [-4, 4, 24], "path": ["0", "0", "5", "6", "8"], "rt": [1605, 225, 522], "actions": ["right", "right", "down"], "actionTimes": [2691, 3422, 4451], "queries": {"click": {"state": {"target": [], "time": []}, "edge": {"target": [], "time": []}}, "mouseover": {"state": {"target": [], "time": []}, "edge": {"target": [], "time": []}}, "mouseout": {"state": {"target": ["0"], "time": [1001]}, "edge": {"target": [], "time": []}}}, "displayed_time": "9.09", "trialTime": 11376, "trial_type": "mouselab-mdp", "trial_index": 15, "time_elapsed": 828639, "internal_node_id": "0.0-4.0-1.0-6.0"}}, {"uniqueid": "w92387285:a65482811", "current_trial": 16, "dateTime": 1664555821418, "trialdata": {"revealed_states": [], "num_clicks_accrued": [0, 0, 0, 0, 0, 0, 0, 0, 0, 0, 0, 0, 0], "stateRewards": ["", 2, 8, 48, -48, -2, -4, -24, 24, 4, -4, 48, -48], "withholdReward": true, "trial_id": "mdp_105734044587", "block": "test1", "trialIndex": 9, "score": 60, "costs": -3, "simulationMode": [null, null, null], "rewards": [2, 8, 48], "path": ["0", "0", "1", "2", "3"], "rt": [9843, 114, 255], "actions": ["up", "up", "right"], "actionTimes": [11077, 11687, 12460], "queries": {"click": {"state": {"target": ["9", "10", "11", "12", "4", "2", "1", "3", "5", "6", "7", "8"], "time": [2076, 2610, 3079, 3841, 4946, 5571, 5995, 6681, 7264, 7910, 8337, 8853]}, "edge": {"target": [], "time": []}}, "mouseover": {"state": {"target": ["0", "9", "10", "11", "12", "4", "2", "1", "3", "5", "6", "7", "8"], "time": [1756, 1853, 2370, 2887, 3670, 4756, 5320, 5819, 6455, 7019, 7688, 8102, 8655]}, "edge": {"target": [], "time": []}}, "mouseout": {"state": {"target": ["0", "0", "9", "10", "11", "10", "12", "9", "4", "2", "1", "2", "3", "5", "6", "7", "6", "8"], "time": [1154, 1793, 2303, 2803, 3324, 3437, 4257, 4339, 5122, 5769, 6256, 6341, 6869, 7436, 8043, 8502, 8586, 9071]}, "edge": {"target": [], "time": []}}}, "displayed_time": "12.97", "trialTime": 15104, "trial_type": "mouselab-mdp", "trial_index": 16, "time_elapsed": 843853, "internal_node_id": "0.0-4.0-1.0-7.0"}}, {"uniqueid": "w92387285:a65482811", "current_trial": 17, "dateTime": 1664555843233, "trialdata": {"revealed_states": [], "num_clicks_accrued": [0, 0, 0, 0, 0, 0, 0, 0, 0, 0, 0, 0, 0], "stateRewards": ["", -4, 8, -48, -48, -4, 4, -24, -48, 2, -4, -24, 24], "withholdReward": false, "trial_id": "mdp_183773275291", "block": "test1", "trialIndex": 10, "score": 27, "costs": 0, "simulationMode": [null, null, null], "rewards": [2, -4, 24], "path": ["0", "0", "9", "10", "12"], "rt": [3040, 4, 389], "actions": ["left", "left", "down"], "actionTimes": [5081, 5578, 6498], "queries": {"click": {"state": {"target": [], "time": []}, "edge": {"target": [], "time": []}}, "mouseover": {"state": {"target": [], "time": []}, "edge": {"target": [], "time": []}}, "mouseout": {"state": {"target": ["8", "0", "0"], "time": [1307, 1823, 20760]}, "edge": {"target": [], "time": []}}}, "displayed_time": "10.04", "trialTime": 21706, "trial_type": "mouselab-mdp", "trial_index": 17, "time_elapsed": 865668, "internal_node_id": "0.0-4.0-1.0-8.0"}}, {"uniqueid": "w92387285:a65482811", "current_trial": 18, "dateTime": 1664555853378, "trialdata": {"revealed_states": [], "num_clicks_accrued": [0, 0, 0, 0, 0, 0, 0, 0, 0, 0, 0, 0, 0], "stateRewards": ["", -2, -8, 24, -48, -4, 8, -48, -24, 4, 8, -24, 24], "withholdReward": true, "trial_id": "mdp_940444641142", "block": "test1", "trialIndex": 11, "score": -39, "costs": 0, "simulationMode": [null, null, null], "rewards": [-4, 8, -48], "path": ["0", "0", "5", "6", "7"], "rt": [2409, 563, 279], "actions": ["right", "right", "up"], "actionTimes": [4081, 5152, 5955], "queries": {"click": {"state": {"target": [], "time": []}, "edge": {"target": [], "time": []}}, "mouseover": {"state": {"target": [], "time": []}, "edge": {"target": [], "time": []}}, "mouseout": {"state": {"target": ["5", "0"], "time": [1255, 1790]}, "edge": {"target": [], "time": []}}}, "displayed_time": "8.67", "trialTime": 10019, "trial_type": "mouselab-mdp", "trial_index": 18, "time_elapsed": 875814, "internal_node_id": "0.0-4.0-1.0-9.0"}}, {"uniqueid": "w92387285:a65482811", "current_trial": 19, "dateTime": 1664555873636, "trialdata": {"revealed_states": [], "num_clicks_accrued": [0, 0, 0, 0, 0, 0, 0, 0, 0, 0, 0, 0, 0], "stateRewards": ["", -2, 8, -24, 48, -4, 4, -48, 24, 4, -8, 48, -24], "withholdReward": false, "trial_id": "mdp_425320427962", "block": "test1", "trialIndex": 12, "score": -13, "costs": 0, "simulationMode": [null, null, null], "rewards": [-2, 8, -24], "path": ["0", "0", "1", "2", "3"], "rt": [1043, 620, 334], "actions": ["up", "up", "right"], "actionTimes": [3022, 4163, 5011], "queries": {"click": {"state": {"target": [], "time": []}, "edge": {"target": [], "time": []}}, "mouseover": {"state": {"target": [], "time": []}, "edge": {"target": [], "time": []}}, "mouseout": {"state": {"target": ["0"], "time": [1910]}, "edge": {"target": [], "time": []}}}, "displayed_time": "8.98", "trialTime": 20148, "trial_type": "mouselab-mdp", "trial_index": 19, "time_elapsed": 896072, "internal_node_id": "0.0-4.0-1.0-10.0"}}, {"uniqueid": "w92387285:a65482811", "current_trial": 20, "dateTime": 1664555889379, "trialdata": {"revealed_states": [], "num_clicks_accrued": [0, 0, 0, 0, 0, 0, 0, 0, 0, 0, 0, 0, 0], "stateRewards": ["", -2, -4, -48, 48, -2, -4, 24, 48, -4, -8, -24, 24], "withholdReward": true, "trial_id": "mdp_917590390609", "block": "test1", "trialIndex": 13, "score": 44, "costs": -3, "simulationMode": [null, null, null], "rewards": [-2, -4, 48], "path": ["0", "0", "5", "6", "8"], "rt": [11352, 285, 444], "actions": ["right", "right", "down"], "actionTimes": [11783, 12575, 13534], "queries": {"click": {"state": {"target": ["1", "2", "3", "4", "11", "10", "12", "9", "5", "6", "7", "8"], "time": [1145, 1511, 2155, 2723, 3283, 3696, 4109, 4804, 5411, 6006, 6403, 7072]}, "edge": {"target": [], "time": []}}, "mouseover": {"state": {"target": ["1", "2", "3", "4", "11", "10", "12", "9", "9", "0", "5", "6", "6", "7", "8", "8"], "time": [854, 1336, 1686, 2434, 2934, 3534, 3950, 4317, 4619, 5019, 5169, 5567, 5837, 6167, 6621, 6735]}, "edge": {"target": [], "time": []}}, "mouseout": {"state": {"target": ["0", "1", "2", "3", "2", "4", "11", "10", "12", "9", "9", "0", "5", "6", "6", "7", "6", "8", "8"], "time": [740, 1284, 1651, 2300, 2400, 2884, 3467, 3867, 4267, 4386, 4985, 5069, 5533, 5600, 6109, 6550, 6583, 6653, 7435]}, "edge": {"target": [], "time": []}}}, "displayed_time": "14.05", "trialTime": 15621, "trial_type": "mouselab-mdp", "trial_index": 20, "time_elapsed": 911814, "internal_node_id": "0.0-4.0-1.0-11.0"}}, {"uniqueid": "w92387285:a65482811", "current_trial": 21, "dateTime": 1664555904076, "trialdata": {"revealed_states": [], "num_clicks_accrued": [0, 0, 0, 0, 0, 0, 0, 0, 0, 0, 0, 0, 0], "stateRewards": ["", 4, 4, -24, -48, -4, 4, -48, 24, 4, -8, -48, 48], "withholdReward": false, "trial_id": "mdp_566768794366", "block": "test1", "trialIndex": 14, "score": 46, "costs": -3, "simulationMode": [null, null, null], "rewards": [4, -8, 48], "path": ["0", "0", "9", "10", "12"], "rt": [10027, 107, 142], "actions": ["left", "left", "down"], "actionTimes": [11581, 12197, 12849], "queries": {"click": {"state": {"target": ["1", "2", "4", "3", "5", "6", "7", "8", "12", "10", "11", "9"], "time": [2481, 2871, 3369, 4091, 4753, 5308, 6056, 6582, 7453, 7856, 8525, 9236]}, "edge": {"target": [], "time": []}}, "mouseover": {"state": {"target": ["1", "2", "4", "3", "5", "6", "7", "8", "12", "12", "10", "11", "9"], "time": [2273, 2654, 3207, 3874, 4540, 5022, 5471, 6304, 6937, 7190, 7604, 8204, 8940]}, "edge": {"target": [], "time": []}}, "mouseout": {"state": {"target": ["8", "0", "1", "2", "4", "3", "5", "6", "7", "6", "8", "12", "12", "10", "11", "9"], "time": [806, 1189, 2604, 3037, 3504, 4254, 4887, 5424, 6220, 6287, 6854, 6971, 7573, 8154, 8670, 9420]}, "edge": {"target": [], "time": []}}}, "displayed_time": "13.36", "trialTime": 14574, "trial_type": "mouselab-mdp", "trial_index": 21, "time_elapsed": 926511, "internal_node_id": "0.0-4.0-1.0-12.0"}}, {"uniqueid": "w92387285:a65482811", "current_trial": 22, "dateTime": 1664555917832, "trialdata": {"revealed_states": [], "num_clicks_accrued": [0, 0, 0, 0, 0, 0, 0, 0, 0, 0, 0, 0, 0], "stateRewards": ["", -2, 8, -48, -24, -2, 8, 48, -48, -4, 8, 24, 48], "withholdReward": true, "trial_id": "mdp_160707003673", "block": "test1", "trialIndex": 15, "score": 55.5, "costs": -1.5, "simulationMode": [null, null, null], "rewards": [-4, 8, 48], "path": ["0", "0", "9", "10", "12"], "rt": [7313, 513, 450], "actions": ["left", "left", "down"], "actionTimes": [10127, 11180, 12135], "queries": {"click": {"state": {"target": ["2", "1", "9", "5", "10", "12"], "time": [4727, 5514, 6428, 7140, 8116, 8754]}, "edge": {"target": [], "time": []}}, "mouseover": {"state": {"target": ["1", "1", "2", "1", "1", "0", "9", "9", "0", "5", "10", "12", "12"], "time": [3317, 3549, 4465, 4996, 5315, 5764, 5914, 6183, 6680, 6979, 7833, 8330, 8549]}, "edge": {"target": [], "time": []}}, "mouseout": {"state": {"target": ["0", "1", "1", "2", "1", "1", "0", "9", "9", "0", "5", "10", "12", "12"], "time": [2398, 3381, 4380, 4963, 5149, 5717, 5781, 5999, 6613, 6696, 7263, 8297, 8346, 8896]}, "edge": {"target": [], "time": []}}}, "displayed_time": "12.65", "trialTime": 13641, "trial_type": "mouselab-mdp", "trial_index": 22, "time_elapsed": 940268, "internal_node_id": "0.0-4.0-1.0-13.0"}}, {"uniqueid": "w92387285:a65482811", "current_trial": 23, "dateTime": 1664555937415, "trialdata": {"revealed_states": [], "num_clicks_accrued": [0, 0, 0, 0, 0, 0, 0, 0, 0, 0, 0, 0, 0], "stateRewards": ["", -2, -4, -24, -48, -2, 8, -48, 24, 4, -4, -24, -24], "withholdReward": false, "trial_id": "mdp_915304165774", "block": "test1", "trialIndex": 16, "score": 32.75, "costs": -2.25, "simulationMode": [null, null, null], "rewards": [-2, 8, 24], "path": ["0", "0", "5", "6", "8"], "rt": [13285, 144, 301], "actions": ["right", "right", "down"], "actionTimes": [15292, 15945, 16739], "queries": {"click": {"state": {"target": ["1", "9", "5", "12", "7", "8", "4", "3", "11"], "time": [3481, 4107, 4645, 6923, 8645, 9573, 11110, 11720, 12968]}, "edge": {"target": [], "time": []}}, "mouseover": {"state": {"target": ["2", "1", "1", "9", "5", "8", "6", "12", "8", "6", "7", "6", "8", "3", "2", "2", "4", "2", "3", "11"], "time": [2752, 2918, 3041, 3935, 4399, 5100, 5218, 5985, 7782, 7865, 8019, 8815, 8981, 10301, 10332, 10634, 10884, 11282, 11532, 12768]}, "edge": {"target": [], "time": []}}, "mouseout": {"state": {"target": ["0", "2", "1", "1", "9", "5", "8", "6", "12", "8", "6", "7", "6", "8", "7", "3", "2", "2", "4", "2", "3", "9", "11"], "time": [2353, 2885, 2985, 3683, 4249, 4849, 5117, 5535, 7082, 7832, 7918, 8798, 8865, 9798, 10065, 10318, 10349, 10701, 11265, 11331, 11914, 12464, 13114]}, "edge": {"target": [], "time": []}}}, "displayed_time": "17.25", "trialTime": 19461, "trial_type": "mouselab-mdp", "trial_index": 23, "time_elapsed": 959851, "internal_node_id": "0.0-4.0-1.0-14.0"}}, {"uniqueid": "w92387285:a65482811", "current_trial": 24, "dateTime": 1664555950438, "trialdata": {"revealed_states": [], "num_clicks_accrued": [0, 0, 0, 0, 0, 0, 0, 0, 0, 0, 0, 0, 0], "stateRewards": ["", 4, -4, 48, 24, 2, -8, 24, -48, -2, -4, -48, -48], "withholdReward": false, "trial_id": "mdp_655302318695", "block": "test1", "trialIndex": 17, "score": 52, "costs": -1, "simulationMode": [null, null, null], "rewards": [4, -4, 48], "path": ["0", "0", "1", "2", "3"], "rt": [6086, 72, 366], "actions": ["up", "up", "right"], "actionTimes": [7900, 8491, 9370], "queries": {"click": {"state": {"target": ["12", "11", "4", "3"], "time": [3086, 3707, 4206, 5001]}, "edge": {"target": [], "time": []}}, "mouseover": {"state": {"target": ["0", "9", "12", "10", "11", "4", "2", "3", "3", "7", "6"], "time": [2437, 2568, 2837, 3267, 3386, 3951, 4351, 4387, 4651, 5553, 6186]}, "edge": {"target": [], "time": []}}, "mouseout": {"state": {"target": ["0", "0", "9", "12", "10", "11", "4", "2", "3", "3", "7", "6"], "time": [1402, 2535, 2584, 3251, 3353, 3884, 4334, 4370, 4420, 5167, 6069, 6203]}, "edge": {"target": [], "time": []}}}, "displayed_time": "10.81", "trialTime": 12905, "trial_type": "mouselab-mdp", "trial_index": 24, "time_elapsed": 972874, "internal_node_id": "0.0-4.0-1.0-15.0"}}, {"uniqueid": "w92387285:a65482811", "current_trial": 25, "dateTime": 1664555973269, "trialdata": {"revealed_states": [], "num_clicks_accrued": [0, 0, 0, 0, 0, 0, 0, 0, 0, 0, 0, 0, 0], "stateRewards": ["", 2, 8, -24, -48, -4, 8, -48, -48, -2, -8, -24, -24], "withholdReward": true, "trial_id": "mdp_978177451072", "block": "test1", "trialIndex": 18, "score": -12, "costs": -3, "simulationMode": [null, null, null], "rewards": [2, 8, -24], "path": ["0", "0", "1", "2", "3"], "rt": [13977, 352, 4465], "actions": ["up", "up", "right"], "actionTimes": [15344, 16213, 21193], "queries": {"click": {"state": {"target": ["12", "11", "4", "3", "7", "8", "9", "5", "1", "10", "6", "2"], "time": [2248, 2733, 3438, 4192, 4864, 5645, 8196, 8985, 9619, 10422, 11151, 12263]}, "edge": {"target": [], "time": []}}, "mouseover": {"state": {"target": ["12", "10", "11", "4", "2", "3", "7", "6", "8", "8", "5", "6", "10", "9", "0", "5", "1", "0", "10", "6", "0", "2", "0"], "time": [2009, 2389, 2475, 3224, 3639, 3691, 4622, 5141, 5192, 5426, 6188, 6211, 6991, 7323, 8405, 8791, 9457, 9825, 10158, 10888, 11890, 12074, 12507]}, "edge": {"target": [], "time": []}}, "mouseout": {"state": {"target": ["0", "12", "10", "11", "4", "2", "3", "7", "6", "8", "8", "5", "6", "10", "9", "0", "5", "1", "0", "12", "10", "6", "0", "1", "2", "1", "0"], "time": [1207, 2356, 2439, 2872, 3622, 3675, 4472, 5125, 5176, 5223, 5872, 6208, 6241, 7006, 8371, 8658, 9192, 9788, 9841, 10140, 10571, 11304, 11908, 12007, 12437, 12487, 12524]}, "edge": {"target": [], "time": []}}}, "displayed_time": "21.71", "trialTime": 22709, "trial_type": "mouselab-mdp", "trial_index": 25, "time_elapsed": 995705, "internal_node_id": "0.0-4.0-1.0-16.0"}}, {"uniqueid": "w92387285:a65482811", "current_trial": 26, "dateTime": 1664555984958, "trialdata": {"revealed_states": [], "num_clicks_accrued": [0, 0, 0, 0, 0, 0, 0, 0, 0, 0, 0, 0, 0], "stateRewards": ["", -4, -8, -48, 24, -4, -4, -24, -48, 2, -8, -24, -48], "withholdReward": true, "trial_id": "mdp_628181832088", "block": "test1", "trialIndex": 19, "score": 15.5, "costs": -1.5, "simulationMode": [null, null, null], "rewards": [-4, -8, 24], "path": ["0", "0", "1", "2", "4"], "rt": [5669, 253, 336], "actions": ["up", "up", "left"], "actionTimes": [6940, 7690, 8533], "queries": {"click": {"state": {"target": ["12", "11", "8", "7", "4", "3"], "time": [2017, 2589, 3712, 4257, 5147, 5792]}, "edge": {"target": [], "time": []}}, "mouseover": {"state": {"target": ["0", "9", "12", "10", "11", "10", "8", "6", "7", "1", "4", "2", "3", "0"], "time": [1534, 1612, 1715, 2233, 2295, 2761, 3248, 3895, 3995, 4582, 4895, 5481, 5549, 6028]}, "edge": {"target": [], "time": []}}, "mouseout": {"state": {"target": ["0", "0", "9", "12", "10", "11", "10", "8", "6", "7", "1", "4", "2", "3", "0"], "time": [1047, 1580, 1646, 2180, 2279, 2728, 2881, 3861, 3936, 4461, 4600, 5447, 5514, 5944, 6044]}, "edge": {"target": [], "time": []}}}, "displayed_time": "9.27", "trialTime": 11557, "trial_type": "mouselab-mdp", "trial_index": 26, "time_elapsed": 1007393, "internal_node_id": "0.0-4.0-1.0-17.0"}}, {"uniqueid": "w92387285:a65482811", "current_trial": 27, "dateTime": 1664555995954, "trialdata": {"revealed_states": [], "num_clicks_accrued": [0, 0, 0, 0, 0, 0, 0, 0, 0, 0, 0, 0, 0], "stateRewards": ["", -4, 8, -24, 24, -2, -8, 24, -24, 4, -4, -48, 48], "withholdReward": true, "trial_id": "mdp_297684722007", "block": "test1", "trialIndex": 20, "score": 52.75, "costs": -0.25, "simulationMode": [null, null, null], "rewards": [4, -4, 48], "path": ["0", "0", "9", "10", "12"], "rt": [4042, 161, 55], "actions": ["left", "left", "down"], "actionTimes": [6196, 6868, 7429], "queries": {"click": {"state": {"target": ["12"], "time": [3259]}, "edge": {"target": [], "time": []}}, "mouseover": {"state": {"target": ["0", "12", "12", "10", "11", "11"], "time": [2355, 2705, 3052, 3453, 3503, 3934]}, "edge": {"target": [], "time": []}}, "mouseout": {"state": {"target": ["11", "0", "12", "12", "10", "11"], "time": [1521, 2422, 2789, 3403, 3486, 3753]}, "edge": {"target": [], "time": []}}}, "displayed_time": "10.15", "trialTime": 10879, "trial_type": "mouselab-mdp", "trial_index": 27, "time_elapsed": 1018389, "internal_node_id": "0.0-4.0-1.0-18.0"}}, {"uniqueid": "w92387285:a65482811", "current_trial": 28, "dateTime": 1664556006112, "trialdata": {"revealed_states": [], "num_clicks_accrued": [0, 0, 0, 0, 0, 0, 0, 0, 0, 0, 0, 0, 0], "stateRewards": ["", 4, 8, 24, 24, 2, -4, 48, -24, -4, 8, -24, 24], "withholdReward": true, "trial_id": "mdp_932292142091", "block": "test1", "trialIndex": 21, "score": 50.25, "costs": -0.75, "simulationMode": [null, null, null], "rewards": [2, -4, 48], "path": ["0", "0", "5", "6", "7"], "rt": [4353, 164, 49], "actions": ["right", "right", "up"], "actionTimes": [5268, 5945, 6492], "queries": {"click": {"state": {"target": ["12", "8", "7"], "time": [1908, 3114, 3701]}, "edge": {"target": [], "time": []}}, "mouseover": {"state": {"target": ["12", "8", "6", "7", "3"], "time": [1526, 2909, 3341, 3510, 3940]}, "edge": {"target": [], "time": []}}, "mouseout": {"state": {"target": ["11", "9", "0", "12", "8", "6", "7", "3", "4", "2", "3", "5", "8"], "time": [159, 542, 1276, 2091, 3290, 3376, 3857, 4260, 8892, 8943, 9059, 9226, 9444]}, "edge": {"target": [], "time": []}}}, "displayed_time": "8.91", "trialTime": 10044, "trial_type": "mouselab-mdp", "trial_index": 28, "time_elapsed": 1028548, "internal_node_id": "0.0-4.0-1.0-19.0"}}, {"uniqueid": "w92387285:a65482811", "current_trial": 29, "dateTime": 1664556017620, "trialdata": {"revealed_states": [], "num_clicks_accrued": [0, 0, 0, 0, 0, 0, 0, 0, 0, 0, 0, 0, 0], "stateRewards": ["", 2, 4, 48, 48, 4, -8, 24, -48, -4, -8, -24, -48], "withholdReward": true, "trial_id": "mdp_343818007251", "block": "test1", "trialIndex": 22, "score": 57.75, "costs": -1.25, "simulationMode": [null, null, null], "rewards": [2, 4, 48], "path": ["0", "0", "1", "2", "3"], "rt": [5401, 124, 432], "actions": ["up", "up", "right"], "actionTimes": [6892, 7528, 8468], "queries": {"click": {"state": {"target": ["11", "12", "7", "8", "3"], "time": [2564, 3239, 4033, 4670, 5385]}, "edge": {"target": [], "time": []}}, "mouseover": {"state": {"target": ["9", "11", "11", "10", "12", "8", "7", "6", "8", "6", "3", "2", "4", "4"], "time": [2035, 2084, 2321, 2786, 2985, 3466, 3768, 4199, 4404, 4883, 5219, 5533, 5571, 5851]}, "edge": {"target": [], "time": []}}, "mouseout": {"state": {"target": ["10", "9", "0", "9", "11", "11", "10", "12", "8", "7", "6", "8", "6", "7", "3", "2", "4", "4"], "time": [935, 1051, 1236, 2054, 2117, 2753, 2902, 3383, 3483, 4183, 4233, 4866, 4899, 4916, 5516, 5568, 5590, 6118]}, "edge": {"target": [], "time": []}}}, "displayed_time": "9.49", "trialTime": 11378, "trial_type": "mouselab-mdp", "trial_index": 29, "time_elapsed": 1040056, "internal_node_id": "0.0-4.0-1.0-20.0"}}, {"uniqueid": "w92387285:a65482811", "current_trial": 30, "dateTime": 1664556029719, "trialdata": {"revealed_states": [], "num_clicks_accrued": [0, 0, 0, 0, 0, 0, 0, 0, 0, 0, 0, 0, 0], "stateRewards": ["", 2, 4, 24, 48, -2, 8, 24, -24, -4, -4, 48, 48], "withholdReward": true, "trial_id": "mdp_753439303214", "block": "test1", "trialIndex": 23, "score": 44.75, "costs": -0.25, "simulationMode": [null, null, null], "rewards": [-4, -4, 48], "path": ["0", "0", "9", "10", "12"], "rt": [2330, 66, 271], "actions": ["left", "left", "down"], "actionTimes": [3960, 4546, 5338], "queries": {"click": {"state": {"target": ["12"], "time": [2507]}, "edge": {"target": [], "time": []}}, "mouseover": {"state": {"target": ["0", "12", "12", "10", "11", "11"], "time": [1914, 2097, 2297, 2694, 2828, 3047]}, "edge": {"target": [], "time": []}}, "mouseout": {"state": {"target": ["0", "12", "12", "10", "11"], "time": [1981, 2114, 2661, 2744, 2964]}, "edge": {"target": [], "time": []}}}, "displayed_time": "10.63", "trialTime": 11973, "trial_type": "mouselab-mdp", "trial_index": 30, "time_elapsed": 1052154, "internal_node_id": "0.0-4.0-1.0-21.0"}}, {"uniqueid": "w92387285:a65482811", "current_trial": 31, "dateTime": 1664556040489, "trialdata": {"revealed_states": [], "num_clicks_accrued": [0, 0, 0, 0, 0, 0, 0, 0, 0, 0, 0, 0, 0], "stateRewards": ["", -2, -4, -24, 48, -2, -8, -48, -24, 4, 8, 48, 24], "withholdReward": true, "trial_id": "mdp_625355871626", "block": "test1", "trialIndex": 24, "score": 64.75, "costs": -0.25, "simulationMode": [null, null, null], "rewards": [4, 8, 48], "path": ["0", "0", "9", "10", "11"], "rt": [2165, 22, 290], "actions": ["left", "left", "up"], "actionTimes": [3269, 3809, 4614], "queries": {"click": {"state": {"target": ["11"], "time": [2062]}, "edge": {"target": [], "time": []}}, "mouseover": {"state": {"target": ["0", "1", "11", "10", "12"], "time": [1231, 1504, 1803, 2271, 2355]}, "edge": {"target": [], "time": []}}, "mouseout": {"state": {"target": ["11", "9", "0", "0", "1", "11", "10"], "time": [471, 588, 1031, 1421, 1705, 2239, 2303]}, "edge": {"target": [], "time": []}}}, "displayed_time": "10.11", "trialTime": 10636, "trial_type": "mouselab-mdp", "trial_index": 31, "time_elapsed": 1062925, "internal_node_id": "0.0-4.0-1.0-22.0"}}, {"uniqueid": "w92387285:a65482811", "current_trial": 32, "dateTime": 1664556053499, "trialdata": {"revealed_states": [], "num_clicks_accrued": [0, 0, 0, 0, 0, 0, 0, 0, 0, 0, 0, 0, 0], "stateRewards": ["", 2, -8, 24, 24, 4, -4, -24, -48, 4, 8, 24, 24], "withholdReward": true, "trial_id": "mdp_249803813713", "block": "test1", "trialIndex": 25, "score": 40.25, "costs": -0.75, "simulationMode": [null, null, null], "rewards": [4, 8, 24], "path": ["0", "0", "9", "10", "11"], "rt": [7070, 178, 254], "actions": ["left", "left", "up"], "actionTimes": [8838, 9540, 10312], "queries": {"click": {"state": {"target": ["11", "12", "10"], "time": [2758, 3770, 7308]}, "edge": {"target": [], "time": []}}, "mouseover": {"state": {"target": ["0", "9", "11", "10", "12", "8", "8", "10", "9", "10"], "time": [1942, 2226, 2459, 2989, 3559, 4392, 4642, 6025, 6640, 7042]}, "edge": {"target": [], "time": []}}, "mouseout": {"state": {"target": ["12", "9", "6", "5", "0", "0", "9", "11", "10", "12", "8", "8", "10", "9", "10"], "time": [743, 775, 1108, 1241, 1525, 2087, 2292, 2956, 3262, 3939, 4492, 4759, 6575, 7006, 7489]}, "edge": {"target": [], "time": []}}}, "displayed_time": "10.81", "trialTime": 12868, "trial_type": "mouselab-mdp", "trial_index": 32, "time_elapsed": 1075935, "internal_node_id": "0.0-4.0-1.0-23.0"}}, {"uniqueid": "w92387285:a65482811", "current_trial": 33, "dateTime": 1664556069329, "trialdata": {"revealed_states": [], "num_clicks_accrued": [0, 0, 0, 0, 0, 0, 0, 0, 0, 0, 0, 0, 0], "stateRewards": ["", 2, 8, 24, -48, 4, 8, 24, 48, 2, -8, -24, 24], "withholdReward": true, "trial_id": "mdp_939899431582", "block": "test1", "trialIndex": 26, "score": 63.5, "costs": -1.5, "simulationMode": [null, null, null], "rewards": [4, 8, 48], "path": ["0", "0", "5", "6", "8"], "rt": [9241, 140, 397], "actions": ["right", "right", "down"], "actionTimes": [10554, 11215, 12124], "queries": {"click": {"state": {"target": ["12", "11", "10", "7", "5", "8"], "time": [1910, 2798, 4141, 5369, 8255, 8930]}, "edge": {"target": [], "time": []}}, "mouseover": {"state": {"target": ["12", "11", "10", "8", "7", "6", "8", "5", "5", "8"], "time": [1576, 2592, 3341, 4826, 5158, 5673, 5925, 6741, 8025, 8708]}, "edge": {"target": [], "time": []}}, "mouseout": {"state": {"target": ["0", "12", "11", "10", "8", "7", "6", "8", "5", "5", "8"], "time": [1423, 2309, 3142, 4289, 4843, 5639, 5756, 6490, 7778, 8406, 9425]}, "edge": {"target": [], "time": []}}}, "displayed_time": "12.64", "trialTime": 15700, "trial_type": "mouselab-mdp", "trial_index": 33, "time_elapsed": 1091765, "internal_node_id": "0.0-4.0-1.0-24.0"}}, {"uniqueid": "w92387285:a65482811", "current_trial": 34, "dateTime": 1664556079686, "trialdata": {"revealed_states": [], "num_clicks_accrued": [0, 0, 0, 0, 0, 0, 0, 0, 0, 0, 0, 0, 0], "stateRewards": ["", -4, -8, 48, -24, 4, -8, 48, 48, -2, 4, -48, -24], "withholdReward": true, "trial_id": "mdp_925905402462", "block": "test1", "trialIndex": 27, "score": 48.5, "costs": -0.5, "simulationMode": [null, null, null], "rewards": [4, -8, 48], "path": ["0", "0", "5", "6", "8"], "rt": [3713, 120, 240], "actions": ["right", "right", "down"], "actionTimes": [5197, 5852, 6585], "queries": {"click": {"state": {"target": ["12", "8"], "time": [2672, 3738]}, "edge": {"target": [], "time": []}}, "mouseover": {"state": {"target": ["9", "10", "12", "8", "6", "7"], "time": [1911, 2177, 2261, 3543, 3927, 4143]}, "edge": {"target": [], "time": []}}, "mouseout": {"state": {"target": ["6", "5", "0", "9", "10", "12", "8", "6", "7", "8"], "time": [543, 876, 1311, 2060, 2195, 2891, 3891, 4011, 4277, 4327]}, "edge": {"target": [], "time": []}}}, "displayed_time": "9.48", "trialTime": 10227, "trial_type": "mouselab-mdp", "trial_index": 34, "time_elapsed": 1102121, "internal_node_id": "0.0-4.0-1.0-25.0"}}, {"uniqueid": "w92387285:a65482811", "current_trial": 35, "dateTime": 1664556095949, "trialdata": {"revealed_states": [], "num_clicks_accrued": [0, 0, 0, 0, 0, 0, 0, 0, 0, 0, 0, 0, 0], "stateRewards": ["", -2, 8, -24, 24, 2, -8, 48, -24, 2, 8, -24, -24], "withholdReward": false, "trial_id": "mdp_674708270444", "block": "test1", "trialIndex": 28, "score": 46.5, "costs": -0.5, "simulationMode": [null, null, null], "rewards": [2, -8, 48], "path": ["0", "0", "5", "6", "7"], "rt": [3480, 26, 173], "actions": ["right", "right", "up"], "actionTimes": [4850, 5390, 6082], "queries": {"click": {"state": {"target": ["8", "7"], "time": [2390, 3696]}, "edge": {"target": [], "time": []}}, "mouseover": {"state": {"target": ["8", "6", "7", "3", "7"], "time": [2191, 2624, 2674, 2974, 3460]}, "edge": {"target": [], "time": []}}, "mouseout": {"state": {"target": ["0", "0", "8", "6", "7", "3", "7", "3", "0"], "time": [643, 1827, 2607, 2657, 2757, 3293, 3873, 10443, 10509]}, "edge": {"target": [], "time": []}}}, "displayed_time": "9.37", "trialTime": 16124, "trial_type": "mouselab-mdp", "trial_index": 35, "time_elapsed": 1118385, "internal_node_id": "0.0-4.0-1.0-26.0"}}, {"uniqueid": "w92387285:a65482811", "current_trial": 36, "dateTime": 1664556110138, "trialdata": {"revealed_states": [], "num_clicks_accrued": [0, 0, 0, 0, 0, 0, 0, 0, 0, 0, 0, 0, 0], "stateRewards": ["", -2, -4, -48, -48, 4, 8, 24, -48, 4, -8, 24, 24], "withholdReward": true, "trial_id": "mdp_749799219195", "block": "test1", "trialIndex": 29, "score": 23.5, "costs": -1.5, "simulationMode": [null, null, null], "rewards": [4, -8, 24], "path": ["0", "0", "9", "10", "12"], "rt": [7113, 315, 308], "actions": ["left", "left", "down"], "actionTimes": [8396, 9226, 10050], "queries": {"click": {"state": {"target": ["3", "4", "11", "12", "8", "7"], "time": [2081, 3007, 3991, 4686, 5591, 6560]}, "edge": {"target": [], "time": []}}, "mouseover": {"state": {"target": ["3", "2", "4", "4", "9", "11", "10", "12", "8", "6", "7", "7", "6", "5"], "time": [1743, 2527, 2578, 2826, 3509, 3743, 4190, 4459, 5327, 5790, 5876, 6376, 7344, 7366]}, "edge": {"target": [], "time": []}}, "mouseout": {"state": {"target": ["9", "0", "3", "2", "4", "4", "9", "11", "10", "12", "8", "6", "7", "7", "6", "5"], "time": [726, 1494, 2510, 2560, 2625, 3260, 3543, 4157, 4226, 4874, 5757, 5840, 6092, 6756, 7363, 7390]}, "edge": {"target": [], "time": []}}}, "displayed_time": "10.56", "trialTime": 14065, "trial_type": "mouselab-mdp", "trial_index": 36, "time_elapsed": 1132574, "internal_node_id": "0.0-4.0-1.0-27.0"}}, {"uniqueid": "w92387285:a65482811", "current_trial": 37, "dateTime": 1664556121898, "trialdata": {"revealed_states": [], "num_clicks_accrued": [0, 0, 0, 0, 0, 0, 0, 0, 0, 0, 0, 0, 0], "stateRewards": ["", 2, 4, -48, 24, -4, -4, -24, 24, 2, -4, 24, -24], "withholdReward": true, "trial_id": "mdp_163600331068", "block": "test1", "trialIndex": 30, "score": 33.5, "costs": -1.5, "simulationMode": [null, null, null], "rewards": [2, 4, 24], "path": ["0", "0", "1", "2", "4"], "rt": [6946, 340, 96], "actions": ["up", "up", "left"], "actionTimes": [7833, 8691, 9298], "queries": {"click": {"state": {"target": ["11", "12", "8", "7", "3", "4"], "time": [1634, 2312, 3155, 4068, 5311, 6075]}, "edge": {"target": [], "time": []}}, "mouseover": {"state": {"target": ["9", "11", "10", "12", "8", "8", "6", "7", "7", "2", "3", "3", "2", "4", "2"], "time": [1335, 1416, 1832, 2052, 2718, 2965, 3315, 3417, 3882, 4685, 4902, 5151, 5515, 5777, 6315]}, "edge": {"target": [], "time": []}}, "mouseout": {"state": {"target": ["0", "9", "11", "10", "12", "8", "8", "6", "7", "7", "7", "2", "3", "3", "2", "4", "2", "3"], "time": [1302, 1353, 1799, 1882, 2631, 2750, 3299, 3367, 3600, 4298, 4634, 4884, 4932, 5464, 5550, 6265, 6381, 6398]}, "edge": {"target": [], "time": []}}}, "displayed_time": "9.89", "trialTime": 11618, "trial_type": "mouselab-mdp", "trial_index": 37, "time_elapsed": 1144334, "internal_node_id": "0.0-4.0-1.0-28.0"}}, {"uniqueid": "w92387285:a65482811", "current_trial": 38, "dateTime": 1664556134995, "trialdata": {"revealed_states": [], "num_clicks_accrued": [0, 0, 0, 0, 0, 0, 0, 0, 0, 0, 0, 0, 0], "stateRewards": ["", 4, -8, 24, 48, 2, -4, 48, 48, 4, -8, 48, 48], "withholdReward": false, "trial_id": "mdp_962498334245", "block": "test1", "trialIndex": 31, "score": 48.5, "costs": -0.5, "simulationMode": [null, null, null], "rewards": [4, -8, 48], "path": ["0", "0", "1", "2", "4"], "rt": [2675, 1351, 318], "actions": ["up", "up", "left"], "actionTimes": [5029, 6891, 7726], "queries": {"click": {"state": {"target": ["3", "4"], "time": [3174, 3847]}, "edge": {"target": [], "time": []}}, "mouseover": {"state": {"target": ["0", "1", "2", "3", "2", "4", "11"], "time": [2403, 2603, 2789, 2972, 3505, 3589, 4288]}, "edge": {"target": [], "time": []}}, "mouseout": {"state": {"target": ["6", "5", "0", "0", "1", "2", "3", "2", "4", "11"], "time": [1805, 1854, 2211, 2553, 2636, 2924, 3338, 3572, 4036, 9171]}, "edge": {"target": [], "time": []}}}, "displayed_time": "11.36", "trialTime": 12970, "trial_type": "mouselab-mdp", "trial_index": 38, "time_elapsed": 1157430, "internal_node_id": "0.0-4.0-1.0-29.0"}}, {"uniqueid": "w92387285:a65482811", "current_trial": 39, "dateTime": 1664556148885, "trialdata": {"rt": 13879, "stimulus": "<h1> End of block! </h1>\n\nYou have reached the end of the block 1/4. If you need a short break, feel free to take one now before moving on.\n\n<br><br>\nIn the next block, you will complete another 30 rounds of this game.\n\n<br><br>\n<div style='text-align: center;'>Press <code>space</code> to begin.</div>\n<br><br>\n<div style='text-align: center;'>(If the experiment doesn't continue, try clicking on the text and then pressing <code>space</code>.)</div>", "response": " ", "trial_id": "mdp_ready_2", "trial_type": "html-keyboard-response", "trial_index": 39, "time_elapsed": 1171320, "internal_node_id": "0.0-4.0-2.0"}}, {"uniqueid": "w92387285:a65482811", "current_trial": 40, "dateTime": 1664556160809, "trialdata": {"revealed_states": [], "num_clicks_accrued": [0, 0, 0, 0, 0, 0, 0, 0, 0, 0, 0, 0, 0], "stateRewards": ["", -2, -4, -24, -48, -2, 8, -48, 24, 4, -4, -24, -24], "withholdReward": true, "trial_id": "mdp_915304165774", "block": "test2", "trialIndex": 32, "score": 33.5, "costs": -1.5, "simulationMode": [null, null, null], "rewards": [-2, 8, 24], "path": ["0", "0", "5", "6", "8"], "rt": [5971, 123, 351], "actions": ["right", "right", "down"], "actionTimes": [7876, 8508, 9368], "queries": {"click": {"state": {"target": ["4", "3", "11", "12", "8", "7"], "time": [2814, 3769, 4504, 5107, 5738, 6339]}, "edge": {"target": [], "time": []}}, "mouseover": {"state": {"target": ["1", "2", "2", "4", "2", "3", "1", "11", "10", "12", "8", "6", "7", "6"], "time": [2252, 2285, 2484, 2549, 3216, 3466, 3997, 4233, 4681, 4816, 5532, 5880, 6149, 6533]}, "edge": {"target": [], "time": []}}, "mouseout": {"state": {"target": ["0", "1", "2", "2", "4", "2", "3", "1", "11", "10", "12", "8", "6", "7", "6", "8"], "time": [1699, 2268, 2349, 2503, 3067, 3400, 3897, 4133, 4647, 4730, 5280, 5864, 5914, 6513, 6551, 6580]}, "edge": {"target": [], "time": []}}}, "displayed_time": "10.90", "trialTime": 11783, "trial_type": "mouselab-mdp", "trial_index": 40, "time_elapsed": 1183245, "internal_node_id": "0.0-4.0-3.0-0.0"}}, {"uniqueid": "w92387285:a65482811", "current_trial": 41, "dateTime": 1664556170789, "trialdata": {"revealed_states": [], "num_clicks_accrued": [0, 0, 0, 0, 0, 0, 0, 0, 0, 0, 0, 0, 0], "stateRewards": ["", 4, 4, -48, -24, -2, -4, 48, 24, -4, 4, 24, -48], "withholdReward": true, "trial_id": "mdp_617383046444", "block": "test2", "trialIndex": 33, "score": 46.25, "costs": -0.75, "simulationMode": [null, null, null], "rewards": [-2, -4, 48], "path": ["0", "0", "5", "6", "7"], "rt": [3720, 21, 227], "actions": ["right", "right", "up"], "actionTimes": [4526, 5067, 5810], "queries": {"click": {"state": {"target": ["12", "8", "7"], "time": [1760, 2634, 3388]}, "edge": {"target": [], "time": []}}, "mouseover": {"state": {"target": ["0", "12", "0", "8", "6", "7", "6"], "time": [893, 1295, 2176, 2292, 2876, 2962, 3609]}, "edge": {"target": [], "time": []}}, "mouseout": {"state": {"target": ["0", "0", "12", "0", "8", "6", "7", "6"], "time": [628, 945, 1942, 2226, 2842, 2929, 3592, 3626]}, "edge": {"target": [], "time": []}}}, "displayed_time": "8.81", "trialTime": 9843, "trial_type": "mouselab-mdp", "trial_index": 41, "time_elapsed": 1193224, "internal_node_id": "0.0-4.0-3.0-1.0"}}, {"uniqueid": "w92387285:a65482811", "current_trial": 42, "dateTime": 1664556182346, "trialdata": {"revealed_states": [], "num_clicks_accrued": [0, 0, 0, 0, 0, 0, 0, 0, 0, 0, 0, 0, 0], "stateRewards": ["", -2, -8, 24, -48, -4, 8, -48, -24, 4, 8, -24, 24], "withholdReward": true, "trial_id": "mdp_940444641142", "block": "test2", "trialIndex": 34, "score": 17.5, "costs": -1.5, "simulationMode": [null, null, null], "rewards": [-2, -8, 24], "path": ["0", "0", "1", "2", "3"], "rt": [7214, 76, 297], "actions": ["up", "up", "right"], "actionTimes": [8428, 9024, 9829], "queries": {"click": {"state": {"target": ["4", "3", "11", "12", "8", "7"], "time": [2468, 3306, 3979, 4591, 5402, 5912]}, "edge": {"target": [], "time": []}}, "mouseover": {"state": {"target": ["1", "4", "4", "2", "3", "11", "10", "12", "8", "6", "7", "5"], "time": [1565, 1848, 2035, 2845, 3098, 3714, 4212, 4381, 5230, 5595, 5667, 6297]}, "edge": {"target": [], "time": []}}, "mouseout": {"state": {"target": ["0", "1", "4", "4", "2", "3", "11", "10", "12", "8", "6", "7", "5"], "time": [613, 1613, 1932, 2782, 2879, 3462, 4162, 4312, 4780, 5545, 5631, 6267, 6313]}, "edge": {"target": [], "time": []}}}, "displayed_time": "10.35", "trialTime": 11421, "trial_type": "mouselab-mdp", "trial_index": 42, "time_elapsed": 1204782, "internal_node_id": "0.0-4.0-3.0-2.0"}}, {"uniqueid": "w92387285:a65482811", "current_trial": 43, "dateTime": 1664556199122, "trialdata": {"revealed_states": [], "num_clicks_accrued": [0, 0, 0, 0, 0, 0, 0, 0, 0, 0, 0, 0, 0], "stateRewards": ["", 4, 8, -48, -48, 2, 4, -24, -48, 2, 8, 48, -48], "withholdReward": false, "trial_id": "mdp_902172716465", "block": "test2", "trialIndex": 35, "score": 62.25, "costs": -0.75, "simulationMode": [null, null, null], "rewards": [2, 8, 48], "path": ["0", "0", "9", "10", "11"], "rt": [3771, 325, 293], "actions": ["left", "left", "up"], "actionTimes": [4699, 5534, 6336], "queries": {"click": {"state": {"target": ["4", "3", "11"], "time": [1679, 2330, 3389]}, "edge": {"target": [], "time": []}}, "mouseover": {"state": {"target": ["1", "2", "4", "2", "3", "1", "11", "11", "11", "10", "12"], "time": [1277, 1376, 1459, 1874, 2093, 2590, 2673, 2907, 3211, 3642, 3775]}, "edge": {"target": [], "time": []}}, "mouseout": {"state": {"target": ["0", "1", "2", "4", "2", "3", "1", "11", "11", "11", "10", "12"], "time": [793, 1295, 1410, 1823, 1944, 2523, 2623, 2690, 2956, 3609, 3709, 3960]}, "edge": {"target": [], "time": []}}}, "displayed_time": "9.93", "trialTime": 16643, "trial_type": "mouselab-mdp", "trial_index": 43, "time_elapsed": 1221558, "internal_node_id": "0.0-4.0-3.0-3.0"}}, {"uniqueid": "w92387285:a65482811", "current_trial": 44, "dateTime": 1664556211034, "trialdata": {"revealed_states": [], "num_clicks_accrued": [0, 0, 0, 0, 0, 0, 0, 0, 0, 0, 0, 0, 0], "stateRewards": ["", -4, -4, -48, -24, 2, 8, 24, -48, 4, 4, 48, 48], "withholdReward": false, "trial_id": "mdp_693501840209", "block": "test2", "trialIndex": 36, "score": 60.75, "costs": -0.25, "simulationMode": [null, null, null], "rewards": [4, 4, 48], "path": ["0", "0", "9", "10", "12"], "rt": [2166, 97, 230], "actions": ["left", "left", "down"], "actionTimes": [3711, 4328, 5064], "queries": {"click": {"state": {"target": ["12"], "time": [2493]}, "edge": {"target": [], "time": []}}, "mouseover": {"state": {"target": ["12", "10", "10"], "time": [2048, 2762, 2981]}, "edge": {"target": [], "time": []}}, "mouseout": {"state": {"target": ["9", "0", "12", "10", "10", "12"], "time": [997, 1798, 2712, 2848, 2997, 6420]}, "edge": {"target": [], "time": []}}}, "displayed_time": "10.55", "trialTime": 11779, "trial_type": "mouselab-mdp", "trial_index": 44, "time_elapsed": 1233470, "internal_node_id": "0.0-4.0-3.0-4.0"}}, {"uniqueid": "w92387285:a65482811", "current_trial": 45, "dateTime": 1664556221821, "trialdata": {"revealed_states": [], "num_clicks_accrued": [0, 0, 0, 0, 0, 0, 0, 0, 0, 0, 0, 0, 0], "stateRewards": ["", -2, 4, -48, 24, -4, 8, 48, 24, -2, 4, -48, -24], "withholdReward": true, "trial_id": "mdp_740882974347", "block": "test2", "trialIndex": 37, "score": 56.25, "costs": -0.75, "simulationMode": [null, null, null], "rewards": [-4, 8, 48], "path": ["0", "0", "5", "6", "7"], "rt": [3718, 326, 255], "actions": ["right", "right", "up"], "actionTimes": [4716, 5559, 6307], "queries": {"click": {"state": {"target": ["12", "8", "7"], "time": [1758, 2591, 3368]}, "edge": {"target": [], "time": []}}, "mouseover": {"state": {"target": ["0", "12", "8", "6", "7", "7", "1", "5"], "time": [1150, 1400, 2367, 2764, 2833, 3067, 3947, 4016]}, "edge": {"target": [], "time": []}}, "mouseout": {"state": {"target": ["9", "0", "12", "8", "6", "7", "7", "1", "5"], "time": [600, 1200, 2014, 2731, 2799, 2882, 3547, 3964, 4066]}, "edge": {"target": [], "time": []}}}, "displayed_time": "10.00", "trialTime": 10620, "trial_type": "mouselab-mdp", "trial_index": 45, "time_elapsed": 1244256, "internal_node_id": "0.0-4.0-3.0-5.0"}}, {"uniqueid": "w92387285:a65482811", "current_trial": 46, "dateTime": 1664556233629, "trialdata": {"revealed_states": [], "num_clicks_accrued": [0, 0, 0, 0, 0, 0, 0, 0, 0, 0, 0, 0, 0], "stateRewards": ["", -2, -4, -24, 48, -2, -8, -48, -24, 4, 8, 48, 24], "withholdReward": true, "trial_id": "mdp_625355871626", "block": "test2", "trialIndex": 38, "score": 46.25, "costs": -0.75, "simulationMode": [null, null, null], "rewards": [-2, -4, 48], "path": ["0", "0", "1", "2", "4"], "rt": [4092, 473, 204], "actions": ["up", "up", "left"], "actionTimes": [4921, 5917, 6624], "queries": {"click": {"state": {"target": ["7", "3", "4"], "time": [2312, 2949, 3808]}, "edge": {"target": [], "time": []}}, "mouseover": {"state": {"target": ["9", "11", "11", "5", "7", "3", "2", "4", "4"], "time": [1219, 1267, 1350, 1631, 2067, 2783, 3251, 3286, 3617]}, "edge": {"target": [], "time": []}}, "mouseout": {"state": {"target": ["0", "9", "11", "11", "5", "7", "3", "2", "4", "4", "9", "10"], "time": [1202, 1236, 1282, 1450, 1684, 2550, 3233, 3269, 3332, 4064, 8284, 9916]}, "edge": {"target": [], "time": []}}}, "displayed_time": "8.83", "trialTime": 11664, "trial_type": "mouselab-mdp", "trial_index": 46, "time_elapsed": 1256065, "internal_node_id": "0.0-4.0-3.0-6.0"}}, {"uniqueid": "w92387285:a65482811", "current_trial": 47, "dateTime": 1664556244564, "trialdata": {"revealed_states": [], "num_clicks_accrued": [0, 0, 0, 0, 0, 0, 0, 0, 0, 0, 0, 0, 0], "stateRewards": ["", -4, -8, -48, -48, 4, -8, 48, 48, 2, 8, 48, 24], "withholdReward": false, "trial_id": "mdp_880437222492", "block": "test2", "trialIndex": 39, "score": 62.5, "costs": -0.5, "simulationMode": [null, null, null], "rewards": [2, 8, 48], "path": ["0", "0", "9", "10", "11"], "rt": [3095, 34, 403], "actions": ["left", "left", "up"], "actionTimes": [4071, 4615, 5530], "queries": {"click": {"state": {"target": ["4", "11"], "time": [2118, 2885]}, "edge": {"target": [], "time": []}}, "mouseover": {"state": {"target": ["1", "2", "4", "4", "11", "12"], "time": [1345, 1427, 1526, 1928, 2725, 3211]}, "edge": {"target": [], "time": []}}, "mouseout": {"state": {"target": ["9", "1", "2", "4", "4", "11", "12"], "time": [511, 1395, 1493, 1560, 2344, 3092, 3411]}, "edge": {"target": [], "time": []}}}, "displayed_time": "9.98", "trialTime": 10777, "trial_type": "mouselab-mdp", "trial_index": 47, "time_elapsed": 1267000, "internal_node_id": "0.0-4.0-3.0-7.0"}}, {"uniqueid": "w92387285:a65482811", "current_trial": 48, "dateTime": 1664556256687, "trialdata": {"revealed_states": [], "num_clicks_accrued": [0, 0, 0, 0, 0, 0, 0, 0, 0, 0, 0, 0, 0], "stateRewards": ["", -4, 8, 24, -48, -4, -8, -24, 24, 2, -4, -48, 24], "withholdReward": false, "trial_id": "mdp_898449441629", "block": "test2", "trialIndex": 40, "score": 26.75, "costs": -0.25, "simulationMode": [null, null, null], "rewards": [2, -4, 24], "path": ["0", "0", "9", "10", "12"], "rt": [3273, 141, 193], "actions": ["left", "left", "down"], "actionTimes": [4497, 5134, 5837], "queries": {"click": {"state": {"target": ["12"], "time": [1794]}, "edge": {"target": [], "time": []}}, "mouseover": {"state": {"target": ["0", "9", "12"], "time": [1408, 1475, 1556]}, "edge": {"target": [], "time": []}}, "mouseout": {"state": {"target": ["12", "0", "0", "9", "12"], "time": [627, 671, 1441, 1490, 2174]}, "edge": {"target": [], "time": []}}}, "displayed_time": "10.22", "trialTime": 11981, "trial_type": "mouselab-mdp", "trial_index": 48, "time_elapsed": 1279123, "internal_node_id": "0.0-4.0-3.0-8.0"}}, {"uniqueid": "w92387285:a65482811", "current_trial": 49, "dateTime": 1664556268075, "trialdata": {"revealed_states": [], "num_clicks_accrued": [0, 0, 0, 0, 0, 0, 0, 0, 0, 0, 0, 0, 0], "stateRewards": ["", -2, -8, 24, -48, 4, 4, -24, -48, -2, -8, -48, 24], "withholdReward": true, "trial_id": "mdp_556006673466", "block": "test2", "trialIndex": 41, "score": 17.5, "costs": -1.5, "simulationMode": [null, null, null], "rewards": [-2, -8, 24], "path": ["0", "0", "1", "2", "3"], "rt": [7697, 400, 140], "actions": ["up", "up", "right"], "actionTimes": [8519, 9440, 10071], "queries": {"click": {"state": {"target": ["8", "7", "3", "4", "11", "12"], "time": [1683, 2522, 3480, 4800, 5599, 6318]}, "edge": {"target": [], "time": []}}, "mouseover": {"state": {"target": ["0", "8", "7", "3", "2", "4", "11", "10", "12"], "time": [1049, 1479, 2265, 3181, 4280, 4598, 5398, 5915, 5998]}, "edge": {"target": [], "time": []}}, "mouseout": {"state": {"target": ["0", "0", "8", "7", "3", "2", "4", "11", "10", "12"], "time": [632, 1097, 2083, 2848, 4248, 4313, 5115, 5881, 5965, 6545]}, "edge": {"target": [], "time": []}}}, "displayed_time": "10.58", "trialTime": 11245, "trial_type": "mouselab-mdp", "trial_index": 49, "time_elapsed": 1290511, "internal_node_id": "0.0-4.0-3.0-9.0"}}, {"uniqueid": "w92387285:a65482811", "current_trial": 50, "dateTime": 1664556278434, "trialdata": {"revealed_states": [], "num_clicks_accrued": [0, 0, 0, 0, 0, 0, 0, 0, 0, 0, 0, 0, 0], "stateRewards": ["", -4, 4, 24, 24, 4, -8, 48, -48, -2, -8, 24, 24], "withholdReward": true, "trial_id": "mdp_395264223239", "block": "test2", "trialIndex": 42, "score": 28, "costs": -1, "simulationMode": [null, null, null], "rewards": [-4, 4, 24], "path": ["0", "0", "1", "2", "4"], "rt": [5035, 57, 351], "actions": ["up", "up", "left"], "actionTimes": [6137, 6716, 7590], "queries": {"click": {"state": {"target": ["3", "4", "11", "12"], "time": [2336, 3447, 4174, 4790]}, "edge": {"target": [], "time": []}}, "mouseover": {"state": {"target": ["5", "6", "3", "1", "4", "4", "11", "10", "12"], "time": [1540, 1561, 2157, 2940, 2991, 3323, 3956, 4456, 4589]}, "edge": {"target": [], "time": []}}, "mouseout": {"state": {"target": ["0", "5", "6", "3", "1", "4", "4", "11", "10", "12"], "time": [1391, 1559, 1576, 2807, 2959, 3040, 3637, 4423, 4523, 4970]}, "edge": {"target": [], "time": []}}}, "displayed_time": "9.10", "trialTime": 10215, "trial_type": "mouselab-mdp", "trial_index": 50, "time_elapsed": 1300870, "internal_node_id": "0.0-4.0-3.0-10.0"}}, {"uniqueid": "w92387285:a65482811", "current_trial": 51, "dateTime": 1664556287918, "trialdata": {"revealed_states": [], "num_clicks_accrued": [0, 0, 0, 0, 0, 0, 0, 0, 0, 0, 0, 0, 0], "stateRewards": ["", 4, -4, 48, -48, 2, 8, -48, 24, -2, -4, -24, 48], "withholdReward": true, "trial_id": "mdp_937564992306", "block": "test2", "trialIndex": 43, "score": 46.75, "costs": -0.25, "simulationMode": [null, null, null], "rewards": [-2, -4, 48], "path": ["0", "0", "9", "10", "12"], "rt": [2016, 698, 117], "actions": ["left", "left", "down"], "actionTimes": [2894, 4253, 4890], "queries": {"click": {"state": {"target": ["12"], "time": [1762]}, "edge": {"target": [], "time": []}}, "mouseover": {"state": {"target": ["0", "12", "12", "10", "11", "11"], "time": [1144, 1308, 1606, 2055, 2272, 2353]}, "edge": {"target": [], "time": []}}, "mouseout": {"state": {"target": ["0", "0", "12", "12", "10", "11", "11"], "time": [604, 1238, 1363, 1969, 2171, 2304, 5687]}, "edge": {"target": [], "time": []}}}, "displayed_time": "7.88", "trialTime": 9348, "trial_type": "mouselab-mdp", "trial_index": 51, "time_elapsed": 1310354, "internal_node_id": "0.0-4.0-3.0-11.0"}}, {"uniqueid": "w92387285:a65482811", "current_trial": 52, "dateTime": 1664556299117, "trialdata": {"revealed_states": [], "num_clicks_accrued": [0, 0, 0, 0, 0, 0, 0, 0, 0, 0, 0, 0, 0], "stateRewards": ["", 2, 4, -48, 24, -4, -4, -24, 24, 2, -4, 24, -24], "withholdReward": true, "trial_id": "mdp_163600331068", "block": "test2", "trialIndex": 44, "score": 33.5, "costs": -1.5, "simulationMode": [null, null, null], "rewards": [2, 4, 24], "path": ["0", "0", "1", "2", "4"], "rt": [7345, 147, 239], "actions": ["up", "up", "left"], "actionTimes": [8195, 8833, 9590], "queries": {"click": {"state": {"target": ["8", "12", "7", "11", "3", "4"], "time": [1493, 2741, 3819, 4589, 5936, 6649]}, "edge": {"target": [], "time": []}}, "mouseover": {"state": {"target": ["0", "8", "12", "10", "7", "1", "11", "2", "3", "3", "3", "2", "4", "0"], "time": [1039, 1320, 2551, 3084, 3549, 4053, 4435, 4783, 5070, 5369, 5716, 6099, 6401, 7035]}, "edge": {"target": [], "time": []}}, "mouseout": {"state": {"target": ["0", "0", "8", "8", "12", "10", "7", "1", "11", "2", "3", "3", "3", "2", "4", "0"], "time": [569, 1068, 1769, 1952, 3067, 3102, 4018, 4072, 4733, 4816, 5089, 5435, 6066, 6116, 6899, 7053]}, "edge": {"target": [], "time": []}}}, "displayed_time": "10.10", "trialTime": 11062, "trial_type": "mouselab-mdp", "trial_index": 52, "time_elapsed": 1321553, "internal_node_id": "0.0-4.0-3.0-12.0"}}, {"uniqueid": "w92387285:a65482811", "current_trial": 53, "dateTime": 1664556309543, "trialdata": {"revealed_states": [], "num_clicks_accrued": [0, 0, 0, 0, 0, 0, 0, 0, 0, 0, 0, 0, 0], "stateRewards": ["", 2, -4, 48, -24, 4, -8, -24, 48, -2, -4, 24, -48], "withholdReward": true, "trial_id": "mdp_357328205509", "block": "test2", "trialIndex": 45, "score": 48.75, "costs": -0.25, "simulationMode": [null, null, null], "rewards": [4, -8, 48], "path": ["0", "0", "5", "6", "8"], "rt": [2158, 74, 315], "actions": ["right", "right", "down"], "actionTimes": [2970, 3559, 4382], "queries": {"click": {"state": {"target": ["8"], "time": [1759]}, "edge": {"target": [], "time": []}}, "mouseover": {"state": {"target": ["8", "8", "6"], "time": [1400, 1600, 2065]}, "edge": {"target": [], "time": []}}, "mouseout": {"state": {"target": ["8", "8", "6", "8"], "time": [1432, 2018, 6499, 6649]}, "edge": {"target": [], "time": []}}}, "displayed_time": "9.81", "trialTime": 10287, "trial_type": "mouselab-mdp", "trial_index": 53, "time_elapsed": 1331979, "internal_node_id": "0.0-4.0-3.0-13.0"}}, {"uniqueid": "w92387285:a65482811", "current_trial": 54, "dateTime": 1664556319113, "trialdata": {"revealed_states": [], "num_clicks_accrued": [0, 0, 0, 0, 0, 0, 0, 0, 0, 0, 0, 0, 0], "stateRewards": ["", 2, -8, -24, 48, 4, -8, -24, -24, 2, 8, -24, 24], "withholdReward": true, "trial_id": "mdp_480787552818", "block": "test2", "trialIndex": 46, "score": 45.5, "costs": -1.5, "simulationMode": [null, null, null], "rewards": [2, -8, 48], "path": ["0", "0", "1", "2", "4"], "rt": [5390, 274, 315], "actions": ["up", "up", "left"], "actionTimes": [6293, 7086, 7924], "queries": {"click": {"state": {"target": ["8", "7", "3", "12", "11", "4"], "time": [1450, 2059, 2627, 3615, 4533, 5065]}, "edge": {"target": [], "time": []}}, "mouseover": {"state": {"target": ["8", "6", "7", "3", "12", "10", "11", "11", "4", "9"], "time": [1264, 1638, 1706, 2421, 3425, 3990, 4042, 4323, 4889, 5356]}, "edge": {"target": [], "time": []}}, "mouseout": {"state": {"target": ["5", "0", "8", "6", "7", "3", "12", "10", "11", "11", "4", "9"], "time": [305, 1038, 1604, 1671, 2255, 2789, 3957, 4024, 4060, 4654, 5290, 5407]}, "edge": {"target": [], "time": []}}}, "displayed_time": "8.44", "trialTime": 9432, "trial_type": "mouselab-mdp", "trial_index": 54, "time_elapsed": 1341548, "internal_node_id": "0.0-4.0-3.0-14.0"}}, {"uniqueid": "w92387285:a65482811", "current_trial": 55, "dateTime": 1664556330403, "trialdata": {"revealed_states": [], "num_clicks_accrued": [0, 0, 0, 0, 0, 0, 0, 0, 0, 0, 0, 0, 0], "stateRewards": ["", 2, 4, -48, -48, 4, 4, -48, -48, -2, -8, 48, -24], "withholdReward": false, "trial_id": "mdp_175327338412", "block": "test2", "trialIndex": 47, "score": 42.5, "costs": -0.5, "simulationMode": [null, null, null], "rewards": [-2, -8, 48], "path": ["0", "0", "9", "10", "11"], "rt": [3352, 66, 318], "actions": ["left", "left", "up"], "actionTimes": [4684, 5271, 6108], "queries": {"click": {"state": {"target": ["12", "11"], "time": [2261, 2898]}, "edge": {"target": [], "time": []}}, "mouseover": {"state": {"target": ["9", "12", "10", "11", "10"], "time": [1720, 2070, 2469, 2637, 3553]}, "edge": {"target": [], "time": []}}, "mouseout": {"state": {"target": ["0", "9", "12", "10", "11", "10", "11", "9", "8", "6"], "time": [1089, 1820, 2410, 2569, 3067, 3603, 8169, 8486, 8736, 8869]}, "edge": {"target": [], "time": []}}}, "displayed_time": "10.33", "trialTime": 11153, "trial_type": "mouselab-mdp", "trial_index": 55, "time_elapsed": 1352839, "internal_node_id": "0.0-4.0-3.0-15.0"}}, {"uniqueid": "w92387285:a65482811", "current_trial": 56, "dateTime": 1664556340095, "trialdata": {"revealed_states": [], "num_clicks_accrued": [0, 0, 0, 0, 0, 0, 0, 0, 0, 0, 0, 0, 0], "stateRewards": ["", 2, 4, 24, 48, -2, 8, 24, -24, -4, -4, 48, 48], "withholdReward": true, "trial_id": "mdp_753439303214", "block": "test2", "trialIndex": 48, "score": 58, "costs": -1, "simulationMode": [null, null, null], "rewards": [2, 4, 48], "path": ["0", "0", "1", "2", "4"], "rt": [5460, 215, 221], "actions": ["up", "up", "left"], "actionTimes": [6517, 7247, 7986], "queries": {"click": {"state": {"target": ["7", "8", "3", "4"], "time": [1707, 2569, 4509, 5263]}, "edge": {"target": [], "time": []}}, "mouseover": {"state": {"target": ["5", "7", "6", "8", "6", "3", "2", "4", "11"], "time": [1246, 1497, 2048, 2263, 3014, 4264, 4731, 5014, 5563]}, "edge": {"target": [], "time": []}}, "mouseout": {"state": {"target": ["7", "5", "5", "7", "6", "8", "6", "3", "2", "4", "11"], "time": [446, 695, 1262, 1998, 2231, 2981, 4198, 4695, 4749, 5461, 5864]}, "edge": {"target": [], "time": []}}}, "displayed_time": "9.06", "trialTime": 9557, "trial_type": "mouselab-mdp", "trial_index": 56, "time_elapsed": 1362531, "internal_node_id": "0.0-4.0-3.0-16.0"}}, {"uniqueid": "w92387285:a65482811", "current_trial": 57, "dateTime": 1664556351134, "trialdata": {"revealed_states": [], "num_clicks_accrued": [0, 0, 0, 0, 0, 0, 0, 0, 0, 0, 0, 0, 0], "stateRewards": ["", -4, 8, -24, -24, 4, -8, 48, -24, -4, -8, -24, -48], "withholdReward": true, "trial_id": "mdp_391766721791", "block": "test2", "trialIndex": 49, "score": 47.5, "costs": -1.5, "simulationMode": [null, null, null], "rewards": [4, -8, 48], "path": ["0", "0", "5", "6", "7"], "rt": [6301, 83, 282], "actions": ["right", "right", "up"], "actionTimes": [7308, 7884, 8683], "queries": {"click": {"state": {"target": ["4", "3", "11", "12", "8", "7"], "time": [2326, 3016, 4099, 4884, 5545, 6093]}, "edge": {"target": [], "time": []}}, "mouseover": {"state": {"target": ["1", "2", "4", "2", "3", "11", "11", "10", "12", "12", "8", "6", "7", "6"], "time": [1284, 1399, 2048, 2567, 2784, 3466, 3900, 4317, 4400, 4675, 5315, 5731, 5849, 6264]}, "edge": {"target": [], "time": []}}, "mouseout": {"state": {"target": ["0", "1", "2", "4", "2", "3", "11", "11", "10", "12", "12", "8", "6", "7", "6", "8", "8"], "time": [866, 1351, 1433, 2465, 2682, 3148, 3683, 4281, 4350, 4524, 5031, 5697, 5800, 6247, 6281, 6331, 10217]}, "edge": {"target": [], "time": []}}}, "displayed_time": "10.01", "trialTime": 10900, "trial_type": "mouselab-mdp", "trial_index": 57, "time_elapsed": 1373569, "internal_node_id": "0.0-4.0-3.0-17.0"}}, {"uniqueid": "w92387285:a65482811", "current_trial": 58, "dateTime": 1664556361501, "trialdata": {"revealed_states": [], "num_clicks_accrued": [0, 0, 0, 0, 0, 0, 0, 0, 0, 0, 0, 0, 0], "stateRewards": ["", -4, -4, -24, 48, -4, -8, -24, 48, 2, 4, 48, 48], "withholdReward": false, "trial_id": "mdp_810954007398", "block": "test2", "trialIndex": 50, "score": 40, "costs": -1, "simulationMode": [null, null, null], "rewards": [-4, -8, 48], "path": ["0", "0", "5", "6", "8"], "rt": [4805, 126, 129], "actions": ["right", "right", "down"], "actionTimes": [5827, 6457, 7093], "queries": {"click": {"state": {"target": ["2", "3", "7", "8"], "time": [2483, 3228, 4014, 4544]}, "edge": {"target": [], "time": []}}, "mouseover": {"state": {"target": ["1", "2", "3", "2", "3", "6", "7", "8", "12"], "time": [1146, 1327, 1829, 2115, 3063, 3529, 3812, 4379, 4779]}, "edge": {"target": [], "time": []}}, "mouseout": {"state": {"target": ["0", "1", "2", "3", "2", "3", "6", "7", "8", "12"], "time": [1053, 1227, 1696, 2096, 2962, 3429, 3546, 4160, 4694, 4797]}, "edge": {"target": [], "time": []}}}, "displayed_time": "9.02", "trialTime": 10214, "trial_type": "mouselab-mdp", "trial_index": 58, "time_elapsed": 1383937, "internal_node_id": "0.0-4.0-3.0-18.0"}}, {"uniqueid": "w92387285:a65482811", "current_trial": 59, "dateTime": 1664556372263, "trialdata": {"revealed_states": [], "num_clicks_accrued": [0, 0, 0, 0, 0, 0, 0, 0, 0, 0, 0, 0, 0], "stateRewards": ["", -4, 8, -24, -24, 2, 4, 48, 48, -2, 4, 24, -48], "withholdReward": true, "trial_id": "mdp_397308196941", "block": "test2", "trialIndex": 51, "score": 58.75, "costs": -0.25, "simulationMode": [null, null, null], "rewards": [2, 4, 48], "path": ["0", "0", "5", "6", "8"], "rt": [1880, 359, 43], "actions": ["right", "right", "down"], "actionTimes": [2990, 3868, 4417], "queries": {"click": {"state": {"target": ["8"], "time": [1893]}, "edge": {"target": [], "time": []}}, "mouseover": {"state": {"target": ["8"], "time": [1674]}, "edge": {"target": [], "time": []}}, "mouseout": {"state": {"target": ["8", "0", "0", "8"], "time": [72, 524, 1376, 2142]}, "edge": {"target": [], "time": []}}}, "displayed_time": "10.11", "trialTime": 10639, "trial_type": "mouselab-mdp", "trial_index": 59, "time_elapsed": 1394698, "internal_node_id": "0.0-4.0-3.0-19.0"}}, {"uniqueid": "w92387285:a65482811", "current_trial": 60, "dateTime": 1664556381846, "trialdata": {"revealed_states": [], "num_clicks_accrued": [0, 0, 0, 0, 0, 0, 0, 0, 0, 0, 0, 0, 0], "stateRewards": ["", 4, -8, -48, 24, 4, 4, -24, -24, 2, 4, -48, 24], "withholdReward": true, "trial_id": "mdp_626971397185", "block": "test2", "trialIndex": 52, "score": 33.5, "costs": -1.5, "simulationMode": [null, null, null], "rewards": [2, 4, 24], "path": ["0", "0", "9", "10", "12"], "rt": [5676, 79, 587], "actions": ["left", "left", "down"], "actionTimes": [6375, 6975, 8083], "queries": {"click": {"state": {"target": ["12", "11", "8", "7", "3", "4"], "time": [1405, 2455, 3210, 3707, 4205, 4712]}, "edge": {"target": [], "time": []}}, "mouseover": {"state": {"target": ["0", "12", "10", "11", "10", "8", "6", "7", "3", "2", "4"], "time": [777, 1214, 1763, 2262, 2682, 2896, 3377, 3446, 4013, 4415, 4460]}, "edge": {"target": [], "time": []}}, "mouseout": {"state": {"target": ["0", "0", "12", "10", "11", "10", "8", "6", "7", "3", "2", "4"], "time": [412, 829, 1660, 1781, 2662, 2727, 3360, 3410, 3913, 4396, 4428, 5096]}, "edge": {"target": [], "time": []}}}, "displayed_time": "8.70", "trialTime": 9428, "trial_type": "mouselab-mdp", "trial_index": 60, "time_elapsed": 1404282, "internal_node_id": "0.0-4.0-3.0-20.0"}}, {"uniqueid": "w92387285:a65482811", "current_trial": 61, "dateTime": 1664556392763, "trialdata": {"revealed_states": [], "num_clicks_accrued": [0, 0, 0, 0, 0, 0, 0, 0, 0, 0, 0, 0, 0], "stateRewards": ["", -2, -8, -24, 48, -2, -8, -48, -48, 2, -8, -48, 24], "withholdReward": true, "trial_id": "mdp_288324580942", "block": "test2", "trialIndex": 53, "score": 41.75, "costs": -1.25, "simulationMode": [null, null, null], "rewards": [-2, -8, 48], "path": ["0", "0", "1", "2", "4"], "rt": [4738, 5, 328], "actions": ["up", "up", "left"], "actionTimes": [6296, 6822, 7675], "queries": {"click": {"state": {"target": ["8", "7", "12", "11", "4"], "time": [2281, 2943, 3845, 4537, 4981]}, "edge": {"target": [], "time": []}}, "mouseover": {"state": {"target": ["0", "8", "6", "7", "0", "12", "10", "11", "11", "4", "2", "3", "3", "3"], "time": [1630, 2082, 2496, 2699, 3382, 3649, 4064, 4113, 4282, 4729, 5113, 5130, 5382, 5701]}, "edge": {"target": [], "time": []}}, "mouseout": {"state": {"target": ["0", "0", "8", "6", "7", "0", "12", "10", "11", "11", "4", "2", "3", "3", "3", "3", "5"], "time": [932, 1716, 2463, 2565, 3146, 3403, 4032, 4080, 4130, 4679, 5096, 5129, 5146, 5682, 5719, 8832, 8949]}, "edge": {"target": [], "time": []}}}, "displayed_time": "9.56", "trialTime": 10766, "trial_type": "mouselab-mdp", "trial_index": 61, "time_elapsed": 1415199, "internal_node_id": "0.0-4.0-3.0-21.0"}}, {"uniqueid": "w92387285:a65482811", "current_trial": 62, "dateTime": 1664556404919, "trialdata": {"revealed_states": [], "num_clicks_accrued": [0, 0, 0, 0, 0, 0, 0, 0, 0, 0, 0, 0, 0], "stateRewards": ["", -2, -4, -24, -24, 4, 8, 24, 24, -2, 8, 48, 48], "withholdReward": true, "trial_id": "mdp_620787912291", "block": "test2", "trialIndex": 54, "score": 58.25, "costs": -0.75, "simulationMode": [null, null, null], "rewards": [-2, 8, 48], "path": ["0", "0", "9", "10", "11"], "rt": [3963, 293, 691], "actions": ["left", "left", "up"], "actionTimes": [4843, 5652, 6834], "queries": {"click": {"state": {"target": ["4", "3", "11"], "time": [1897, 2715, 3409]}, "edge": {"target": [], "time": []}}, "mouseover": {"state": {"target": ["1", "2", "4", "2", "3", "11", "10", "12"], "time": [1259, 1311, 1725, 2192, 2376, 3192, 3657, 3924]}, "edge": {"target": [], "time": []}}, "mouseout": {"state": {"target": ["0", "1", "2", "4", "2", "3", "11", "10", "12"], "time": [359, 1292, 1359, 2142, 2224, 2856, 3608, 3740, 7992]}, "edge": {"target": [], "time": []}}}, "displayed_time": "10.88", "trialTime": 12000, "trial_type": "mouselab-mdp", "trial_index": 62, "time_elapsed": 1427355, "internal_node_id": "0.0-4.0-3.0-22.0"}}, {"uniqueid": "w92387285:a65482811", "current_trial": 63, "dateTime": 1664556417171, "trialdata": {"revealed_states": [], "num_clicks_accrued": [0, 0, 0, 0, 0, 0, 0, 0, 0, 0, 0, 0, 0], "stateRewards": ["", 2, 4, -24, -48, 4, -4, 24, 48, -4, -4, -24, 48], "withholdReward": true, "trial_id": "mdp_181958792175", "block": "test2", "trialIndex": 55, "score": 52.75, "costs": -0.25, "simulationMode": [null, null, null], "rewards": [4, -4, 48], "path": ["0", "0", "5", "6", "8"], "rt": [1705, 285, 129], "actions": ["right", "right", "down"], "actionTimes": [2608, 3402, 4045], "queries": {"click": {"state": {"target": ["8"], "time": [1569]}, "edge": {"target": [], "time": []}}, "mouseover": {"state": {"target": ["0", "8"], "time": [1067, 1367]}, "edge": {"target": [], "time": []}}, "mouseout": {"state": {"target": ["0", "0", "8"], "time": [682, 1086, 1747]}, "edge": {"target": [], "time": []}}}, "displayed_time": "9.90", "trialTime": 12112, "trial_type": "mouselab-mdp", "trial_index": 63, "time_elapsed": 1439607, "internal_node_id": "0.0-4.0-3.0-23.0"}}, {"uniqueid": "w92387285:a65482811", "current_trial": 64, "dateTime": 1664556427688, "trialdata": {"revealed_states": [], "num_clicks_accrued": [0, 0, 0, 0, 0, 0, 0, 0, 0, 0, 0, 0, 0], "stateRewards": ["", 2, 4, 48, 24, -2, -8, 24, 24, -2, 4, -48, 24], "withholdReward": true, "trial_id": "mdp_130849500124", "block": "test2", "trialIndex": 56, "score": 59, "costs": 0, "simulationMode": [null, null, null], "rewards": [2, 4, 48], "path": ["0", "0", "1", "2", "3"], "rt": [3604, 43, 409], "actions": ["up", "up", "right"], "actionTimes": [4879, 5430, 6345], "queries": {"click": {"state": {"target": [], "time": []}, "edge": {"target": [], "time": []}}, "mouseover": {"state": {"target": ["0"], "time": [1349]}, "edge": {"target": [], "time": []}}, "mouseout": {"state": {"target": ["0", "0"], "time": [1085, 1383]}, "edge": {"target": [], "time": []}}}, "displayed_time": "9.28", "trialTime": 10382, "trial_type": "mouselab-mdp", "trial_index": 64, "time_elapsed": 1450124, "internal_node_id": "0.0-4.0-3.0-24.0"}}, {"uniqueid": "w92387285:a65482811", "current_trial": 65, "dateTime": 1664556439302, "trialdata": {"revealed_states": [], "num_clicks_accrued": [0, 0, 0, 0, 0, 0, 0, 0, 0, 0, 0, 0, 0], "stateRewards": ["", -4, -8, 48, 48, -4, 4, 48, -24, 4, 8, -24, -48], "withholdReward": true, "trial_id": "mdp_142906093415", "block": "test2", "trialIndex": 57, "score": -31, "costs": 0, "simulationMode": [null, null, null], "rewards": [4, 8, -48], "path": ["0", "0", "9", "10", "12"], "rt": [965, 47, 303], "actions": ["left", "left", "down"], "actionTimes": [2786, 3332, 4169], "queries": {"click": {"state": {"target": [], "time": []}, "edge": {"target": [], "time": []}}, "mouseover": {"state": {"target": [], "time": []}, "edge": {"target": [], "time": []}}, "mouseout": {"state": {"target": ["0"], "time": [1531]}, "edge": {"target": [], "time": []}}}, "displayed_time": "10.82", "trialTime": 11460, "trial_type": "mouselab-mdp", "trial_index": 65, "time_elapsed": 1461738, "internal_node_id": "0.0-4.0-3.0-25.0"}}, {"uniqueid": "w92387285:a65482811", "current_trial": 66, "dateTime": 1664556451359, "trialdata": {"revealed_states": [], "num_clicks_accrued": [0, 0, 0, 0, 0, 0, 0, 0, 0, 0, 0, 0, 0], "stateRewards": ["", 4, 8, -24, 48, -2, -4, 24, -24, -2, 4, 24, 24], "withholdReward": false, "trial_id": "mdp_948713805479", "block": "test2", "trialIndex": 58, "score": 23, "costs": 0, "simulationMode": [null, null, null], "rewards": [-2, -4, 24], "path": ["0", "0", "5", "6", "7"], "rt": [2141, 124, 258], "actions": ["right", "right", "up"], "actionTimes": [3243, 3863, 4632], "queries": {"click": {"state": {"target": [], "time": []}, "edge": {"target": [], "time": []}}, "mouseover": {"state": {"target": [], "time": []}, "edge": {"target": [], "time": []}}, "mouseout": {"state": {"target": ["0"], "time": [901]}, "edge": {"target": [], "time": []}}}, "displayed_time": "10.10", "trialTime": 11910, "trial_type": "mouselab-mdp", "trial_index": 66, "time_elapsed": 1473795, "internal_node_id": "0.0-4.0-3.0-26.0"}}, {"uniqueid": "w92387285:a65482811", "current_trial": 67, "dateTime": 1664556462315, "trialdata": {"revealed_states": [], "num_clicks_accrued": [0, 0, 0, 0, 0, 0, 0, 0, 0, 0, 0, 0, 0], "stateRewards": ["", 2, -8, -24, -48, -2, -4, 48, 48, 4, 8, 48, 48], "withholdReward": false, "trial_id": "mdp_347285045422", "block": "test2", "trialIndex": 59, "score": 64.75, "costs": -0.25, "simulationMode": [null, null, null], "rewards": [4, 8, 48], "path": ["0", "0", "9", "10", "11"], "rt": [2326, 9, 330], "actions": ["left", "left", "up"], "actionTimes": [3326, 3846, 4700], "queries": {"click": {"state": {"target": ["11"], "time": [2283]}, "edge": {"target": [], "time": []}}, "mouseover": {"state": {"target": ["0", "9", "10", "11", "10", "10"], "time": [1535, 1852, 1902, 2035, 2518, 2752]}, "edge": {"target": [], "time": []}}, "mouseout": {"state": {"target": ["0", "0", "0", "0", "9", "10", "11", "10"], "time": [357, 416, 1336, 1667, 1871, 1983, 2482, 2567]}, "edge": {"target": [], "time": []}}}, "displayed_time": "10.00", "trialTime": 10796, "trial_type": "mouselab-mdp", "trial_index": 67, "time_elapsed": 1484751, "internal_node_id": "0.0-4.0-3.0-27.0"}}, {"uniqueid": "w92387285:a65482811", "current_trial": 68, "dateTime": 1664556478608, "trialdata": {"revealed_states": [], "num_clicks_accrued": [0, 0, 0, 0, 0, 0, 0, 0, 0, 0, 0, 0, 0], "stateRewards": ["", 2, 8, 24, 24, 2, -8, -24, -48, 2, 8, -48, 48], "withholdReward": true, "trial_id": "mdp_745175888812", "block": "test2", "trialIndex": 60, "score": 62, "costs": -1, "simulationMode": [null, null, null], "rewards": [2, 8, 48], "path": ["0", "0", "9", "10", "12"], "rt": [4284, 9, 408], "actions": ["left", "left", "down"], "actionTimes": [5164, 5673, 6610], "queries": {"click": {"state": {"target": ["3", "4", "11", "12"], "time": [1738, 2538, 3154, 3947]}, "edge": {"target": [], "time": []}}, "mouseover": {"state": {"target": ["2", "3", "2", "4", "11", "10", "12", "8"], "time": [1248, 1579, 2029, 2311, 2828, 3376, 3646, 4409]}, "edge": {"target": [], "time": []}}, "mouseout": {"state": {"target": ["10", "12", "0", "2", "3", "2", "4", "11", "10", "12", "8"], "time": [263, 295, 731, 1396, 1962, 2227, 2729, 3343, 3461, 4126, 4496]}, "edge": {"target": [], "time": []}}}, "displayed_time": "9.88", "trialTime": 16151, "trial_type": "mouselab-mdp", "trial_index": 68, "time_elapsed": 1501044, "internal_node_id": "0.0-4.0-3.0-28.0"}}, {"uniqueid": "w92387285:a65482811", "current_trial": 69, "dateTime": 1664556490684, "trialdata": {"revealed_states": [], "num_clicks_accrued": [0, 0, 0, 0, 0, 0, 0, 0, 0, 0, 0, 0, 0], "stateRewards": ["", 4, -8, 48, -24, -4, 4, 24, 24, -2, -4, 24, 24], "withholdReward": true, "trial_id": "mdp_542168715839", "block": "test2", "trialIndex": 61, "score": 48.25, "costs": -0.75, "simulationMode": [null, null, null], "rewards": [4, -8, 48], "path": ["0", "0", "1", "2", "3"], "rt": [3763, 179, 616], "actions": ["up", "up", "right"], "actionTimes": [5588, 6285, 7406], "queries": {"click": {"state": {"target": ["8", "7", "3"], "time": [2676, 3590, 4400]}, "edge": {"target": [], "time": []}}, "mouseover": {"state": {"target": ["8", "7", "7", "5", "3", "2", "4"], "time": [2490, 3156, 3409, 3853, 4206, 4620, 4638]}, "edge": {"target": [], "time": []}}, "mouseout": {"state": {"target": ["8", "6", "0", "8", "7", "7", "5", "3", "2", "4", "11"], "time": [588, 1303, 2074, 2939, 3206, 3770, 3939, 4603, 4636, 4653, 11471]}, "edge": {"target": [], "time": []}}}, "displayed_time": "10.83", "trialTime": 11923, "trial_type": "mouselab-mdp", "trial_index": 69, "time_elapsed": 1513120, "internal_node_id": "0.0-4.0-3.0-29.0"}}, {"uniqueid": "w92387285:a65482811", "current_trial": 70, "dateTime": 1664556492408, "trialdata": {"rt": 1710, "stimulus": "<h1> End of block! </h1>\n\nYou have reached the end of the block 2/4. If you need a short break, feel free to take one now before moving on.\n\n<br><br>\nIn the next block, you will complete another 30 rounds of this game.\n\n<br><br>\n<div style='text-align: center;'>Press <code>space</code> to begin.</div>\n<br><br>\n<div style='text-align: center;'>(If the experiment doesn't continue, try clicking on the text and then pressing <code>space</code>.)</div>", "response": " ", "trial_id": "mdp_ready_3", "trial_type": "html-keyboard-response", "trial_index": 70, "time_elapsed": 1514844, "internal_node_id": "0.0-4.0-4.0"}}, {"uniqueid": "w92387285:a65482811", "current_trial": 71, "dateTime": 1664556502446, "trialdata": {"revealed_states": [], "num_clicks_accrued": [0, 0, 0, 0, 0, 0, 0, 0, 0, 0, 0, 0, 0], "stateRewards": ["", -2, -8, 24, -48, 4, 4, -24, -48, -2, -8, -48, 24], "withholdReward": true, "trial_id": "mdp_556006673466", "block": "test3", "trialIndex": 62, "score": 17.5, "costs": -1.5, "simulationMode": [null, null, null], "rewards": [-2, -8, 24], "path": ["0", "0", "9", "10", "12"], "rt": [5752, 188, 256], "actions": ["left", "left", "down"], "actionTimes": [6754, 7461, 8214], "queries": {"click": {"state": {"target": ["8", "7", "3", "4", "11", "12"], "time": [1500, 2033, 2774, 3473, 4111, 4779]}, "edge": {"target": [], "time": []}}, "mouseover": {"state": {"target": ["0", "8", "6", "7", "3", "2", "4", "11", "10", "12", "9", "9"], "time": [1109, 1205, 1758, 1794, 2541, 3056, 3108, 3874, 4406, 4607, 5088, 5274]}, "edge": {"target": [], "time": []}}, "mouseout": {"state": {"target": ["0", "0", "8", "6", "7", "3", "2", "4", "11", "10", "12", "9"], "time": [424, 1138, 1725, 1777, 2292, 3038, 3090, 3758, 4373, 4455, 5040, 5105]}, "edge": {"target": [], "time": []}}}, "displayed_time": "9.01", "trialTime": 9888, "trial_type": "mouselab-mdp", "trial_index": 71, "time_elapsed": 1524882, "internal_node_id": "0.0-4.0-5.0-0.0"}}, {"uniqueid": "w92387285:a65482811", "current_trial": 72, "dateTime": 1664556513381, "trialdata": {"revealed_states": [], "num_clicks_accrued": [0, 0, 0, 0, 0, 0, 0, 0, 0, 0, 0, 0, 0], "stateRewards": ["", 2, 8, 24, 24, 2, -8, -24, -48, 2, 8, -48, 48], "withholdReward": false, "trial_id": "mdp_745175888812", "block": "test3", "trialIndex": 63, "score": 38.75, "costs": -0.25, "simulationMode": [null, null, null], "rewards": [2, 8, 24], "path": ["0", "0", "1", "2", "3"], "rt": [2414, 329, 130], "actions": ["up", "up", "right"], "actionTimes": [4126, 4962, 5614], "queries": {"click": {"state": {"target": ["3"], "time": [2937]}, "edge": {"target": [], "time": []}}, "mouseover": {"state": {"target": ["1", "3"], "time": [2317, 2534]}, "edge": {"target": [], "time": []}}, "mouseout": {"state": {"target": ["9", "5", "0", "9", "9", "0", "1", "3", "0", "0", "8"], "time": [749, 899, 966, 1014, 1317, 2267, 2349, 3198, 6350, 7267, 7550]}, "edge": {"target": [], "time": []}}}, "displayed_time": "9.71", "trialTime": 10784, "trial_type": "mouselab-mdp", "trial_index": 72, "time_elapsed": 1535817, "internal_node_id": "0.0-4.0-5.0-1.0"}}, {"uniqueid": "w92387285:a65482811", "current_trial": 73, "dateTime": 1664556524239, "trialdata": {"revealed_states": [], "num_clicks_accrued": [0, 0, 0, 0, 0, 0, 0, 0, 0, 0, 0, 0, 0], "stateRewards": ["", -2, 4, 24, 48, 2, 4, -48, -48, -2, 8, 48, -24], "withholdReward": true, "trial_id": "mdp_305701202606", "block": "test3", "trialIndex": 64, "score": 54, "costs": -1, "simulationMode": [null, null, null], "rewards": [-2, 4, 48], "path": ["0", "0", "1", "2", "4"], "rt": [4186, 42, 354], "actions": ["up", "up", "left"], "actionTimes": [5192, 5743, 6592], "queries": {"click": {"state": {"target": ["8", "7", "3", "4"], "time": [1846, 2505, 3127, 3999]}, "edge": {"target": [], "time": []}}, "mouseover": {"state": {"target": ["0", "8", "6", "7", "3", "4", "11"], "time": [1251, 1684, 2083, 2333, 3086, 3833, 4214]}, "edge": {"target": [], "time": []}}, "mouseout": {"state": {"target": ["5", "0", "0", "8", "6", "7", "3", "4", "11"], "time": [400, 744, 1298, 2050, 2103, 2630, 3400, 4180, 4566]}, "edge": {"target": [], "time": []}}}, "displayed_time": "10.01", "trialTime": 10677, "trial_type": "mouselab-mdp", "trial_index": 73, "time_elapsed": 1546674, "internal_node_id": "0.0-4.0-5.0-2.0"}}, {"uniqueid": "w92387285:a65482811", "current_trial": 74, "dateTime": 1664556536982, "trialdata": {"revealed_states": [], "num_clicks_accrued": [0, 0, 0, 0, 0, 0, 0, 0, 0, 0, 0, 0, 0], "stateRewards": ["", -4, 8, -24, 24, -2, -8, 24, -24, 4, -4, -48, 48], "withholdReward": false, "trial_id": "mdp_297684722007", "block": "test3", "trialIndex": 65, "score": 52.75, "costs": -0.25, "simulationMode": [null, null, null], "rewards": [4, -4, 48], "path": ["0", "0", "9", "10", "12"], "rt": [1554, 80, 190], "actions": ["left", "left", "down"], "actionTimes": [2333, 2922, 3630], "queries": {"click": {"state": {"target": ["12"], "time": [1223]}, "edge": {"target": [], "time": []}}, "mouseover": {"state": {"target": ["0", "12", "10"], "time": [827, 921, 1523]}, "edge": {"target": [], "time": []}}, "mouseout": {"state": {"target": ["0", "0", "12", "10", "10", "0"], "time": [539, 839, 1490, 1538, 11740, 11824]}, "edge": {"target": [], "time": []}}}, "displayed_time": "9.78", "trialTime": 12595, "trial_type": "mouselab-mdp", "trial_index": 74, "time_elapsed": 1559417, "internal_node_id": "0.0-4.0-5.0-3.0"}}, {"uniqueid": "w92387285:a65482811", "current_trial": 75, "dateTime": 1664556548435, "trialdata": {"revealed_states": [], "num_clicks_accrued": [0, 0, 0, 0, 0, 0, 0, 0, 0, 0, 0, 0, 0], "stateRewards": ["", -2, -4, -24, 24, -2, 4, -24, -24, -4, 4, 24, -24], "withholdReward": true, "trial_id": "mdp_999419261719", "block": "test3", "trialIndex": 66, "score": 27.5, "costs": -1.5, "simulationMode": [null, null, null], "rewards": [-4, 4, 24], "path": ["0", "0", "9", "10", "11"], "rt": [6455, 239, 346], "actions": ["left", "left", "up"], "actionTimes": [6999, 7731, 8589], "queries": {"click": {"state": {"target": ["12", "11", "4", "3", "7", "8"], "time": [1329, 1908, 2506, 3295, 4186, 4719]}, "edge": {"target": [], "time": []}}, "mouseover": {"state": {"target": ["12", "10", "11", "4", "2", "3", "7", "6", "8"], "time": [1143, 1557, 1707, 2343, 2807, 3173, 3942, 4356, 4492]}, "edge": {"target": [], "time": []}}, "mouseout": {"state": {"target": ["0", "12", "10", "11", "4", "2", "3", "7", "6", "8"], "time": [893, 1506, 1627, 2075, 2761, 2857, 3526, 4306, 4407, 5008]}, "edge": {"target": [], "time": []}}}, "displayed_time": "9.11", "trialTime": 11302, "trial_type": "mouselab-mdp", "trial_index": 75, "time_elapsed": 1570871, "internal_node_id": "0.0-4.0-5.0-4.0"}}, {"uniqueid": "w92387285:a65482811", "current_trial": 76, "dateTime": 1664556558506, "trialdata": {"revealed_states": [], "num_clicks_accrued": [0, 0, 0, 0, 0, 0, 0, 0, 0, 0, 0, 0, 0], "stateRewards": ["", 4, 8, -48, 24, -2, 8, -48, -48, -4, 4, 48, -48], "withholdReward": true, "trial_id": "mdp_693807815190", "block": "test3", "trialIndex": 67, "score": 52.25, "costs": -0.75, "simulationMode": [null, null, null], "rewards": [-4, 4, 48], "path": ["0", "0", "9", "10", "11"], "rt": [3690, 187, 159], "actions": ["left", "left", "up"], "actionTimes": [4750, 5454, 6128], "queries": {"click": {"state": {"target": ["4", "3", "11"], "time": [1626, 2642, 3655]}, "edge": {"target": [], "time": []}}, "mouseover": {"state": {"target": ["1", "2", "4", "1", "3", "11", "10", "12"], "time": [1159, 1250, 1400, 2203, 2451, 3335, 3969, 4034]}, "edge": {"target": [], "time": []}}, "mouseout": {"state": {"target": ["8", "0", "1", "2", "4", "1", "3", "11", "10", "12"], "time": [384, 617, 1183, 1366, 1816, 2236, 2766, 3933, 4000, 4101]}, "edge": {"target": [], "time": []}}}, "displayed_time": "9.06", "trialTime": 9901, "trial_type": "mouselab-mdp", "trial_index": 76, "time_elapsed": 1580941, "internal_node_id": "0.0-4.0-5.0-5.0"}}, {"uniqueid": "w92387285:a65482811", "current_trial": 77, "dateTime": 1664556570326, "trialdata": {"revealed_states": [], "num_clicks_accrued": [0, 0, 0, 0, 0, 0, 0, 0, 0, 0, 0, 0, 0], "stateRewards": ["", 4, -4, 48, 24, 2, -8, 24, -48, -2, -4, -48, -48], "withholdReward": true, "trial_id": "mdp_655302318695", "block": "test3", "trialIndex": 68, "score": 51.75, "costs": -1.25, "simulationMode": [null, null, null], "rewards": [4, -4, 48], "path": ["0", "0", "1", "2", "3"], "rt": [5523, 4, 374], "actions": ["up", "up", "right"], "actionTimes": [6431, 6949, 7851], "queries": {"click": {"state": {"target": ["11", "12", "7", "8", "3"], "time": [1631, 2916, 3686, 4596, 5209]}, "edge": {"target": [], "time": []}}, "mouseover": {"state": {"target": ["9", "10", "11", "9", "0", "5", "6", "7", "0", "12", "6", "7", "6", "8", "6", "3", "2", "4"], "time": [1129, 1191, 1493, 2025, 2060, 2094, 2110, 2277, 2377, 2727, 3293, 3408, 3943, 4310, 4843, 5025, 5407, 5919]}, "edge": {"target": [], "time": []}}, "mouseout": {"state": {"target": ["0", "9", "10", "11", "9", "0", "5", "6", "7", "0", "12", "6", "7", "6", "8", "6", "7", "3", "2", "4", "0", "8"], "time": [1111, 1158, 1277, 1977, 2058, 2092, 2108, 2124, 2309, 2398, 3177, 3314, 3907, 4260, 4807, 4877, 4943, 5374, 5626, 10100, 10244, 11294]}, "edge": {"target": [], "time": []}}}, "displayed_time": "9.91", "trialTime": 11647, "trial_type": "mouselab-mdp", "trial_index": 77, "time_elapsed": 1592761, "internal_node_id": "0.0-4.0-5.0-6.0"}}, {"uniqueid": "w92387285:a65482811", "current_trial": 78, "dateTime": 1664556580604, "trialdata": {"revealed_states": [], "num_clicks_accrued": [0, 0, 0, 0, 0, 0, 0, 0, 0, 0, 0, 0, 0], "stateRewards": ["", 4, 4, 24, -48, 2, -8, -24, -48, 4, 8, 48, 48], "withholdReward": false, "trial_id": "mdp_592471239511", "block": "test3", "trialIndex": 69, "score": 64.25, "costs": -0.75, "simulationMode": [null, null, null], "rewards": [4, 8, 48], "path": ["0", "0", "9", "10", "11"], "rt": [3532, 121, 118], "actions": ["left", "left", "up"], "actionTimes": [4285, 4927, 5558], "queries": {"click": {"state": {"target": ["3", "4", "11"], "time": [1663, 2474, 3090]}, "edge": {"target": [], "time": []}}, "mouseover": {"state": {"target": ["1", "2", "3", "2", "4", "11", "10", "12", "10"], "time": [1073, 1157, 1490, 1837, 2272, 2923, 3287, 3421, 3659]}, "edge": {"target": [], "time": []}}, "mouseout": {"state": {"target": ["0", "1", "2", "3", "2", "4", "11", "10", "12", "10", "10"], "time": [1007, 1106, 1373, 1803, 1857, 2703, 3253, 3373, 3639, 3756, 7369]}, "edge": {"target": [], "time": []}}}, "displayed_time": "9.75", "trialTime": 10123, "trial_type": "mouselab-mdp", "trial_index": 78, "time_elapsed": 1603040, "internal_node_id": "0.0-4.0-5.0-7.0"}}, {"uniqueid": "w92387285:a65482811", "current_trial": 79, "dateTime": 1664556590447, "trialdata": {"revealed_states": [], "num_clicks_accrued": [0, 0, 0, 0, 0, 0, 0, 0, 0, 0, 0, 0, 0], "stateRewards": ["", 2, 8, 24, -48, 4, 8, 24, 24, 4, -8, 48, 48], "withholdReward": true, "trial_id": "mdp_646103824875", "block": "test3", "trialIndex": 70, "score": 40.5, "costs": -0.5, "simulationMode": [null, null, null], "rewards": [4, 8, 24], "path": ["0", "0", "5", "6", "7"], "rt": [2798, 28, 227], "actions": ["right", "right", "up"], "actionTimes": [3757, 4293, 5041], "queries": {"click": {"state": {"target": ["8", "7"], "time": [1678, 2238]}, "edge": {"target": [], "time": []}}, "mouseover": {"state": {"target": ["0", "8", "6", "7", "5", "12"], "time": [1018, 1395, 1928, 2045, 2495, 3245]}, "edge": {"target": [], "time": []}}, "mouseout": {"state": {"target": ["0", "0", "8", "6", "7", "5", "12"], "time": [695, 1129, 1895, 1962, 2445, 2545, 7227]}, "edge": {"target": [], "time": []}}}, "displayed_time": "8.96", "trialTime": 9692, "trial_type": "mouselab-mdp", "trial_index": 79, "time_elapsed": 1612883, "internal_node_id": "0.0-4.0-5.0-8.0"}}, {"uniqueid": "w92387285:a65482811", "current_trial": 80, "dateTime": 1664556601115, "trialdata": {"revealed_states": [], "num_clicks_accrued": [0, 0, 0, 0, 0, 0, 0, 0, 0, 0, 0, 0, 0], "stateRewards": ["", 2, 8, -24, -48, 2, 4, -24, 48, 2, -8, 48, -24], "withholdReward": true, "trial_id": "mdp_791659307216", "block": "test3", "trialIndex": 71, "score": 58.75, "costs": -0.25, "simulationMode": [null, null, null], "rewards": [2, 4, 48], "path": ["0", "0", "5", "6", "8"], "rt": [1836, 709, 795], "actions": ["right", "right", "down"], "actionTimes": [2904, 4130, 5433], "queries": {"click": {"state": {"target": ["8"], "time": [1783]}, "edge": {"target": [], "time": []}}, "mouseover": {"state": {"target": ["0", "8", "6"], "time": [1109, 1586, 2004]}, "edge": {"target": [], "time": []}}, "mouseout": {"state": {"target": ["0", "0", "8", "6", "5"], "time": [969, 1235, 1970, 2104, 6550]}, "edge": {"target": [], "time": []}}}, "displayed_time": "9.07", "trialTime": 10483, "trial_type": "mouselab-mdp", "trial_index": 80, "time_elapsed": 1623551, "internal_node_id": "0.0-4.0-5.0-9.0"}}, {"uniqueid": "w92387285:a65482811", "current_trial": 81, "dateTime": 1664556611591, "trialdata": {"revealed_states": [], "num_clicks_accrued": [0, 0, 0, 0, 0, 0, 0, 0, 0, 0, 0, 0, 0], "stateRewards": ["", -4, 8, -24, 48, 2, -8, 24, 48, 2, -8, -24, -48], "withholdReward": true, "trial_id": "mdp_493778446445", "block": "test3", "trialIndex": 72, "score": 46.75, "costs": -0.25, "simulationMode": [null, null, null], "rewards": [2, -8, 48], "path": ["0", "0", "5", "6", "8"], "rt": [1840, 93, 1565], "actions": ["right", "right", "down"], "actionTimes": [2719, 3330, 5406], "queries": {"click": {"state": {"target": ["8"], "time": [1604]}, "edge": {"target": [], "time": []}}, "mouseover": {"state": {"target": ["5", "6", "8", "6", "7"], "time": [1237, 1286, 1417, 1801, 1970]}, "edge": {"target": [], "time": []}}, "mouseout": {"state": {"target": ["0", "5", "6", "8", "6", "7"], "time": [1151, 1270, 1301, 1770, 1850, 2085]}, "edge": {"target": [], "time": []}}}, "displayed_time": "9.88", "trialTime": 10310, "trial_type": "mouselab-mdp", "trial_index": 81, "time_elapsed": 1634026, "internal_node_id": "0.0-4.0-5.0-10.0"}}, {"uniqueid": "w92387285:a65482811", "current_trial": 82, "dateTime": 1664556622280, "trialdata": {"revealed_states": [], "num_clicks_accrued": [0, 0, 0, 0, 0, 0, 0, 0, 0, 0, 0, 0, 0], "stateRewards": ["", 2, 4, 48, -24, 2, -8, -24, -24, 2, -8, -24, -48], "withholdReward": true, "trial_id": "mdp_274832552938", "block": "test3", "trialIndex": 73, "score": 58.5, "costs": -0.5, "simulationMode": [null, null, null], "rewards": [2, 4, 48], "path": ["0", "0", "1", "2", "3"], "rt": [2801, 101, 13], "actions": ["up", "up", "right"], "actionTimes": [3621, 4239, 4772], "queries": {"click": {"state": {"target": ["7", "3"], "time": [1793, 2541]}, "edge": {"target": [], "time": []}}, "mouseover": {"state": {"target": ["5", "7", "3", "3", "2", "4", "4"], "time": [1051, 1634, 2052, 2370, 2683, 2717, 2888]}, "edge": {"target": [], "time": []}}, "mouseout": {"state": {"target": ["0", "5", "7", "3", "3", "2", "4", "4", "9", "6", "8"], "time": [986, 1185, 1983, 2083, 2666, 2716, 2733, 5773, 8352, 9935, 9983]}, "edge": {"target": [], "time": []}}}, "displayed_time": "9.82", "trialTime": 10516, "trial_type": "mouselab-mdp", "trial_index": 82, "time_elapsed": 1644715, "internal_node_id": "0.0-4.0-5.0-11.0"}}, {"uniqueid": "w92387285:a65482811", "current_trial": 83, "dateTime": 1664556632108, "trialdata": {"revealed_states": [], "num_clicks_accrued": [0, 0, 0, 0, 0, 0, 0, 0, 0, 0, 0, 0, 0], "stateRewards": ["", -4, -4, -24, 48, 2, 4, -24, -48, -2, 4, 24, 24], "withholdReward": false, "trial_id": "mdp_360934723192", "block": "test3", "trialIndex": 74, "score": 30.5, "costs": -0.5, "simulationMode": [null, null, null], "rewards": [-2, 4, 24], "path": ["0", "0", "9", "10", "11"], "rt": [3774, 141, 172], "actions": ["left", "left", "up"], "actionTimes": [4573, 5224, 5906], "queries": {"click": {"state": {"target": ["11", "12"], "time": [2561, 3357]}, "edge": {"target": [], "time": []}}, "mouseover": {"state": {"target": ["11", "10", "12", "9", "9"], "time": [2381, 2980, 3147, 3682, 4016]}, "edge": {"target": [], "time": []}}, "mouseout": {"state": {"target": ["8", "0", "11", "10", "12", "9", "9"], "time": [null, 1801, 2865, 3099, 3563, 3901, 4038]}, "edge": {"target": [], "time": []}}}, "displayed_time": "8.81", "trialTime": 9658, "trial_type": "mouselab-mdp", "trial_index": 83, "time_elapsed": 1654543, "internal_node_id": "0.0-4.0-5.0-12.0"}}, {"uniqueid": "w92387285:a65482811", "current_trial": 84, "dateTime": 1664556641636, "trialdata": {"revealed_states": [], "num_clicks_accrued": [0, 0, 0, 0, 0, 0, 0, 0, 0, 0, 0, 0, 0], "stateRewards": ["", 2, 4, 48, 24, -2, -8, 24, 24, -2, 4, -48, 24], "withholdReward": true, "trial_id": "mdp_130849500124", "block": "test3", "trialIndex": 75, "score": 18.5, "costs": -0.5, "simulationMode": [null, null, null], "rewards": [-2, -8, 24], "path": ["0", "0", "5", "6", "7"], "rt": [2486, 176, 60], "actions": ["right", "right", "up"], "actionTimes": [3245, 3917, 4496], "queries": {"click": {"state": {"target": ["8", "7"], "time": [1739, 2306]}, "edge": {"target": [], "time": []}}, "mouseover": {"state": {"target": ["0", "5", "8", "6", "7"], "time": [1302, 1352, 1538, 1935, 2001]}, "edge": {"target": [], "time": []}}, "mouseout": {"state": {"target": ["0", "0", "5", "8", "6", "7", "12", "12", "9", "0", "5"], "time": [537, 1318, 1371, 1885, 1969, 2501, 7508, 7837, 7869, 7886, 8036]}, "edge": {"target": [], "time": []}}}, "displayed_time": "8.76", "trialTime": 9393, "trial_type": "mouselab-mdp", "trial_index": 84, "time_elapsed": 1664072, "internal_node_id": "0.0-4.0-5.0-13.0"}}, {"uniqueid": "w92387285:a65482811", "current_trial": 85, "dateTime": 1664556651724, "trialdata": {"revealed_states": [], "num_clicks_accrued": [0, 0, 0, 0, 0, 0, 0, 0, 0, 0, 0, 0, 0], "stateRewards": ["", 2, -4, 48, -48, -2, 8, -48, 24, -2, -8, 48, 48], "withholdReward": true, "trial_id": "mdp_949326095747", "block": "test3", "trialIndex": 76, "score": 50.5, "costs": -0.5, "simulationMode": [null, null, null], "rewards": [2, -4, 48], "path