{"condition": 1, "counterbalance": 0, "assignmentId": "a15069791", "workerId": "w38566133", "hitId": "h39225045", "currenttrial": 137, "bonus": 0, "data": [{"uniqueid": "w38566133:a15069791", "current_trial": 0, "dateTime": 1664555854412, "trialdata": {"success": true, "trial_type": "fullscreen", "trial_index": 0, "time_elapsed": 7016, "internal_node_id": "0.0-0.0"}}, {"uniqueid": "w38566133:a15069791", "current_trial": 1, "dateTime": 1664555896023, "trialdata": {"view_history": [{"page_index": 0, "viewing_time": 41604}], "rt": 41605, "trial_id": "exp_instructions_no_distractor", "trial_type": "instructions", "trial_index": 1, "time_elapsed": 48628, "internal_node_id": "0.0-1.0"}}, {"uniqueid": "w38566133:a15069791", "current_trial": 2, "dateTime": 1664555903896, "trialdata": {"success": true, "trial_type": "fullscreen", "trial_index": 2, "time_elapsed": 56501, "internal_node_id": "0.0-2.0-0.0"}}, {"uniqueid": "w38566133:a15069791", "current_trial": 3, "dateTime": 1664556154046, "trialdata": {"view_history": [{"page_index": 0, "viewing_time": 116194}, {"page_index": 1, "viewing_time": 58869}, {"page_index": 2, "viewing_time": 21912}, {"page_index": 3, "viewing_time": 18864}, {"page_index": 4, "viewing_time": 34308}], "rt": 250148, "trial_id": "mouselab_instructions_1", "trial_type": "instructions", "trial_index": 3, "time_elapsed": 306651, "internal_node_id": "0.0-2.0-1.0"}}, {"uniqueid": "w38566133:a15069791", "current_trial": 4, "dateTime": 1664556176259, "trialdata": {"revealed_states": [], "num_clicks_accrued": [0, 0, 0, 0, 0, 0, 0, 0, 0, 0, 0, 0, 0], "stateRewards": ["", -10, -10, 10, 10, -10, -10, -10, -10, 10, -10, 10, 10], "withholdReward": false, "trial_id": "practice_1", "block": "test", "trialIndex": 0, "score": 11.75, "costs": -0.25, "simulationMode": [null, null, null], "rewards": [10, -10, 10], "path": ["0", "0", "9", "10", "11"], "rt": [5344, 1461, 1322], "actions": ["left", "left", "up"], "actionTimes": [10118, 12087, 13915], "queries": {"click": {"state": {"target": ["9"], "time": [6873]}, "edge": {"target": [], "time": []}}, "mouseover": {"state": {"target": ["9"], "time": [6377]}, "edge": {"target": [], "time": []}}, "mouseout": {"state": {"target": ["5", "0", "9"], "time": [3591, 6208, 7774]}, "edge": {"target": [], "time": []}}}, "displayed_time": "14.43", "trialTime": 21601, "trial_type": "mouselab-mdp", "trial_index": 4, "time_elapsed": 328863, "internal_node_id": "0.0-2.0-2.0-0.0"}}, {"uniqueid": "w38566133:a15069791", "current_trial": 5, "dateTime": 1664556186813, "trialdata": {"revealed_states": [], "num_clicks_accrued": [0, 0, 0, 0, 0, 0, 0, 0, 0, 0, 0, 0, 0], "stateRewards": ["", 10, -10, -10, -10, 10, -10, 10, -10, -10, 10, 10, -10], "withholdReward": false, "trial_id": "practice_2", "block": "test", "trialIndex": 1, "score": -8, "costs": 0, "simulationMode": [null, null, null], "rewards": [10, -10, -10], "path": ["0", "0", "1", "2", "3"], "rt": [1727, 456, 254], "actions": ["up", "up", "right"], "actionTimes": [5986, 6952, 7716], "queries": {"click": {"state": {"target": [], "time": []}, "edge": {"target": [], "time": []}}, "mouseover": {"state": {"target": ["10"], "time": [5095]}, "edge": {"target": [], "time": []}}, "mouseout": {"state": {"target": ["0", "9", "10", "10", "9", "0", "0", "10"], "time": [1462, 2546, 2580, 3312, 3362, 3528, 5062, 5112]}, "edge": {"target": [], "time": []}}}, "displayed_time": "8.21", "trialTime": 10449, "trial_type": "mouselab-mdp", "trial_index": 5, "time_elapsed": 339418, "internal_node_id": "0.0-2.0-2.0-1.0"}}, {"uniqueid": "w38566133:a15069791", "current_trial": 6, "dateTime": 1664556295998, "trialdata": {"view_history": [{"page_index": 0, "viewing_time": 69924}, {"page_index": 1, "viewing_time": 26597}, {"page_index": 2, "viewing_time": 12660}], "rt": 109181, "trial_id": "mouselab_instructions_2_scarce", "trial_type": "instructions", "trial_index": 6, "time_elapsed": 448603, "internal_node_id": "0.0-2.0-3.0"}}, {"uniqueid": "w38566133:a15069791", "current_trial": 7, "dateTime": 1664556349783, "trialdata": {"rt": 53775, "response": {"Q0": "$-48 to $48", "Q1": "The cost is always $0.25.", "Q2": "The better I perform the higher my bonus will be.", "Q3": "No, the amount of cash at each node of the web may be different each time.", "Q4": "The values of the nodes walked through from start to finish.", "Q5": "No, the spider might forget to count the money on some rounds."}, "question_order": [0, 1, 2, 3, 4, 5], "correct": {"Q0": "$-48 to $48", "Q1": "The cost is always $0.25.", "Q2": "The better I perform the higher my bonus will be.", "Q3": "No, the amount of cash at each node of the web may be different each time.", "Q4": "The values of the nodes walked through from start to finish.", "Q5": "No, the spider might forget to count the money on some rounds."}, "trial_id": "mouselab_quiz_scarce", "trial_type": "survey-multi-choice", "trial_index": 7, "time_elapsed": 502388, "internal_node_id": "0.0-2.0-4.0"}}, {"uniqueid": "w38566133:a15069791", "current_trial": 8, "dateTime": 1664556374446, "trialdata": {"rt": 24653, "stimulus": "\n<h1> Get ready to start the game! </h1>\n\nThank you for reading the instructions. Get ready start with the first of 4 block(s) of this game.\n<br><br>\nIn this first block, you will complete 30 rounds of this game before moving on.\n<br><br>\nRemember, the more money the spider gets, the bigger your bonus will be!\n<br><br>\n<div style='text-align: center;'>Press <code>space</code> to begin.</div>\n\n<br><br>\n(If, at any point, the <code>space</code> key does not take you to the next page, click once on the text and try again.)", "response": " ", "trial_id": "mdp_ready_1", "trial_type": "html-keyboard-response", "trial_index": 8, "time_elapsed": 527051, "internal_node_id": "0.0-4.0-0.0"}}, {"uniqueid": "w38566133:a15069791", "current_trial": 9, "dateTime": 1664556390619, "trialdata": {"revealed_states": [], "num_clicks_accrued": [0, 0, 0, 0, 0, 0, 0, 0, 0, 0, 0, 0, 0], "stateRewards": ["", 2, -4, 48, -24, 4, -8, -24, 48, -2, -4, 24, -48], "withholdReward": true, "trial_id": "mdp_357328205509", "block": "test1", "trialIndex": 2, "score": 49, "costs": 0, "simulationMode": [null, null, null], "rewards": [4, -8, 48], "path": ["0", "0", "5", "6", "8"], "rt": [2048, 600, 272], "actions": ["right", "right", "down"], "actionTimes": [6577, 7701, 8491], "queries": {"click": {"state": {"target": [], "time": []}, "edge": {"target": [], "time": []}}, "mouseover": {"state": {"target": [], "time": []}, "edge": {"target": [], "time": []}}, "mouseout": {"state": {"target": [], "time": []}, "edge": {"target": [], "time": []}}}, "displayed_time": "12.54", "trialTime": 16076, "trial_type": "mouselab-mdp", "trial_index": 9, "time_elapsed": 543224, "internal_node_id": "0.0-4.0-1.0-0.0"}}, {"uniqueid": "w38566133:a15069791", "current_trial": 10, "dateTime": 1664556403471, "trialdata": {"revealed_states": [], "num_clicks_accrued": [0, 0, 0, 0, 0, 0, 0, 0, 0, 0, 0, 0, 0], "stateRewards": ["", -4, -4, 24, -24, 4, 4, 24, 48, 4, -4, 48, -48], "withholdReward": true, "trial_id": "mdp_522385334882", "block": "test1", "trialIndex": 3, "score": -27, "costs": 0, "simulationMode": [null, null, null], "rewards": [-4, -4, -24], "path": ["0", "0", "1", "2", "4"], "rt": [2261, 388, 266], "actions": ["up", "up", "left"], "actionTimes": [3859, 4762, 5539], "queries": {"click": {"state": {"target": [], "time": []}, "edge": {"target": [], "time": []}}, "mouseover": {"state": {"target": [], "time": []}, "edge": {"target": [], "time": []}}, "mouseout": {"state": {"target": ["0"], "time": [1405]}, "edge": {"target": [], "time": []}}}, "displayed_time": "9.60", "trialTime": 12754, "trial_type": "mouselab-mdp", "trial_index": 10, "time_elapsed": 556076, "internal_node_id": "0.0-4.0-1.0-1.0"}}, {"uniqueid": "w38566133:a15069791", "current_trial": 11, "dateTime": 1664556418792, "trialdata": {"revealed_states": [], "num_clicks_accrued": [0, 0, 0, 0, 0, 0, 0, 0, 0, 0, 0, 0, 0], "stateRewards": ["", 2, 4, -48, -48, 2, 4, 48, -24, -2, 8, 48, -48], "withholdReward": true, "trial_id": "mdp_258528916140", "block": "test1", "trialIndex": 4, "score": -37, "costs": 0, "simulationMode": [null, null, null], "rewards": [-2, 8, -48], "path": ["0", "0", "9", "10", "12"], "rt": [1553, 244, 156], "actions": ["left", "left", "down"], "actionTimes": [2895, 3646, 4308], "queries": {"click": {"state": {"target": [], "time": []}, "edge": {"target": [], "time": []}}, "mouseover": {"state": {"target": [], "time": []}, "edge": {"target": [], "time": []}}, "mouseout": {"state": {"target": ["0", "0", "0", "1"], "time": [1263, 13182, 14149, 14533]}, "edge": {"target": [], "time": []}}}, "displayed_time": "10.34", "trialTime": 15237, "trial_type": "mouselab-mdp", "trial_index": 11, "time_elapsed": 571397, "internal_node_id": "0.0-4.0-1.0-2.0"}}, {"uniqueid": "w38566133:a15069791", "current_trial": 12, "dateTime": 1664556432875, "trialdata": {"revealed_states": [], "num_clicks_accrued": [0, 0, 0, 0, 0, 0, 0, 0, 0, 0, 0, 0, 0], "stateRewards": ["", 4, 4, 24, -24, -4, -8, 48, -24, 4, 4, 48, 24], "withholdReward": true, "trial_id": "mdp_822446942217", "block": "test1", "trialIndex": 5, "score": 36.75, "costs": -0.25, "simulationMode": [null, null, null], "rewards": [4, 4, 24], "path": ["0", "0", "1", "2", "3"], "rt": [3800, 394, 347], "actions": ["up", "up", "right"], "actionTimes": [5162, 6060, 6913], "queries": {"click": {"state": {"target": ["5"], "time": [3578]}, "edge": {"target": [], "time": []}}, "mouseover": {"state": {"target": ["5", "0"], "time": [3399, 4448]}, "edge": {"target": [], "time": []}}, "mouseout": {"state": {"target": ["0", "5", "0"], "time": [912, 4381, 13263]}, "edge": {"target": [], "time": []}}}, "displayed_time": "11.36", "trialTime": 13987, "trial_type": "mouselab-mdp", "trial_index": 12, "time_elapsed": 585480, "internal_node_id": "0.0-4.0-1.0-3.0"}}, {"uniqueid": "w38566133:a15069791", "current_trial": 13, "dateTime": 1664556452231, "trialdata": {"revealed_states": [], "num_clicks_accrued": [0, 0, 0, 0, 0, 0, 0, 0, 0, 0, 0, 0, 0], "stateRewards": ["", -2, -4, -48, -48, -2, -8, 48, -48, 4, -8, -48, 24], "withholdReward": true, "trial_id": "mdp_468495641521", "block": "test1", "trialIndex": 6, "score": -47.25, "costs": -0.25, "simulationMode": [null, null, null], "rewards": [4, -8, -48], "path": ["0", "0", "9", "10", "11"], "rt": [10793, 894, 325], "actions": ["left", "left", "up"], "actionTimes": [13814, 15217, 16048], "queries": {"click": {"state": {"target": ["1"], "time": [11679]}, "edge": {"target": [], "time": []}}, "mouseover": {"state": {"target": ["1", "11"], "time": [11373, 12472]}, "edge": {"target": [], "time": []}}, "mouseout": {"state": {"target": ["0", "1"], "time": [11039, 12422]}, "edge": {"target": [], "time": []}}}, "displayed_time": "16.55", "trialTime": 19271, "trial_type": "mouselab-mdp", "trial_index": 13, "time_elapsed": 604836, "internal_node_id": "0.0-4.0-1.0-4.0"}}, {"uniqueid": "w38566133:a15069791", "current_trial": 14, "dateTime": 1664556468093, "trialdata": {"revealed_states": [], "num_clicks_accrued": [0, 0, 0, 0, 0, 0, 0, 0, 0, 0, 0, 0, 0], "stateRewards": ["", -4, -8, 48, 24, 4, -8, 24, -48, -2, -8, 24, -48], "withholdReward": false, "trial_id": "mdp_952038635544", "block": "test1", "trialIndex": 7, "score": 24.75, "costs": -0.25, "simulationMode": [null, null, null], "rewards": [4, -8, 24], "path": ["0", "0", "5", "6", "7"], "rt": [5628, 1083, 463], "actions": ["right", "right", "up"], "actionTimes": [7674, 9261, 10239], "queries": {"click": {"state": {"target": ["9"], "time": [6379]}, "edge": {"target": [], "time": []}}, "mouseover": {"state": {"target": ["1", "9"], "time": [4610, 5977]}, "edge": {"target": [], "time": []}}, "mouseout": {"state": {"target": ["11", "5", "0", "1", "9"], "time": [1227, 1611, 4027, 5327, 7043]}, "edge": {"target": [], "time": []}}}, "displayed_time": "10.73", "trialTime": 15772, "trial_type": "mouselab-mdp", "trial_index": 14, "time_elapsed": 620697, "internal_node_id": "0.0-4.0-1.0-5.0"}}, {"uniqueid": "w38566133:a15069791", "current_trial": 15, "dateTime": 1664556478850, "trialdata": {"revealed_states": [], "num_clicks_accrued": [0, 0, 0, 0, 0, 0, 0, 0, 0, 0, 0, 0, 0], "stateRewards": ["", -4, -4, 24, -48, -2, 8, -24, -48, -4, 4, 24, -48], "withholdReward": true, "trial_id": "mdp_934626330092", "block": "test1", "trialIndex": 8, "score": -43.25, "costs": -0.25, "simulationMode": [null, null, null], "rewards": [-4, 4, -48], "path": ["0", "0", "9", "10", "12"], "rt": [4256, 387, 570], "actions": ["left", "left", "down"], "actionTimes": [6089, 6983, 8048], "queries": {"click": {"state": {"target": ["1"], "time": [4358]}, "edge": {"target": [], "time": []}}, "mouseover": {"state": {"target": ["1"], "time": [4028]}, "edge": {"target": [], "time": []}}, "mouseout": {"state": {"target": ["0", "1"], "time": [3963, 5028]}, "edge": {"target": [], "time": []}}}, "displayed_time": "8.83", "trialTime": 10667, "trial_type": "mouselab-mdp", "trial_index": 15, "time_elapsed": 631455, "internal_node_id": "0.0-4.0-1.0-6.0"}}, {"uniqueid": "w38566133:a15069791", "current_trial": 16, "dateTime": 1664556489081, "trialdata": {"revealed_states": [], "num_clicks_accrued": [0, 0, 0, 0, 0, 0, 0, 0, 0, 0, 0, 0, 0], "stateRewards": ["", -2, 8, 24, -48, -2, -4, 24, 48, 2, 8, -48, -48], "withholdReward": true, "trial_id": "mdp_562228697607", "block": "test1", "trialIndex": 9, "score": -37.25, "costs": -0.25, "simulationMode": [null, null, null], "rewards": [-2, 8, -48], "path": ["0", "0", "1", "2", "4"], "rt": [4069, 777, 337], "actions": ["up", "up", "left"], "actionTimes": [6016, 7297, 8141], "queries": {"click": {"state": {"target": ["5"], "time": [3907]}, "edge": {"target": [], "time": []}}, "mouseover": {"state": {"target": ["0", "5", "0"], "time": [2771, 3365, 4586]}, "edge": {"target": [], "time": []}}, "mouseout": {"state": {"target": ["11", "5", "0", "0", "5", "0"], "time": [986, 1103, 2621, 3103, 4536, 4602]}, "edge": {"target": [], "time": []}}}, "displayed_time": "8.95", "trialTime": 10141, "trial_type": "mouselab-mdp", "trial_index": 16, "time_elapsed": 641686, "internal_node_id": "0.0-4.0-1.0-7.0"}}, {"uniqueid": "w38566133:a15069791", "current_trial": 17, "dateTime": 1664556500449, "trialdata": {"revealed_states": [], "num_clicks_accrued": [0, 0, 0, 0, 0, 0, 0, 0, 0, 0, 0, 0, 0], "stateRewards": ["", -4, -4, -48, -24, 2, 8, 24, -48, 4, 4, 48, 48], "withholdReward": true, "trial_id": "mdp_693501840209", "block": "test1", "trialIndex": 10, "score": 60.75, "costs": -0.25, "simulationMode": [null, null, null], "rewards": [4, 4, 48], "path": ["0", "0", "9", "10", "11"], "rt": [3355, 679, 364], "actions": ["left", "left", "up"], "actionTimes": [5533, 6721, 7590], "queries": {"click": {"state": {"target": ["9"], "time": [4172]}, "edge": {"target": [], "time": []}}, "mouseover": {"state": {"target": ["9"], "time": [3842]}, "edge": {"target": [], "time": []}}, "mouseout": {"state": {"target": ["0", "9"], "time": [3658, 4725]}, "edge": {"target": [], "time": []}}}, "displayed_time": "10.18", "trialTime": 11283, "trial_type": "mouselab-mdp", "trial_index": 17, "time_elapsed": 653054, "internal_node_id": "0.0-4.0-1.0-8.0"}}, {"uniqueid": "w38566133:a15069791", "current_trial": 18, "dateTime": 1664556511918, "trialdata": {"revealed_states": [], "num_clicks_accrued": [0, 0, 0, 0, 0, 0, 0, 0, 0, 0, 0, 0, 0], "stateRewards": ["", 4, 4, 48, -48, -2, -8, -48, -24, 2, 4, -24, -48], "withholdReward": false, "trial_id": "mdp_239929662917", "block": "test1", "trialIndex": 11, "score": -13, "costs": 0, "simulationMode": [null, null, null], "rewards": [2, 4, -24], "path": ["0", "0", "9", "10", "11"], "rt": [3022, 661, 344], "actions": ["left", "left", "up"], "actionTimes": [5319, 6490, 7324], "queries": {"click": {"state": {"target": [], "time": []}, "edge": {"target": [], "time": []}}, "mouseover": {"state": {"target": [], "time": []}, "edge": {"target": [], "time": []}}, "mouseout": {"state": {"target": ["0"], "time": [3980]}, "edge": {"target": [], "time": []}}}, "displayed_time": "9.30", "trialTime": 11373, "trial_type": "mouselab-mdp", "trial_index": 18, "time_elapsed": 664523, "internal_node_id": "0.0-4.0-1.0-9.0"}}, {"uniqueid": "w38566133:a15069791", "current_trial": 19, "dateTime": 1664556521780, "trialdata": {"revealed_states": [], "num_clicks_accrued": [0, 0, 0, 0, 0, 0, 0, 0, 0, 0, 0, 0, 0], "stateRewards": ["", 2, 4, 24, 48, -2, 8, 24, -24, -4, -4, 48, 48], "withholdReward": true, "trial_id": "mdp_753439303214", "block": "test1", "trialIndex": 12, "score": 35, "costs": 0, "simulationMode": [null, null, null], "rewards": [2, 4, 24], "path": ["0", "0", "1", "2", "3"], "rt": [1258, 538, 620], "actions": ["up", "up", "right"], "actionTimes": [2840, 3896, 5012], "queries": {"click": {"state": {"target": [], "time": []}, "edge": {"target": [], "time": []}}, "mouseover": {"state": {"target": [], "time": []}, "edge": {"target": [], "time": []}}, "mouseout": {"state": {"target": [], "time": []}, "edge": {"target": [], "time": []}}}, "displayed_time": "8.58", "trialTime": 9767, "trial_type": "mouselab-mdp", "trial_index": 19, "time_elapsed": 674385, "internal_node_id": "0.0-4.0-1.0-10.0"}}, {"uniqueid": "w38566133:a15069791", "current_trial": 20, "dateTime": 1664556534062, "trialdata": {"revealed_states": [], "num_clicks_accrued": [0, 0, 0, 0, 0, 0, 0, 0, 0, 0, 0, 0, 0], "stateRewards": ["", -4, 8, 48, -48, 2, -4, 24, -24, -2, 4, -24, -24], "withholdReward": false, "trial_id": "mdp_804988042722", "block": "test1", "trialIndex": 13, "score": 27, "costs": 0, "simulationMode": [null, null, null], "rewards": [2, -4, 24], "path": ["0", "0", "5", "6", "7"], "rt": [1101, 564, 920], "actions": ["right", "right", "up"], "actionTimes": [2512, 3584, 5023], "queries": {"click": {"state": {"target": [], "time": []}, "edge": {"target": [], "time": []}}, "mouseover": {"state": {"target": [], "time": []}, "edge": {"target": [], "time": []}}, "mouseout": {"state": {"target": [], "time": []}, "edge": {"target": [], "time": []}}}, "displayed_time": "9.41", "trialTime": 12193, "trial_type": "mouselab-mdp", "trial_index": 20, "time_elapsed": 686667, "internal_node_id": "0.0-4.0-1.0-11.0"}}, {"uniqueid": "w38566133:a15069791", "current_trial": 21, "dateTime": 1664556547976, "trialdata": {"revealed_states": [], "num_clicks_accrued": [0, 0, 0, 0, 0, 0, 0, 0, 0, 0, 0, 0, 0], "stateRewards": ["", 2, 4, -48, 24, -4, 4, -24, 48, -2, -8, -48, 48], "withholdReward": false, "trial_id": "mdp_424193661731", "block": "test1", "trialIndex": 14, "score": 35, "costs": 0, "simulationMode": [null, null, null], "rewards": [2, 4, 24], "path": ["0", "0", "1", "2", "4"], "rt": [1191, 876, 407], "actions": ["up", "up", "left"], "actionTimes": [3633, 5005, 5919], "queries": {"click": {"state": {"target": [], "time": []}, "edge": {"target": [], "time": []}}, "mouseover": {"state": {"target": [], "time": []}, "edge": {"target": [], "time": []}}, "mouseout": {"state": {"target": [], "time": []}, "edge": {"target": [], "time": []}}}, "displayed_time": "10.44", "trialTime": 13820, "trial_type": "mouselab-mdp", "trial_index": 21, "time_elapsed": 700580, "internal_node_id": "0.0-4.0-1.0-12.0"}}, {"uniqueid": "w38566133:a15069791", "current_trial": 22, "dateTime": 1664556559984, "trialdata": {"revealed_states": [], "num_clicks_accrued": [0, 0, 0, 0, 0, 0, 0, 0, 0, 0, 0, 0, 0], "stateRewards": ["", -4, -4, -24, 24, 4, 4, -24, -24, -4, 4, 24, 24], "withholdReward": true, "trial_id": "mdp_787781487383", "block": "test1", "trialIndex": 15, "score": 29, "costs": 0, "simulationMode": [null, null, null], "rewards": [-4, 4, 24], "path": ["0", "0", "9", "10", "12"], "rt": [1343, 413, 395], "actions": ["left", "left", "down"], "actionTimes": [2854, 3771, 4671], "queries": {"click": {"state": {"target": [], "time": []}, "edge": {"target": [], "time": []}}, "mouseover": {"state": {"target": [], "time": []}, "edge": {"target": [], "time": []}}, "mouseout": {"state": {"target": [], "time": []}, "edge": {"target": [], "time": []}}}, "displayed_time": "8.52", "trialTime": 11925, "trial_type": "mouselab-mdp", "trial_index": 22, "time_elapsed": 712589, "internal_node_id": "0.0-4.0-1.0-13.0"}}, {"uniqueid": "w38566133:a15069791", "current_trial": 23, "dateTime": 1664556572874, "trialdata": {"revealed_states": [], "num_clicks_accrued": [0, 0, 0, 0, 0, 0, 0, 0, 0, 0, 0, 0, 0], "stateRewards": ["", -4, -4, -48, 48, -4, -8, -24, -48, -2, 8, 48, 24], "withholdReward": false, "trial_id": "mdp_365393526663", "block": "test1", "trialIndex": 16, "score": -51.25, "costs": -0.25, "simulationMode": [null, null, null], "rewards": [-4, -4, -48], "path": ["0", "0", "1", "2", "3"], "rt": [2859, 273, 329], "actions": ["up", "up", "right"], "actionTimes": [4465, 5255, 6095], "queries": {"click": {"state": {"target": ["5"], "time": [2846]}, "edge": {"target": [], "time": []}}, "mouseover": {"state": {"target": ["5"], "time": [2381]}, "edge": {"target": [], "time": []}}, "mouseout": {"state": {"target": ["0", "5"], "time": [2315, 3648]}, "edge": {"target": [], "time": []}}}, "displayed_time": "10.61", "trialTime": 12809, "trial_type": "mouselab-mdp", "trial_index": 23, "time_elapsed": 725479, "internal_node_id": "0.0-4.0-1.0-14.0"}}, {"uniqueid": "w38566133:a15069791", "current_trial": 24, "dateTime": 1664556585003, "trialdata": {"revealed_states": [], "num_clicks_accrued": [0, 0, 0, 0, 0, 0, 0, 0, 0, 0, 0, 0, 0], "stateRewards": ["", 4, -8, 24, 48, 2, 4, 48, 48, 2, 8, -48, -48], "withholdReward": true, "trial_id": "mdp_783704746330", "block": "test1", "trialIndex": 17, "score": 49, "costs": 0, "simulationMode": [null, null, null], "rewards": [4, -8, 48], "path": ["0", "0", "1", "2", "4"], "rt": [1868, 339, 128], "actions": ["up", "up", "left"], "actionTimes": [3915, 4755, 5394], "queries": {"click": {"state": {"target": [], "time": []}, "edge": {"target": [], "time": []}}, "mouseover": {"state": {"target": [], "time": []}, "edge": {"target": [], "time": []}}, "mouseout": {"state": {"target": ["0"], "time": [2684]}, "edge": {"target": [], "time": []}}}, "displayed_time": "11.05", "trialTime": 12041, "trial_type": "mouselab-mdp", "trial_index": 24, "time_elapsed": 737608, "internal_node_id": "0.0-4.0-1.0-15.0"}}, {"uniqueid": "w38566133:a15069791", "current_trial": 25, "dateTime": 1664556597754, "trialdata": {"revealed_states": [], "num_clicks_accrued": [0, 0, 0, 0, 0, 0, 0, 0, 0, 0, 0, 0, 0], "stateRewards": ["", -2, 8, 48, -48, 4, -8, 24, 24, 4, 4, -48, -24], "withholdReward": true, "trial_id": "mdp_746937869927", "block": "test1", "trialIndex": 18, "score": -35, "costs": 0, "simulationMode": [null, null, null], "rewards": [4, 4, -48], "path": ["0", "0", "9", "10", "11"], "rt": [2032, 187, 143], "actions": ["left", "left", "up"], "actionTimes": [5532, 6224, 6880], "queries": {"click": {"state": {"target": [], "time": []}, "edge": {"target": [], "time": []}}, "mouseover": {"state": {"target": [], "time": []}, "edge": {"target": [], "time": []}}, "mouseout": {"state": {"target": ["0"], "time": [4770]}, "edge": {"target": [], "time": []}}}, "displayed_time": "11.51", "trialTime": 12664, "trial_type": "mouselab-mdp", "trial_index": 25, "time_elapsed": 750359, "internal_node_id": "0.0-4.0-1.0-16.0"}}, {"uniqueid": "w38566133:a15069791", "current_trial": 26, "dateTime": 1664556609825, "trialdata": {"revealed_states": [], "num_clicks_accrued": [0, 0, 0, 0, 0, 0, 0, 0, 0, 0, 0, 0, 0], "stateRewards": ["", 4, -8, -48, -24, 2, -8, -48, 48, -4, 8, 48, -48], "withholdReward": true, "trial_id": "mdp_605757196263", "block": "test1", "trialIndex": 19, "score": 47, "costs": 0, "simulationMode": [null, null, null], "rewards": [2, -8, 48], "path": ["0", "0", "5", "6", "8"], "rt": [985, 128, 167], "actions": ["right", "right", "down"], "actionTimes": [2365, 3009, 3684], "queries": {"click": {"state": {"target": [], "time": []}, "edge": {"target": [], "time": []}}, "mouseover": {"state": {"target": [], "time": []}, "edge": {"target": [], "time": []}}, "mouseout": {"state": {"target": ["0", "9", "10"], "time": [5214, 5280, 5314]}, "edge": {"target": [], "time": []}}}, "displayed_time": "10.38", "trialTime": 11981, "trial_type": "mouselab-mdp", "trial_index": 26, "time_elapsed": 762430, "internal_node_id": "0.0-4.0-1.0-17.0"}}, {"uniqueid": "w38566133:a15069791", "current_trial": 27, "dateTime": 1664556621284, "trialdata": {"revealed_states": [], "num_clicks_accrued": [0, 0, 0, 0, 0, 0, 0, 0, 0, 0, 0, 0, 0], "stateRewards": ["", 4, 8, -48, 24, -2, 8, -48, -48, -4, 4, 48, -48], "withholdReward": true, "trial_id": "mdp_693807815190", "block": "test1", "trialIndex": 20, "score": -37, "costs": 0, "simulationMode": [null, null, null], "rewards": [-2, 8, -48], "path": ["0", "0", "5", "6", "7"], "rt": [2256, 291, 88], "actions": ["right", "right", "up"], "actionTimes": [4639, 5445, 6043], "queries": {"click": {"state": {"target": [], "time": []}, "edge": {"target": [], "time": []}}, "mouseover": {"state": {"target": ["0"], "time": [3438]}, "edge": {"target": [], "time": []}}, "mouseout": {"state": {"target": ["10", "0"], "time": [1055, 3454]}, "edge": {"target": [], "time": []}}}, "displayed_time": "10.38", "trialTime": 11366, "trial_type": "mouselab-mdp", "trial_index": 27, "time_elapsed": 773889, "internal_node_id": "0.0-4.0-1.0-18.0"}}, {"uniqueid": "w38566133:a15069791", "current_trial": 28, "dateTime": 1664556632997, "trialdata": {"revealed_states": [], "num_clicks_accrued": [0, 0, 0, 0, 0, 0, 0, 0, 0, 0, 0, 0, 0], "stateRewards": ["", -4, 8, 24, -24, 4, 8, -24, -48, 2, 4, 24, -24], "withholdReward": false, "trial_id": "mdp_782187007008", "block": "test1", "trialIndex": 21, "score": 33, "costs": 0, "simulationMode": [null, null, null], "rewards": [-4, 8, 24], "path": ["0", "0", "1", "2", "3"], "rt": [1161, 163, 25], "actions": ["up", "up", "right"], "actionTimes": [2693, 3343, 3872], "queries": {"click": {"state": {"target": [], "time": []}, "edge": {"target": [], "time": []}}, "mouseover": {"state": {"target": [], "time": []}, "edge": {"target": [], "time": []}}, "mouseout": {"state": {"target": ["0"], "time": [1880]}, "edge": {"target": [], "time": []}}}, "displayed_time": "9.53", "trialTime": 11622, "trial_type": "mouselab-mdp", "trial_index": 28, "time_elapsed": 785602, "internal_node_id": "0.0-4.0-1.0-19.0"}}, {"uniqueid": "w38566133:a15069791", "current_trial": 29, "dateTime": 1664556644328, "trialdata": {"revealed_states": [], "num_clicks_accrued": [0, 0, 0, 0, 0, 0, 0, 0, 0, 0, 0, 0, 0], "stateRewards": ["", 2, 8, -48, -24, 2, -4, -48, 24, 2, -4, -24, -24], "withholdReward": true, "trial_id": "mdp_954659099093", "block": "test1", "trialIndex": 22, "score": -21.25, "costs": -0.25, "simulationMode": [null, null, null], "rewards": [2, -4, -24], "path": ["0", "0", "9", "10", "12"], "rt": [3173, 541, 147], "actions": ["left", "left", "down"], "actionTimes": [4946, 6004, 6660], "queries": {"click": {"state": {"target": ["9"], "time": [3642]}, "edge": {"target": [], "time": []}}, "mouseover": {"state": {"target": ["9"], "time": [3262]}, "edge": {"target": [], "time": []}}, "mouseout": {"state": {"target": ["0", "9"], "time": [3113, 4229]}, "edge": {"target": [], "time": []}}}, "displayed_time": "9.77", "trialTime": 11240, "trial_type": "mouselab-mdp", "trial_index": 29, "time_elapsed": 796933, "internal_node_id": "0.0-4.0-1.0-20.0"}}, {"uniqueid": "w38566133:a15069791", "current_trial": 30, "dateTime": 1664556656408, "trialdata": {"revealed_states": [], "num_clicks_accrued": [0, 0, 0, 0, 0, 0, 0, 0, 0, 0, 0, 0, 0], "stateRewards": ["", -4, -8, -48, 24, -4, -4, -24, -48, 2, -8, -24, -48], "withholdReward": true, "trial_id": "mdp_628181832088", "block": "test1", "trialIndex": 23, "score": 17, "costs": 0, "simulationMode": [null, null, null], "rewards": [-4, -8, 24], "path": ["0", "0", "1", "2", "4"], "rt": [2293, 142, 22], "actions": ["up", "up", "left"], "actionTimes": [5221, 5880, 6410], "queries": {"click": {"state": {"target": [], "time": []}, "edge": {"target": [], "time": []}}, "mouseover": {"state": {"target": ["0"], "time": [4354]}, "edge": {"target": [], "time": []}}, "mouseout": {"state": {"target": ["0", "0"], "time": [1354, 4387]}, "edge": {"target": [], "time": []}}}, "displayed_time": "10.93", "trialTime": 11979, "trial_type": "mouselab-mdp", "trial_index": 30, "time_elapsed": 809013, "internal_node_id": "0.0-4.0-1.0-21.0"}}, {"uniqueid": "w38566133:a15069791", "current_trial": 31, "dateTime": 1664556668231, "trialdata": {"revealed_states": [], "num_clicks_accrued": [0, 0, 0, 0, 0, 0, 0, 0, 0, 0, 0, 0, 0], "stateRewards": ["", 4, -8, 48, -24, 4, -4, -48, -48, 4, -4, 24, 24], "withholdReward": true, "trial_id": "mdp_221562928904", "block": "test1", "trialIndex": 24, "score": 29, "costs": 0, "simulationMode": [null, null, null], "rewards": [4, -4, 24], "path": ["0", "0", "9", "10", "11"], "rt": [1523, 164, 159], "actions": ["left", "left", "up"], "actionTimes": [3230, 3908, 4571], "queries": {"click": {"state": {"target": [], "time": []}, "edge": {"target": [], "time": []}}, "mouseover": {"state": {"target": ["0"], "time": [2144]}, "edge": {"target": [], "time": []}}, "mouseout": {"state": {"target": ["0", "0"], "time": [1077, 2193]}, "edge": {"target": [], "time": []}}}, "displayed_time": "10.71", "trialTime": 11728, "trial_type": "mouselab-mdp", "trial_index": 31, "time_elapsed": 820836, "internal_node_id": "0.0-4.0-1.0-22.0"}}, {"uniqueid": "w38566133:a15069791", "current_trial": 32, "dateTime": 1664556677620, "trialdata": {"revealed_states": [], "num_clicks_accrued": [0, 0, 0, 0, 0, 0, 0, 0, 0, 0, 0, 0, 0], "stateRewards": ["", -4, 4, 24, 24, -2, 8, 24, -48, 4, -8, -24, -48], "withholdReward": true, "trial_id": "mdp_651542905861", "block": "test1", "trialIndex": 25, "score": -37, "costs": 0, "simulationMode": [null, null, null], "rewards": [-2, 8, -48], "path": ["0", "0", "5", "6", "8"], "rt": [1368, 209, 534], "actions": ["right", "right", "down"], "actionTimes": [2803, 3510, 4553], "queries": {"click": {"state": {"target": [], "time": []}, "edge": {"target": [], "time": []}}, "mouseover": {"state": {"target": [], "time": []}, "edge": {"target": [], "time": []}}, "mouseout": {"state": {"target": [], "time": []}, "edge": {"target": [], "time": []}}}, "displayed_time": "8.44", "trialTime": 9293, "trial_type": "mouselab-mdp", "trial_index": 32, "time_elapsed": 830225, "internal_node_id": "0.0-4.0-1.0-23.0"}}, {"uniqueid": "w38566133:a15069791", "current_trial": 33, "dateTime": 1664556688777, "trialdata": {"revealed_states": [], "num_clicks_accrued": [0, 0, 0, 0, 0, 0, 0, 0, 0, 0, 0, 0, 0], "stateRewards": ["", -4, 4, 24, 24, 4, -8, 48, -48, -2, -8, 24, 24], "withholdReward": true, "trial_id": "mdp_395264223239", "block": "test1", "trialIndex": 26, "score": 19, "costs": 0, "simulationMode": [null, null, null], "rewards": [-2, -8, 24], "path": ["0", "0", "9", "10", "11"], "rt": [1042, 101, 515], "actions": ["left", "left", "up"], "actionTimes": [2170, 2806, 3837], "queries": {"click": {"state": {"target": [], "time": []}, "edge": {"target": [], "time": []}}, "mouseover": {"state": {"target": [], "time": []}, "edge": {"target": [], "time": []}}, "mouseout": {"state": {"target": [], "time": []}, "edge": {"target": [], "time": []}}}, "displayed_time": "10.13", "trialTime": 11071, "trial_type": "mouselab-mdp", "trial_index": 33, "time_elapsed": 841382, "internal_node_id": "0.0-4.0-1.0-24.0"}}, {"uniqueid": "w38566133:a15069791", "current_trial": 34, "dateTime": 1664556700643, "trialdata": {"revealed_states": [], "num_clicks_accrued": [0, 0, 0, 0, 0, 0, 0, 0, 0, 0, 0, 0, 0], "stateRewards": ["", 2, -4, 48, 24, 2, 8, 24, 24, -2, 4, 24, 24], "withholdReward": false, "trial_id": "mdp_813974524300", "block": "test1", "trialIndex": 27, "score": 26.75, "costs": -0.25, "simulationMode": [null, null, null], "rewards": [2, -4, 24], "path": ["0", "0", "1", "2", "4"], "rt": [2609, 289, 453], "actions": ["up", "up", "left"], "actionTimes": [4256, 5058, 6022], "queries": {"click": {"state": {"target": ["1"], "time": [2980]}, "edge": {"target": [], "time": []}}, "mouseover": {"state": {"target": ["1", "0"], "time": [2722, 3635]}, "edge": {"target": [], "time": []}}, "mouseout": {"state": {"target": ["0", "1", "0"], "time": [2253, 3602, 3652]}, "edge": {"target": [], "time": []}}}, "displayed_time": "9.65", "trialTime": 11770, "trial_type": "mouselab-mdp", "trial_index": 34, "time_elapsed": 853248, "internal_node_id": "0.0-4.0-1.0-25.0"}}, {"uniqueid": "w38566133:a15069791", "current_trial": 35, "dateTime": 1664556712383, "trialdata": {"revealed_states": [], "num_clicks_accrued": [0, 0, 0, 0, 0, 0, 0, 0, 0, 0, 0, 0, 0], "stateRewards": ["", 2, -8, 24, -48, 2, 4, 48, -48, -2, -8, -48, 48], "withholdReward": true, "trial_id": "mdp_629420544881", "block": "test1", "trialIndex": 28, "score": 58.75, "costs": -0.25, "simulationMode": [null, null, null], "rewards": [2, 4, 48], "path": ["0", "0", "5", "6", "7"], "rt": [2965, 81, 116], "actions": ["right", "right", "up"], "actionTimes": [4784, 5357, 5991], "queries": {"click": {"state": {"target": ["5"], "time": [3649]}, "edge": {"target": [], "time": []}}, "mouseover": {"state": {"target": ["5"], "time": [3245]}, "edge": {"target": [], "time": []}}, "mouseout": {"state": {"target": ["0", "5"], "time": [1642, 4242]}, "edge": {"target": [], "time": []}}}, "displayed_time": "10.82", "trialTime": 11652, "trial_type": "mouselab-mdp", "trial_index": 35, "time_elapsed": 864988, "internal_node_id": "0.0-4.0-1.0-26.0"}}, {"uniqueid": "w38566133:a15069791", "current_trial": 36, "dateTime": 1664556723240, "trialdata": {"revealed_states": [], "num_clicks_accrued": [0, 0, 0, 0, 0, 0, 0, 0, 0, 0, 0, 0, 0], "stateRewards": ["", 2, -8, 48, -24, -4, -8, -24, 48, -2, 4, 24, -48], "withholdReward": true, "trial_id": "mdp_186932504904", "block": "test1", "trialIndex": 29, "score": 46.75, "costs": -0.25, "simulationMode": [null, null, null], "rewards": [2, -8, 48], "path": ["0", "0", "1", "2", "3"], "rt": [3642, 272, 227], "actions": ["up", "up", "right"], "actionTimes": [5345, 6126, 6862], "queries": {"click": {"state": {"target": ["1"], "time": [3976]}, "edge": {"target": [], "time": []}}, "mouseover": {"state": {"target": ["1", "7"], "time": [3551, 4684]}, "edge": {"target": [], "time": []}}, "mouseout": {"state": {"target": ["0", "1", "7"], "time": [3184, 4634, 4700]}, "edge": {"target": [], "time": []}}}, "displayed_time": "9.72", "trialTime": 10770, "trial_type": "mouselab-mdp", "trial_index": 36, "time_elapsed": 875845, "internal_node_id": "0.0-4.0-1.0-27.0"}}, {"uniqueid": "w38566133:a15069791", "current_trial": 37, "dateTime": 1664556735856, "trialdata": {"revealed_states": [], "num_clicks_accrued": [0, 0, 0, 0, 0, 0, 0, 0, 0, 0, 0, 0, 0], "stateRewards": ["", 2, 4, -24, -24, 4, 8, -48, 48, 2, 4, -24, -48], "withholdReward": false, "trial_id": "mdp_565165082781", "block": "test1", "trialIndex": 30, "score": -13.25, "costs": -0.25, "simulationMode": [null, null, null], "rewards": [2, 4, -24], "path": ["0", "0", "9", "10", "11"], "rt": [2507, 390, 121], "actions": ["left", "left", "up"], "actionTimes": [4275, 5174, 5806], "queries": {"click": {"state": {"target": ["9"], "time": [3076]}, "edge": {"target": [], "time": []}}, "mouseover": {"state": {"target": ["9"], "time": [2584]}, "edge": {"target": [], "time": []}}, "mouseout": {"state": {"target": ["7", "5", "0", "9"], "time": [1051, 1167, 2484, 3684]}, "edge": {"target": [], "time": []}}}, "displayed_time": "9.78", "trialTime": 12521, "trial_type": "mouselab-mdp", "trial_index": 37, "time_elapsed": 888461, "internal_node_id": "0.0-4.0-1.0-28.0"}}, {"uniqueid": "w38566133:a15069791", "current_trial": 38, "dateTime": 1664556749079, "trialdata": {"revealed_states": [], "num_clicks_accrued": [0, 0, 0, 0, 0, 0, 0, 0, 0, 0, 0, 0, 0], "stateRewards": ["", -2, -8, 48, 24, 2, 4, 24, -24, -2, -4, 48, -48], "withholdReward": true, "trial_id": "mdp_411152402386", "block": "test1", "trialIndex": 31, "score": 34.75, "costs": -0.25, "simulationMode": [null, null, null], "rewards": [2, 4, 24], "path": ["0", "0", "5", "6", "7"], "rt": [2679, 324, 184], "actions": ["right", "right", "up"], "actionTimes": [5372, 6201, 6894], "queries": {"click": {"state": {"target": ["5"], "time": [4048]}, "edge": {"target": [], "time": []}}, "mouseover": {"state": {"target": ["5"], "time": [3708]}, "edge": {"target": [], "time": []}}, "mouseout": {"state": {"target": ["0", "5"], "time": [3509, 4774]}, "edge": {"target": [], "time": []}}}, "displayed_time": "11.70", "trialTime": 13119, "trial_type": "mouselab-mdp", "trial_index": 38, "time_elapsed": 901684, "internal_node_id": "0.0-4.0-1.0-29.0"}}, {"uniqueid": "w38566133:a15069791", "current_trial": 39, "dateTime": 1664556756973, "trialdata": {"rt": 7888, "stimulus": "<h1> End of block! </h1>\n\nYou have reached the end of the block 1/4. If you need a short break, feel free to take one now before moving on.\n\n<br><br>\nIn the next block, you will complete another 30 rounds of this game.\n\n<br><br>\n<div style='text-align: center;'>Press <code>space</code> to begin.</div>\n<br><br>\n<div style='text-align: center;'>(If the experiment doesn't continue, try clicking on the text and then pressing <code>space</code>.)</div>", "response": " ", "trial_id": "mdp_ready_2", "trial_type": "html-keyboard-response", "trial_index": 39, "time_elapsed": 909578, "internal_node_id": "0.0-4.0-2.0"}}, {"uniqueid": "w38566133:a15069791", "current_trial": 40, "dateTime": 1664556769815, "trialdata": {"revealed_states": [], "num_clicks_accrued": [0, 0, 0, 0, 0, 0, 0, 0, 0, 0, 0, 0, 0], "stateRewards": ["", -2, 4, -24, -48, -4, 8, -24, 48, 4, 4, -48, 24], "withholdReward": false, "trial_id": "mdp_341117665701", "block": "test2", "trialIndex": 32, "score": -15.25, "costs": -0.25, "simulationMode": [null, null, null], "rewards": [-4, 8, -24], "path": ["0", "0", "5", "6", "7"], "rt": [6867, 145, 146], "actions": ["right", "right", "up"], "actionTimes": [8640, 9299, 9934], "queries": {"click": {"state": {"target": ["4"], "time": [4055]}, "edge": {"target": [], "time": []}}, "mouseover": {"state": {"target": ["1", "4", "4"], "time": [2987, 3121, 3670]}, "edge": {"target": [], "time": []}}, "mouseout": {"state": {"target": ["0", "1", "4", "4"], "time": [2804, 3089, 3137, 7703]}, "edge": {"target": [], "time": []}}}, "displayed_time": "10.77", "trialTime": 12738, "trial_type": "mouselab-mdp", "trial_index": 40, "time_elapsed": 922420, "internal_node_id": "0.0-4.0-3.0-0.0"}}, {"uniqueid": "w38566133:a15069791", "current_trial": 41, "dateTime": 1664556780755, "trialdata": {"revealed_states": [], "num_clicks_accrued": [0, 0, 0, 0, 0, 0, 0, 0, 0, 0, 0, 0, 0], "stateRewards": ["", -4, -8, -48, 24, -4, -4, -24, -48, 2, -8, -24, -48], "withholdReward": true, "trial_id": "mdp_628181832088", "block": "test2", "trialIndex": 33, "score": -51.25, "costs": -0.25, "simulationMode": [null, null, null], "rewards": [-4, -4, -48], "path": ["0", "0", "5", "6", "8"], "rt": [3154, 157, 60], "actions": ["right", "right", "down"], "actionTimes": [5139, 5809, 6379], "queries": {"click": {"state": {"target": ["10"], "time": [3474]}, "edge": {"target": [], "time": []}}, "mouseover": {"state": {"target": ["9", "10"], "time": [2687, 2786]}, "edge": {"target": [], "time": []}}, "mouseout": {"state": {"target": ["1", "9", "10"], "time": [1435, 2752, 4202]}, "edge": {"target": [], "time": []}}}, "displayed_time": "9.99", "trialTime": 10845, "trial_type": "mouselab-mdp", "trial_index": 41, "time_elapsed": 933360, "internal_node_id": "0.0-4.0-3.0-1.0"}}, {"uniqueid": "w38566133:a15069791", "current_trial": 42, "dateTime": 1664556791506, "trialdata": {"revealed_states": [], "num_clicks_accrued": [0, 0, 0, 0, 0, 0, 0, 0, 0, 0, 0, 0, 0], "stateRewards": ["", 4, -4, 48, -48, 4, -4, 24, -24, 4, 8, -24, -48], "withholdReward": true, "trial_id": "mdp_433630527224", "block": "test2", "trialIndex": 34, "score": 52.75, "costs": -0.25, "simulationMode": [null, null, null], "rewards": [4, -4, 48], "path": ["0", "0", "1", "2", "3"], "rt": [3429, 127, 365], "actions": ["up", "up", "right"], "actionTimes": [5255, 5895, 6767], "queries": {"click": {"state": {"target": ["6"], "time": [3690]}, "edge": {"target": [], "time": []}}, "mouseover": {"state": {"target": ["5", "6", "6"], "time": [2435, 2469, 3170]}, "edge": {"target": [], "time": []}}, "mouseout": {"state": {"target": ["10", "9", "5", "0", "5", "6", "6"], "time": [1018, 1035, 1374, 2301, 2468, 2485, 4468]}, "edge": {"target": [], "time": []}}}, "displayed_time": "9.83", "trialTime": 10630, "trial_type": "mouselab-mdp", "trial_index": 42, "time_elapsed": 944111, "internal_node_id": "0.0-4.0-3.0-2.0"}}, {"uniqueid": "w38566133:a15069791", "current_trial": 43, "dateTime": 1664556803776, "trialdata": {"revealed_states": [], "num_clicks_accrued": [0, 0, 0, 0, 0, 0, 0, 0, 0, 0, 0, 0, 0], "stateRewards": ["", 2, -8, 24, -48, 2, 4, 48, -48, -2, -8, -48, 48], "withholdReward": true, "trial_id": "mdp_629420544881", "block": "test2", "trialIndex": 35, "score": 42.75, "costs": -0.25, "simulationMode": [null, null, null], "rewards": [-2, -8, 48], "path": ["0", "0", "9", "10", "12"], "rt": [2718, 285, 83], "actions": ["left", "left", "down"], "actionTimes": [4499, 5290, 5887], "queries": {"click": {"state": {"target": ["12"], "time": [3207]}, "edge": {"target": [], "time": []}}, "mouseover": {"state": {"target": ["9", "12"], "time": [2603, 2753]}, "edge": {"target": [], "time": []}}, "mouseout": {"state": {"target": ["6", "5", "0", "9"], "time": [1070, 1154, 2520, 2653]}, "edge": {"target": [], "time": []}}}, "displayed_time": "10.79", "trialTime": 12154, "trial_type": "mouselab-mdp", "trial_index": 43, "time_elapsed": 956381, "internal_node_id": "0.0-4.0-3.0-3.0"}}, {"uniqueid": "w38566133:a15069791", "current_trial": 44, "dateTime": 1664556815198, "trialdata": {"revealed_states": [], "num_clicks_accrued": [0, 0, 0, 0, 0, 0, 0, 0, 0, 0, 0, 0, 0], "stateRewards": ["", 2, 4, 48, -48, 2, 8, -24, 48, 4, 8, 48, -48], "withholdReward": true, "trial_id": "mdp_110142964375", "block": "test2", "trialIndex": 36, "score": 64.75, "costs": -0.25, "simulationMode": [null, null, null], "rewards": [4, 8, 48], "path": ["0", "0", "9", "10", "11"], "rt": [4762, 166, 103], "actions": ["left", "left", "up"], "actionTimes": [7155, 7825, 8445], "queries": {"click": {"state": {"target": ["11"], "time": [5927]}, "edge": {"target": [], "time": []}}, "mouseover": {"state": {"target": ["11"], "time": [5458]}, "edge": {"target": [], "time": []}}, "mouseout": {"state": {"target": ["12", "0", "11"], "time": [1559, 1643, 6376]}, "edge": {"target": [], "time": []}}}, "displayed_time": "10.39", "trialTime": 11317, "trial_type": "mouselab-mdp", "trial_index": 44, "time_elapsed": 967803, "internal_node_id": "0.0-4.0-3.0-4.0"}}, {"uniqueid": "w38566133:a15069791", "current_trial": 45, "dateTime": 1664556828691, "trialdata": {"revealed_states": [], "num_clicks_accrued": [0, 0, 0, 0, 0, 0, 0, 0, 0, 0, 0, 0, 0], "stateRewards": ["", 2, -4, 48, -48, 2, 4, -24, 24, -4, -8, 24, -48], "withholdReward": false, "trial_id": "mdp_238810765895", "block": "test2", "trialIndex": 37, "score": -45, "costs": 0, "simulationMode": [null, null, null], "rewards": [2, -4, -48], "path": ["0", "0", "1", "2", "4"], "rt": [778, 162, 51], "actions": ["up", "up", "left"], "actionTimes": [2638, 3316, 3872], "queries": {"click": {"state": {"target": [], "time": []}, "edge": {"target": [], "time": []}}, "mouseover": {"state": {"target": [], "time": []}, "edge": {"target": [], "time": []}}, "mouseout": {"state": {"target": ["0", "5"], "time": [11768, 12535]}, "edge": {"target": [], "time": []}}}, "displayed_time": "9.86", "trialTime": 13405, "trial_type": "mouselab-mdp", "trial_index": 45, "time_elapsed": 981296, "internal_node_id": "0.0-4.0-3.0-5.0"}}, {"uniqueid": "w38566133:a15069791", "current_trial": 46, "dateTime": 1664556839877, "trialdata": {"revealed_states": [], "num_clicks_accrued": [0, 0, 0, 0, 0, 0, 0, 0, 0, 0, 0, 0, 0], "stateRewards": ["", -2, 8, 48, 24, 2, -8, -24, -48, -4, 8, -48, 24], "withholdReward": false, "trial_id": "mdp_224053025943", "block": "test2", "trialIndex": 38, "score": -25.25, "costs": -0.25, "simulationMode": [null, null, null], "rewards": [2, -8, -24], "path": ["0", "0", "5", "6", "7"], "rt": [2014, 2596, 201], "actions": ["right", "right", "up"], "actionTimes": [3247, 6352, 7057], "queries": {"click": {"state": {"target": ["3"], "time": [2430]}, "edge": {"target": [], "time": []}}, "mouseover": {"state": {"target": ["3"], "time": [1955]}, "edge": {"target": [], "time": []}}, "mouseout": {"state": {"target": ["0"], "time": [1672]}, "edge": {"target": [], "time": []}}}, "displayed_time": "9.23", "trialTime": 11079, "trial_type": "mouselab-mdp", "trial_index": 46, "time_elapsed": 992482, "internal_node_id": "0.0-4.0-3.0-6.0"}}, {"uniqueid": "w38566133:a15069791", "current_trial": 47, "dateTime": 1664556853269, "trialdata": {"revealed_states": [], "num_clicks_accrued": [0, 0, 0, 0, 0, 0, 0, 0, 0, 0, 0, 0, 0], "stateRewards": ["", -2, 8, 48, 48, 4, -8, -48, 48, 2, -4, -48, 48], "withholdReward": false, "trial_id": "mdp_132958048709", "block": "test2", "trialIndex": 39, "score": 58.75, "costs": -0.25, "simulationMode": [null, null, null], "rewards": [-2, 8, 48], "path": ["0", "0", "1", "2", "3"], "rt": [4024, 339, 68], "actions": ["up", "up", "right"], "actionTimes": [6073, 6901, 7480], "queries": {"click": {"state": {"target": ["3"], "time": [4897]}, "edge": {"target": [], "time": []}}, "mouseover": {"state": {"target": ["7", "3", "3"], "time": [4028, 4228, 4511]}, "edge": {"target": [], "time": []}}, "mouseout": {"state": {"target": ["3", "0", "7", "3", "3"], "time": [1212, 3641, 4161, 4278, 8727]}, "edge": {"target": [], "time": []}}}, "displayed_time": "10.05", "trialTime": 13296, "trial_type": "mouselab-mdp", "trial_index": 47, "time_elapsed": 1005874, "internal_node_id": "0.0-4.0-3.0-7.0"}}, {"uniqueid": "w38566133:a15069791", "current_trial": 48, "dateTime": 1664556866585, "trialdata": {"revealed_states": [], "num_clicks_accrued": [0, 0, 0, 0, 0, 0, 0, 0, 0, 0, 0, 0, 0], "stateRewards": ["", 2, 4, 48, -48, 2, 4, 24, -24, 2, -4, -24, -48], "withholdReward": true, "trial_id": "mdp_706591889062", "block": "test2", "trialIndex": 40, "score": 58.75, "costs": -0.25, "simulationMode": [null, null, null], "rewards": [2, 4, 48], "path": ["0", "0", "1", "2", "3"], "rt": [2645, 228, 65], "actions": ["up", "up", "right"], "actionTimes": [4887, 5631, 6202], "queries": {"click": {"state": {"target": ["4"], "time": [3590]}, "edge": {"target": [], "time": []}}, "mouseover": {"state": {"target": ["4"], "time": [3103]}, "edge": {"target": [], "time": []}}, "mouseout": {"state": {"target": ["7", "0", "4"], "time": [1603, 2729, 4236]}, "edge": {"target": [], "time": []}}}, "displayed_time": "11.24", "trialTime": 13205, "trial_type": "mouselab-mdp", "trial_index": 48, "time_elapsed": 1019189, "internal_node_id": "0.0-4.0-3.0-8.0"}}, {"uniqueid": "w38566133:a15069791", "current_trial": 49, "dateTime": 1664556878207, "trialdata": {"revealed_states": [], "num_clicks_accrued": [0, 0, 0, 0, 0, 0, 0, 0, 0, 0, 0, 0, 0], "stateRewards": ["", -4, 4, 24, 24, -2, 8, 24, -48, 4, -8, -24, -48], "withholdReward": true, "trial_id": "mdp_651542905861", "block": "test2", "trialIndex": 41, "score": 29, "costs": 0, "simulationMode": [null, null, null], "rewards": [-4, 4, 24], "path": ["0", "0", "1", "2", "3"], "rt": [838, 39, 493], "actions": ["up", "up", "right"], "actionTimes": [2914, 3468, 4488], "queries": {"click": {"state": {"target": [], "time": []}, "edge": {"target": [], "time": []}}, "mouseover": {"state": {"target": [], "time": []}, "edge": {"target": [], "time": []}}, "mouseout": {"state": {"target": [], "time": []}, "edge": {"target": [], "time": []}}}, "displayed_time": "10.08", "trialTime": 11522, "trial_type": "mouselab-mdp", "trial_index": 49, "time_elapsed": 1030812, "internal_node_id": "0.0-4.0-3.0-9.0"}}, {"uniqueid": "w38566133:a15069791", "current_trial": 50, "dateTime": 1664556891225, "trialdata": {"revealed_states": [], "num_clicks_accrued": [0, 0, 0, 0, 0, 0, 0, 0, 0, 0, 0, 0, 0], "stateRewards": ["", 2, 8, 24, -48, 4, 8, 24, 24, 4, -8, 48, 48], "withholdReward": false, "trial_id": "mdp_646103824875", "block": "test2", "trialIndex": 42, "score": 39, "costs": 0, "simulationMode": [null, null, null], "rewards": [2, 8, 24], "path": ["0", "0", "1", "2", "3"], "rt": [854, 243, 143], "actions": ["up", "up", "right"], "actionTimes": [2037, 2770, 3422], "queries": {"click": {"state": {"target": [], "time": []}, "edge": {"target": [], "time": []}}, "mouseover": {"state": {"target": [], "time": []}, "edge": {"target": [], "time": []}}, "mouseout": {"state": {"target": ["0"], "time": [1113]}, "edge": {"target": [], "time": []}}}, "displayed_time": "10.18", "trialTime": 12907, "trial_type": "mouselab-mdp", "trial_index": 50, "time_elapsed": 1043830, "internal_node_id": "0.0-4.0-3.0-10.0"}}, {"uniqueid": "w38566133:a15069791", "current_trial": 51, "dateTime": 1664556903050, "trialdata": {"revealed_states": [], "num_clicks_accrued": [0, 0, 0, 0, 0, 0, 0, 0, 0, 0, 0, 0, 0], "stateRewards": ["", 2, 4, 48, -24, 2, -8, -24, -24, 2, -8, -24, -48], "withholdReward": true, "trial_id": "mdp_274832552938", "block": "test2", "trialIndex": 43, "score": 59, "costs": 0, "simulationMode": [null, null, null], "rewards": [2, 4, 48], "path": ["0", "0", "1", "2", "3"], "rt": [796, 1007, 99], "actions": ["up", "up", "right"], "actionTimes": [1896, 3417, 4024], "queries": {"click": {"state": {"target": [], "time": []}, "edge": {"target": [], "time": []}}, "mouseover": {"state": {"target": [], "time": []}, "edge": {"target": [], "time": []}}, "mouseout": {"state": {"target": ["0"], "time": [1010]}, "edge": {"target": [], "time": []}}}, "displayed_time": "10.10", "trialTime": 11681, "trial_type": "mouselab-mdp", "trial_index": 51, "time_elapsed": 1055655, "internal_node_id": "0.0-4.0-3.0-11.0"}}, {"uniqueid": "w38566133:a15069791", "current_trial": 52, "dateTime": 1664556914729, "trialdata": {"revealed_states": [], "num_clicks_accrued": [0, 0, 0, 0, 0, 0, 0, 0, 0, 0, 0, 0, 0], "stateRewards": ["", -4, 8, 48, -48, 2, -4, 24, -24, -2, 4, -24, -24], "withholdReward": true, "trial_id": "mdp_804988042722", "block": "test2", "trialIndex": 44, "score": 56.75, "costs": -0.25, "simulationMode": [null, null, null], "rewards": [-4, 8, 48], "path": ["0", "0", "1", "2", "3"], "rt": [2776, 112, 77], "actions": ["up", "up", "right"], "actionTimes": [4647, 5253, 5834], "queries": {"click": {"state": {"target": ["3"], "time": [3080]}, "edge": {"target": [], "time": []}}, "mouseover": {"state": {"target": ["3"], "time": [2473]}, "edge": {"target": [], "time": []}}, "mouseout": {"state": {"target": ["0", "3"], "time": [1619, 3739]}, "edge": {"target": [], "time": []}}}, "displayed_time": "10.87", "trialTime": 11577, "trial_type": "mouselab-mdp", "trial_index": 52, "time_elapsed": 1067333, "internal_node_id": "0.0-4.0-3.0-12.0"}}, {"uniqueid": "w38566133:a15069791", "current_trial": 53, "dateTime": 1664556926461, "trialdata": {"revealed_states": [], "num_clicks_accrued": [0, 0, 0, 0, 0, 0, 0, 0, 0, 0, 0, 0, 0], "stateRewards": ["", -2, 4, 24, 48, 2, 4, -48, -48, -2, 8, 48, -24], "withholdReward": false, "trial_id": "mdp_305701202606", "block": "test2", "trialIndex": 45, "score": 31, "costs": 0, "simulationMode": [null, null, null], "rewards": [-2, 4, 24], "path": ["0", "0", "1", "2", "3"], "rt": [1500, 435, 96], "actions": ["up", "up", "right"], "actionTimes": [3298, 4244, 4855], "queries": {"click": {"state": {"target": [], "time": []}, "edge": {"target": [], "time": []}}, "mouseover": {"state": {"target": ["5"], "time": [2259]}, "edge": {"target": [], "time": []}}, "mouseout": {"state": {"target": ["7", "5"], "time": [1125, 2275]}, "edge": {"target": [], "time": []}}}, "displayed_time": "9.80", "trialTime": 11631, "trial_type": "mouselab-mdp", "trial_index": 53, "time_elapsed": 1079066, "internal_node_id": "0.0-4.0-3.0-13.0"}}, {"uniqueid": "w38566133:a15069791", "current_trial": 54, "dateTime": 1664556937109, "trialdata": {"revealed_states": [], "num_clicks_accrued": [0, 0, 0, 0, 0, 0, 0, 0, 0, 0, 0, 0, 0], "stateRewards": ["", -4, 4, -48, -48, -2, -8, -48, -24, 4, 8, -24, 24], "withholdReward": true, "trial_id": "mdp_449260894259", "block": "test2", "trialIndex": 46, "score": -43, "costs": 0, "simulationMode": [null, null, null], "rewards": [-4, 4, -48], "path": ["0", "0", "1", "2", "3"], "rt": [540, 16, 453], "actions": ["up", "up", "right"], "actionTimes": [2307, 2837, 3808], "queries": {"click": {"state": {"target": [], "time": []}, "edge": {"target": [], "time": []}}, "mouseover": {"state": {"target": [], "time": []}, "edge": {"target": [], "time": []}}, "mouseout": {"state": {"target": ["6", "5", "0", "0"], "time": [1021, 1138, 1421, 5838]}, "edge": {"target": [], "time": []}}}, "displayed_time": "9.77", "trialTime": 10509, "trial_type": "mouselab-mdp", "trial_index": 54, "time_elapsed": 1089714, "internal_node_id": "0.0-4.0-3.0-14.0"}}, {"uniqueid": "w38566133:a15069791", "current_trial": 55, "dateTime": 1664556949373, "trialdata": {"revealed_states": [], "num_clicks_accrued": [0, 0, 0, 0, 0, 0, 0, 0, 0, 0, 0, 0, 0], "stateRewards": ["", -4, 4, -24, 24, -2, -4, 48, 24, 2, 8, -48, 24], "withholdReward": true, "trial_id": "mdp_150340189492", "block": "test2", "trialIndex": 47, "score": -19, "costs": 0, "simulationMode": [null, null, null], "rewards": [-4, 4, -24], "path": ["0", "0", "1", "2", "3"], "rt": [1273, 30, 687], "actions": ["up", "up", "right"], "actionTimes": [3209, 3750, 4924], "queries": {"click": {"state": {"target": [], "time": []}, "edge": {"target": [], "time": []}}, "mouseover": {"state": {"target": [], "time": []}, "edge": {"target": [], "time": []}}, "mouseout": {"state": {"target": ["6", "5"], "time": [1086, 1203]}, "edge": {"target": [], "time": []}}}, "displayed_time": "10.94", "trialTime": 12139, "trial_type": "mouselab-mdp", "trial_index": 55, "time_elapsed": 1101978, "internal_node_id": "0.0-4.0-3.0-15.0"}}, {"uniqueid": "w38566133:a15069791", "current_trial": 56, "dateTime": 1664556960777, "trialdata": {"revealed_states": [], "num_clicks_accrued": [0, 0, 0, 0, 0, 0, 0, 0, 0, 0, 0, 0, 0], "stateRewards": ["", -2, -4, -24, 48, -4, 8, 48, 48, 2, 8, -48, -24], "withholdReward": true, "trial_id": "mdp_136376573354", "block": "test2", "trialIndex": 48, "score": -25, "costs": 0, "simulationMode": [null, null, null], "rewards": [-2, -4, -24], "path": ["0", "0", "1", "2", "3"], "rt": [669, 622, 147], "actions": ["up", "up", "right"], "actionTimes": [2102, 3233, 3874], "queries": {"click": {"state": {"target": [], "time": []}, "edge": {"target": [], "time": []}}, "mouseover": {"state": {"target": [], "time": []}, "edge": {"target": [], "time": []}}, "mouseout": {"state": {"target": ["0"], "time": [841]}, "edge": {"target": [], "time": []}}}, "displayed_time": "10.44", "trialTime": 11286, "trial_type": "mouselab-mdp", "trial_index": 56, "time_elapsed": 1113382, "internal_node_id": "0.0-4.0-3.0-16.0"}}, {"uniqueid": "w38566133:a15069791", "current_trial": 57, "dateTime": 1664556972161, "trialdata": {"revealed_states": [], "num_clicks_accrued": [0, 0, 0, 0, 0, 0, 0, 0, 0, 0, 0, 0, 0], "stateRewards": ["", -2, 8, 48, 48, 2, 4, -48, 24, -4, -8, 48, 24], "withholdReward": true, "trial_id": "mdp_572910394648", "block": "test2", "trialIndex": 49, "score": 59, "costs": 0, "simulationMode": [null, null, null], "rewards": [-2, 8, 48], "path": ["0", "0", "1", "2", "3"], "rt": [679, 93, 45], "actions": ["up", "up", "right"], "actionTimes": [1914, 2507, 3060], "queries": {"click": {"state": {"target": [], "time": []}, "edge": {"target": [], "time": []}}, "mouseover": {"state": {"target": [], "time": []}, "edge": {"target": [], "time": []}}, "mouseout": {"state": {"target": ["0"], "time": [1136]}, "edge": {"target": [], "time": []}}}, "displayed_time": "10.24", "trialTime": 11242, "trial_type": "mouselab-mdp", "trial_index": 57, "time_elapsed": 1124766, "internal_node_id": "0.0-4.0-3.0-17.0"}}, {"uniqueid": "w38566133:a15069791", "current_trial": 58, "dateTime": 1664556983451, "trialdata": {"revealed_states": [], "num_clicks_accrued": [0, 0, 0, 0, 0, 0, 0, 0, 0, 0, 0, 0, 0], "stateRewards": ["", -4, -8, -24, -48, -2, -8, 24, -48, -4, -8, 24, -48], "withholdReward": true, "trial_id": "mdp_621812384092", "block": "test2", "trialIndex": 50, "score": -31, "costs": 0, "simulationMode": [null, null, null], "rewards": [-4, -8, -24], "path": ["0", "0", "1", "2", "3"], "rt": [723, 105, 36], "actions": ["up", "up", "right"], "actionTimes": [1903, 2524, 3071], "queries": {"click": {"state": {"target": [], "time": []}, "edge": {"target": [], "time": []}}, "mouseover": {"state": {"target": [], "time": []}, "edge": {"target": [], "time": []}}, "mouseout": {"state": {"target": ["0"], "time": [1104]}, "edge": {"target": [], "time": []}}}, "displayed_time": "10.18", "trialTime": 11157, "trial_type": "mouselab-mdp", "trial_index": 58, "time_elapsed": 1136056, "internal_node_id": "0.0-4.0-3.0-18.0"}}, {"uniqueid": "w38566133:a15069791", "current_trial": 59, "dateTime": 1664556993545, "trialdata": {"revealed_states": [], "num_clicks_accrued": [0, 0, 0, 0, 0, 0, 0, 0, 0, 0, 0, 0, 0], "stateRewards": ["", 2, -4, 24, -24, 2, -8, 48, 48, 4, -4, 24, 48], "withholdReward": true, "trial_id": "mdp_947836623875", "block": "test2", "trialIndex": 51, "score": 27, "costs": 0, "simulationMode": [null, null, null], "rewards": [2, -4, 24], "path": ["0", "0", "1", "2", "3"], "rt": [1096, 79, 22], "actions": ["up", "up", "right"], "actionTimes": [2227, 2825, 3365], "queries": {"click": {"state": {"target": [], "time": []}, "edge": {"target": [], "time": []}}, "mouseover": {"state": {"target": [], "time": []}, "edge": {"target": [], "time": []}}, "mouseout": {"state": {"target": ["0"], "time": [1044]}, "edge": {"target": [], "time": []}}}, "displayed_time": "9.13", "trialTime": 9977, "trial_type": "mouselab-mdp", "trial_index": 59, "time_elapsed": 1146150, "internal_node_id": "0.0-4.0-3.0-19.0"}}, {"uniqueid": "w38566133:a15069791", "current_trial": 60, "dateTime": 1664557003423, "trialdata": {"revealed_states": [], "num_clicks_accrued": [0, 0, 0, 0, 0, 0, 0, 0, 0, 0, 0, 0, 0], "stateRewards": ["", -2, 8, -24, 24, -4, -8, -24, 48, -2, -8, -48, 48], "withholdReward": true, "trial_id": "mdp_238332601315", "block": "test2", "trialIndex": 52, "score": -13, "costs": 0, "simulationMode": [null, null, null], "rewards": [-2, 8, -24], "path": ["0", "0", "1", "2", "3"], "rt": [1111, 451, 129], "actions": ["up", "up", "right"], "actionTimes": [2096, 3055, 3700], "queries": {"click": {"state": {"target": [], "time": []}, "edge": {"target": [], "time": []}}, "mouseover": {"state": {"target": [], "time": []}, "edge": {"target": [], "time": []}}, "mouseout": {"state": {"target": ["0"], "time": [923]}, "edge": {"target": [], "time": []}}}, "displayed_time": "8.99", "trialTime": 9765, "trial_type": "mouselab-mdp", "trial_index": 60, "time_elapsed": 1156027, "internal_node_id": "0.0-4.0-3.0-20.0"}}, {"uniqueid": "w38566133:a15069791", "current_trial": 61, "dateTime": 1664557013731, "trialdata": {"revealed_states": [], "num_clicks_accrued": [0, 0, 0, 0, 0, 0, 0, 0, 0, 0, 0, 0, 0], "stateRewards": ["", -2, -8, 24, -48, 4, 4, -24, -48, -2, -8, -48, 24], "withholdReward": true, "trial_id": "mdp_556006673466", "block": "test2", "trialIndex": 53, "score": 19, "costs": 0, "simulationMode": [null, null, null], "rewards": [-2, -8, 24], "path": ["0", "0", "1", "2", "3"], "rt": [816, 104, 106], "actions": ["up", "up", "right"], "actionTimes": [1952, 2564, 3184], "queries": {"click": {"state": {"target": [], "time": []}, "edge": {"target": [], "time": []}}, "mouseover": {"state": {"target": [], "time": []}, "edge": {"target": [], "time": []}}, "mouseout": {"state": {"target": ["0"], "time": [1035]}, "edge": {"target": [], "time": []}}}, "displayed_time": "9.14", "trialTime": 10182, "trial_type": "mouselab-mdp", "trial_index": 61, "time_elapsed": 1166336, "internal_node_id": "0.0-4.0-3.0-21.0"}}, {"uniqueid": "w38566133:a15069791", "current_trial": 62, "dateTime": 1664557024494, "trialdata": {"revealed_states": [], "num_clicks_accrued": [0, 0, 0, 0, 0, 0, 0, 0, 0, 0, 0, 0, 0], "stateRewards": ["", -4, 4, 24, 24, 4, -8, 48, -48, -2, -8, 24, 24], "withholdReward": true, "trial_id": "mdp_395264223239", "block": "test2", "trialIndex": 54, "score": 28.75, "costs": -0.25, "simulationMode": [null, null, null], "rewards": [-4, 4, 24], "path": ["0", "0", "1", "2", "3"], "rt": [3642, 57, 462], "actions": ["up", "up", "right"], "actionTimes": [4921, 5488, 6478], "queries": {"click": {"state": {"target": ["3"], "time": [2404]}, "edge": {"target": [], "time": []}}, "mouseover": {"state": {"target": ["3"], "time": [1898]}, "edge": {"target": [], "time": []}}, "mouseout": {"state": {"target": ["0", "3"], "time": [1206, 3180]}, "edge": {"target": [], "time": []}}}, "displayed_time": "9.28", "trialTime": 10651, "trial_type": "mouselab-mdp", "trial_index": 62, "time_elapsed": 1177099, "internal_node_id": "0.0-4.0-3.0-22.0"}}, {"uniqueid": "w38566133:a15069791", "current_trial": 63, "dateTime": 1664557035240, "trialdata": {"revealed_states": [], "num_clicks_accrued": [0, 0, 0, 0, 0, 0, 0, 0, 0, 0, 0, 0, 0], "stateRewards": ["", -2, -4, -24, -48, 2, -8, -24, -24, 4, -8, 48, 48], "withholdReward": true, "trial_id": "mdp_950599994674", "block": "test2", "trialIndex": 55, "score": 48.75, "costs": -0.25, "simulationMode": [null, null, null], "rewards": [4, -8, 48], "path": ["0", "0", "9", "10", "11"], "rt": [2721, 131, 495], "actions": ["left", "left", "up"], "actionTimes": [4538, 5182, 6196], "queries": {"click": {"state": {"target": ["11"], "time": [3162]}, "edge": {"target": [], "time": []}}, "mouseover": {"state": {"target": ["9", "11"], "time": [2500, 2667]}, "edge": {"target": [], "time": []}}, "mouseout": {"state": {"target": ["9", "11"], "time": [2584, 3867]}, "edge": {"target": [], "time": []}}}, "displayed_time": "9.82", "trialTime": 10635, "trial_type": "mouselab-mdp", "trial_index": 63, "time_elapsed": 1187845, "internal_node_id": "0.0-4.0-3.0-23.0"}}, {"uniqueid": "w38566133:a15069791", "current_trial": 64, "dateTime": 1664557048748, "trialdata": {"revealed_states": [], "num_clicks_accrued": [0, 0, 0, 0, 0, 0, 0, 0, 0, 0, 0, 0, 0], "stateRewards": ["", -2, 4, 48, -24, 2, 8, 24, 48, 2, 4, -24, -48], "withholdReward": false, "trial_id": "mdp_892412058587", "block": "test2", "trialIndex": 56, "score": 54.75, "costs": -0.25, "simulationMode": [null, null, null], "rewards": [-2, 4, 48], "path": ["0", "0", "1", "2", "3"], "rt": [3854, 113, 9], "actions": ["up", "up", "right"], "actionTimes": [5400, 6022, 6533], "queries": {"click": {"state": {"target": ["11"], "time": [2651]}, "edge": {"target": [], "time": []}}, "mouseover": {"state": {"target": ["9", "11", "9", "3"], "time": [1991, 2124, 3826, 4558]}, "edge": {"target": [], "time": []}}, "mouseout": {"state": {"target": ["11", "0", "9", "11", "9", "3"], "time": [926, 1974, 2024, 3724, 3841, 4808]}, "edge": {"target": [], "time": []}}}, "displayed_time": "10.55", "trialTime": 13386, "trial_type": "mouselab-mdp", "trial_index": 64, "time_elapsed": 1201352, "internal_node_id": "0.0-4.0-3.0-24.0"}}, {"uniqueid": "w38566133:a15069791", "current_trial": 65, "dateTime": 1664557059659, "trialdata": {"revealed_states": [], "num_clicks_accrued": [0, 0, 0, 0, 0, 0, 0, 0, 0, 0, 0, 0, 0], "stateRewards": ["", 4, 8, -48, -48, 2, 4, -24, -48, 2, 8, 48, -48], "withholdReward": true, "trial_id": "mdp_902172716465", "block": "test2", "trialIndex": 57, "score": -31, "costs": 0, "simulationMode": [null, null, null], "rewards": [4, 8, -48], "path": ["0", "0", "1", "2", "3"], "rt": [1146, 193, 119], "actions": ["up", "up", "right"], "actionTimes": [2631, 3316, 3941], "queries": {"click": {"state": {"target": [], "time": []}, "edge": {"target": [], "time": []}}, "mouseover": {"state": {"target": [], "time": []}, "edge": {"target": [], "time": []}}, "mouseout": {"state": {"target": [], "time": []}, "edge": {"target": [], "time": []}}}, "displayed_time": "9.50", "trialTime": 10780, "trial_type": "mouselab-mdp", "trial_index": 65, "time_elapsed": 1212264, "internal_node_id": "0.0-4.0-3.0-25.0"}}, {"uniqueid": "w38566133:a15069791", "current_trial": 66, "dateTime": 1664557079637, "trialdata": {"revealed_states": [], "num_clicks_accrued": [0, 0, 0, 0, 0, 0, 0, 0, 0, 0, 0, 0, 0], "stateRewards": ["", -4, -4, -48, -24, 2, 8, 24, -48, 4, 4, 48, 48], "withholdReward": true, "trial_id": "mdp_693501840209", "block": "test2", "trialIndex": 58, "score": -51, "costs": 0, "simulationMode": [null, null, null], "rewards": [-4, -4, -48], "path": ["0", "0", "1", "2", "3"], "rt": [840, 460, 136], "actions": ["up", "up", "right"], "actionTimes": [1919, 2883, 3510], "queries": {"click": {"state": {"target": [], "time": []}, "edge": {"target": [], "time": []}}, "mouseover": {"state": {"target": [], "time": []}, "edge": {"target": [], "time": []}}, "mouseout": {"state": {"target": [], "time": []}, "edge": {"target": [], "time": []}}}, "displayed_time": "10.08", "trialTime": 19828, "trial_type": "mouselab-mdp", "trial_index": 66, "time_elapsed": 1232242, "internal_node_id": "0.0-4.0-3.0-26.0"}}, {"uniqueid": "w38566133:a15069791", "current_trial": 67, "dateTime": 1664557101172, "trialdata": {"revealed_states": [], "num_clicks_accrued": [0, 0, 0, 0, 0, 0, 0, 0, 0, 0, 0, 0, 0], "stateRewards": ["", -2, -4, -24, -48, -2, 8, -48, 24, 4, -4, -24, -24], "withholdReward": true, "trial_id": "mdp_915304165774", "block": "test2", "trialIndex": 59, "score": -19.25, "costs": -0.25, "simulationMode": [null, null, null], "rewards": [4, -4, -24], "path": ["0", "0", "9", "10", "11"], "rt": [3603, 182, 26], "actions": ["left", "left", "up"], "actionTimes": [7937, 8613, 9158], "queries": {"click": {"state": {"target": ["3"], "time": [5695]}, "edge": {"target": [], "time": []}}, "mouseover": {"state": {"target": ["1", "3"], "time": [5014, 5232]}, "edge": {"target": [], "time": []}}, "mouseout": {"state": {"target": ["0", "1", "3"], "time": [4933, 5047, 6582]}, "edge": {"target": [], "time": []}}}, "displayed_time": "13.34", "trialTime": 21425, "trial_type": "mouselab-mdp", "trial_index": 67, "time_elapsed": 1253777, "internal_node_id": "0.0-4.0-3.0-27.0"}}, {"uniqueid": "w38566133:a15069791", "current_trial": 68, "dateTime": 1664557113451, "trialdata": {"revealed_states": [], "num_clicks_accrued": [0, 0, 0, 0, 0, 0, 0, 0, 0, 0, 0, 0, 0], "stateRewards": ["", -2, -8, -48, 24, 2, -4, -48, 48, 2, 4, 24, -24], "withholdReward": true, "trial_id": "mdp_849341543762", "block": "test2", "trialIndex": 60, "score": 51, "costs": 0, "simulationMode": [null, null, null], "rewards": [2, -4, 48], "path": ["0", "0", "5", "6", "8"], "rt": [1359, 150, 47], "actions": ["right", "right", "down"], "actionTimes": [3303, 3961, 4521], "queries": {"click": {"state": {"target": [], "time": []}, "edge": {"target": [], "time": []}}, "mouseover": {"state": {"target": [], "time": []}, "edge": {"target": [], "time": []}}, "mouseout": {"state": {"target": ["7", "5"], "time": [1175, 1358]}, "edge": {"target": [], "time": []}}}, "displayed_time": "9.95", "trialTime": 12167, "trial_type": "mouselab-mdp", "trial_index": 68, "time_elapsed": 1266056, "internal_node_id": "0.0-4.0-3.0-28.0"}}, {"uniqueid": "w38566133:a15069791", "current_trial": 69, "dateTime": 1664557126890, "trialdata": {"revealed_states": [], "num_clicks_accrued": [0, 0, 0, 0, 0, 0, 0, 0, 0, 0, 0, 0, 0], "stateRewards": ["", -2, -8, 48, 24, 2, 4, 24, -24, -2, -4, 48, -48], "withholdReward": false, "trial_id": "mdp_411152402386", "block": "test2", "trialIndex": 61, "score": 34.75, "costs": -0.25, "simulationMode": [null, null, null], "rewards": [2, 4, 24], "path": ["0", "0", "5", "6", "7"], "rt": [3637, 149, 19], "actions": ["right", "right", "up"], "actionTimes": [4777, 5442, 5963], "queries": {"click": {"state": {"target": ["7"], "time": [2491]}, "edge": {"target": [], "time": []}}, "mouseover": {"state": {"target": ["7"], "time": [2194]}, "edge": {"target": [], "time": []}}, "mouseout": {"state": {"target": ["0", "7"], "time": [1056, 3044]}, "edge": {"target": [], "time": []}}}, "displayed_time": "10.15", "trialTime": 13326, "trial_type": "mouselab-mdp", "trial_index": 69, "time_elapsed": 1279494, "internal_node_id": "0.0-4.0-3.0-29.0"}}, {"uniqueid": "w38566133:a15069791", "current_trial": 70, "dateTime": 1664557130179, "trialdata": {"rt": 3285, "stimulus": "<h1> End of block! </h1>\n\nYou have reached the end of the block 2/4. If you need a short break, feel free to take one now before moving on.\n\n<br><br>\nIn the next block, you will complete another 30 rounds of this game.\n\n<br><br>\n<div style='text-align: center;'>Press <code>space</code> to begin.</div>\n<br><br>\n<div style='text-align: center;'>(If the experiment doesn't continue, try clicking on the text and then pressing <code>space</code>.)</div>", "response": " ", "trial_id": "mdp_ready_3", "trial_type": "html-keyboard-response", "trial_index": 70, "time_elapsed": 1282784, "internal_node_id": "0.0-4.0-4.0"}}, {"uniqueid": "w38566133:a15069791", "current_trial": 71, "dateTime": 1664557142178, "trialdata": {"revealed_states": [], "num_clicks_accrued": [0, 0, 0, 0, 0, 0, 0, 0, 0, 0, 0, 0, 0], "stateRewards": ["", 4, 8, -48, -48, 2, 4, -24, -48, 2, 8, 48, -48], "withholdReward": true, "trial_id": "mdp_902172716465", "block": "test3", "trialIndex": 62, "score": -13.25, "costs": -0.25, "simulationMode": [null, null, null], "rewards": [2, 4, -24], "path": ["0", "0", "5", "6", "7"], "rt": [3334, 320, 148], "actions": ["right", "right", "up"], "actionTimes": [6227, 7056, 7716], "queries": {"click": {"state": {"target": ["8"], "time": [4448]}, "edge": {"target": [], "time": []}}, "mouseover": {"state": {"target": ["5", "8"], "time": [3584, 4002]}, "edge": {"target": [], "time": []}}, "mouseout": {"state": {"target": ["7", "5", "8"], "time": [2201, 3617, 5217]}, "edge": {"target": [], "time": []}}}, "displayed_time": "10.89", "trialTime": 11892, "trial_type": "mouselab-mdp", "trial_index": 71, "time_elapsed": 1294783, "internal_node_id": "0.0-4.0-5.0-0.0"}}, {"uniqueid": "w38566133:a15069791", "current_trial": 72, "dateTime": 1664557153193, "trialdata": {"revealed_states": [], "num_clicks_accrued": [0, 0, 0, 0, 0, 0, 0, 0, 0, 0, 0, 0, 0], "stateRewards": ["", 2, -4, 24, 48, -2, 4, -48, -48, -4, 4, 24, -24], "withholdReward": true, "trial_id": "mdp_900363662757", "block": "test3", "trialIndex": 63, "score": 27, "costs": 0, "simulationMode": [null, null, null], "rewards": [2, -4, 24], "path": ["0", "0", "1", "2", "3"], "rt": [1627, 179, 209], "actions": ["up", "up", "right"], "actionTimes": [3476, 4146, 4860], "queries": {"click": {"state": {"target": [], "time": []}, "edge": {"target": [], "time": []}}, "mouseover": {"state": {"target": [], "time": []}, "edge": {"target": [], "time": []}}, "mouseout": {"state": {"target": ["6", "5"], "time": [1166, 1302]}, "edge": {"target": [], "time": []}}}, "displayed_time": "9.85", "trialTime": 10908, "trial_type": "mouselab-mdp", "trial_index": 72, "time_elapsed": 1305798, "internal_node_id": "0.0-4.0-5.0-1.0"}}, {"uniqueid": "w38566133:a15069791", "current_trial": 73, "dateTime": 1664557169431, "trialdata": {"revealed_states": [], "num_clicks_accrued": [0, 0, 0, 0, 0, 0, 0, 0, 0, 0, 0, 0, 0], "stateRewards": ["", -4, -8, 48, -48, 2, -4, 48, -24, 2, -8, -48, -48], "withholdReward": false, "trial_id": "mdp_624553692913", "block": "test3", "trialIndex": 64, "score": 40.75, "costs": -0.25, "simulationMode": [null, null, null], "rewards": [-4, -8, 48], "path": ["0", "0", "1", "2", "3"], "rt": [2762, 350, 81], "actions": ["up", "up", "right"], "actionTimes": [5019, 5883, 6480], "queries": {"click": {"state": {"target": ["4"], "time": [3328]}, "edge": {"target": [], "time": []}}, "mouseover": {"state": {"target": ["4"], "time": [2799]}, "edge": {"target": [], "time": []}}, "mouseout": {"state": {"target": ["5", "4"], "time": [1382, 3982]}, "edge": {"target": [], "time": []}}}, "displayed_time": "11.26", "trialTime": 16129, "trial_type": "mouselab-mdp", "trial_index": 73, "time_elapsed": 1322036, "internal_node_id": "0.0-4.0-5.0-2.0"}}, {"uniqueid": "w38566133:a15069791", "current_trial": 74, "dateTime": 1664557181626, "trialdata": {"revealed_states": [], "num_clicks_accrued": [0, 0, 0, 0, 0, 0, 0, 0, 0, 0, 0, 0, 0], "stateRewards": ["", -2, -4, -24, 48, -4, 8, 48, 48, 2, 8, -48, -24], "withholdReward": true, "trial_id": "mdp_136376573354", "block": "test3", "trialIndex": 65, "score": -9.25, "costs": -0.25, "simulationMode": [null, null, null], "rewards": [2, 8, -24], "path": ["0", "0", "9", "10", "12"], "rt": [5221, 166, 69], "actions": ["left", "left", "down"], "actionTimes": [7214, 7899, 8485], "queries": {"click": {"state": {"target": ["3"], "time": [4122]}, "edge": {"target": [], "time": []}}, "mouseover": {"state": {"target": ["3"], "time": [3517]}, "edge": {"target": [], "time": []}}, "mouseout": {"state": {"target": ["3", "0", "3"], "time": [1217, 3232, 4650]}, "edge": {"target": [], "time": []}}}, "displayed_time": "10.99", "trialTime": 12078, "trial_type": "mouselab-mdp", "trial_index": 74, "time_elapsed": 1334230, "internal_node_id": "0.0-4.0-5.0-3.0"}}, {"uniqueid": "w38566133:a15069791", "current_trial": 75, "dateTime": 1664557194052, "trialdata": {"revealed_states": [], "num_clicks_accrued": [0, 0, 0, 0, 0, 0, 0, 0, 0, 0, 0, 0, 0], "stateRewards": ["", -2, -8, 24, -48, -4, 8, -48, -24, 4, 8, -24, 24], "withholdReward": true, "trial_id": "mdp_940444641142", "block": "test3", "trialIndex": 66, "score": -15.25, "costs": -0.25, "simulationMode": [null, null, null], "rewards": [-4, 8, -24], "path": ["0", "0", "5", "6", "8"], "rt": [2658, 179, 23], "actions": ["right", "right", "down"], "actionTimes": [4359, 5042, 5586], "queries": {"click": {"state": {"target": ["7"], "time": [2840]}, "edge": {"target": [], "time": []}}, "mouseover": {"state": {"target": ["5", "7"], "time": [2164, 2329]}, "edge": {"target": [], "time": []}}, "mouseout": {"state": {"target": ["0", "5", "7"], "time": [1279, 2196, 3428]}, "edge": {"target": [], "time": []}}}, "displayed_time": "10.70", "trialTime": 12303, "trial_type": "mouselab-mdp", "trial_index": 75, "time_elapsed": 1346657, "internal_node_id": "0.0-4.0-5.0-4.0"}}, {"uniqueid": "w38566133:a15069791", "current_trial": 76, "dateTime": 1664557207027, "trialdata": {"revealed_states": [], "num_clicks_accrued": [0, 0, 0, 0, 0, 0, 0, 0, 0, 0, 0, 0, 0], "stateRewards": ["", -4, 4, -48, -48, -2, -8, -48, -24, 4, 8, -24, 24], "withholdReward": true, "trial_id": "mdp_449260894259", "block": "test3", "trialIndex": 67, "score": -43.25, "costs": -0.25, "simulationMode": [null, null, null], "rewards": [-4, 4, -48], "path": ["0", "0", "1", "2", "3"], "rt": [3252, 198, 101], "actions": ["up", "up", "right"], "actionTimes": [5870, 6563, 7182], "queries": {"click": {"state": {"target": ["8"], "time": [3961]}, "edge": {"target": [], "time": []}}, "mouseover": {"state": {"target": ["0", "5", "8"], "time": [3148, 3180, 3347]}, "edge": {"target": [], "time": []}}, "mouseout": {"state": {"target": ["5", "0", "5", "8"], "time": [2047, 3164, 3214, 4447]}, "edge": {"target": [], "time": []}}}, "displayed_time": "11.63", "trialTime": 12864, "trial_type": "mouselab-mdp", "trial_index": 76, "time_elapsed": 1359632, "internal_node_id": "0.0-4.0-5.0-5.0"}}, {"uniqueid": "w38566133:a15069791", "current_trial": 77, "dateTime": 1664557219772, "trialdata": {"revealed_states": [], "num_clicks_accrued": [0, 0, 0, 0, 0, 0, 0, 0, 0, 0, 0, 0, 0], "stateRewards": ["", -2, 8, 48, 48, 4, -8, -48, 48, 2, -4, -48, 48], "withholdReward": true, "trial_id": "mdp_132958048709", "block": "test3", "trialIndex": 68, "score": 50.75, "costs": -0.25, "simulationMode": [null, null, null], "rewards": [2, -4, 48], "path": ["0", "0", "9", "10", "12"], "rt": [2715, 118, 98], "actions": ["left", "left", "down"], "actionTimes": [4725, 5336, 5932], "queries": {"click": {"state": {"target": ["11"], "time": [3253]}, "edge": {"target": [], "time": []}}, "mouseover": {"state": {"target": ["11"], "time": [2901]}, "edge": {"target": [], "time": []}}, "mouseout": {"state": {"target": ["11"], "time": [3901]}, "edge": {"target": [], "time": []}}}, "displayed_time": "11.01", "trialTime": 12632, "trial_type": "mouselab-mdp", "trial_index": 77, "time_elapsed": 1372377, "internal_node_id": "0.0-4.0-5.0-6.0"}}, {"uniqueid": "w38566133:a15069791", "current_trial": 78, "dateTime": 1664557230945, "trialdata": {"revealed_states": [], "num_clicks_accrued": [0, 0, 0, 0, 0, 0, 0, 0, 0, 0, 0, 0, 0], "stateRewards": ["", -4, -4, -24, -24, -2, 4, 48, -24, -2, -4, -24, 48], "withholdReward": false, "trial_id": "mdp_855903341564", "block": "test3", "trialIndex": 69, "score": -27.25, "costs": -0.25, "simulationMode": [null, null, null], "rewards": [-4, -4, -24], "path": ["0", "0", "1", "2", "4"], "rt": [5251, 92, 10], "actions": ["up", "up", "left"], "actionTimes": [7054, 7633, 8151], "queries": {"click": {"state": {"target": ["3"], "time": [3132]}, "edge": {"target": [], "time": []}}, "mouseover": {"state": {"target": ["3", "2"], "time": [2591, 4573]}, "edge": {"target": [], "time": []}}, "mouseout": {"state": {"target": ["11", "3", "2"], "time": [1023, 4557, 4590]}, "edge": {"target": [], "time": []}}}, "displayed_time": "9.80", "trialTime": 11062, "trial_type": "mouselab-mdp", "trial_index": 78, "time_elapsed": 1383550, "internal_node_id": "0.0-4.0-5.0-7.0"}}, {"uniqueid": "w38566133:a15069791", "current_trial": 79, "dateTime": 1664557243237, "trialdata": {"revealed_states": [], "num_clicks_accrued": [0, 0, 0, 0, 0, 0, 0, 0, 0, 0, 0, 0, 0], "stateRewards": ["", 4, -8, 48, -24, 4, -4, -48, -48, 4, -4, 24, 24], "withholdReward": true, "trial_id": "mdp_221562928904", "block": "test3", "trialIndex": 70, "score": -43.25, "costs": -0.25, "simulationMode": [null, null, null], "rewards": [4, -4, -48], "path": ["0", "0", "5", "6", "8"], "rt": [3155, 253, 458], "actions": ["right", "right", "down"], "actionTimes": [5473, 6232, 7203], "queries": {"click": {"state": {"target": ["7"], "time": [4143]}, "edge": {"target": [], "time": []}}, "mouseover": {"state": {"target": ["11", "6", "7"], "time": [3029, 3228, 3779]}, "edge": {"target": [], "time": []}}, "mouseout": {"state": {"target": ["10", "9", "0", "11", "6", "7"], "time": [1362, 1378, 1911, 3111, 3695, 4714]}, "edge": {"target": [], "time": []}}}, "displayed_time": "11.33", "trialTime": 12178, "trial_type": "mouselab-mdp", "trial_index": 79, "time_elapsed": 1395842, "internal_node_id": "0.0-4.0-5.0-8.0"}}, {"uniqueid": "w38566133:a15069791", "current_trial": 80, "dateTime": 1664557254354, "trialdata": {"revealed_states": [], "num_clicks_accrued": [0, 0, 0, 0, 0, 0, 0, 0, 0, 0, 0, 0, 0], "stateRewards": ["", 2, -4, -24, -48, -2, 8, -24, 48, -2, 8, 24, -48], "withholdReward": false, "trial_id": "mdp_566582551557", "block": "test3", "trialIndex": 71, "score": 34.75, "costs": -0.25, "simulationMode": [null, null, null], "rewards": [-2, 8, 24], "path": ["0", "0", "9", "10", "11"], "rt": [5173, 75, 34], "actions": ["left", "left", "up"], "actionTimes": [6856, 7448, 7972], "queries": {"click": {"state": {"target": ["11"], "time": [4934]}, "edge": {"target": [], "time": []}}, "mouseover": {"state": {"target": ["5", "6", "1", "11", "11"], "time": [2205, 2255, 4004, 4104, 4521]}, "edge": {"target": [], "time": []}}, "mouseout": {"state": {"target": ["5", "5", "6", "1", "11", "11"], "time": [1221, 2238, 2271, 4038, 4122, 5787]}, "edge": {"target": [], "time": []}}}, "displayed_time": "9.68", "trialTime": 10989, "trial_type": "mouselab-mdp", "trial_index": 80, "time_elapsed": 1406959, "internal_node_id": "0.0-4.0-5.0-9.0"}}, {"uniqueid": "w38566133:a15069791", "current_trial": 81, "dateTime": 1664557267710, "trialdata": {"revealed_states": [], "num_clicks_accrued": [0, 0, 0, 0, 0, 0, 0, 0, 0, 0, 0, 0, 0], "stateRewards": ["", 2, -4, 48, 24, 2, 8, 24, 24, -2, 4, 24, 24], "withholdReward": false, "trial_id": "mdp_813974524300", "block": "test3", "trialIndex": 72, "score": 50.75, "costs": -0.25, "simulationMode": [null, null, null], "rewards": [2, -4, 48], "path": ["0", "0", "1", "2", "3"], "rt": [4754, 159, 68], "actions": ["up", "up", "right"], "actionTimes": [6518, 7186, 7745], "queries": {"click": {"state": {"target": ["3"], "time": [4749]}, "edge": {"target": [], "time": []}}, "mouseover": {"state": {"target": ["9", "2", "3"], "time": [2343, 3943, 4326]}, "edge": {"target": [], "time": []}}, "mouseout": {"state": {"target": ["10", "9", "0", "9", "2", "3"], "time": [943, 977, 2326, 2377, 4093, 5442]}, "edge": {"target": [], "time": []}}}, "displayed_time": "10.77", "trialTime": 13235, "trial_type": "mouselab-mdp", "trial_index": 81, "time_elapsed": 1420314, "internal_node_id": "0.0-4.0-5.0-10.0"}}, {"uniqueid": "w38566133:a15069791", "current_trial": 82, "dateTime": 1664557278718, "trialdata": {"revealed_states": [], "num_clicks_accrued": [0, 0, 0, 0, 0, 0, 0, 0, 0, 0, 0, 0, 0], "stateRewards": ["", -4, 4, -24, 48, -2, 8, -48, 24, 2, 4, 48, -48], "withholdReward": true, "trial_id": "mdp_366632183904", "block": "test3", "trialIndex": 73, "score": -37.25, "costs": -0.25, "simulationMode": [null, null, null], "rewards": [-2, 8, -48], "path": ["0", "0", "5", "6", "7"], "rt": [4111, 85, 70], "actions": ["right", "right", "up"], "actionTimes": [6102, 6697, 7281], "queries": {"click": {"state": {"target": ["3"], "time": [3036]}, "edge": {"target": [], "time": []}}, "mouseover": {"state": {"target": ["3"], "time": [2594]}, "edge": {"target": [], "time": []}}, "mouseout": {"state": {"target": ["2", "1", "3"], "time": [1177, 1361, 3878]}, "edge": {"target": [], "time": []}}}, "displayed_time": "9.99", "trialTime": 10897, "trial_type": "mouselab-mdp", "trial_index": 82, "time_elapsed": 1431322, "internal_node_id": "0.0-4.0-5.0-11.0"}}, {"uniqueid": "w38566133:a15069791", "current_trial": 83, "dateTime": 1664557292061, "trialdata": {"revealed_states": [], "num_clicks_accrued": [0, 0, 0, 0, 0, 0, 0, 0, 0, 0, 0, 0, 0], "stateRewards": ["", 4, -8, 48, 48, 2, 4, 48, -48, 4, -4, -48, 48], "withholdReward": true, "trial_id": "mdp_519605841135", "block": "test3", "trialIndex": 74, "score": 48.75, "costs": -0.25, "simulationMode": [null, null, null], "rewards": [4, -8, 48], "path": ["0", "0", "1", "2", "3"], "rt": [5990, 63, 487], "actions": ["up", "up", "right"], "actionTimes": [8230, 8797, 9788], "queries": {"click": {"state": {"target": ["8"], "time": [4859]}, "edge": {"target": [], "time": []}}, "mouseover": {"state": {"target": ["5", "8", "8"], "time": [2750, 2783, 4327]}, "edge": {"target": [], "time": []}}, "mouseout": {"state": {"target": ["0", "0", "5", "8", "8"], "time": [1250, 2733, 2766, 2816, 5566]}, "edge": {"target": [], "time": []}}}, "displayed_time": "12.24", "trialTime": 13198, "trial_type": "mouselab-mdp", "trial_index": 83, "time_elapsed": 1444666, "internal_node_id": "0.0-4.0-5.0-12.0"}}, {"uniqueid": "w38566133:a15069791", "current_trial": 84, "dateTime": 1664557303608, "trialdata": {"revealed_states": [], "num_clicks_accrued": [0, 0, 0, 0, 0, 0, 0, 0, 0, 0, 0, 0, 0], "stateRewards": ["", 4, 8, -48, 24, -2, 8, -48, -48, -4, 4, 48, -48], "withholdReward": true, "trial_id": "mdp_693807815190", "block": "test3", "trialIndex": 75, "score": 52.75, "costs": -0.25, "simulationMode": [null, null, null], "rewards": [-4, 4, 48], "path": ["0", "0", "9", "10", "11"], "rt": [2752, 28, 45], "actions": ["left", "left", "up"], "actionTimes": [4496, 5015, 5567], "queries": {"click": {"state": {"target": ["11"], "time": [2942]}, "edge": {"target": [], "time": []}}, "mouseover": {"state": {"target": ["11"], "time": [2504]}, "edge": {"target": [], "time": []}}, "mouseout": {"state": {"target": ["6", "5", "11"], "time": [1037, 1153, 3870]}, "edge": {"target": [], "time": []}}}, "displayed_time": "10.74", "trialTime": 11434, "trial_type": "mouselab-mdp", "trial_index": 84, "time_elapsed": 1456213, "internal_node_id": "0.0-4.0-5.0-13.0"}}, {"uniqueid": "w38566133:a15069791", "current_trial": 85, "dateTime": 1664557315114, "trialdata": {"revealed_states": [], "num_clicks_accrued": [0, 0, 0, 0, 0, 0, 0, 0, 0, 0, 0, 0, 0], "stateRewards": ["", 2, 4, -48, 24, -4, 4, -24, 48, -2, -8, -48, 48], "withholdReward": true, "trial_id": "mdp_424193661731", "block": "test3", "trialIndex": 76, "score": 42.75, "costs": -0.25, "simulationMode": [null, null, null], "rewards": [-2, -8, 48], "path": ["0", "0", "9", "10", "12"], "rt": [3598, 131, 483], "actions": ["left", "left", "down"], "actionTimes": [5626, 6271, 7273], "queries": {"click": {"state": {"target": ["12"], "time": [4161]}, "edge": {"target": [], "time": []}}, "mouseover": {"state": {"target": ["0", "9", "10", "12"], "time": [2640, 2839, 3389, 3707]}, "edge": {"target": [], "time": []}}, "mouseout": {"state": {"target": ["10", "9", "0", "0", "9", "10", "12"], "time": [1156, 1307, 1573, 2657, 2923, 3440, 4739]}, "edge": {"target": [], "time": []}}}, "displayed_time": "10.03", "trialTime": 11378, "trial_type": "mouselab-mdp", "trial_index": 85, "time_elapsed": 1467719, "internal_node_id": "0.0-4.0-5.0-14.0"}}, {"uniqueid": "w38566133:a15069791", "current_trial": 86, "dateTime": 1664557326575, "trialdata": {"revealed_states": [], "num_clicks_accrued": [0, 0, 0, 0, 0, 0, 0, 0, 0, 0, 0, 0, 0], "stateRewards": ["", -2, -4, -24, 24, -2, 4, -24, -24, -4, 4, 24, -24], "withholdReward": false, "trial_id": "mdp_999419261719", "block": "test3", "trialIndex": 77, "score": -19.25, "costs": -0.25, "simulationMode": [null, null, null], "rewards": [-4, 4, -24], "path": ["0", "0", "9", "10", "12"], "rt": [4081, 148, 25], "actions": ["left", "left", "down"], "actionTimes": [6047, 6704, 7247], "queries": {"click": {"state": {"target": ["7"], "time": [3711]}, "edge": {"target": [], "time": []}}, "mouseover": {"state": {"target": ["5", "7"], "time": [2972, 3272]}, "edge": {"target": [], "time": []}}, "mouseout": {"state": {"target": ["12", "0", "5", "7"], "time": [1039, 2900, 3039, 4756]}, "edge": {"target": [], "time": []}}}, "displayed_time": "9.97", "trialTime": 11340, "trial_type": "mouselab-mdp", "trial_index": 86, "time_elapsed": 1479180, "internal_node_id": "0.0-4.0-5.0-15.0"}}, {"uniqueid": "w38566133:a15069791", "current_trial": 87, "dateTime": 1664557341348, "trialdata": {"revealed_states": [], "num_clicks_accrued": [0, 0, 0, 0, 0, 0, 0, 0, 0, 0, 0, 0, 0], "stateRewards": ["", 4, -8, -48, 24, 4, 4, -24, -24, 2, 4, -48, 24], "withholdReward": false, "trial_id": "mdp_626971397185", "block": "test3", "trialIndex": 78, "score": 24.75, "costs": -0.25, "simulationMode": [null, null, null], "rewards": [4, -8, 24], "path": ["0", "0", "1", "2", "4"], "rt": [4965, 100, 399], "actions": ["up", "up", "left"], "actionTimes": [6758, 7375, 8273], "queries": {"click": {"state": {"target": ["4"], "time": [5172]}, "edge": {"target": [], "time": []}}, "mouseover": {"state": {"target": ["1", "2", "4", "4"], "time": [3408, 3491, 3758, 4748]}, "edge": {"target": [], "time": []}}, "mouseout": {"state": {"target": ["7", "1", "2", "4", "4"], "time": [991, 3442, 3625, 3858, 5725]}, "edge": {"target": [], "time": []}}}, "displayed_time": "10.79", "trialTime": 14651, "trial_type": "mouselab-mdp", "trial_index": 87, "time_elapsed": 1493953, "internal_node_id": "0.0-4.0-5.0-16.0"}}, {"uniqueid": "w38566133:a15069791", "current_trial": 88, "dateTime": 1664557353074, "trialdata": {"revealed_states": [], "num_clicks_accrued": [0, 0, 0, 0, 0, 0, 0, 0, 0, 0, 0, 0, 0], "stateRewards": ["", -2, 8, -48, -24, -2, 8, 48, -48, -4, 8, 24, 48], "withholdReward": true, "trial_id": "mdp_160707003673", "block": "test3", "trialIndex": 79, "score": -13.25, "costs": -0.25, "simulationMode": [null, null, null], "rewards": [-2, 8, -24], "path": ["0", "0", "1", "2", "4"], "rt": [5125, 92, 486], "actions": ["up", "up", "left"], "actionTimes": [6955, 7552, 8546], "queries": {"click": {"state": {"target": ["3"], "time": [3652]}, "edge": {"target": [], "time": []}}, "mouseover": {"state": {"target": ["3"], "time": [3210]}, "edge": {"target": [], "time": []}}, "mouseout": {"state": {"target": ["0", "3"], "time": [2893, 4426]}, "edge": {"target": [], "time": []}}}, "displayed_time": "10.83", "trialTime": 11598, "trial_type": "mouselab-mdp", "trial_index": 88, "time_elapsed": 1505679, "internal_node_id": "0.0-4.0-5.0-17.0"}}, {"uniqueid": "w38566133:a15069791", "current_trial": 89, "dateTime": 1664557363478, "trialdata": {"revealed_states": [], "num_clicks_accrued": [0, 0, 0, 0, 0, 0, 0, 0, 0, 0, 0, 0, 0], "stateRewards": ["", 2, 4, 24, 48, -2, 8, 24, -24, -4, -4, 48, 48], "withholdReward": true, "trial_id": "mdp_753439303214", "block": "test3", "trialIndex": 80, "score": 34.75, "costs": -0.25, "simulationMode": [null, null, null], "rewards": [2, 4, 24], "path": ["0", "0", "1", "2", "3"], "rt": [3124, 466, 119], "actions": ["up", "up", "right"], "actionTimes": [4676, 5656, 6293], "queries": {"click": {"state": {"target": ["3"], "time": [3066]}, "edge": {"target": [], "time": []}}, "mouseover": {"state": {"target": ["5", "3"], "time": [2290, 2690]}, "edge": {"target": [], "time": []}}, "mouseout": {"state": {"target": ["4", "1", "5", "3"], "time": [890, 974, 2307, 3824]}, "edge": {"target": [], "time": []}}}, "displayed_time": "9.55", "trialTime": 10267, "trial_type": "mouselab-mdp", "trial_index": 89, "time_elapsed": 1516083, "internal_node_id": "0.0-4.0-5.0-18.0"}}, {"uniqueid": "w38566133:a15069791", "current_trial": 90, "dateTime": 1664557375270, "trialdata": {"revealed_states": [], "num_clicks_accrued": [0, 0, 0, 0, 0, 0, 0, 0, 0, 0, 0, 0, 0], "stateRewards": ["", 2, 4, -48, 24, -4, -4, -24, 24, 2, -4, 24, -24], "withholdReward": true, "trial_id": "mdp_163600331068", "block": "test3", "trialIndex": 81, "score": 20.75, "costs": -0.25, "simulationMode": [null, null, null], "rewards": [-4, -4, 24], "path": ["0", "0", "5", "6", "8"], "rt": [2914, 192, 124], "actions": ["right", "right", "down"], "actionTimes": [4780, 5477, 6111], "queries": {"click": {"state": {"target": ["8"], "time": [3403]}, "edge": {"target": [], "time": []}}, "mouseover": {"state": {"target": ["8", "8"], "time": [2451, 3034]}, "edge": {"target": [], "time": []}}, "mouseout": {"state": {"target": ["0", "8", "8"], "time": [2368, 2501, 4067]}, "edge": {"target": [], "time": []}}}, "displayed_time": "10.87", "trialTime": 11689, "trial_type": "mouselab-mdp", "trial_index": 90, "time_elapsed": 1527875, "internal_node_id": "0.0-4.0-5.0-19.0"}}, {"uniqueid": "w38566133:a15069791", "current_trial": 91, "dateTime": 1664557387017, "trialdata": {"revealed_states": [], "num_clicks_accrued": [0, 0, 0, 0, 0, 0, 0, 0, 0, 0, 0, 0, 0], "stateRewards": ["", -2, 4, 24, 48, 2, 4, -48, -48, 2, 8, 48, -48], "withholdReward": true, "trial_id": "mdp_409609775558", "block": "test3", "trialIndex": 82, "score": 62.75, "costs": -0.25, "simulationMode": [null, null, null], "rewards": [2, 8, 48], "path": ["0", "0", "9", "10", "11"], "rt": [2313, 129, 66], "actions": ["left", "left", "up"], "actionTimes": [3975, 4608, 5179], "queries": {"click": {"state": {"target": ["11"], "time": [2770]}, "edge": {"target": [], "time": []}}, "mouseover": {"state": {"target": ["11"], "time": [2311]}, "edge": {"target": [], "time": []}}, "mouseout": {"state": {"target": ["5", "0", "11"], "time": [994, 1327, 3411]}, "edge": {"target": [], "time": []}}}, "displayed_time": "10.66", "trialTime": 11648, "trial_type": "mouselab-mdp", "trial_index": 91, "time_elapsed": 1539622, "internal_node_id": "0.0-4.0-5.0-20.0"}}, {"uniqueid": "w38566133:a15069791", "current_trial": 92, "dateTime": 1664557399119, "trialdata": {"revealed_states": [], "num_clicks_accrued": [0, 0, 0, 0, 0, 0, 0, 0, 0, 0, 0, 0, 0], "stateRewards": ["", 4, -8, 24, 48, 2, 4, 48, 48, 2, 8, -48, -48], "withholdReward": true, "trial_id": "mdp_783704746330", "block": "test3", "trialIndex": 83, "score": 48.75, "costs": -0.25, "simulationMode": [null, null, null], "rewards": [4, -8, 48], "path": ["0", "0", "1", "2", "4"], "rt": [2648, 130, 14], "actions": ["up", "up", "left"], "actionTimes": [4779, 5415, 5948], "queries": {"click": {"state": {"target": ["4"], "time": [3327]}, "edge": {"target": [], "time": []}}, "mouseover": {"state": {"target": ["4"], "time": [2883]}, "edge": {"target": [], "time": []}}, "mouseout": {"state": {"target": ["11", "4"], "time": [1100, 3900]}, "edge": {"target": [], "time": []}}}, "displayed_time": "11.13", "trialTime": 11958, "trial_type": "mouselab-mdp", "trial_index": 92, "time_elapsed": 1551724, "internal_node_id": "0.0-4.0-5.0-21.0"}}, {"uniqueid": "w38566133:a15069791", "current_trial": 93, "dateTime": 1664557409786, "trialdata": {"revealed_states": [], "num_clicks_accrued": [0, 0, 0, 0, 0, 0, 0, 0, 0, 0, 0, 0, 0], "stateRewards": ["", -4, -4, -24, -48, -4, 8, -24, -48, 4, -8, 24, -24], "withholdReward": true, "trial_id": "mdp_924927483179", "block": "test3", "trialIndex": 84, "score": -27.25, "costs": -0.25, "simulationMode": [null, null, null], "rewards": [-4, -4, -24], "path": ["0", "0", "1", "2", "3"], "rt": [3753, 82, 479], "actions": ["up", "up", "right"], "actionTimes": [5565, 6157, 7151], "queries": {"click": {"state": {"target": ["4"], "time": [4140]}, "edge": {"target": [], "time": []}}, "mouseover": {"state": {"target": ["4", "4"], "time": [2490, 3726]}, "edge": {"target": [], "time": []}}, "mouseout": {"state": {"target": ["4", "1", "4", "4"], "time": [1006, 1206, 2556, 4672]}, "edge": {"target": [], "time": []}}}, "displayed_time": "9.82", "trialTime": 10548, "trial_type": "mouselab-mdp", "trial_index": 93, "time_elapsed": 1562390, "internal_node_id": "0.0-4.0-5.0-22.0"}}, {"uniqueid": "w38566133:a15069791", "current_trial": 94, "dateTime": 1664557421464, "trialdata": {"revealed_states": [], "num_clicks_accrued": [0, 0, 0, 0, 0, 0, 0, 0, 0, 0, 0, 0, 0], "stateRewards": ["", 2, 8, 24, -48, 4, 8, 24, 48, 2, -8, -24, 24], "withholdReward": true, "trial_id": "mdp_939899431582", "block": "test3", "trialIndex": 85, "score": 40.75, "costs": -0.25, "simulationMode": [null, null, null], "rewards": [4, 8, 24], "path": ["0", "0", "5", "6", "7"], "rt": [2935, 127, 58], "actions": ["right", "right", "up"], "actionTimes": [4701, 5344, 5908], "queries": {"click": {"state": {"target": ["7"], "time": [3128]}, "edge": {"target": [], "time": []}}, "mouseover": {"state": {"target": ["7"], "time": [2732]}, "edge": {"target": [], "time": []}}, "mouseout": {"state": {"target": ["7"], "time": [3866]}, "edge": {"target": [], "time": []}}}, "displayed_time": "10.77", "trialTime": 11521, "trial_type": "mouselab-mdp", "trial_index": 94, "time_elapsed": 1574069, "internal_node_id": "0.0-4.0-5.0-23.0"}}, {"uniqueid": "w38566133:a15069791", "current_trial": 95, "dateTime": 1664557433345, "trialdata": {"revealed_states": [], "num_clicks_accrued": [0, 0, 0, 0, 0, 0, 0, 0, 0, 0, 0, 0, 0], "stateRewards": ["", 4, -8, 48, -24, -4, 4, 24, 24, -2, -4, 24, 24], "withholdReward": true, "trial_id": "mdp_542168715839", "block": "test3", "trialIndex": 86, "score": 22.75, "costs": -0.25, "simulationMode": [null, null, null], "rewards": [-2, -4, 24], "path": ["0", "0", "9", "10", "12"], "rt": [2725, 481, 45], "actions": ["left", "left", "down"], "actionTimes": [4569, 5566, 6129], "queries": {"click": {"state": {"target": ["12"], "time": [3012]}, "edge": {"target": [], "time": []}}, "mouseover": {"state": {"target": ["9", "12"], "time": [2486, 2584]}, "edge": {"target": [], "time": []}}, "mouseout": {"state": {"target": ["9", "12"], "time": [2500, 3551]}, "edge": {"target": [], "time": []}}}, "displayed_time": "10.85", "trialTime": 11722, "trial_type": "mouselab-mdp", "trial_index": 95, "time_elapsed": 1585950, "internal_node_id": "0.0-4.0-5.0-24.0"}}, {"uniqueid": "w38566133:a15069791", "current_trial": 96, "dateTime": 1664557444263, "trialdata": {"revealed_states": [], "num_clicks_accrued": [0, 0, 0, 0, 0, 0, 0, 0, 0, 0, 0, 0, 0], "stateRewards": ["", 4, 4, -24, -48, -4, 4, -48, 24, 4, -8, -48, 48], "withholdReward": true, "trial_id": "mdp_566768794366", "block": "test3", "trialIndex": 87, "score": -11, "costs": 0, "simulationMode": [null, null, null], "rewards": [4, 4, -24], "path": ["0", "0", "1", "2", "3"], "rt": [1166, 173, 63], "actions": ["up", "up", "right"], "actionTimes": [3040, 3722, 4294], "queries": {"click": {"state": {"target": [], "time": []}, "edge": {"target": [], "time": []}}, "mouseover": {"state": {"target": ["9"], "time": [2365]}, "edge": {"target": [], "time": []}}, "mouseout": {"state": {"target": ["0", "9"], "time": [2331, 2431]}, "edge": {"target": [], "time": []}}}, "displayed_time": "9.87", "trialTime": 10790, "trial_type": "mouselab-mdp", "trial_index": 96, "time_elapsed": 1596868, "internal_node_id": "0.0-4.0-5.0-25.0"}}, {"uniqueid": "w38566133:a15069791", "current_trial": 97, "dateTime": 1664557455147, "trialdata": {"revealed_states": [], "num_clicks_accrued": [0, 0, 0, 0, 0, 0, 0, 0, 0, 0, 0, 0, 0], "stateRewards": ["", -2, -8, 48, 24, 2, 4, 24, -24, -2, -4, 48, -48], "withholdReward": true, "trial_id": "mdp_411152402386", "block": "test3", "trialIndex": 88, "score": 42.75, "costs": -0.25, "simulationMode": [null, null, null], "rewards": [-2, -8, 48], "path": ["0", "0", "1", "2", "3"], "rt": [2284, 27, 36], "actions": ["up", "up", "right"], "actionTimes": [4101, 4638, 5181], "queries": {"click": {"state": {"target": ["3"], "time": [2878]}, "edge": {"target": [], "time": []}}, "mouseover": {"state": {"target": ["1", "3"], "time": [2227, 2377]}, "edge": {"target": [], "time": []}}, "mouseout": {"state": {"target": ["9", "0", "0", "1", "3"], "time": [978, 1061, 2161, 2244, 3461]}, "edge": {"target": [], "time": []}}}, "displayed_time": "9.82", "trialTime": 10722, "trial_type": "mouselab-mdp", "trial_index": 97, "time_elapsed": 1607752, "internal_node_id": "0.0-4.0-5.0-26.0"}}, {"uniqueid": "w38566133:a15069791", "current_trial": 98, "dateTime": 1664557466797, "trialdata": {"revealed_states": [], "num_clicks_accrued": [0, 0, 0, 0, 0, 0, 0, 0, 0, 0, 0, 0, 0], "stateRewards": ["", -4, -4, 24, 48, 4, -4, -24, 24, -4, -4, 24, 24], "withholdReward": true, "trial_id": "mdp_357725458160", "block": "test3", "trialIndex": 89, "score": 20.75, "costs": -0.25, "simulationMode": [null, null, null], "rewards": [-4, -4, 24], "path": ["0", "0", "1", "2", "3"], "rt": [2586, 64, 70], "actions": ["up", "up", "right"], "actionTimes": [4411, 4984, 5571], "queries": {"click": {"state": {"target": ["3"], "time": [3244]}, "edge": {"target": [], "time": []}}, "mouseover": {"state": {"target": ["1", "3", "3"], "time": [2418, 2518, 2838]}, "edge": {"target": [], "time": []}}, "mouseout": {"state": {"target": ["3", "1", "1", "3", "3"], "time": [968, 1284, 2434, 2551, 3801]}, "edge": {"target": [], "time": []}}}, "displayed_time": "10.83", "trialTime": 11497, "trial_type": "mouselab-mdp", "trial_index": 98, "time_elapsed": 1619402, "internal_node_id": "0.0-4.0-5.0-27.0"}}, {"uniqueid": "w38566133:a15069791", "current_trial": 99, "dateTime": 1664557478819, "trialdata": {"revealed_states": [], "num_clicks_accrued": [0, 0, 0, 0, 0, 0, 0, 0, 0, 0, 0, 0, 0], "stateRewards": ["", 2, -4, 48, -48, -2, 8, -48, 24, -2, -8, 48, 48], "withholdReward": true, "trial_id": "mdp_949326095747", "block": "test3", "trialIndex": 90, "score": 43, "costs": 0, "simulationMode": [null, null, null], "rewards": [-2, -8, 48], "path": ["0", "0", "9", "10", "11"], "rt": [1529, 97, 14], "actions": ["left", "left", "up"], "actionTimes": [3640, 4234, 4784], "queries": {"click": {"state": {"target": [], "time": []}, "edge": {"target": [], "time": []}}, "mouseover": {"state": {"target": [], "time": []}, "edge": {"target": [], "time": []}}, "mouseout": {"state": {"target": ["0"], "time": [1804]}, "edge": {"target": [], "time": []}}}, "displayed_time": "11.11", "trialTime": 11905, "trial_type": "mouselab-mdp", "trial_index": 99, "time_elapsed": 1631424, "internal_node_id": "0.0-4.0-5.0-28.0"}}, {"uniqueid": "w38566133:a15069791", "current_trial": 100, "dateTime": 1664557490964, "trialdata": {"revealed_states": [], "num_cli