{"condition": 1, "counterbalance": 0, "assignmentId": "a30214718", "workerId": "w83936187", "hitId": "h59189437", "currenttrial": 143, "bonus": 0, "data": [{"uniqueid": "w83936187:a30214718", "current_trial": 0, "dateTime": 1664463909402, "trialdata": {"success": true, "trial_type": "fullscreen", "trial_index": 0, "time_elapsed": 6274, "internal_node_id": "0.0-0.0"}}, {"uniqueid": "w83936187:a30214718", "current_trial": 1, "dateTime": 1664463929075, "trialdata": {"view_history": [{"page_index": 0, "viewing_time": 19666}], "rt": 19668, "trial_id": "exp_instructions_no_distractor", "trial_type": "instructions", "trial_index": 1, "time_elapsed": 25949, "internal_node_id": "0.0-1.0"}}, {"uniqueid": "w83936187:a30214718", "current_trial": 2, "dateTime": 1664463933201, "trialdata": {"success": true, "trial_type": "fullscreen", "trial_index": 2, "time_elapsed": 30075, "internal_node_id": "0.0-2.0-0.0"}}, {"uniqueid": "w83936187:a30214718", "current_trial": 3, "dateTime": 1664464040852, "trialdata": {"view_history": [{"page_index": 0, "viewing_time": 44734}, {"page_index": 1, "viewing_time": 32586}, {"page_index": 2, "viewing_time": 7328}, {"page_index": 3, "viewing_time": 8984}, {"page_index": 4, "viewing_time": 14016}], "rt": 107648, "trial_id": "mouselab_instructions_1", "trial_type": "instructions", "trial_index": 3, "time_elapsed": 137726, "internal_node_id": "0.0-2.0-1.0"}}, {"uniqueid": "w83936187:a30214718", "current_trial": 4, "dateTime": 1664464054142, "trialdata": {"revealed_states": [], "num_clicks_accrued": [0, 0, 0, 0, 0, 0, 0, 0, 0, 0, 0, 0, 0], "stateRewards": ["", -10, 10, 10, 10, -10, -10, -10, 10, 10, 10, 10, 10], "withholdReward": false, "trial_id": "practice_1", "block": "test", "trialIndex": 0, "score": 32, "costs": 0, "simulationMode": [null, null, null], "rewards": [10, 10, 10], "path": ["0", "0", "9", "10", "12"], "rt": [2982, 2775, 209], "actions": ["left", "left", "down"], "actionTimes": [4253, 7545, 8259], "queries": {"click": {"state": {"target": [], "time": []}, "edge": {"target": [], "time": []}}, "mouseover": {"state": {"target": ["5", "7"], "time": [1601, 1672]}, "edge": {"target": [], "time": []}}, "mouseout": {"state": {"target": ["0", "5", "7"], "time": [1575, 1635, 1686]}, "edge": {"target": [], "time": []}}}, "displayed_time": "8.77", "trialTime": 13005, "trial_type": "mouselab-mdp", "trial_index": 4, "time_elapsed": 151014, "internal_node_id": "0.0-2.0-2.0-0.0"}}, {"uniqueid": "w83936187:a30214718", "current_trial": 5, "dateTime": 1664464063825, "trialdata": {"revealed_states": [], "num_clicks_accrued": [0, 0, 0, 0, 0, 0, 0, 0, 0, 0, 0, 0, 0], "stateRewards": ["", -10, 10, -10, 10, 10, 10, -10, 10, -10, 10, 10, 10], "withholdReward": false, "trial_id": "practice_2", "block": "test", "trialIndex": 1, "score": -8, "costs": 0, "simulationMode": [null, null, null], "rewards": [-10, 10, -10], "path": ["0", "0", "1", "2", "3"], "rt": [1659, 876, 317], "actions": ["up", "up", "right"], "actionTimes": [4559, 5944, 6770], "queries": {"click": {"state": {"target": [], "time": []}, "edge": {"target": [], "time": []}}, "mouseover": {"state": {"target": ["0"], "time": [3037]}, "edge": {"target": [], "time": []}}, "mouseout": {"state": {"target": ["6", "5", "0", "0", "0"], "time": [2219, 2253, 2285, 2368, 3085]}, "edge": {"target": [], "time": []}}}, "displayed_time": "7.29", "trialTime": 9628, "trial_type": "mouselab-mdp", "trial_index": 5, "time_elapsed": 160699, "internal_node_id": "0.0-2.0-2.0-1.0"}}, {"uniqueid": "w83936187:a30214718", "current_trial": 6, "dateTime": 1664464104653, "trialdata": {"view_history": [{"page_index": 0, "viewing_time": 21425}, {"page_index": 1, "viewing_time": 8144}, {"page_index": 2, "viewing_time": 11252}], "rt": 40822, "trial_id": "mouselab_instructions_2_scarce", "trial_type": "instructions", "trial_index": 6, "time_elapsed": 201527, "internal_node_id": "0.0-2.0-3.0"}}, {"uniqueid": "w83936187:a30214718", "current_trial": 7, "dateTime": 1664464151922, "trialdata": {"rt": 47261, "response": {"Q0": "$0 to $50", "Q1": "The cost is always $0.25.", "Q2": "The better I perform the higher my bonus will be.", "Q3": "No, the amount of cash at each node of the web may be different each time.", "Q4": "The values of the nodes walked through from start to finish.", "Q5": "No, the spider might forget to count the money on some rounds."}, "question_order": [0, 1, 2, 3, 4, 5], "correct": {"Q0": "$-48 to $48", "Q1": "The cost is always $0.25.", "Q2": "The better I perform the higher my bonus will be.", "Q3": "No, the amount of cash at each node of the web may be different each time.", "Q4": "The values of the nodes walked through from start to finish.", "Q5": "No, the spider might forget to count the money on some rounds."}, "trial_id": "mouselab_quiz_scarce", "trial_type": "survey-multi-choice", "trial_index": 7, "time_elapsed": 248796, "internal_node_id": "0.0-2.0-4.0"}}, {"uniqueid": "w83936187:a30214718", "current_trial": 8, "dateTime": 1664464162088, "trialdata": {"success": true, "trial_type": "fullscreen", "trial_index": 8, "time_elapsed": 258962, "internal_node_id": "0.0-2.1-0.1"}}, {"uniqueid": "w83936187:a30214718", "current_trial": 9, "dateTime": 1664464281612, "trialdata": {"view_history": [{"page_index": 0, "viewing_time": 51776}, {"page_index": 1, "viewing_time": 30359}, {"page_index": 2, "viewing_time": 7416}, {"page_index": 3, "viewing_time": 3656}, {"page_index": 4, "viewing_time": 26316}], "rt": 119523, "trial_id": "mouselab_instructions_1", "trial_type": "instructions", "trial_index": 9, "time_elapsed": 378486, "internal_node_id": "0.0-2.1-1.1"}}, {"uniqueid": "w83936187:a30214718", "current_trial": 10, "dateTime": 1664464290464, "trialdata": {"revealed_states": [], "num_clicks_accrued": [0, 0, 0, 0, 0, 0, 0, 0, 0, 0, 0, 0, 0], "stateRewards": ["", -10, 10, 10, 10, -10, -10, -10, 10, 10, 10, 10, 10], "withholdReward": false, "trial_id": "practice_1", "block": "test", "trialIndex": 2, "score": 12, "costs": 0, "simulationMode": [null, null, null], "rewards": [-10, 10, 10], "path": ["0", "0", "1", "2", "4"], "rt": [1426, 562, 490], "actions": ["up", "up", "left"], "actionTimes": [3917, 4997, 6004], "queries": {"click": {"state": {"target": [], "time": []}, "edge": {"target": [], "time": []}}, "mouseover": {"state": {"target": [], "time": []}, "edge": {"target": [], "time": []}}, "mouseout": {"state": {"target": ["11", "0"], "time": [1664, 2702]}, "edge": {"target": [], "time": []}}}, "displayed_time": "6.52", "trialTime": 8789, "trial_type": "mouselab-mdp", "trial_index": 10, "time_elapsed": 387337, "internal_node_id": "0.0-2.1-2.1-0.1"}}, {"uniqueid": "w83936187:a30214718", "current_trial": 11, "dateTime": 1664464297469, "trialdata": {"revealed_states": [], "num_clicks_accrued": [0, 0, 0, 0, 0, 0, 0, 0, 0, 0, 0, 0, 0], "stateRewards": ["", -10, 10, -10, 10, 10, 10, -10, 10, -10, 10, 10, 10], "withholdReward": false, "trial_id": "practice_2", "block": "test", "trialIndex": 3, "score": 32, "costs": 0, "simulationMode": [null, null, null], "rewards": [10, 10, 10], "path": ["0", "0", "5", "6", "8"], "rt": [1299, 5, 67], "actions": ["right", "right", "down"], "actionTimes": [3640, 4163, 4757], "queries": {"click": {"state": {"target": [], "time": []}, "edge": {"target": [], "time": []}}, "mouseover": {"state": {"target": ["5"], "time": [2676]}, "edge": {"target": [], "time": []}}, "mouseout": {"state": {"target": ["8", "0", "5", "8"], "time": [1909, 2123, 2692, 6376]}, "edge": {"target": [], "time": []}}}, "displayed_time": "5.27", "trialTime": 6958, "trial_type": "mouselab-mdp", "trial_index": 11, "time_elapsed": 394343, "internal_node_id": "0.0-2.1-2.1-1.1"}}, {"uniqueid": "w83936187:a30214718", "current_trial": 12, "dateTime": 1664464340168, "trialdata": {"view_history": [{"page_index": 0, "viewing_time": 26555}, {"page_index": 1, "viewing_time": 13962}, {"page_index": 2, "viewing_time": 2179}], "rt": 42696, "trial_id": "mouselab_instructions_2_scarce", "trial_type": "instructions", "trial_index": 12, "time_elapsed": 437042, "internal_node_id": "0.0-2.1-3.1"}}, {"uniqueid": "w83936187:a30214718", "current_trial": 13, "dateTime": 1664464414217, "trialdata": {"rt": 74045, "response": {"Q0": "$-48 to $48", "Q1": "The cost is always $0.25.", "Q2": "The better I perform the higher my bonus will be.", "Q3": "No, the amount of cash at each node of the web may be different each time.", "Q4": "The values of the nodes walked through from start to finish.", "Q5": "No, the spider might forget to count the money on some rounds."}, "question_order": [0, 1, 2, 3, 4, 5], "correct": {"Q0": "$-48 to $48", "Q1": "The cost is always $0.25.", "Q2": "The better I perform the higher my bonus will be.", "Q3": "No, the amount of cash at each node of the web may be different each time.", "Q4": "The values of the nodes walked through from start to finish.", "Q5": "No, the spider might forget to count the money on some rounds."}, "trial_id": "mouselab_quiz_scarce", "trial_type": "survey-multi-choice", "trial_index": 13, "time_elapsed": 511091, "internal_node_id": "0.0-2.1-4.1"}}, {"uniqueid": "w83936187:a30214718", "current_trial": 14, "dateTime": 1664464431727, "trialdata": {"rt": 17496, "stimulus": "\n<h1> Get ready to start the game! </h1>\n\nThank you for reading the instructions. Get ready start with the first of 4 block(s) of this game.\n<br><br>\nIn this first block, you will complete 30 rounds of this game before moving on.\n<br><br>\nRemember, the more money the spider gets, the bigger your bonus will be!\n<br><br>\n<div style='text-align: center;'>Press <code>space</code> to begin.</div>\n\n<br><br>\n(If, at any point, the <code>space</code> key does not take you to the next page, click once on the text and try again.)", "response": " ", "trial_id": "mdp_ready_1", "trial_type": "html-keyboard-response", "trial_index": 14, "time_elapsed": 528601, "internal_node_id": "0.0-4.0-0.0"}}, {"uniqueid": "w83936187:a30214718", "current_trial": 15, "dateTime": 1664464444958, "trialdata": {"revealed_states": [], "num_clicks_accrued": [0, 0, 0, 0, 0, 0, 0, 0, 0, 0, 0, 0, 0], "stateRewards": ["", 2, 8, 24, -48, 4, 8, 24, 24, 4, -8, 48, 48], "withholdReward": false, "trial_id": "mdp_646103824875", "block": "test1", "trialIndex": 4, "score": 41, "costs": 0, "simulationMode": [null, null, null], "rewards": [4, 8, 24], "path": ["0", "0", "5", "6", "7"], "rt": [1997, 300, 876], "actions": ["right", "right", "up"], "actionTimes": [4073, 4874, 6268], "queries": {"click": {"state": {"target": [], "time": []}, "edge": {"target": [], "time": []}}, "mouseover": {"state": {"target": ["8"], "time": [2475]}, "edge": {"target": [], "time": []}}, "mouseout": {"state": {"target": ["10", "9", "5", "0", "8"], "time": [1258, 1274, 1624, 2425, 2491]}, "edge": {"target": [], "time": []}}}, "displayed_time": "11.08", "trialTime": 13178, "trial_type": "mouselab-mdp", "trial_index": 15, "time_elapsed": 541830, "internal_node_id": "0.0-4.0-1.0-0.0"}}, {"uniqueid": "w83936187:a30214718", "current_trial": 16, "dateTime": 1664464457445, "trialdata": {"revealed_states": [], "num_clicks_accrued": [0, 0, 0, 0, 0, 0, 0, 0, 0, 0, 0, 0, 0], "stateRewards": ["", 2, -8, 48, -24, 2, -4, 24, 48, 4, -4, 48, -24], "withholdReward": false, "trial_id": "mdp_656500928756", "block": "test1", "trialIndex": 5, "score": -19, "costs": 0, "simulationMode": [null, null, null], "rewards": [4, -4, -24], "path": ["0", "0", "9", "10", "12"], "rt": [4040, 449, 51], "actions": ["left", "left", "down"], "actionTimes": [6445, 7411, 7979], "queries": {"click": {"state": {"target": [], "time": []}, "edge": {"target": [], "time": []}}, "mouseover": {"state": {"target": [], "time": []}, "edge": {"target": [], "time": []}}, "mouseout": {"state": {"target": ["8", "5"], "time": [565, 631]}, "edge": {"target": [], "time": []}}}, "displayed_time": "10.40", "trialTime": 12442, "trial_type": "mouselab-mdp", "trial_index": 16, "time_elapsed": 554319, "internal_node_id": "0.0-4.0-1.0-1.0"}}, {"uniqueid": "w83936187:a30214718", "current_trial": 17, "dateTime": 1664464470238, "trialdata": {"revealed_states": [], "num_clicks_accrued": [0, 0, 0, 0, 0, 0, 0, 0, 0, 0, 0, 0, 0], "stateRewards": ["", 2, -8, -24, 48, 4, -8, -24, -24, 2, 8, -24, 24], "withholdReward": true, "trial_id": "mdp_480787552818", "block": "test1", "trialIndex": 6, "score": 47, "costs": 0, "simulationMode": [null, null, null], "rewards": [2, -8, 48], "path": ["0", "0", "1", "2", "4"], "rt": [1282, 1426, 756], "actions": ["up", "up", "left"], "actionTimes": [5102, 7028, 8292], "queries": {"click": {"state": {"target": [], "time": []}, "edge": {"target": [], "time": []}}, "mouseover": {"state": {"target": [], "time": []}, "edge": {"target": [], "time": []}}, "mouseout": {"state": {"target": ["0"], "time": [2204]}, "edge": {"target": [], "time": []}}}, "displayed_time": "10.82", "trialTime": 12746, "trial_type": "mouselab-mdp", "trial_index": 17, "time_elapsed": 567112, "internal_node_id": "0.0-4.0-1.0-2.0"}}, {"uniqueid": "w83936187:a30214718", "current_trial": 18, "dateTime": 1664464484858, "trialdata": {"revealed_states": [], "num_clicks_accrued": [0, 0, 0, 0, 0, 0, 0, 0, 0, 0, 0, 0, 0], "stateRewards": ["", 2, -8, -24, 48, -4, -8, 24, -48, 4, -8, -24, -24], "withholdReward": false, "trial_id": "mdp_928911266656", "block": "test1", "trialIndex": 7, "score": -25, "costs": 0, "simulationMode": [null, null, null], "rewards": [2, -8, -24], "path": ["0", "0", "1", "2", "3"], "rt": [2224, 226, 1591], "actions": ["up", "up", "right"], "actionTimes": [7692, 8431, 10513], "queries": {"click": {"state": {"target": [], "time": []}, "edge": {"target": [], "time": []}}, "mouseover": {"state": {"target": [], "time": []}, "edge": {"target": [], "time": []}}, "mouseout": {"state": {"target": [], "time": []}, "edge": {"target": [], "time": []}}}, "displayed_time": "13.47", "trialTime": 14573, "trial_type": "mouselab-mdp", "trial_index": 18, "time_elapsed": 581732, "internal_node_id": "0.0-4.0-1.0-3.0"}}, {"uniqueid": "w83936187:a30214718", "current_trial": 19, "dateTime": 1664464497267, "trialdata": {"revealed_states": [], "num_clicks_accrued": [0, 0, 0, 0, 0, 0, 0, 0, 0, 0, 0, 0, 0], "stateRewards": ["", 2, 8, -48, -24, 2, -4, -48, 24, 2, -4, -24, -24], "withholdReward": true, "trial_id": "mdp_954659099093", "block": "test1", "trialIndex": 8, "score": -45, "costs": 0, "simulationMode": [null, null, null], "rewards": [2, -4, -48], "path": ["0", "0", "5", "6", "7"], "rt": [1017, 130, 713], "actions": ["right", "right", "up"], "actionTimes": [3104, 3741, 4973], "queries": {"click": {"state": {"target": [], "time": []}, "edge": {"target": [], "time": []}}, "mouseover": {"state": {"target": [], "time": []}, "edge": {"target": [], "time": []}}, "mouseout": {"state": {"target": [], "time": []}, "edge": {"target": [], "time": []}}}, "displayed_time": "11.09", "trialTime": 12356, "trial_type": "mouselab-mdp", "trial_index": 19, "time_elapsed": 594141, "internal_node_id": "0.0-4.0-1.0-4.0"}}, {"uniqueid": "w83936187:a30214718", "current_trial": 20, "dateTime": 1664464510338, "trialdata": {"revealed_states": [], "num_clicks_accrued": [0, 0, 0, 0, 0, 0, 0, 0, 0, 0, 0, 0, 0], "stateRewards": ["", 2, -4, 48, 24, 2, 8, 24, 24, -2, 4, 24, 24], "withholdReward": false, "trial_id": "mdp_813974524300", "block": "test1", "trialIndex": 9, "score": 38.75, "costs": -0.25, "simulationMode": [null, null, null], "rewards": [2, 8, 24], "path": ["0", "0", "5", "6", "8"], "rt": [5767, 675, 664], "actions": ["right", "right", "down"], "actionTimes": [7851, 9035, 10206], "queries": {"click": {"state": {"target": ["9"], "time": [4408]}, "edge": {"target": [], "time": []}}, "mouseover": {"state": {"target": ["9", "9"], "time": [3826, 4179]}, "edge": {"target": [], "time": []}}, "mouseout": {"state": {"target": ["0", "9", "9"], "time": [3812, 3876, 5461]}, "edge": {"target": [], "time": []}}}, "displayed_time": "11.09", "trialTime": 13033, "trial_type": "mouselab-mdp", "trial_index": 20, "time_elapsed": 607211, "internal_node_id": "0.0-4.0-1.0-5.0"}}, {"uniqueid": "w83936187:a30214718", "current_trial": 21, "dateTime": 1664464523304, "trialdata": {"revealed_states": [], "num_clicks_accrued": [0, 0, 0, 0, 0, 0, 0, 0, 0, 0, 0, 0, 0], "stateRewards": ["", -4, 8, 24, -24, 4, 8, -24, -48, 2, 4, 24, -24], "withholdReward": true, "trial_id": "mdp_782187007008", "block": "test1", "trialIndex": 10, "score": -7.5, "costs": -0.5, "simulationMode": [null, null, null], "rewards": [4, 8, -24], "path": ["0", "0", "5", "6", "7"], "rt": [3593, 419, 689], "actions": ["right", "right", "up"], "actionTimes": [5982, 6912, 8117], "queries": {"click": {"state": {"target": ["1", "5"], "time": [3123, 4704]}, "edge": {"target": [], "time": []}}, "mouseover": {"state": {"target": ["1", "6", "6", "5", "8"], "time": [2844, 3594, 3890, 4257, 5326]}, "edge": {"target": [], "time": []}}, "mouseout": {"state": {"target": ["6", "5", "0", "1", "6", "6", "5", "5"], "time": [1759, 1843, 2707, 3427, 3641, 4174, 5076, 5174]}, "edge": {"target": [], "time": []}}}, "displayed_time": "12.39", "trialTime": 12918, "trial_type": "mouselab-mdp", "trial_index": 21, "time_elapsed": 620177, "internal_node_id": "0.0-4.0-1.0-6.0"}}, {"uniqueid": "w83936187:a30214718", "current_trial": 22, "dateTime": 1664464540379, "trialdata": {"revealed_states": [], "num_clicks_accrued": [0, 0, 0, 0, 0, 0, 0, 0, 0, 0, 0, 0, 0], "stateRewards": ["", -2, -8, 48, 24, -2, 8, -48, -24, -2, 4, -48, 48], "withholdReward": true, "trial_id": "mdp_295220852217", "block": "test1", "trialIndex": 11, "score": -14.25, "costs": -1.25, "simulationMode": [null, null, null], "rewards": [-2, 8, -24], "path": ["0", "0", "5", "6", "8"], "rt": [7323, 749, 3398], "actions": ["right", "right", "down"], "actionTimes": [9517, 10783, 14681], "queries": {"click": {"state": {"target": ["5", "9", "1", "10", "6"], "time": [3049, 3897, 4682, 6105, 7493]}, "edge": {"target": [], "time": []}}, "mouseover": {"state": {"target": ["5", "0", "9", "1", "0", "10", "6", "6"], "time": [2586, 3450, 3684, 4502, 5570, 5900, 6766, 7136]}, "edge": {"target": [], "time": []}}, "mouseout": {"state": {"target": ["8", "0", "5", "0", "9", "1", "0", "9", "10", "9", "5", "6", "6", "5", "0", "1", "7", "6"], "time": [1717, 2537, 3419, 3552, 4320, 5089, 5619, 5784, 6383, 6470, 6699, 6852, 8049, 8118, 11647, 12065, 12934, 13467]}, "edge": {"target": [], "time": []}}}, "displayed_time": "15.18", "trialTime": 17024, "trial_type": "mouselab-mdp", "trial_index": 22, "time_elapsed": 637253, "internal_node_id": "0.0-4.0-1.0-7.0"}}, {"uniqueid": "w83936187:a30214718", "current_trial": 23, "dateTime": 1664464556128, "trialdata": {"revealed_states": [], "num_clicks_accrued": [0, 0, 0, 0, 0, 0, 0, 0, 0, 0, 0, 0, 0], "stateRewards": ["", -2, 4, 24, 48, 2, 4, -48, -48, 2, 8, 48, -48], "withholdReward": true, "trial_id": "mdp_409609775558", "block": "test1", "trialIndex": 12, "score": 61.75, "costs": -1.25, "simulationMode": [null, null, null], "rewards": [2, 8, 48], "path": ["0", "0", "9", "10", "11"], "rt": [7201, 292, 1081], "actions": ["left", "left", "up"], "actionTimes": [10237, 11047, 12637], "queries": {"click": {"state": {"target": ["1", "9", "10", "12", "11"], "time": [4348, 5671, 6967, 7876, 8646]}, "edge": {"target": [], "time": []}}, "mouseover": {"state": {"target": ["1", "9", "0", "5", "10", "12", "11"], "time": [3675, 5525, 6091, 6258, 6823, 7473, 8422]}, "edge": {"target": [], "time": []}}, "mouseout": {"state": {"target": ["0", "1", "9", "0", "5", "9", "10", "12", "10", "11", "9"], "time": [3547, 4875, 5941, 6174, 6475, 6622, 7257, 8289, 8355, 8873, 9390]}, "edge": {"target": [], "time": []}}}, "displayed_time": "13.15", "trialTime": 15684, "trial_type": "mouselab-mdp", "trial_index": 23, "time_elapsed": 653001, "internal_node_id": "0.0-4.0-1.0-8.0"}}, {"uniqueid": "w83936187:a30214718", "current_trial": 24, "dateTime": 1664464567589, "trialdata": {"revealed_states": [], "num_clicks_accrued": [0, 0, 0, 0, 0, 0, 0, 0, 0, 0, 0, 0, 0], "stateRewards": ["", 2, -4, 48, -48, 2, 4, -24, 24, -4, -8, 24, -48], "withholdReward": true, "trial_id": "mdp_238810765895", "block": "test1", "trialIndex": 13, "score": 34, "costs": -1, "simulationMode": [null, null, null], "rewards": [2, 4, 24], "path": ["0", "0", "5", "6", "8"], "rt": [3636, 256, 1393], "actions": ["right", "right", "down"], "actionTimes": [5244, 5992, 7895], "queries": {"click": {"state": {"target": ["5", "6", "7", "8"], "time": [2155, 2742, 3360, 4145]}, "edge": {"target": [], "time": []}}, "mouseover": {"state": {"target": ["0", "5", "6", "7", "8"], "time": [1703, 1854, 2471, 3068, 4051]}, "edge": {"target": [], "time": []}}, "mouseout": {"state": {"target": ["0", "5", "6", "7", "6", "8"], "time": [1771, 2434, 3021, 3502, 3917, 4301]}, "edge": {"target": [], "time": []}}}, "displayed_time": "9.61", "trialTime": 11413, "trial_type": "mouselab-mdp", "trial_index": 24, "time_elapsed": 664463, "internal_node_id": "0.0-4.0-1.0-9.0"}}, {"uniqueid": "w83936187:a30214718", "current_trial": 25, "dateTime": 1664464580282, "trialdata": {"revealed_states": [], "num_clicks_accrued": [0, 0, 0, 0, 0, 0, 0, 0, 0, 0, 0, 0, 0], "stateRewards": ["", 2, 4, -48, -48, 2, 4, 48, -24, -2, 8, 48, -48], "withholdReward": true, "trial_id": "mdp_258528916140", "block": "test1", "trialIndex": 14, "score": -37, "costs": 0, "simulationMode": [null, null, null], "rewards": [2, 4, -48], "path": ["0", "0", "1", "2", "4"], "rt": [1049, 222, 2643], "actions": ["up", "up", "left"], "actionTimes": [3723, 4462, 7616], "queries": {"click": {"state": {"target": [], "time": []}, "edge": {"target": [], "time": []}}, "mouseover": {"state": {"target": ["5"], "time": [3025]}, "edge": {"target": [], "time": []}}, "mouseout": {"state": {"target": ["8", "0", "5", "7", "4", "1"], "time": [1355, 2908, 3041, 5842, 6721, 6819]}, "edge": {"target": [], "time": []}}}, "displayed_time": "11.68", "trialTime": 12646, "trial_type": "mouselab-mdp", "trial_index": 25, "time_elapsed": 677156, "internal_node_id": "0.0-4.0-1.0-10.0"}}, {"uniqueid": "w83936187:a30214718", "current_trial": 26, "dateTime": 1664464593618, "trialdata": {"revealed_states": [], "num_clicks_accrued": [0, 0, 0, 0, 0, 0, 0, 0, 0, 0, 0, 0, 0], "stateRewards": ["", 2, -4, 48, -48, -2, 8, -48, 24, -2, -8, 48, 48], "withholdReward": false, "trial_id": "mdp_949326095747", "block": "test1", "trialIndex": 15, "score": 33.75, "costs": -1.25, "simulationMode": [null, null, null], "rewards": [-2, 8, 24], "path": ["0", "0", "5", "6", "8"], "rt": [6953, 394, 1372], "actions": ["right", "right", "down"], "actionTimes": [8370, 9278, 11157], "queries": {"click": {"state": {"target": ["6", "10", "9", "5", "8"], "time": [3095, 4521, 5358, 6627, 7278]}, "edge": {"target": [], "time": []}}, "mouseover": {"state": {"target": ["6", "6", "5", "9", "10", "9", "9", "1", "5", "8"], "time": [1837, 2871, 3468, 3517, 3799, 4887, 5203, 6072, 6468, 7002]}, "edge": {"target": [], "time": []}}, "mouseout": {"state": {"target": ["0", "6", "6", "5", "9", "10", "9", "9", "1", "5", "8"], "time": [1635, 2688, 3452, 3484, 3534, 4802, 4951, 5535, 6303, 6817, 7749]}, "edge": {"target": [], "time": []}}}, "displayed_time": "11.66", "trialTime": 13266, "trial_type": "mouselab-mdp", "trial_index": 26, "time_elapsed": 690492, "internal_node_id": "0.0-4.0-1.0-11.0"}}, {"uniqueid": "w83936187:a30214718", "current_trial": 27, "dateTime": 1664464610414, "trialdata": {"revealed_states": [], "num_clicks_accrued": [0, 0, 0, 0, 0, 0, 0, 0, 0, 0, 0, 0, 0], "stateRewards": ["", -2, -4, 48, -24, -4, -4, -24, -24, -2, 4, -48, -24], "withholdReward": true, "trial_id": "mdp_410467837196", "block": "test1", "trialIndex": 16, "score": 44, "costs": -3, "simulationMode": [null, null, null], "rewards": [-2, -4, 48], "path": ["0", "0", "1", "2", "3"], "rt": [10671, 506, 385], "actions": ["up", "up", "right"], "actionTimes": [12324, 13350, 14230], "queries": {"click": {"state": {"target": ["9", "1", "2", "6", "5", "10", "12", "11", "8", "7", "4", "3"], "time": [2112, 2878, 3436, 4427, 4957, 5766, 6264, 6834, 7529, 8434, 10452, 11048]}, "edge": {"target": [], "time": []}}, "mouseover": {"state": {"target": ["9", "1", "2", "5", "6", "5", "0", "10", "10", "12", "11", "8", "7", "4", "3"], "time": [1928, 2646, 3145, 4113, 4213, 4878, 5346, 5413, 5614, 6179, 6731, 7395, 8089, 9993, 10893]}, "edge": {"target": [], "time": []}}, "mouseout": {"state": {"target": ["6", "0", "9", "1", "2", "5", "6", "5", "0", "9", "10", "10", "12", "10", "11", "5", "8", "6", "7", "7", "2", "4", "2", "3"], "time": [1098, 1862, 2481, 3111, 3613, 4145, 4748, 5312, 5362, 5397, 5444, 6013, 6529, 6594, 7027, 7262, 7745, 7863, 8661, 9661, 9929, 10645, 10727, 11259]}, "edge": {"target": [], "time": []}}}, "displayed_time": "14.74", "trialTime": 16744, "trial_type": "mouselab-mdp", "trial_index": 27, "time_elapsed": 707287, "internal_node_id": "0.0-4.0-1.0-12.0"}}, {"uniqueid": "w83936187:a30214718", "current_trial": 28, "dateTime": 1664464624748, "trialdata": {"revealed_states": [], "num_clicks_accrued": [0, 0, 0, 0, 0, 0, 0, 0, 0, 0, 0, 0, 0], "stateRewards": ["", 2, -8, 24, -24, -2, 8, -48, -48, 2, -8, -24, -48], "withholdReward": true, "trial_id": "mdp_744278669205", "block": "test1", "trialIndex": 17, "score": 20, "costs": -3, "simulationMode": [null, null, null], "rewards": [2, -8, 24], "path": ["0", "0", "1", "2", "3"], "rt": [9084, 683, 344], "actions": ["up", "up", "right"], "actionTimes": [10586, 11783, 12643], "queries": {"click": {"state": {"target": ["1", "9", "2", "4", "3", "5", "6", "8", "7", "11", "12", "10"], "time": [1984, 2551, 3859, 4400, 4830, 5817, 6433, 6768, 7248, 8186, 8592, 9045]}, "edge": {"target": [], "time": []}}, "mouseover": {"state": {"target": ["1", "9", "5", "3", "2", "4", "3", "5", "6", "8", "7", "0", "10", "11", "10", "12", "10"], "time": [1782, 2402, 2986, 3500, 3765, 4235, 4649, 5467, 6281, 6665, 7101, 7734, 7881, 7982, 8332, 8586, 8933]}, "edge": {"target": [], "time": []}}, "mouseout": {"state": {"target": ["5", "1", "9", "5", "3", "2", "4", "2", "3", "5", "6", "8", "6", "7", "0", "9", "10", "11", "10", "12", "10", "9", "7"], "time": [1216, 2268, 2749, 3302, 3533, 4151, 4533, 4635, 5015, 6100, 6598, 6984, 7064, 7500, 7748, 7848, 7931, 8298, 8431, 8881, 9264, 9450, 9700]}, "edge": {"target": [], "time": []}}}, "displayed_time": "13.16", "trialTime": 14271, "trial_type": "mouselab-mdp", "trial_index": 28, "time_elapsed": 721622, "internal_node_id": "0.0-4.0-1.0-13.0"}}, {"uniqueid": "w83936187:a30214718", "current_trial": 29, "dateTime": 1664464637765, "trialdata": {"revealed_states": [], "num_clicks_accrued": [0, 0, 0, 0, 0, 0, 0, 0, 0, 0, 0, 0, 0], "stateRewards": ["", -2, 8, 48, 24, 2, -4, 48, -48, 2, 8, 24, -24], "withholdReward": false, "trial_id": "mdp_176207245985", "block": "test1", "trialIndex": 18, "score": 49.25, "costs": -1.75, "simulationMode": [null, null, null], "rewards": [2, -4, 48], "path": ["0", "0", "5", "6", "7"], "rt": [6740, 1090, 662], "actions": ["right", "right", "up"], "actionTimes": [8214, 9814, 10986], "queries": {"click": {"state": {"target": ["9", "10", "12", "11", "7", "6", "5"], "time": [1954, 2613, 3011, 3576, 5394, 5953, 6444]}, "edge": {"target": [], "time": []}}, "mouseover": {"state": {"target": ["9", "10", "12", "11", "7", "6", "5"], "time": [1792, 2309, 2875, 3441, 5243, 5741, 6257]}, "edge": {"target": [], "time": []}}, "mouseout": {"state": {"target": ["7", "9", "10", "12", "10", "11", "9", "7", "6", "5"], "time": [1075, 2292, 2808, 3308, 3390, 3792, 4914, 5590, 6226, 6772]}, "edge": {"target": [], "time": []}}}, "displayed_time": "11.51", "trialTime": 12951, "trial_type": "mouselab-mdp", "trial_index": 29, "time_elapsed": 734638, "internal_node_id": "0.0-4.0-1.0-14.0"}}, {"uniqueid": "w83936187:a30214718", "current_trial": 30, "dateTime": 1664464650454, "trialdata": {"revealed_states": [], "num_clicks_accrued": [0, 0, 0, 0, 0, 0, 0, 0, 0, 0, 0, 0, 0], "stateRewards": ["", 2, -4, 48, -48, -4, -8, -48, 24, -4, 4, 48, 48], "withholdReward": true, "trial_id": "mdp_544803968425", "block": "test1", "trialIndex": 19, "score": 51, "costs": -2, "simulationMode": [null, null, null], "rewards": [-4, 4, 48], "path": ["0", "0", "9", "10", "11"], "rt": [6425, 1077, 887], "actions": ["left", "left", "up"], "actionTimes": [8442, 10028, 11420], "queries": {"click": {"state": {"target": ["1", "5", "6", "8", "7", "11", "9", "10"], "time": [2644, 3060, 3517, 3825, 4413, 5407, 6471, 7125]}, "edge": {"target": [], "time": []}}, "mouseover": {"state": {"target": ["1", "5", "6", "8", "7", "9", "11", "11", "4", "9", "10", "10"], "time": [2437, 2933, 3400, 3716, 4266, 4767, 5050, 5265, 5683, 6366, 6666, 6916]}, "edge": {"target": [], "time": []}}, "mouseout": {"state": {"target": ["1", "0", "1", "5", "6", "8", "6", "7", "9", "11", "11", "4", "9", "10", "10", "9", "8"], "time": [902, 1834, 2803, 3303, 3684, 4117, 4183, 4653, 4952, 5100, 5569, 6052, 6615, 6717, 7267, 7315, 7400]}, "edge": {"target": [], "time": []}}}, "displayed_time": "11.93", "trialTime": 12637, "trial_type": "mouselab-mdp", "trial_index": 30, "time_elapsed": 747328, "internal_node_id": "0.0-4.0-1.0-15.0"}}, {"uniqueid": "w83936187:a30214718", "current_trial": 31, "dateTime": 1664464663098, "trialdata": {"revealed_states": [], "num_clicks_accrued": [0, 0, 0, 0, 0, 0, 0, 0, 0, 0, 0, 0, 0], "stateRewards": ["", -4, -4, 24, 48, 4, -4, -24, 24, -4, -4, 24, 24], "withholdReward": false, "trial_id": "mdp_357725458160", "block": "test1", "trialIndex": 20, "score": 43, "costs": -2, "simulationMode": [null, null, null], "rewards": [-4, -4, 48], "path": ["0", "0", "1", "2", "4"], "rt": [7151, 240, 566], "actions": ["up", "up", "left"], "actionTimes": [9294, 10046, 11122], "queries": {"click": {"state": {"target": ["1", "3", "8", "7", "11", "12", "4", "2"], "time": [2573, 3155, 4003, 4692, 5374, 6284, 7370, 7897]}, "edge": {"target": [], "time": []}}, "mouseover": {"state": {"target": ["1", "2", "3", "2", "6", "8", "7", "11", "10", "12", "9", "4", "4", "2"], "time": [2442, 2825, 3025, 3377, 3724, 3841, 4528, 4976, 5575, 5810, 6724, 6959, 7240, 7741]}, "edge": {"target": [], "time": []}}, "mouseout": {"state": {"target": ["8", "0", "1", "2", "3", "2", "1", "6", "8", "7", "1", "11", "10", "12", "9", "4", "4", "2", "7"], "time": [1660, 1842, 2795, 2960, 3344, 3544, 3659, 3808, 4328, 4858, 4943, 5559, 5676, 6692, 6774, 7009, 7624, 8107, 8191]}, "edge": {"target": [], "time": []}}}, "displayed_time": "11.64", "trialTime": 12595, "trial_type": "mouselab-mdp", "trial_index": 31, "time_elapsed": 759972, "internal_node_id": "0.0-4.0-1.0-16.0"}}, {"uniqueid": "w83936187:a30214718", "current_trial": 32, "dateTime": 1664464676374, "trialdata": {"revealed_states": [], "num_clicks_accrued": [0, 0, 0, 0, 0, 0, 0, 0, 0, 0, 0, 0, 0], "stateRewards": ["", -4, 4, -48, -48, -2, -8, -48, -24, 4, 8, -24, 24], "withholdReward": true, "trial_id": "mdp_449260894259", "block": "test1", "trialIndex": 21, "score": 38.5, "costs": -2.5, "simulationMode": [null, null, null], "rewards": [4, 8, 24], "path": ["0", "0", "9", "10", "12"], "rt": [8266, 533, 497], "actions": ["left", "left", "down"], "actionTimes": [9628, 10662, 11679], "queries": {"click": {"state": {"target": ["5", "2", "4", "3", "7", "8", "12", "11", "10", "9"], "time": [1968, 3077, 3518, 4233, 4786, 5380, 6203, 7328, 7737, 8125]}, "edge": {"target": [], "time": []}}, "mouseover": {"state": {"target": ["5", "6", "2", "4", "3", "7", "6", "8", "12", "10", "11", "10", "9", "0", "6"], "time": [1797, 2573, 2832, 3314, 4100, 4499, 5132, 5214, 5933, 6516, 7183, 7616, 8029, 8479, 8615]}, "edge": {"target": [], "time": []}}, "mouseout": {"state": {"target": ["1", "0", "5", "6", "2", "4", "2", "3", "7", "6", "8", "12", "10", "11", "10", "9", "0", "5", "6"], "time": [981, 1747, 2297, 2684, 3297, 3715, 3765, 4430, 5100, 5164, 5651, 6480, 6597, 7549, 7912, 8395, 8564, 8613, 8630]}, "edge": {"target": [], "time": []}}}, "displayed_time": "12.18", "trialTime": 13230, "trial_type": "mouselab-mdp", "trial_index": 32, "time_elapsed": 773248, "internal_node_id": "0.0-4.0-1.0-17.0"}}, {"uniqueid": "w83936187:a30214718", "current_trial": 33, "dateTime": 1664464689117, "trialdata": {"revealed_states": [], "num_clicks_accrued": [0, 0, 0, 0, 0, 0, 0, 0, 0, 0, 0, 0, 0], "stateRewards": ["", -2, -8, 24, -48, -4, 8, -48, -24, 4, 8, -24, 24], "withholdReward": true, "trial_id": "mdp_940444641142", "block": "test1", "trialIndex": 22, "score": 38.75, "costs": -2.25, "simulationMode": [null, null, null], "rewards": [4, 8, 24], "path": ["0", "0", "9", "10", "12"], "rt": [7895, 369, 494], "actions": ["left", "left", "down"], "actionTimes": [9456, 10334, 11342], "queries": {"click": {"state": {"target": ["1", "12", "11", "10", "9", "7", "3", "4", "8"], "time": [2262, 3171, 3793, 4507, 5191, 6184, 6825, 7340, 8202]}, "edge": {"target": [], "time": []}}, "mouseover": {"state": {"target": ["1", "9", "10", "10", "12", "10", "11", "9", "10", "9", "0", "9", "0", "5", "6", "7", "3", "2", "4", "2", "8"], "time": [1968, 2536, 2632, 2952, 3051, 3399, 3583, 4284, 4348, 4718, 4882, 4998, 5398, 5482, 5753, 6050, 6565, 7017, 7080, 7583, 8115]}, "edge": {"target": [], "time": []}}, "mouseout": {"state": {"target": ["6", "5", "1", "9", "10", "10", "12", "10", "11", "9", "10", "9", "0", "9", "0", "5", "6", "7", "3", "2", "4", "2", "7", "8"], "time": [1099, 1298, 2452, 2599, 2683, 3016, 3367, 3467, 4134, 4315, 4682, 4751, 4948, 5331, 5449, 5548, 5949, 6517, 6999, 7047, 7547, 7613, 7700, 8515]}, "edge": {"target": [], "time": []}}}, "displayed_time": "11.85", "trialTime": 12695, "trial_type": "mouselab-mdp", "trial_index": 33, "time_elapsed": 785991, "internal_node_id": "0.0-4.0-1.0-18.0"}}, {"uniqueid": "w83936187:a30214718", "current_trial": 34, "dateTime": 1664464705083, "trialdata": {"revealed_states": [], "num_clicks_accrued": [0, 0, 0, 0, 0, 0, 0, 0, 0, 0, 0, 0, 0], "stateRewards": ["", 2, 4, -48, -24, -4, 4, -24, 24, -2, -8, -24, 24], "withholdReward": true, "trial_id": "mdp_640720803523", "block": "test1", "trialIndex": 23, "score": 26.5, "costs": -2.5, "simulationMode": [null, null, null], "rewards": [-4, 4, 24], "path": ["0", "0", "5", "6", "8"], "rt": [10037, 604, 1148], "actions": ["right", "right", "down"], "actionTimes": [12045, 13159, 14817], "queries": {"click": {"state": {"target": ["12", "11", "7", "8", "4", "3", "5", "10", "6", "9"], "time": [3451, 3972, 4675, 5100, 6111, 6554, 7837, 8667, 9677, 10277]}, "edge": {"target": [], "time": []}}, "mouseover": {"state": {"target": ["9", "9", "10", "12", "10", "11", "1", "6", "7", "6", "8", "5", "2", "4", "2", "3", "1", "5", "0", "9", "10", "9", "6", "0", "9"], "time": [2639, 2925, 3058, 3289, 3622, 3691, 4188, 4307, 4525, 4838, 4937, 5474, 5723, 5937, 6274, 6488, 7239, 7438, 8188, 8204, 8254, 8888, 9621, 9952, 10137]}, "edge": {"target": [], "time": []}}, "mouseout": {"state": {"target": ["0", "9", "9", "10", "12", "10", "11", "1", "6", "7", "6", "8", "5", "2", "4", "2", "3", "1", "5", "5", "0", "9", "10", "9", "5", "6", "5", "0", "9"], "time": [2576, 2756, 2988, 3242, 3589, 3655, 4105, 4221, 4365, 4805, 4905, 5421, 5538, 5904, 6237, 6338, 6903, 7340, 8021, 8172, 8203, 8239, 8820, 8953, 9336, 9870, 9936, 10086, 10537]}, "edge": {"target": [], "time": []}}}, "displayed_time": "15.32", "trialTime": 15923, "trial_type": "mouselab-mdp", "trial_index": 34, "time_elapsed": 801957, "internal_node_id": "0.0-4.0-1.0-19.0"}}, {"uniqueid": "w83936187:a30214718", "current_trial": 35, "dateTime": 1664464716936, "trialdata": {"revealed_states": [], "num_clicks_accrued": [0, 0, 0, 0, 0, 0, 0, 0, 0, 0, 0, 0, 0], "stateRewards": ["", 4, 4, -24, -48, -4, 4, -48, 24, 4, -8, -48, 48], "withholdReward": true, "trial_id": "mdp_566768794366", "block": "test1", "trialIndex": 24, "score": 47.5, "costs": -1.5, "simulationMode": [null, null, null], "rewards": [4, -8, 48], "path": ["0", "0", "9", "10", "12"], "rt": [6455, 702, 545], "actions": ["left", "left", "down"], "actionTimes": [8677, 9892, 10953], "queries": {"click": {"state": {"target": ["10", "7", "8", "11", "12", "9"], "time": [3509, 4497, 4983, 5856, 6280, 7654]}, "edge": {"target": [], "time": []}}, "mouseover": {"state": {"target": ["9", "10", "9", "0", "5", "7", "6", "8", "9", "11", "12", "9", "2", "9"], "time": [2775, 3158, 3975, 3992, 4025, 4309, 4712, 4825, 5341, 5577, 6193, 6557, 6607, 7492]}, "edge": {"target": [], "time": []}}, "mouseout": {"state": {"target": ["0", "9", "10", "9", "0", "5", "7", "6", "8", "9", "11", "10", "12", "9", "2", "9"], "time": [1725, 2910, 3942, 3991, 4008, 4160, 4675, 4774, 5208, 5376, 5991, 6108, 6524, 6574, 6624, 7841]}, "edge": {"target": [], "time": []}}}, "displayed_time": "11.47", "trialTime": 11801, "trial_type": "mouselab-mdp", "trial_index": 35, "time_elapsed": 813810, "internal_node_id": "0.0-4.0-1.0-20.0"}}, {"uniqueid": "w83936187:a30214718", "current_trial": 36, "dateTime": 1664464729100, "trialdata": {"revealed_states": [], "num_clicks_accrued": [0, 0, 0, 0, 0, 0, 0, 0, 0, 0, 0, 0, 0], "stateRewards": ["", 4, 4, 24, 24, 4, -4, 48, 48, 4, 4, 24, -48], "withholdReward": true, "trial_id": "mdp_454251689008", "block": "test1", "trialIndex": 25, "score": 51.25, "costs": -1.75, "simulationMode": [null, null, null], "rewards": [4, -4, 48], "path": ["0", "0", "5", "6", "8"], "rt": [6737, 270, 287], "actions": ["right", "right", "down"], "actionTimes": [8486, 9275, 10077], "queries": {"click": {"state": {"target": ["2", "3", "4", "1", "8", "6", "5"], "time": [2319, 2906, 3469, 4012, 5039, 5764, 6143]}, "edge": {"target": [], "time": []}}, "mouseover": {"state": {"target": ["1", "2", "3", "4", "1", "5", "8", "6", "5"], "time": [2006, 2073, 2759, 3225, 3873, 4556, 4972, 5374, 6004]}, "edge": {"target": [], "time": []}}, "mouseout": {"state": {"target": ["0", "1", "2", "3", "2", "4", "1", "5", "8", "6", "5"], "time": [1890, 2040, 2589, 3090, 3173, 3723, 4274, 4623, 5289, 5975, 6757]}, "edge": {"target": [], "time": []}}}, "displayed_time": "10.75", "trialTime": 12116, "trial_type": "mouselab-mdp", "trial_index": 36, "time_elapsed": 825973, "internal_node_id": "0.0-4.0-1.0-21.0"}}, {"uniqueid": "w83936187:a30214718", "current_trial": 37, "dateTime": 1664464739644, "trialdata": {"revealed_states": [], "num_clicks_accrued": [0, 0, 0, 0, 0, 0, 0, 0, 0, 0, 0, 0, 0], "stateRewards": ["", 2, -4, -24, -48, -2, 8, -24, 48, -2, 8, 24, -48], "withholdReward": true, "trial_id": "mdp_566582551557", "block": "test1", "trialIndex": 26, "score": 57.75, "costs": -1.25, "simulationMode": [null, null, null], "rewards": [-2, 8, 48], "path": ["0", "0", "5", "6", "8"], "rt": [5113, 658, 616], "actions": ["right", "right", "down"], "actionTimes": [6943, 8118, 9227], "queries": {"click": {"state": {"target": ["11", "3", "8", "5", "6"], "time": [2726, 3451, 4093, 5081, 5532]}, "edge": {"target": [], "time": []}}, "mouseover": {"state": {"target": ["0", "11", "2", "3", "8", "0", "5", "6", "7"], "time": [1980, 2614, 3045, 3277, 3980, 4813, 4931, 5294, 5876]}, "edge": {"target": [], "time": []}}, "mouseout": {"state": {"target": ["0", "0", "11", "2", "3", "8", "0", "5", "6", "7"], "time": [1779, 2086, 2931, 3245, 3594, 4329, 4827, 5260, 5827, 6196]}, "edge": {"target": [], "time": []}}}, "displayed_time": "9.74", "trialTime": 10486, "trial_type": "mouselab-mdp", "trial_index": 37, "time_elapsed": 836518, "internal_node_id": "0.0-4.0-1.0-22.0"}}, {"uniqueid": "w83936187:a30214718", "current_trial": 38, "dateTime": 1664464751049, "trialdata": {"revealed_states": [], "num_clicks_accrued": [0, 0, 0, 0, 0, 0, 0, 0, 0, 0, 0, 0, 0], "stateRewards": ["", 2, 4, -48, 24, -4, 4, -24, 48, -2, -8, -48, 48], "withholdReward": true, "trial_id": "mdp_424193661731", "block": "test1", "trialIndex": 27, "score": 51.75, "costs": -1.25, "simulationMode": [null, null, null], "rewards": [-4, 4, 48], "path": ["0", "0", "5", "6", "8"], "rt": [5520, 524, 714], "actions": ["right", "right", "down"], "actionTimes": [6624, 7669, 8890], "queries": {"click": {"state": {"target": ["3", "7", "8", "6", "5"], "time": [1677, 2068, 2472, 3875, 4301]}, "edge": {"target": [], "time": []}}, "mouseover": {"state": {"target": ["3", "7", "6", "8", "0", "5", "6", "6", "5", "0", "0"], "time": [1530, 1930, 2244, 2344, 3094, 3194, 3494, 3813, 4178, 4943, 5294]}, "edge": {"target": [], "time": []}}, "mouseout": {"state": {"target": ["0", "3", "7", "6", "8", "0", "5", "6", "6", "5", "0", "0"], "time": [1210, 1811, 2212, 2294, 2713, 3144, 3326, 3593, 4144, 4513, 5207, 5529]}, "edge": {"target": [], "time": []}}}, "displayed_time": "11.11", "trialTime": 11344, "trial_type": "mouselab-mdp", "trial_index": 38, "time_elapsed": 847922, "internal_node_id": "0.0-4.0-1.0-23.0"}}, {"uniqueid": "w83936187:a30214718", "current_trial": 39, "dateTime": 1664464766421, "trialdata": {"revealed_states": [], "num_clicks_accrued": [0, 0, 0, 0, 0, 0, 0, 0, 0, 0, 0, 0, 0], "stateRewards": ["", -4, -4, -24, -48, -4, 8, -24, -48, 4, -8, 24, -24], "withholdReward": true, "trial_id": "mdp_924927483179", "block": "test1", "trialIndex": 28, "score": 22.5, "costs": -2.5, "simulationMode": [null, null, null], "rewards": [4, -8, 24], "path": ["0", "0", "9", "10", "11"], "rt": [9975, 441, 630], "actions": ["left", "left", "up"], "actionTimes": [11815, 12762, 13883], "queries": {"click": {"state": {"target": ["11", "4", "3", "8", "12", "7", "10", "9", "5", "6"], "time": [2613, 3221, 4042, 4762, 5427, 6100, 7896, 9164, 9900, 10286]}, "edge": {"target": [], "time": []}}, "mouseover": {"state": {"target": ["11", "11", "4", "2", "3", "3", "7", "6", "8", "12", "5", "7", "10", "9", "5", "6"], "time": [2273, 2476, 2923, 3438, 3505, 3872, 4338, 4507, 4622, 5320, 5704, 5970, 7120, 8676, 9756, 10087]}, "edge": {"target": [], "time": []}}, "mouseout": {"state": {"target": ["12", "9", "0", "11", "11", "4", "2", "3", "3", "7", "6", "8", "12", "5", "7", "10", "9", "5", "6", "5"], "time": [1225, 1508, 1990, 2323, 2871, 3408, 3472, 3558, 4240, 4355, 4539, 4972, 5622, 5741, 6472, 8124, 9287, 10020, 10619, 10652]}, "edge": {"target": [], "time": []}}}, "displayed_time": "14.40", "trialTime": 15298, "trial_type": "mouselab-mdp", "trial_index": 39, "time_elapsed": 863295, "internal_node_id": "0.0-4.0-1.0-24.0"}}, {"uniqueid": "w83936187:a30214718", "current_trial": 40, "dateTime": 1664464779441, "trialdata": {"revealed_states": [], "num_clicks_accrued": [0, 0, 0, 0, 0, 0, 0, 0, 0, 0, 0, 0, 0], "stateRewards": ["", -4, -8, 48, -24, 4, -8, 48, 48, -2, 4, -48, -24], "withholdReward": true, "trial_id": "mdp_925905402462", "block": "test1", "trialIndex": 29, "score": 47, "costs": -2, "simulationMode": [null, null, null], "rewards": [4, -8, 48], "path": ["0", "0", "5", "6", "7"], "rt": [7643, 348, 795], "actions": ["right", "right", "up"], "actionTimes": [9432, 10293, 11606], "queries": {"click": {"state": {"target": ["11", "12", "7", "6", "5", "3", "2", "1"], "time": [2571, 3092, 4054, 5099, 5523, 6770, 7391, 7760]}, "edge": {"target": [], "time": []}}, "mouseover": {"state": {"target": ["1", "4", "11", "10", "12", "9", "0", "5", "7", "6", "6", "6", "5", "1", "3", "2", "2", "1"], "time": [1979, 2081, 2296, 2830, 2982, 3396, 3528, 3662, 3946, 4278, 4698, 5046, 5413, 6163, 6512, 7062, 7260, 7680]}, "edge": {"target": [], "time": []}}, "mouseout": {"state": {"target": ["4", "0", "0", "1", "4", "11", "10", "12", "9", "0", "5", "7", "6", "6", "6", "5", "5", "1", "3", "2", "2", "1", "5", "6"], "time": [1215, 1265, 1949, 2012, 2249, 2797, 2880, 3332, 3512, 3582, 3748, 4229, 4363, 4913, 5377, 5712, 6045, 6346, 7028, 7127, 7610, 8030, 8297, 8411]}, "edge": {"target": [], "time": []}}}, "displayed_time": "12.11", "trialTime": 12947, "trial_type": "mouselab-mdp", "trial_index": 40, "time_elapsed": 876314, "internal_node_id": "0.0-4.0-1.0-25.0"}}, {"uniqueid": "w83936187:a30214718", "current_trial": 41, "dateTime": 1664464792661, "trialdata": {"revealed_states": [], "num_clicks_accrued": [0, 0, 0, 0, 0, 0, 0, 0, 0, 0, 0, 0, 0], "stateRewards": ["", -2, -8, 48, 24, 4, -8, 24, 48, 4, -4, 24, -48], "withholdReward": false, "trial_id": "mdp_871576155740", "block": "test1", "trialIndex": 30, "score": 47.5, "costs": -1.5, "simulationMode": [null, null, null], "rewards": [4, -8, 48], "path": ["0", "0", "5", "6", "8"], "rt": [6499, 185, 442], "actions": ["right", "right", "down"], "actionTimes": [8387, 9083, 10040], "queries": {"click": {"state": {"target": ["12", "7", "11", "8", "6", "5"], "time": [3062, 4108, 4715, 5528, 6325, 6831]}, "edge": {"target": [], "time": []}}, "mouseover": {"state": {"target": ["9", "10", "12", "7", "11", "9", "8", "6", "5"], "time": [2548, 2749, 2933, 4018, 4566, 4914, 5401, 6249, 6681]}, "edge": {"target": [], "time": []}}, "mouseout": {"state": {"target": ["5", "0", "9", "10", "12", "7", "11", "9", "8", "6", "5"], "time": [949, 1534, 2718, 2815, 3316, 4281, 4865, 4931, 5965, 6649, 12629]}, "edge": {"target": [], "time": []}}}, "displayed_time": "10.55", "trialTime": 13158, "trial_type": "mouselab-mdp", "trial_index": 41, "time_elapsed": 889535, "internal_node_id": "0.0-4.0-1.0-26.0"}}, {"uniqueid": "w83936187:a30214718", "current_trial": 42, "dateTime": 1664464804833, "trialdata": {"revealed_states": [], "num_clicks_accrued": [0, 0, 0, 0, 0, 0, 0, 0, 0, 0, 0, 0, 0], "stateRewards": ["", -4, 4, -24, -24, -4, -8, 24, 48, 4, -4, 24, 48], "withholdReward": true, "trial_id": "mdp_175395325183", "block": "test1", "trialIndex": 31, "score": 50.5, "costs": -2.5, "simulationMode": [null, null, null], "rewards": [4, -4, 48], "path": ["0", "0", "9", "10", "12"], "rt": [8237, 468, 261], "actions": ["left", "left", "down"], "actionTimes": [9016, 9999, 10775], "queries": {"click": {"state": {"target": ["7", "4", "3", "8", "6", "5", "12", "11", "10", "9"], "time": [1858, 2656, 3101, 4041, 4846, 5214, 6506, 7023, 7434, 7790]}, "edge": {"target": [], "time": []}}, "mouseover": {"state": {"target": ["7", "1", "4", "2", "3", "6", "8", "8", "5", "6", "5", "0", "9", "10", "12", "10", "11", "10", "9"], "time": [1765, 2214, 2499, 2880, 2931, 3434, 3464, 3809, 4498, 4715, 5133, 5846, 5999, 6248, 6396, 6730, 6799, 7329, 7646]}, "edge": {"target": [], "time": []}}, "mouseout": {"state": {"target": ["0", "7", "1", "4", "2", "3", "6", "8", "8", "5", "6", "5", "5", "0", "9", "10", "12", "10", "11", "10", "9"], "time": [565, 1998, 2249, 2850, 2898, 3265, 3448, 3631, 4266, 4581, 5014, 5500, 5814, 5896, 6063, 6350, 6680, 6763, 7214, 7580, 8115]}, "edge": {"target": [], "time": []}}}, "displayed_time": "11.28", "trialTime": 12100, "trial_type": "mouselab-mdp", "trial_index": 42, "time_elapsed": 901706, "internal_node_id": "0.0-4.0-1.0-27.0"}}, {"uniqueid": "w83936187:a30214718", "current_trial": 43, "dateTime": 1664464814536, "trialdata": {"revealed_states": [], "num_clicks_accrued": [0, 0, 0, 0, 0, 0, 0, 0, 0, 0, 0, 0, 0], "stateRewards": ["", 2, -4, -48, 24, 4, 4, 48, -48, -2, -4, -24, -48], "withholdReward": true, "trial_id": "mdp_858916930936", "block": "test1", "trialIndex": 32, "score": 60.25, "costs": -0.75, "simulationMode": [null, null, null], "rewards": [4, 4, 48], "path": ["0", "0", "5", "6", "7"], "rt": [3354, 448, 625], "actions": ["right", "right", "up"], "actionTimes": [4657, 5619, 6748], "queries": {"click": {"state": {"target": ["7", "6", "5"], "time": [2451, 3275, 3710]}, "edge": {"target": [], "time": []}}, "mouseover": {"state": {"target": ["7", "7", "6", "8", "6", "5"], "time": [2155, 2324, 2654, 2804, 3123, 3571]}, "edge": {"target": [], "time": []}}, "mouseout": {"state": {"target": ["0", "0", "7", "7", "6", "8", "6", "5"], "time": [890, 1507, 2205, 2638, 2738, 2973, 3504, 3971]}, "edge": {"target": [], "time": []}}}, "displayed_time": "8.30", "trialTime": 9630, "trial_type": "mouselab-mdp", "trial_index": 43, "time_elapsed": 911410, "internal_node_id": "0.0-4.0-1.0-28.0"}}, {"uniqueid": "w83936187:a30214718", "current_trial": 44, "dateTime": 1664464828750, "trialdata": {"revealed_states": [], "num_clicks_accrued": [0, 0, 0, 0, 0, 0, 0, 0, 0, 0, 0, 0, 0], "stateRewards": ["", -4, 4, 24, 24, 4, -8, 48, -48, -2, -8, 24, 24], "withholdReward": true, "trial_id": "mdp_395264223239", "block": "test1", "trialIndex": 33, "score": 46, "costs": -3, "simulationMode": [null, null, null], "rewards": [4, -8, 48], "path": ["0", "0", "5", "6", "7"], "rt": [9636, 351, 595], "actions": ["right", "right", "up"], "actionTimes": [11009, 11872, 12988], "queries": {"click": {"state": {"target": ["11", "12", "10", "9", "7", "8", "6", "5", "3", "4", "2", "1"], "time": [2042, 2768, 3236, 3759, 4542, 5087, 5478, 5931, 6822, 7369, 7991, 8490]}, "edge": {"target": [], "time": []}}, "mouseover": {"state": {"target": ["9", "11", "9", "12", "10", "9", "0", "5", "7", "6", "8", "6", "5", "1", "2", "3", "2", "4", "2", "1"], "time": [1757, 1874, 2393, 2692, 3057, 3622, 3989, 4072, 4408, 4772, 5008, 5372, 5823, 6372, 6522, 6706, 7040, 7171, 7689, 8308]}, "edge": {"target": [], "time": []}}, "mouseout": {"state": {"target": ["5", "1", "1", "0", "9", "11", "9", "12", "10", "9", "0", "5", "7", "6", "8", "6", "5", "1", "2", "3", "2", "4", "2", "1", "6", "8", "6"], "time": [808, 839, 1158, 1740, 1793, 2227, 2490, 3009, 3558, 3957, 4055, 4123, 4722, 4838, 5322, 5738, 6271, 6422, 6656, 6989, 7091, 7623, 8223, 8639, 9172, 9438, 9537]}, "edge": {"target": [], "time": []}}}, "displayed_time": "13.50", "trialTime": 14150, "trial_type": "mouselab-mdp", "trial_index": 44, "time_elapsed": 925624, "internal_node_id": "0.0-4.0-1.0-29.0"}}, {"uniqueid": "w83936187:a30214718", "current_trial": 45, "dateTime": 1664464836084, "trialdata": {"rt": 7327, "stimulus": "<h1> End of block! </h1>\n\nYou have reached the end of the block 1/4. If you need a short break, feel free to take one now before moving on.\n\n<br><br>\nIn the next block, you will complete another 30 rounds of this game.\n\n<br><br>\n<div style='text-align: center;'>Press <code>space</code> to begin.</div>\n<br><br>\n<div style='text-align: center;'>(If the experiment doesn't continue, try clicking on the text and then pressing <code>space</code>.)</div>", "response": " ", "trial_id": "mdp_ready_2", "trial_type": "html-keyboard-response", "trial_index": 45, "time_elapsed": 932958, "internal_node_id": "0.0-4.0-2.0"}}, {"uniqueid": "w83936187:a30214718", "current_trial": 46, "dateTime": 1664464852794, "trialdata": {"revealed_states": [], "num_clicks_accrued": [0, 0, 0, 0, 0, 0, 0, 0, 0, 0, 0, 0, 0], "stateRewards": ["", 4, -4, 48, -48, 2, 8, -48, 24, -2, -4, -24, 48], "withholdReward": false, "trial_id": "mdp_937564992306", "block": "test2", "trialIndex": 34, "score": 45, "costs": -2, "simulationMode": [null, null, null], "rewards": [-2, -4, 48], "path": ["0", "0", "9", "10", "12"], "rt": [10713, 201, 393], "actions": ["left", "left", "down"], "actionTimes": [13708, 14414, 15323], "queries": {"click": {"state": {"target": ["5", "7", "6", "8", "11", "12", "10", "9"], "time": [6133, 6775, 7204, 7479, 8870, 9313, 9856, 10187]}, "edge": {"target": [], "time": []}}, "mouseover": {"state": {"target": ["7", "7", "5", "7", "6", "8", "0", "9", "10", "11", "10", "12", "10", "9"], "time": [3865, 4518, 5301, 6648, 7064, 7415, 7947, 8130, 8397, 8764, 9064, 9196, 9681, 10080]}, "edge": {"target": [], "time": []}}, "mouseout": {"state": {"target": ["3", "0", "7", "7", "5", "7", "6", "8", "5", "0", "9", "10", "11", "10", "12", "10", "9"], "time": [2398, 3402, 4017, 5066, 6381, 6965, 7365, 7781, 7914, 8030, 8365, 8733, 9013, 9146, 9648, 10013, 10564]}, "edge": {"target": [], "time": []}}}, "displayed_time": "15.85", "trialTime": 16660, "trial_type": "mouselab-mdp", "trial_index": 46, "time_elapsed": 949667, "internal_node_id": "0.0-4.0-3.0-0.0"}}, {"uniqueid": "w83936187:a30214718", "current_trial": 47, "dateTime": 1664464869329, "trialdata": {"revealed_states": [], "num_clicks_accrued": [0, 0, 0, 0, 0, 0, 0, 0, 0, 0, 0, 0, 0], "stateRewards": ["", 2, -4, 48, 24, 2, 8, 24, 24, -2, 4, 24, 24], "withholdReward": false, "trial_id": "mdp_813974524300", "block": "test2", "trialIndex": 35, "score": 48, "costs": -3, "simulationMode": [null, null, null], "rewards": [2, -4, 48], "path": ["0", "0", "1", "2", "3"], "rt": [11292, 435, 1266], "actions": ["up", "up", "right"], "actionTimes": [12140, 13093, 14875], "queries": {"click": {"state": {"target": ["11", "12", "8", "7", "6", "10", "4", "3", "2", "1", "5", "9"], "time": [3257, 4050, 4773, 5297, 5908, 6733, 7702, 8241, 8701, 9098, 9796, 10360]}, "edge": {"target": [], "time": []}}, "mouseover": {"state": {"target": ["1", "2", "4", "9", "10", "11", "9", "12", "8", "6", "7", "6", "5", "9", "10", "2", "4", "2", "3", "2", "1", "0", "5", "0", "9"], "time": [1079, 1144, 1944, 2193, 2297, 2710, 3561, 3878, 4646, 5025, 5260, 5745, 6227, 6475, 6659, 7342, 7525, 7925, 8075, 8475, 8928, 9575, 9625, 10008, 10107]}, "edge": {"target": [], "time": []}}, "mouseout": {"state": {"target": ["0", "1", "2", "4", "9", "10", "11", "9", "12", "8", "6", "7", "6", "5", "9", "10", "2", "4", "2", "3", "2", "1", "0", "5", "0", "9"], "time": [712, 1110, 1927, 2011, 2227, 2544, 3476, 3696, 4210, 4993, 5111, 5679, 6093, 6277, 6526, 6976, 7462, 7892, 8061, 8441, 8875, 9275, 9592, 9959, 10041, 10690]}, "edge": {"target": [], "time": []}}}, "displayed_time": "15.39", "trialTime": 16462, "trial_type": "mouselab-mdp", "trial_index": 47, "time_elapsed": 966202, "internal_node_id": "0.0-4.0-3.0-1.0"}}, {"uniqueid": "w83936187:a30214718", "current_trial": 48, "dateTime": 1664464881150, "trialdata": {"revealed_states": [], "num_clicks_accrued": [0, 0, 0, 0, 0, 0, 0, 0, 0, 0, 0, 0, 0], "stateRewards": ["", 2, 8, 48, 24, -4, 4, -48, 24, 2, 8, 48, 48], "withholdReward": true, "trial_id": "mdp_367344599162", "block": "test2", "trialIndex": 36, "score": 62.25, "costs": -0.75, "simulationMode": [null, null, null], "rewards": [2, 8, 48], "path": ["0", "0", "9", "10", "12"], "rt": [2834, 300, 295], "actions": ["left", "left", "down"], "actionTimes": [4529, 5341, 6154], "queries": {"click": {"state": {"target": ["12", "9", "10"], "time": [2400, 3176, 3495]}, "edge": {"target": [], "time": []}}, "mouseover": {"state": {"target": ["9", "10", "12", "10", "9", "10"], "time": [1908, 1975, 2226, 2593, 2959, 3359]}, "edge": {"target": [], "time": []}}, "mouseout": {"state": {"target": ["0", "9", "10", "12", "10", "9", "10"], "time": [1892, 1943, 2193, 2575, 2658, 3328, 3710]}, "edge": {"target": [], "time": []}}}, "displayed_time": "10.70", "trialTime": 11770, "trial_type": "mouselab-mdp", "trial_index": 48, "time_elapsed": 978023, "internal_node_id": "0.0-4.0-3.0-2.0"}}, {"uniqueid": "w83936187:a30214718", "current_trial": 49, "dateTime": 1664464893136, "trialdata": {"revealed_states": [], "num_clicks_accrued": [0, 0, 0, 0, 0, 0, 0, 0, 0, 0, 0, 0, 0], "stateRewards": ["", 2, 4, -48, 48, -4, 8, -48, -24, -4, -4, 48, 48], "withholdReward": true, "trial_id": "mdp_613582696541", "block": "test2", "trialIndex": 37, "score": 56.5, "costs": -2.5, "simulationMode": [null, null, null], "rewards": [2, 4, 48], "path": ["0", "0", "1", "2", "4"], "rt": [8305, 317, 336], "actions": ["up", "up", "left"], "actionTimes": [9089, 9924, 10776], "queries": {"click": {"state": {"target": ["8", "7", "12", "11", "9", "10", "2", "3", "4", "1"], "time": [1292, 1835, 2898, 3452, 4002, 4498, 6286, 6733, 7201, 7848]}, "edge": {"target": [], "time": []}}, "mouseover": {"state": {"target": ["0", "5", "8", "8", "6", "7", "9", "12", "12", "10", "11", "10", "9", "10", "1", "2", "3", "4", "1", "5"], "time": [892, 942, 1127, 1277, 1627, 1676, 2141, 2476, 2577, 3175, 3224, 3709, 3858, 4392, 5675, 6042, 6590, 7123, 7557, 8156]}, "edge": {"target": [], "time": []}}, "mouseout": {"state": {"target": ["0", "5", "8", "8", "6", "7", "9", "12", "12", "10", "11", "10", "9", "10", "9", "1", "2", "3", "2", "4", "1", "5"], "time": [909, 979, 1143, 1610, 1659, 2009, 2245, 2492, 3145, 3208, 3625, 3825, 4344, 4790, 5360, 5842, 6458, 6874, 6957, 7375, 7990, 8206]}, "edge": {"target": [], "time": []}}}, "displayed_time": "11.29", "trialTime": 11927, "trial_type": "mouselab-mdp", "trial_index": 49, "time_elapsed": 990010, "internal_node_id": "0.0-4.0-3.0-3.0"}}, {"uniqueid": "w83936187:a30214718", "current_trial": 50, "dateTime": 1664464905876, "trialdata": {"revealed_states": [], "num_clicks_accrued": [0, 0, 0, 0, 0, 0, 0, 0, 0, 0, 0, 0, 0], "stateRewards": ["", -2, 4, 24, 48, 2, 4, -48, -48, 2, 8, 48, -48], "withholdReward": false, "trial_id": "mdp_409609775558", "block": "test2", "trialIndex": 38, "score": 62, "costs": -1, "simulationMode": [null, null, null], "rewards": [2, 8, 48], "path": ["0", "0", "9", "10", "11"], "rt": [3617, 470, 574], "actions": ["left", "left", "up"], "actionTimes": [5590, 6570, 7660], "queries": {"click": {"state": {"target": ["12", "11", "9", "10"], "time": [2682, 3414, 4014, 4335]}, "edge": {"target": [], "time": []}}, "mouseover": {"state": {"target": ["12", "11", "9", "10"], "time": [2535, 3301, 3920, 4235]}, "edge": {"target": [], "time": []}}, "mouseout": {"state": {"target": ["8", "0", "12", "11", "9", "10", "12"], "time": [1585, 2220, 2887, 3635, 4201, 4535, 4754]}, "edge": {"target": [], "time": []}}}, "displayed_time": "11.97", "trialTime": 12681, "trial_type": "mouselab-mdp", "trial_index": 50, "time_elapsed": 1002750, "internal_node_id": "0.0-4.0-3.0-4.0"}}, {"uniqueid": "w83936187:a30214718", "current_trial": 51, "dateTime": 1664464918335, "trialdata": {"revealed_states": [], "num_clicks_accrued": [0, 0, 0, 0, 0, 0, 0, 0, 0, 0, 0, 0, 0], "stateRewards": ["", -2, 4, -48, -48, -4, -8, 48, -48, 2, 4, 48, -48], "withholdReward": true, "trial_id": "mdp_258647270500", "block": "test2", "trialIndex": 39, "score": 56.5, "costs": -2.5, "simulationMode": [null, null, null], "rewards": [2, 4, 48], "path": ["0", "0", "9", "10", "11"], "rt": [8196, 493, 561], "actions": ["left", "left", "up"], "actionTimes": [9199, 10205, 11272], "queries": {"click": {"state": {"target": ["4", "3", "2", "12", "11", "7", "8", "6", "10", "9"], "time": [1987, 2543, 3051, 4103, 4549, 5240, 5888, 6328, 7104, 8150]}, "edge": {"target": [], "time": []}}, "mouseover": {"state": {"target": ["2", "4", "3", "3", "2", "1", "5", "0", "9", "10", "12", "10", "11", "7", "0", "5", "8", "6", "5", "0", "9", "10", "9", "9"], "time": [1614, 1779, 2261, 2398, 2946, 3261, 3429, 3528, 3577, 3861, 4064, 4311, 4394, 5181, 5628, 5677, 5744, 6195, 6577, 6710, 6810, 6994, 7727, 8009]}, "edge": {"target": [], "time": []}}, "mouseout": {"state": {"target": ["9", "0", "2", "4", "3", "3", "2", "1", "5", "0", "9", "10", "12", "10", "11", "7", "0", "5", "8", "6", "5", "0", "9", "10", "9", "9"], "time": [578, 1511, 1729, 2195, 2312, 2744, 3227, 3277, 3461, 3561, 3711, 4010, 4295, 4345, 4777, 5377, 5644, 5693, 6145, 6544, 6646, 6777, 6893, 7492, 7776, 8292]}, "edge": {"target": [], "time": []}}}, "displayed_time": "11.76", "trialTime": 12405, "trial_type": "mouselab-mdp", "trial_index": 51, "time_elapsed": 1015209, "internal_node_id": "0.0-4.0-3.0-5.0"}}, {"uniqueid": "w83936187:a30214718", "current_trial": 52, "dateTime": 1664464927002, "trialdata": {"revealed_states": [], "num_clicks_accrued": [0, 0, 0, 0, 0, 0, 0, 0, 0, 0, 0, 0, 0], "stateRewards": ["", -4, -8, 24, 48, 2, -4, -24, 24, -4, 8, 48, 48], "withholdReward": false, "trial_id": "mdp_496672670022", "block": "test2", "trialIndex": 40, "score": 56.25, "costs": -0.75, "simulationMode": [null, null, null], "rewards": [-4, 8, 48], "path": ["0", "0", "9", "10", "11"], "rt": [3355, 194, 771], "actions": ["left", "left", "up"], "actionTimes": [4425, 5129, 6407], "queries": {"click": {"state": {"target": ["11", "10", "9"], "time": [1795, 2849, 3336]}, "edge": {"target": [], "time": []}}, "mouseover": {"state": {"target": ["0", "9", "11", "1", "9", "10", "9"], "time": [1335, 1417, 1584, 2068, 2568, 2804, 3201]}, "edge": {"target": [], "time": []}}, "mouseout": {"state": {"target": ["0", "0", "9", "11", "1", "9", "10", "9"], "time": [887, 1368, 1468, 1952, 2352, 2618, 3051, 3550]}, "edge": {"target": [], "time": []}}}, "displayed_time": "8.07", "trialTime": 8598, "trial_type": "mouselab-mdp", "trial_index": 52, "time_elapsed": 1023876, "internal_node_id": "0.0-4.0-3.0-6.0"}}, {"uniqueid": "w83936187:a30214718", "current_trial": 53, "dateTime": 1664464943985, "trialdata": {"revealed_states": [], "num_clicks_accrued": [0, 0, 0, 0, 0, 0, 0, 0, 0, 0, 0, 0, 0], "stateRewards": ["", 4, 8, -48, 24, -2, 8, -48, -48, -4, 4, 48, -48], "withholdReward": true, "trial_id": "mdp_693807815190", "block": "test2", "trialIndex": 41, "score": 50, "costs": -3, "simulationMode": [null, null, null], "rewards": [-4, 4, 48], "path": ["0", "0", "9", "10", "11"], "rt": [13199, 268, 209], "actions": ["left", "left", "up"], "actionTimes": [14120, 14895, 15618], "queries": {"click": {"state": {"target": ["8", "7", "11", "10", "9", "4", "3", "2", "1", "12", "5", "6"], "time": [1407, 2087, 2769, 4563, 5405, 7746, 8254, 8625, 9572, 10819, 11879, 12163]}, "edge": {"target": [], "time": []}}, "mouseover": {"state": {"target": ["8", "7", "11", "10", "12", "10", "10", "9", "9", "4", "4", "2", "3", "2", "1", "0", "12", "0", "5", "6", "0"], "time": [1227, 1979, 2645, 3010, 3144, 4176, 4480, 5059, 5277, 6396, 7561, 7911, 7976, 8525, 9042, 9794, 10691, 11409, 11658, 12023, 12842]}, "edge": {"target": [], "time": []}}, "mouseout": {"state": {"target": ["0", "8", "7", "11", "10", "12", "10", "10", "9", "9", "4", "4", "2", "3", "2", "1", "0", "9", "12", "0", "5", "6", "0", "9", "10"], "time": [1095, 1644, 2244, 2960, 3061, 3461, 4228, 4796, 5109, 5576, 6593, 7877, 7941, 8442, 8925, 9759, 9808, 10225, 11058, 11559, 12007, 12324, 12858, 13024, 13442]}, "edge": {"target": [], "time": []}}}, "displayed_time": "16.12", "trialTime": 16927, "trial_type": "mouselab-mdp", "trial_index": 53, "time_elapsed": 1040858, "internal_node_id": "0.0-4.0-3.0-7.0"}}, {"uniqueid": "w83936187:a30214718", "current_trial": 54, "dateTime": 1664464955906, "trialdata": {"revealed_states": [], "num_clicks_accrued": [0, 0, 0, 0, 0, 0, 0, 0, 0, 0, 0, 0, 0], "stateRewards": ["", 4, -4, 48, -48, 4, -4, 24, -24, 4, 8, -24, -48], "withholdReward": true, "trial_id": "mdp_433630527224", "block": "test2", "trialIndex": 42, "score": 50.75, "costs": -2.25, "simulationMode": [null, null, null], "rewards": [4, -4, 48], "path": ["0", "0", "1", "2", "3"], "rt": [7268, 268, 189], "actions": ["up", "up", "right"], "actionTimes": [8786, 9571, 10257], "queries": {"click": {"state": {"target": ["11", "12", "8", "7", "6", "4", "3", "2", "1"], "time": [2184, 2692, 3368, 3862, 4325, 5505, 6197, 6712, 7208]}, "edge": {"target": [], "time": []}}, "mouseover": {"state": {"target": ["11", "12", "8", "6", "7", "6", "5", "1", "2", "4", "2", "3", "2", "1"], "time": [1921, 2588, 3206, 3621, 3723, 4186, 4639, 4836, 4986, 5404, 5686, 6016, 6586, 7168]}, "edge": {"target": [], "time": []}}, "mouseout": {"state": {"target": ["0", "11", "12", "8", "6", "7", "6", "5", "1", "2", "4", "2", "3", "2", "1"], "time": [1738, 2403, 2905, 3604, 3673, 4087, 4603, 4772, 4903, 5302, 5653, 5736, 6502, 6987, 7521]}, "edge": {"target": [], "time": []}}}, "displayed_time": "10.77", "trialTime": 11864, "trial_type": "mouselab-mdp", "trial_index": 54, "time_elapsed": 1052780, "internal_node_id": "0.0-4.0-3.0-8.0"}}, {"uniqueid": "w83936187:a30214718", "current_trial": 55, "dateTime": 1664464965898, "trialdata": {"revealed_states": [], "num_clicks_accrued": [0, 0, 0, 0, 0, 0, 0, 0, 0, 0, 0, 0, 0], "stateRewards": ["", 2, 4, -48, -48, 2, 4, 48, -24, -2, 8, 48, -48], "withholdReward": true, "trial_id": "mdp_258528916140", "block": "test2", "trialIndex": 43, "score": 58, "costs": -1, "simulationMode": [null, null, null], "rewards": [-2, 8, 48], "path": ["0", "0", "9", "10", "11"], "rt": [3720, 124, 293], "actions": ["left", "left", "up"], "actionTimes": [5017, 5639, 6441], "queries": {"click": {"state": {"target": ["12", "11", "9", "10"], "time": [2281, 2741, 3312, 3568]}, "edge": {"target": [], "time": []}}, "mouseover": {"state": {"target": ["1", "11", "12", "10", "11", "9", "10"], "time": [1580, 1830, 2097, 2546, 2663, 3163, 3481]}, "edge": {"target": [], "time": []}}, "mouseout": {"state": {"target": ["1", "1", "11", "12", "10", "11", "9", "10", "9"], "time": [1033, 1597, 1880, 2496, 2613, 2963, 3447, 3914, 3998]}, "edge": {"target": [], "time": []}}}, "displayed_time": "9.30", "trialTime": 9936, "trial_type": "mouselab-mdp", "trial_index": 55, "time_elapsed": 1062772, "internal_node_id": "0.0-4.0-3.0-9.0"}}, {"uniqueid": "w83936187:a30214718", "current_trial": 56, "dateTime": 1664464976204, "trialdata": {"revealed_states": [], "num_clicks_accrued": [0, 0, 0, 0, 0, 0, 0, 0, 0, 0, 0, 0, 0], "stateRewards": ["", 4, 4, 48, -24, -4, -8, 24, -24, 2, -8, -24, 24], "withholdReward": true, "trial_id": "mdp_933201675789", "block": "test2", "trialIndex": 44, "score": 59, "costs": -2, "simulationMode": [null, null, null], "rewards": [4, 4, 48], "path": ["0", "0", "1", "2", "3"], "rt": [5905, 220, 227], "actions": ["up", "up", "right"], "actionTimes": [6576, 7309, 8047], "queries": {"click": {"state": {"target": ["4", "11", "12", "7", "8", "3", "2", "1"], "time": [1459, 1880, 2482, 3351, 3817, 4415, 5190, 5566]}, "edge": {"target": [], "time": []}}, "mouseover": {"state": {"target": ["1", "2", "4", "11", "10", "12", "5", "7", "6", "8", "3", "2", "1", "5"], "time": [921, 1004, 1204, 1788, 2153, 2371, 2954, 3203, 3553, 3669, 4237, 5053, 5502, 5853]}, "edge": {"target": [], "time": []}}, "mouseout": {"state": {"target": ["0", "1", "2", "4", "11", "10", "12", "5", "7", "6", "8", "3", "2", "1", "5"], "time": [870, 970, 1122, 1654, 2104, 2237, 2669, 2987, 3520, 3620, 4120, 4753, 5370, 5735, 5885]}, "edge": {"target": [], "time": []}}}, "displayed_time": "9.69", "trialTime": 10235, "trial_type": "mouselab-mdp", "trial_index": 56, "time_elapsed": 1073077, "internal_node_id": "0.0-4.0-3.0-10.0"}}, {"uniqueid": "w83936187:a30214718", "current_trial": 57, "dateTime": 1664464988680, "trialdata": {"revealed_states": [], "num_clicks_accrued": [0, 0, 0, 0, 0, 0, 0, 0, 0, 0, 0, 0, 0], "stateRewards": ["", 2, -8, -24, 48, -4, -8, 24, -48, 4, -8, -24, -24], "withholdReward": false, "trial_id": "mdp_928911266656", "block": "test2", "trialIndex": 45, "score": 45, "costs": -2, "simulationMode": [null, null, null], "rewards": [2, -8, 48], "path": ["0", "0", "1", "2", "4"], "rt": [7320, 369, 316], "actions": ["up", "up", "left"], "actionTimes": [9242, 10130, 10961], "queries": {"click": {"state": {"target": ["4", "1", "2", "8", "7", "11", "12", "9"], "time": [2650, 3374, 3749, 5415, 5789, 6867, 7571, 8089]}, "edge": {"target": [], "time": []}}, "mouseover": {"state": {"target": ["1", "4", "1", "2", "5", "3", "5", "6", "8", "6", "7", "5", "0", "9", "10", "11", "10", "12", "10", "9"], "time": [2296, 2562, 3248, 3645, 4064, 4344, 4829, 4995, 5360, 5610, 5694, 6281, 6312, 6344, 6512, 6695, 7111, 7480, 7861, 7994]}, "edge": {"target": [], "time": []}}, "mouseout": {"state": {"target": ["5", "1", "0", "0", "1", "4", "1", "2", "1", "5", "3", "5", "6", "8", "6", "7", "5", "0", "9", "10", "11", "10", "12", "10", "9", "1", "2"], "time": [363, 596, 1112, 2245, 2312, 2895, 3615, 3945, 4011, 4214, 4595, 4912, 5329, 5594, 5644, 6010, 6311, 6327, 6361, 6545, 7043, 7213, 7844, 7894, 8343, 8510, 8597]}, "edge": {"target": [], "time": []}}}, "displayed_time": "11.48", "trialTime": 12424, "trial_type": "mouselab-mdp", "trial_index": 57, "time_elapsed": 1085554, "internal_node_id": "0.0-4.0-3.0-11.0"}}, {"uniqueid": "w83936187:a30214718", "current_trial": 58, "dateTime": 1664465000860, "trialdata": {"revealed_states": [], "num_clicks_accrued": [0, 0, 0, 0, 0, 0, 0, 0, 0, 0, 0, 0, 0], "stateRewards": ["", -2, -4, -24, -48, 2, -8, -24, -24, 4, -8, 48, 48], "withholdReward": false, "trial_id": "mdp_950599994674", "block": "test2", "trialIndex": 46, "score": 47, "costs": -2, "simulationMode": [null, null, null], "rewards": [4, -8, 48], "path": ["0", "0", "9", "10", "12"], "rt": [6554, 223, 878], "actions": ["left", "left", "down"], "actionTimes": [8640, 9369, 10757], "queries": {"click": {"state": {"target": ["4", "3", "8", "7", "11", "12", "10", "9"], "time": [2703, 3576, 4248, 4772, 5487, 6039, 6637, 7061]}, "edge": {"target": [], "time": []}}, "mouseover": {"state": {"target": ["4", "4", "2", "3", "3", "6", "8", "6", "7", "11", "10", "12", "10", "9"], "time": [2482, 2531, 3049, 3081, 3447, 3881, 4046, 4566, 4647, 5379, 5729, 5829, 6445, 6930]}, "edge": {"target": [], "time": []}}, "mouseout": {"state": {"target": ["2", "1", "4", "4", "2", "3", "3", "6", "8", "6", "7", "11", "10", "12", "10", "9"], "time": [1314, 1381, 2515, 2948, 3064, 3248, 3764, 3947, 4533, 4597, 4979, 5696, 5796, 6312, 6881, 7266]}, "edge": {"target": [], "time": []}}}, "displayed_time": "11.24", "trialTime": 12126, "trial_type": "mouselab-mdp", "trial_index": 58, "time_elapsed": 1097733, "internal_node_id": "0.0-4.0-3.0-12.0"}}, {"uniqueid": "w83936187:a30214718", "current_trial": 59, "dateTime": 1664465012607, "trialdata": {"revealed_states": [], "num_clicks_accrued": [0, 0, 0, 0, 0, 0, 0, 0, 0, 0, 0, 0, 0], "stateRewards": ["", 4, 8, 24, 24, 2, -4, 48, -24, -4, 8, -24, 24], "withholdReward": true, "trial_id": "mdp_932292142091", "block": "test2", "trialIndex": 47, "score": 49.5, "costs": -1.5, "simulationMode": [null, null, null], "rewards": [2, -4, 48], "path": ["0", "0", "5", "6", "7"], "rt": [4912, 435, 440], "actions": ["right", "right", "up"], "actionTimes": [5773, 6716, 7667], "queries": {"click": {"state": {"target": ["11", "12", "8", "7", "6", "5"], "time": [1665, 2215, 2872, 3274, 4218, 4588]}, "edge": {"target": [], "time": []}}, "mouseover": {"state": {"target": ["11", "11", "10", "12", "8", "6", "7", "5", "6", "5", "1", "2"], "time": [1194, 1580, 1927, 2094, 2780, 3077, 3176, 3759, 4096, 4476, 5060, 5160]}, "edge": {"target": [], "time": []}}, "mouseout": {"state": {"target": ["0", "11", "11", "10", "12", "8", "6", "7", "5", "6", "5", "1", "2", "2", "1", "5"], "time": [1140, 1212, 1894, 2011, 2427, 3043, 3143, 3660, 4010, 4426, 5044, 5126, 9461, 11095, 11190, 11257]}, "edge": {"target": [], "time": []}}}, "displayed_time": "10.86", "trialTime": 11690, "trial_type": "mouselab-mdp", "trial_index": 59, "time_elapsed": 1109481, "internal_node_id": "0.0-4.0-3.0-13.0"}}, {"uniqueid": "w83936187:a30214718", "current_trial": 60, "dateTime": 1664465023316, "trialdata": {"revealed_states": [], "num_clicks_accrued": [0, 0, 0, 0, 0, 0, 0, 0, 0, 0, 0, 0, 0], "stateRewards": ["", -2, -4, 48, -24, -4, -4, -24, -24, -2, 4, -48, -24], "withholdReward": false, "trial_id": "mdp_410467837196", "block": "test2", "trialIndex": 48, "score": 45, "costs": -2, "simulationMode": [null, null, null], "rewards": [-2, -4, 48], "path": ["0", "0", "1", "2", "3"], "rt": [6827, 279, 265], "actions": ["up", "up", "right"], "actionTimes": [7764, 8558, 9329], "queries": {"click": {"state": {"target": ["3", "2", "1", "12", "11", "7", "8", "4"], "time": [1543, 2201, 2599, 3660, 4209, 5009, 5553, 6451]}, "edge": {"target": [], "time": []}}, "mouseover": {"state": {"target": ["1", "2", "3", "2", "1", "0", "0", "9", "12", "10", "11", "5", "6", "7", "6", "8", "0", "4"], "time": [1131, 1231, 1447, 2097, 2531, 3032, 3213, 3431, 3580, 3880, 4000, 4496, 4664, 4946, 5246, 5446, 5980, 6415]}, "edge": {"target": [], "time": []}}, "mouseout": {"state": {"target": ["0", "0", "1", "2", "3", "2", "1", "0", "0", "9", "12", "10", "11", "5", "6", "7", "6", "8", "0", "4"], "time": [317, 831, 1181, 1314, 1933, 2431, 2797, 3117, 3383, 3464, 3864, 3930, 4414, 4529, 4763, 5196, 5313, 5881, 6080, 6613]}, "edge": {"target": [], "time": []}}}, "displayed_time": "9.94", "trialTime": 10640, "trial_type": "mouselab-mdp", "trial_index": 60, "time_elapsed": 1120190, "internal_node_id": "0.0-4.0-3.0-14.0"}}, {"uniqueid": "w83936187:a30214718", "current_trial": 61, "dateTime": 1664465035669, "trialdata": {"revealed_states": [], "num_clicks_accrued": [0, 0, 0, 0, 0, 0, 0, 0, 0, 0, 0, 0, 0], "stateRewards": ["", 4, -8, 24, 48, 2, 4, 48, 48, 2, 8, -48, -48], "withholdReward": true, "trial_id": "mdp_783704746330", "block": "test2", "trialIndex": 49, "score": 58, "costs": -1, "simulationMode": [null, null, null], "rewards": [2, 4, 48], "path": ["0", "0", "5", "6", "7"], "rt": [3342, 49, 931], "actions": ["right", "right", "up"], "actionTimes": [4697, 5265, 6713], "queries": {"click": {"state": {"target": ["3", "7", "6", "5"], "time": [2150, 2786, 3480, 3846]}, "edge": {"target": [], "time": []}}, "mouseover": {"state": {"target": ["1", "2", "3", "7", "6", "8", "6", "5"], "time": [1752, 1831, 2066, 2681, 2981, 3115, 3381, 3748]}, "edge": {"target": [], "time": []}}, "mouseout": {"state": {"target": ["1", "2", "3", "7", "6", "8", "6", "5"], "time": [1782, 1965, 2398, 2931, 3049, 3332, 3715, 4032]}, "edge": {"target": [], "time": []}}}, "displayed_time": "9.36", "trialTime": 12281, "trial_type": "mouselab-mdp", "trial_index": 61, "time_elapsed": 1132543, "internal_node_id": "0.0-4.0-3.0-15.0"}}, {"uniqueid": "w83936187:a30214718", "current_trial": 62, "dateTime": 1664465048104, "trialdata": {"revealed_states": [], "num_clicks_accrued": [0, 0, 0, 0, 0, 0, 0, 0, 0, 0, 0, 0, 0], "stateRewards": ["", -4, -4, -24, 48, -4, -8, -24, 48, 2, 4, 48, 48], "withholdReward": true, "trial_id": "mdp_810954007398", "block": "test2", "trialIndex": 50, "score": 58.25, "costs": -0.75, "simulationMode": [null, null, null], "rewards": [2, 4, 48], "path": ["0", "0", "9", "10", "11"], "rt": [3861, 353, 403], "actions": ["left", "left", "up"], "actionTimes": [5609, 6473, 7389], "queries": {"click": {"state": {"target": ["11", "10", "9"], "time": [3068, 3945, 4603]}, "edge": {"target": [], "time": []}}, "mouseover": {"state": {"target": ["4", "11", "10", "12", "10", "9"], "time": [2352, 2969, 3268, 3419, 3869, 4419]}, "edge": {"target": [], "time": []}}, "mouseout": {"state": {"target": ["0", "4", "11", "10", "12", "10", "9"], "time": [2168, 2755, 3234, 3351, 3535, 4168, 4786]}, "edge": {"target": [], "time": []}}}, "displayed_time": "11.75", "trialTime": 12375, "trial_type": "mouselab-mdp", "trial_index": 62, "time_elapsed": 1144978, "internal_node_id": "0.0-4.0-3.0-16.0"}}, {"uniqueid": "w83936187:a30214718", "current_trial": 63, "dateTime": 1664465066510, "trialdata": {"revealed_states": [], "num_clicks_accrued": [0, 0, 0, 0, 0, 0, 0, 0, 0, 0, 0, 0, 0], "stateRewards": ["", -2, 4, -24, 48, 4, -8, 48, -48, 2, -8, 48, 24], "withholdReward": true, "trial_id": "mdp_501111216502", "block": "test2", "trialIndex": 51, "score": 52, "costs": -3, "simulationMode": [null, null, null], "rewards": [-2, 4, 48], "path": ["0", "0", "1", "2", "4"], "rt": [12859, 500, 839], "actions": ["up", "up", "left"], "actionTimes": [14530, 15548, 16905], "queries": {"click": {"state": {"target": ["7", "6", "5", "8", "3", "4", "2", "1", "11", "12", "10", "9"], "time": [2225, 2848, 3396, 3838, 4708, 5098, 5581, 5879, 7380, 7795, 8125, 8544]}, "edge": {"target": [], "time": []}}, "mouseover": {"state": {"target": ["5", "7", "6", "5", "8", "0", "9", "3", "2", "4", "2", "1", "9", "10", "10", "11", "10", "12", "10", "9", "0"], "time": [1951, 2152, 2784, 3051, 3718, 4154, 4234, 4602, 4870, 4933, 5485, 5818, 6434, 6550, 7166, 7233, 7600, 7749, 8049, 8433, 8999]}, "edge": {"target": [], "time": []}}, "mouseout": {"state": {"target": ["0", "5", "7", "6", "5", "8", "0", "9", "3", "2", "4", "2", "1", "9", "10", "10", "11", "10", "12", "10", "9", "0", "5"], "time": [1921, 1984, 2502, 3034, 3600, 4017, 4201, 4301, 4850, 4917, 5267, 5734, 6100, 6501, 6833, 7183, 7550, 7667, 8016, 8383, 8699, 9083, 9132]}, "edge": {"target": [], "time": []}}}, "displayed_time": "17.40", "trialTime": 18351, "trial_type": "mouselab-mdp", "trial_index": 63, "time_elapsed": 1163384, "internal_node_id": "0.0-4.0-3.0-17.0"}}, {"uniqueid": "w83936187:a30214718", "current_trial": 64, "dateTime": 1664465080541, "trialdata": {"revealed_states": [], "num_clicks_accrued": [0, 0, 0, 0, 0, 0, 0, 0, 0, 0, 0, 0, 0], "stateRewards": ["", 4, 8, 48, -48, -4, 8, -24, -24, -4, 8, 48, 48], "withholdReward": true, "trial_id": "mdp_377640328420", "block": "test2", "trialIndex": 52, "score": 56.25, "costs": -0.75, "simulationMode": [null, null, null], "rewards": [-4, 8, 48], "path": ["0", "0", "9", "10", "11"], "rt": [4161, 317, 275], "actions": ["left", "left", "up"], "actionTimes": [7873, 8703, 9494], "queries": {"click": {"state": {"target": ["11", "10", "9"], "time": [5259, 6263, 6713]}, "edge": {"target": [], "time": []}}, "mouseover": {"state": {"target": ["1", "10", "11", "9", "10", "9"], "time": [4303, 4835, 5069, 5886, 6151, 6585]}, "edge": {"target": [], "time": []}}, "mouseout": {"state": {"target": ["9", "9", "1", "10", "11", "9", "10", "9"], "time": [2586, 2802, 4652, 5019, 5618, 6068, 6484, 6967]}, "edge": {"target": [], "time": []}}}, "displayed_time": "12.72", "trialTime": 13973, "trial_type": "mouselab-mdp", "trial_index": 64, "time_elapsed": 1177415, "internal_node_id": "0.0-4.0-3.0-18.0"}}, {"uniqueid": "w83936187:a30214718", "current_trial": 65, "dateTime": 1664465091226, "trialdata": {"revealed_states": [], "num_clicks_accrued": [0, 0, 0, 0, 0, 0, 0, 0, 0, 0, 0, 0, 0], "stateRewards": ["", -2, 8, 48, 24, 2, -8, -24, -48, -4, 8, -48, 24], "withholdReward": true, "trial_id": "mdp_224053025943", "block": "test2", "trialIndex": 53, "score": 58.25, "costs": -0.75, "simulationMode": [null, null, null], "rewards": [-2, 8, 48], "path": ["0", "0", "1", "2", "3"], "rt": [2809, 560, 747], "actions": ["up", "up", "right"], "actionTimes": [3631, 4703, 5956], "queries": {"click": {"state": {"target": ["3", "2", "1"], "time": [1426, 2043, 2415]}, "edge": {"target": [], "time": []}}, "mouseover": {"state": {"target": ["3", "2", "1"], "time": [1176, 1860, 2310]}, "edge": {"target": [], "time": []}}, "mouseout": {"state": {"target": ["0", "3", "2", "1"], "time": [984, 1643, 2226, 2575]}, "edge": {"target": [], "time": []}}}, "displayed_time": "9.83", "trialTime": 10619, "trial_type": "mouselab-mdp", "trial_index": 65, "time_elapsed": 1188100, "internal_node_id": "0.0-4.0-3.0-19.0"}}, {"uniqueid": "w83936187:a30214718", "current_trial": 66, "dateTime": 1664465102711, "trialdata": {"revealed_states": [], "num_clicks_accrued": [0, 0, 0, 0, 0, 0, 0, 0, 0, 0, 0, 0, 0], "stateRewards": ["", -2, -4, -24, 48, -4, 8, 48, 48, 2, 8, -48, -24], "withholdReward": true, "trial_id": "mdp_136376573354", "block": "test2", "trialIndex": 54, "score": 56, "costs": -1, "simulationMode": [null, null, null], "rewards": [-4, 8, 48], "path": ["0", "0", "5", "6", "8"], "rt": [4265, 743, 2708], "actions": ["right", "right", "down"], "actionTimes": [5620, 6881, 10081], "queries": {"click": {"state": {"target": ["12", "8", "6", "5"], "time": [2301, 2991, 3644, 4416]}, "edge": {"target": [], "time": []}}, "mouseover": {"state": {"target": ["9", "12", "8", "6", "6", "5"], "time": [2021, 2138, 2890, 3288, 3623, 4091]}, "edge": {"target": [], "time": []}}, "mouseout": {"state": {"target": ["0", "9", "12", "8", "6", "6", "5"], "time": [1473, 2038, 2555, 3255, 3372, 3955, 4638]}, "edge": {"target": [], "time": []}}}, "displayed_time": "10.59", "trialTime": 11403, "trial_type": "mouselab-mdp", "trial_index": 66, "time_elapsed": 1199585, "internal_node_id": "0.0-4.0-3.0-20.0"}}, {"uniqueid": "w83936187:a30214718", "current_trial": 67, "dateTime": 1664465116342, "trialdata": {"revealed_states": [], "num_clicks_accrued": [0, 0, 0, 0, 0, 0, 0, 0, 0, 0, 0, 0, 0], "stateRewards": ["", -2, -8, -24, 24, -2, -8, -48, 24, -2, -8, 24, 24], "withholdReward": true, "trial_id": "mdp_336617436097", "block": "test2", "trialIndex": 55, "score": 16, "costs": -3, "simulationMode": [null, null, null], "rewards": [-2, -8, 24], "path": ["0", "0", "5", "6", "8"], "rt": [10009, 401, 188], "actions": ["right", "right", "down"], "actionTimes": [10794, 11705, 12408], "queries": {"click": {"state": {"target": ["3", "7", "8", "4", "11", "12", "9", "10", "6", "5", "1", "2"], "time": [1410, 1843, 2295, 3007, 3398, 3785, 4415, 4823, 5454, 5820, 6295, 6607]}, "edge": {"target": [], "time": []}}, "mouseover": {"state": {"target": ["3", "7", "6", "8", "5", "1", "4", "11", "10", "12", "9", "10", "0", "5", "6", "5", "1", "2"], "time": [1308, 1756, 2106, 2222, 2589, 2639, 2790, 3256, 3555, 3706, 4355, 4772, 5122, 5255, 5388, 5740, 6072, 6491]}, "edge": {"target": [], "time": []}}, "mouseout": {"state": {"target": ["0", "3", "7", "6", "8", "5", "1", "4", "11", "10", "12", "9", "10", "9", "0", "5", "6", "5", "1", "2", "3", "7", "6"], "time": [890, 1625, 2039, 2172, 2574, 2622, 2673, 3172, 3511, 3655, 4173, 4705, 5022, 5105, 5174, 5341, 5706, 6038, 6405, 6805, 6838, 6954, 7106]}, "edge": {"target": [], "time": []}}}, "displayed_time": "12.92", "trialTime": 13572, "trial_type": "mouselab-mdp", "trial_index": 67, "time_elapsed": 1213216, "internal_node_id": "0.0-4.0-3.0-21.0"}}, {"uniqueid": "w83936187:a30214718", "current_trial": 68, "dateTime": 1664465129209, "trialdata": {"revealed_states": [], "num_clicks_accrued": [0, 0, 0, 0, 0, 0, 0, 0, 0, 0, 0, 0, 0], "stateRewards": ["", 2, 4, 48, -48, 2, 4, 24, -24, 2, -4, -24, -48], "withholdReward": true, "trial_id": "mdp_706591889062", "block": "test2", "trialIndex": 56, "score": 57, "costs": -2, "simulationMode": [null, null, null], "rewards": [2, 4, 48], "path": ["0", "0", "1", "2", "3"], "rt": [6805, 307, 503], "actions": ["up", "up", "right"], "actionTimes": [8698, 9523, 10535], "queries": {"click": {"state": {"target": ["11", "12", "7", "8", "3", "4", "2", "1"], "time": [3146, 3986, 4816, 5380, 6215, 6731, 7136, 7494]}, "edge": {"target": [], "time": []}}, "mouseover": {"state": {"target": ["9", "11", "10", "12", "12", "0", "5", "7", "6", "8", "3", "2", "4", "2", "1"], "time": [2350, 2779, 3466, 3516, 3758, 4399, 4466, 4702, 5115, 5315, 6100, 6431, 6566, 6997, 7381]}, "edge": {"target": [], "time": []}}, "mouseout": {"state": {"target": ["6", "5", "9", "11", "10", "12", "12", "0", "5", "7", "6", "8", "3", "2", "4", "2", "1"], "time": [1116, 1383, 2402, 3433, 3499, 3600, 4233, 4432, 4550, 5083, 5182, 5749, 6398, 6481, 6898, 7314, 7747]}, "edge": {"target": [], "time": []}}}, "displayed_time": "11.89", "trialTime": 12804, "trial_type": "mouselab-mdp", "trial_index": 68, "time_elapsed": 1226083, "internal_node_id": "0.0-4.0-3.0-22.0"}}, {"uniqueid": "w83936187:a30214718", "current_trial": 69, "dateTime": 1664465145208, "trialdata": {"revealed_states": [], "num_clicks_accrued": [0, 0, 0, 0, 0, 0, 0, 0, 0, 0, 0, 0, 0], "stateRewards": ["", 2, -4, 24, 24, 4, -4, -24, 24, -4, -4, 48, 48], "withholdReward": true, "trial_id": "mdp_566306223773", "block": "test2", "trialIndex": 57, "score": 42, "costs": -3, "simulationMode": [null, null, null], "rewards": [-4, -4, 48], "path": ["0", "0", "9", "10", "12"], "rt": [12372, 116, 322], "actions": ["left", "left", "down"], "actionTimes": [13176, 13809, 14648], "queries": {"click": {"state": {"target": ["4", "3", "2", "8", "7", "11", "12", "9", "10", "1", "6", "5"], "time": [1992, 2911, 3514, 4318, 4896, 5621, 6325, 6987, 7403, 9583, 11514, 11935]}, "edge": {"target": [], "time": []}}, "mouseover": {"state": {"target": ["1", "4", "2", "3", "3", "2", "1", "5", "6", "8", "6", "7", "11", "10", "12", "10", "9", "10", "1", "5", "6", "5"], "time": [1314, 1880, 2265, 2397, 2712, 3364, 3764, 3947, 4081, 4182, 4596, 4797, 5528, 6109, 6161, 6747, 6861, 7279, 9394, 10976, 11210, 11893]}, "edge": {"target": [], "time": []}}, "mouseout": {"state": {"target": ["6", "5", "1", "4", "2", "3", "3", "2", "1", "5", "6", "8", "6", "7", "11", "10", "12", "10", "9", "10", "11", "4", "2", "3", "1", "9", "9", "5", "6", "5"], "time": [332, 513, 1347, 2180, 2313, 2463, 3229, 3697, 3849, 3999, 4113, 4564, 4662, 5111, 6108, 6128, 6645, 6762, 7228, 7828, 8428, 8662, 8861, 9327, 9728, 10577, 10843, 11010, 11727, 12210]}, "edge": {"target": [], "time": []}}}, "displayed_time": "15.14", "trialTime": 15938, "trial_type": "mouselab-mdp", "trial_index": 69, "time_elapsed": 1242082, "internal_node_id": "0.0-4.0-3.0-23.0"}}, {"uniqueid": "w83936187:a30214718", "current_trial": 70, "dateTime": 1664465155420, "trialdata": {"revealed_states": [], "num_clicks_accrued": [0, 0, 0, 0, 0, 0, 0, 0, 0, 0, 0, 0, 0], "stateRewards": ["", -2, 8, 48, -48, 4, -8, 24, 24, 4, 4, -48, -24], "withholdReward": true, "trial_id": "mdp_746937869927", "block": "test2", "trialIndex": 58, "score": 57.25, "costs": -1.75, "simulationMode": [null, null, null], "rewards": [-2, 8, 48], "path": ["0", "0", "1", "2", "3"], "rt": [6178, 599, 470], "actions": ["up", "up", "right"], "actionTimes": [6952, 8070, 9057], "queries": {"click": {"state": {"target": ["11", "12", "7", "8", "3", "2", "1"], "time": [1823, 2680, 3367, 3849, 4609, 5509, 6011]}, "edge": {"target": [], "time": []}}, "mouseover": {"state": {"target": ["11", "12", "9", "7", "6", "8", "6", "3", "3", "2", "2", "1"], "time": [1655, 2471, 3004, 3254, 3571, 3738, 4154, 4253, 4520, 4804, 5237, 5853]}, "edge": {"target": [], "time": []}}, "mouseout": {"state": {"target": ["5", "1", "1", "11", "12", "9", "7", "6", "8", "6", "7", "3", "3", "2", "2", "1"], "time": [174, 271, 522, 2039, 2972, 3024, 3520, 3637, 4121, 4188, 4221, 4304, 4771, 4870, 5753, 6170]}, "edge": {"target": [], "time": []}}}, "displayed_time": "9.57", "trialTime": 10131, "trial_type": "mouselab-mdp", "trial_index": 70, "time_elapsed": 1252294, "internal_node_id": "0.0-4.0-3.0-24.0"}}, {"uniqueid": "w83936187:a30214718", "current_trial": 71, "dateTime": 1664465164897, "trialdata": {"revealed_states": [], "num_clicks_accrued": [0, 0, 0, 0, 0, 0, 0, 0, 0, 0, 0, 0, 0], "stateRewards": ["", -4, -4, -48, 48, -4, -8, -24, -48, -2, 8, 48, 24], "withholdReward": true, "trial_id": "mdp_365393526663", "block": "test2", "trialIndex": 59, "score": 58.25, "costs": -0.75, "simulationMode": [null, null, null], "rewards": [-2, 8, 48], "path": ["0", "0", "9", "10", "11"], "rt": [3353, 603, 411], "actions": ["left", "left", "up"], "actionTimes": [5047, 6165, 7089], "queries": {"click": {"state": {"target": ["11", "10", "9"], "time": [2506, 3481, 3961]}, "edge": {"target": [], "time": []}}, "mouseover": {"state": {"target": ["11", "9", "9", "10", "9"], "time": [2313, 2778, 3178, 3312, 3895]}, "edge": {"target": [], "time": []}}, "mouseout": {"state": {"target": ["1", "9", "11", "9", "9", "10", "9", "9"], "time": [1178, 1346, 2729, 2828, 3295, 3728, 4178, 9176]}, "edge": {"target": [], "time": []}}}, "displayed_time": "8.70", "trialTime": 9419, "trial_type": "mouselab-mdp", "trial_index": 71, "time_elapsed": 1261771, "internal_node_id": "0.0-4.0-3.0-25.0"}}, {"uniqueid": "w83936187:a30214718", "current_trial": 72, "dateTime": 1664465176489, "trialdata": {"revealed_states": [], "num_clicks_accrued": [0, 0, 0, 0, 0, 0, 0, 0, 0, 0, 0, 0, 0], "stateRewards": ["", -2, 8, 48, 48, 4, -8, -48, 48, 2, -4, -48, 48], "withholdReward": true, "trial_id": "mdp_132958048709", "block": "test2", "trialIndex": 60, "score": 48.25, "costs": -0.75, "simulationMode": [null, null, null], "rewards": [4, -8, 48], "path": ["0", "0", "5", "6", "8"], "rt": [2977, 433, 350], "actions": ["right", "right", "down"], "actionTimes": [3853, 4796, 5667], "queries": {"click": {"state": {"target": ["8", "6", "5"], "time": [1526, 2123, 2554]}, "edge": {"target": [], "time": []}}, "mouseover": {"state": {"target": ["5", "6", "8", "6", "5", "7"], "time": [1228, 1395, 1445, 1828, 2496, 3011]}, "edge": {"target": [], "time": []}}, "mouseout": {"state": {"target": ["0", "5", "6", "8", "6", "5", "7", "7", "6"], "time": [1179, 1278, 1411, 1797, 2396, 2861, 3180, 10925, 11009]}, "edge": {"target": [], "time": []}}}, "displayed_time": "10.88", "trialTime": 11513, "trial_type": "mouselab-mdp", "trial_index": 72, "time_elapsed": 1273362, "internal_node_id": "0.0-4.0-3.0-26.0"}}, {"uniqueid": "w83936187:a30214718", "current_trial": 73, "dateTime": 1664465187247, "trialdata": {"revealed_states": [], "num_clicks_accrued": [0, 0, 0, 0, 0, 0, 0, 0, 0, 0, 0, 0, 0], "stateRewards": ["", 2, 4, -48, -48, 4, 4, -48, -48, -2, -8, 48, -24], "withholdReward": true, "trial_id": "mdp_175327338412", "block": "test2", "trialIndex": 61, "score": 41, "costs": -2, "simulationMode": [null, null, null], "rewards": [-2, -8, 48], "path": ["0", "0", "9", "10", "11"], "rt": [7016, 109, 392], "actions": ["left", "left", "up"], "actionTimes": [7898, 8513, 9414], "queries": {"click": {"state": {"target": ["4", "3", "8", "7", "11", "12", "10", "9"], "time": [1581, 2169, 2828, 3476, 4210, 4670, 5471, 5916]}, "edge": {"target": [], "time": []}}, "mouseover": {"state": {"target": ["4", "2", "3", "6", "8", "6", "7", "11", "10", "12", "10", "9", "10", "9"], "time": [1538, 1839, 1954, 2588, 2737, 3138, 3388, 4123, 4437, 4520, 5052, 5254, 5369, 5805]}, "edge": {"target": [], "time": []}}, "mouseout": {"state": {"target": ["0", "4", "2", "3", "6", "8", "6", "7", "11", "10", "12", "10", "9", "10", "9"], "time": [1138, 1790, 1904, 2387, 2704, 3123, 3271, 3754, 4388, 4490, 4969, 5103, 5307, 5686, 6173]}, "edge": {"target": [], "time": []}}}, "displayed_time": "9.92", "trialTime": 10684, "trial_type": "mouselab-mdp", "trial_index": 73, "time_elapsed": 1284121, "internal_node_id": "0.0-4.0-3.0-27.0"}}, {"uniqueid": "w83936187:a30214718", "current_trial": 74, "dateTime": 1664465204393, "trialdata": {"revealed_states": [], "num_clicks_accrued": [0, 0, 0, 0, 0, 0, 0, 0, 0, 0, 0, 0, 0], "stateRewards": ["", -2, -4, -24, 24, -2, 4, -24, -24, -4, 4, 24, -24], "withholdReward": false, "trial_id": "mdp_999419261719", "block": "test2", "trialIndex": 62, "score": 26, "costs": -3, "simulationMode": [null, null, null], "rewards": [-4, 4, 24], "path": ["0", "0", "9", "10", "11"], "rt": [11758, 206, 1005], "actions": ["left", "left", "up"], "actionTimes": [13047, 13771, 15285], "queries": {"click": {"state": {"target": ["11", "12", "8", "7", "3", "4", "10", "6", "2", "9", "5", "1"], "time": [1940, 2484, 3108, 3820, 4352, 5078, 6285, 7042, 8304, 9679, 10537, 11149]}, "edge": {"target": [], "time": []}}, "mouseover": {"state": {"target": ["9", "11", "10", "12", "8", "6", "7", "3", "2", "4", "4", "2", "1", "9", "10", "9", "0", "5", "6", "5", "1", "2", "1", "0", "0", "9", "5", "1"], "time": [1486, 1568, 2219, 2400, 3018, 3333, 3719, 4100, 4583, 4633, 4934, 5467, 5603, 5949, 6202, 6516, 6582, 6716, 6882, 7350, 7785, 8049, 8549, 9116, 9498, 9548, 10397, 10964]}, "edge": {"target": [], "time": []}}, "mouseout": {"state": {"target": ["0", "5", "6", "5", "9", "11", "10", "12", "8", "6", "7", "3", "2", "4", "4", "2", "1", "9", "10", "9", "0", "5", "6", "5", "1", "2", "1", "0", "0", "9", "5", "1"], "time": [586, 667, 918, 984, 1501, 2134, 2267, 2701, 3300, 3385, 4049, 4566, 4616, 4683, 5336, 5550, 5620, 5999, 6500, 6549, 6633, 6799, 7283, 7565, 8017, 8482, 8782, 9483, 9514, 10180, 10898, 11398]}, "edge": {"target": [], "time": []}}}, "displayed_time": "15.80", "trialTime": 17080, "trial_type": "mouselab-mdp", "trial_index": 74, "time_elapsed": 1301267, "internal_node_id": "0.0-4.0-3.0-28.0"}}, {"uniqueid": "w83936187:a30214718", "current_trial": 75, "dateTime": 1664465215721, "trialdata": {"revealed_states": [], "num_clicks_accrued": [0, 0, 0, 0, 0, 0, 0, 0, 0, 0, 0, 0, 0], "stateRewards": ["", -2, 8, 48, -24, 2, 4, -48, -24, -4, 8, -48, -48], "withholdReward": true, "trial_id": "mdp_539167561933", "block": "test2", "trialIndex": 63, "score": 57, "costs": -2, "simulationMode": [null, null, null], "rewards": [-2, 8, 48], "path": ["0", "0", "1", "2", "3"], "rt": [5481, 509, 582], "actions": ["up", "up", "right"], "actionTimes": [7499, 8513, 9603], "queries": {"click": {"state": {"target": ["4", "11", "12", "8", "7", "3", "2", "1"], "time": [2841, 3360, 3814, 4480, 4883, 5465, 6025, 6394]}, "edge": {"target": [], "time": []}}, "mouseover": {"state": {"target": ["1", "4", "11", "10", "12", "8", "6", "7", "3", "2", "1"], "time": [2338, 2721, 3204, 3570, 3653, 4337, 4653, 4753, 5370, 5807, 6336]}, "edge": {"target": [], "time": []}}, "mouseout": {"state": {"target": ["1", "4", "11", "10", "12", "8", "6", "7", "3", "2", "1", "7"], "time": [2470, 3054, 3520, 3623, 4020, 4619, 4703, 5153, 5769, 6220, 6602, 6820]}, "edge": {"target": [], "time": []}}}, "displayed_time": "10.12", "trialTime": 11267, "trial_type": "mouselab-mdp", "trial_index": 75, "time_elapsed": 1312594, "internal_node_id": "0.0-4.0-3.0-29.0"}}, {"uniqueid": "w83936187:a30214718", "current_trial": 76, "dateTime": 1664465219864, "trialdata": {"rt": 4134, "stimulus": "<h1> End of block! </h1>\n\nYou have reached the end of the block 2/4. If you need a short break, feel free to take one now before moving on.\n\n<br><br>\nIn the next block, you will complete another 30 rounds of this game.\n\n<br><br>\n<div style='text-align: center;'>Press <code>space</code> to begin.</div>\n<br><br>\n<div style='text-align: center;'>(If the experiment doesn't continue, try clicking on the text and then pressing <code>space</code>.)</div>", "response": " ", "trial_id": "mdp_ready_3", "trial_type": "html-keyboard-response", "trial_index": 76, "time_elapsed": 1316738, "internal_node_id": "0.0-4.0-4.0"}}, {"uniqueid": "w83936187:a30214718", "current_trial": 77, "dateTime": 1664465232090, "trialdata": {"revealed_states": [], "num_clicks_accrued": [0, 0, 0, 0, 0, 0, 0, 0, 0, 0, 0, 0, 0], "stateRewards": ["", -4, -8, -48, 48, -2, 8, 48, 48, -2, -4, -48, -48], "withholdReward": true, "trial_id": "mdp_752833580638", "block": "test3", "trialIndex": 64, "score": 57.5, "costs": -1.5, "simulationMode": [null, null, null], "rewards": [-2, 8, 48], "path": ["0", "0", "5", "6", "8"], "rt": [4959, 361, 272], "actions": ["right", "right", "down"], "actionTimes": [6296, 7172, 7950], "queries": {"click": {"state": {"target": ["4", "2", "1", "8", "6", "5"], "time": [2061, 2936, 3363, 4258, 5007, 5326]}, "edge": {"target": [], "time": []}}, "mouseover": {"state": {"target": ["0", "1", "4", "2", "3", "1", "2", "1", "6", "8", "6", "6", "5"], "time": [1483, 1662, 1961, 2296, 2360, 2561, 2829, 3327, 4077, 4164, 4476, 4944, 5260]}, "edge": {"target": [], "time": []}}, "mouseout": {"state": {"target": ["3", "2", "0", "0", "1", "4", "2", "3", "1", "2", "1", "6", "8", "6", "6", "5", "8"], "time": [319, 961, 1261, 1565, 1678, 2263, 2327, 2461, 2611, 3110, 3544, 4127, 4445, 4510, 5177, 5543, 5612]}, "edge": {"target": [], "time": []}}}, "displayed_time": "11.34", "trialTime": 12165, "trial_type": "mouselab-mdp", "trial_index": 77, "time_elapsed": 1328963, "internal_node_id": "0.0-4.0-5.0-0.0"}}, {"uniqueid": "w83936187:a30214718", "current_trial": 78, "dateTime": 1664465247203, "trialdata": {"revealed_states": [], "num_clicks_accrued": [0, 0, 0, 0, 0, 0, 0, 0, 0, 0, 0, 0, 0], "stateRewards": ["", -4, -8, 48, 48, -4, 4, 48, -24, 4, 8, -24, -48], "withholdReward": true, "trial_id": "mdp_142906093415", "block": "test3", "trialIndex": 65, "score": 51.75, "costs": -1.25, "simulationMode": [null, null, null], "rewards": [-4, 4, 48], "path": ["0", "0", "5", "6", "7"], "rt": [9312, 182, 383], "actions": ["right", "right", "up"], "actionTimes": [11547, 12222, 13122], "queries": {"click": {"state": {"target": ["11", "8", "7", "6", "5"], "time": [3808, 6820, 8233, 9243, 9631]}, "edge": {"target": [], "time": []}}, "mouseover": {"state": {"target": ["11", "8", "8", "6", "7", "3", "6", "5", "3"], "time": [3342, 5124, 6358, 7744, 7990, 8857, 9060, 9473, 10589]}, "edge": {"target": [], "time": []}}, "mouseout": {"state": {"target": ["5", "11", "8", "8", "6", "7", "3", "6", "5", "3"], "time": [1575, 5079, 5141, 7690, 7774, 8443, 8890, 9444, 9843, 10824]}, "edge": {"target": [], "time": []}}}, "displayed_time": "13.62", "trialTime": 15047, "trial_type": "mouselab-mdp", "trial_index": 78, "time_elapsed": 1344076, "internal_node_id": "0.0-4.0-5.0-1.0"}}, {"uniqueid": "w83936187:a30214718", "current_trial": 79, "dateTime": 1664465256893, "trialdata": {"revealed_states": [], "num_clicks_accrued": [0, 0, 0, 0, 0, 0, 0, 0, 0, 0, 0, 0, 0], "stateRewards": ["", 2, 4, -48, -48, 2, 4, 48, -24, -2, 8, 48, -48], "withholdReward": true, "trial_id": "mdp_258528916140", "block": "test3", "trialIndex": 66, "score": 58, "costs": -1, "simulationMode": [null, null, null], "rewards": [-2, 8, 48], "path": ["0", "0", "9", "10", "11"], "rt": [4457, 101, 187], "actions": ["left", "left", "up"], "actionTimes": [5395, 6012, 6715], "queries": {"click": {"state": {"target": ["12", "11", "10", "9"], "time": [1505, 1972, 4066, 4485]}, "edge": {"target": [], "time": []}}, "mouseover": {"state": {"target": ["9", "12", "10", "11", "4", "10", "9"], "time": [1194, 1328, 1781, 1828, 2295, 3861, 4394]}, "edge": {"target": [], "time": []}}, "mouseout": {"state": {"target": ["7", "9", "10", "9", "9", "12", "10", "11", "4", "10", "9"], "time": [230, 311, 411, 697, 1228, 1745, 1811, 2227, 3561, 4244, 9232]}, "edge": {"target": [], "time": []}}}, "displayed_time": "8.94", "trialTime": 9628, "trial_type": "mouselab-mdp", "trial_index": 79, "time_elapsed": 1353767, "internal_node_id": "0.0-4.0-5.0-2.0"}}, {"uniqueid": "w83936187:a30214718", "current_trial": 80, "dateTime": 1664465268434, "trialdata": {"revealed_states": [], "num_clicks_accrued": [0, 0, 0, 0, 0, 0, 0, 0, 0, 0, 0, 0, 0], "stateRewards": ["", 4, 4, 48, -48, 4, 4, -48, 24, 2, 8, 24, -48], "withholdReward": true, "trial_id": "mdp_291674656283", "block": "test3", "trialIndex": 67, "score": 60.25, "costs": -0.75, "simulationMode": [null, null, null], "rewards": [4, 4, 48], "path": ["0", "0", "1", "2", "3"], "rt": [3736, 553, 270], "actions": ["up", "up", "right"], "actionTimes": [4690, 5736, 6518], "queries": {"click": {"state": {"target": ["3", "2", "1"], "time": [2257, 3034, 3636]}, "edge": {"target": [], "time": []}}, "mouseover": {"state": {"target": ["1", "2", "3", "2", "1"], "time": [1216, 1300, 1998, 2885, 3399]}, "edge": {"target": [], "time": []}}, "mouseout": {"state": {"target": ["5", "0", "1", "2", "3", "2", "1"], "time": [515, 599, 1249, 1983, 2515, 3366, 3967]}, "edge": {"target": [], "time": []}}}, "displayed_time": "10.96", "trialTime": 11460, "trial_type": "mouselab-mdp", "trial_index": 80, "time_elapsed": 1365308, "internal_node_id": "0.0-4.0-5.0-3.0"}}, {"uniqueid": "w83936187:a30214718", "current_trial": 81, "dateTime": 1664465280986, "trialdata": {"revealed_states": [], "num_clicks_accrued": [0, 0, 0, 0, 0, 0, 0, 0, 0, 0, 0, 0, 0], "stateRewards": ["", 4, 4, -24, -48, -4, 4, -48, 24, 4, -8, -48, 48], "withholdReward": true, "trial_id": "mdp_566768794366", "block": "test3", "trialIndex": 68, "score": 47, "costs": -2, "simulationMode": [null, null, null], "rewards": [4, -8, 48], "path": ["0", "0", "9", "10", "12"], "rt": [6262, 311, 402], "actions": ["left", "left", "down"], "actionTimes": [9599, 10427, 11336], "queries": {"click": {"state": {"target": ["3", "4", "8", "7", "11", "12", "9", "10"], "time": [4058, 4694, 5508, 6086, 6893, 7264, 8047, 8399]}, "edge": {"target": [], "time": []}}, "mouseover": {"state": {"target": ["1", "3", "2", "4", "2", "6", "8", "6", "7", "9", "11", "10", "12", "9", "10"], "time": [3634, 3951, 4318, 4634, 4984, 5318, 5367, 5766, 5985, 6500, 6783, 7066, 7166, 7966, 8299]}, "edge": {"target": [], "time": []}}, "mouseout": {"state": {"target": ["2", "1", "0", "1", "3", "2", "4", "2", "6", "8", "6", "7", "9", "11", "10", "12", "9", "10"], "time": [3001, 3084, 3569, 3668, 4234, 4467, 4950, 5001, 5334, 5733, 5833, 6317, 6600, 7049, 7117, 7520, 8266, 8600]}, "edge": {"target": [], "time": []}}}, "displayed_time": "11.85", "trialTime": 12485, "trial_type": "mouselab-mdp", "trial_index": 81, "time_elapsed": 1377860, "internal_node_id": "0.0-4.0-5.0-4.0"}}, {"uniqueid": "w83936187:a30214718", "current_trial": 82, "dateTime": 1664465291131, "trialdata": {"revealed_states": [], "num_clicks_accrued": [0, 0, 0, 0, 0, 0, 0, 0, 0, 0, 0, 0, 0], "stateRewards": ["", 2, 8, 48, 24, 2, 8, 48, 48, -2, -4, -24, -48], "withholdReward": true, "trial_id": "mdp_717636349175", "block": "test3", "trialIndex": 69, "score": 61.5, "costs": -1.5, "simulationMode": [null, null, null], "rewards": [2, 8, 48], "path": ["0", "0", "5", "6", "8"], "rt": [5509, 257, 312], "actions": ["right", "right", "down"], "actionTimes": [6987, 7757, 8578], "queries": {"click": {"state": {"target": ["12", "11", "7", "8", "5", "6"], "time": [28