{"condition": 1, "counterbalance": 0, "assignmentId": "a95641781", "workerId": "w21672845", "hitId": "h12021657", "currenttrial": 143, "bonus": 0, "data": [{"uniqueid": "w21672845:a95641781", "current_trial": 0, "dateTime": 1664554922795, "trialdata": {"success": true, "trial_type": "fullscreen", "trial_index": 0, "time_elapsed": 2807, "internal_node_id": "0.0-0.0"}}, {"uniqueid": "w21672845:a95641781", "current_trial": 1, "dateTime": 1664554940492, "trialdata": {"view_history": [{"page_index": 0, "viewing_time": 17689}], "rt": 17690, "trial_id": "exp_instructions_no_distractor", "trial_type": "instructions", "trial_index": 1, "time_elapsed": 20504, "internal_node_id": "0.0-1.0"}}, {"uniqueid": "w21672845:a95641781", "current_trial": 2, "dateTime": 1664554943980, "trialdata": {"success": true, "trial_type": "fullscreen", "trial_index": 2, "time_elapsed": 23992, "internal_node_id": "0.0-2.0-0.0"}}, {"uniqueid": "w21672845:a95641781", "current_trial": 3, "dateTime": 1664555043962, "trialdata": {"view_history": [{"page_index": 0, "viewing_time": 35572}, {"page_index": 1, "viewing_time": 31384}, {"page_index": 2, "viewing_time": 8568}, {"page_index": 3, "viewing_time": 6428}, {"page_index": 4, "viewing_time": 18028}], "rt": 99980, "trial_id": "mouselab_instructions_1", "trial_type": "instructions", "trial_index": 3, "time_elapsed": 123974, "internal_node_id": "0.0-2.0-1.0"}}, {"uniqueid": "w21672845:a95641781", "current_trial": 4, "dateTime": 1664555076826, "trialdata": {"revealed_states": [], "num_clicks_accrued": [0, 0, 0, 0, 0, 0, 0, 0, 0, 0, 0, 0, 0], "stateRewards": ["", -10, -10, 10, 10, -10, 10, -10, 10, 10, 10, 10, -10], "withholdReward": false, "trial_id": "practice_1", "block": "test", "trialIndex": 0, "score": 30.75, "costs": -1.25, "simulationMode": [null, null, null], "rewards": [10, 10, 10], "path": ["0", "0", "9", "10", "11"], "rt": [19181, 941, 508], "actions": ["left", "left", "up"], "actionTimes": [23062, 24538, 25571], "queries": {"click": {"state": {"target": ["5", "9", "10", "12", "11"], "time": [6348, 10584, 12828, 14128, 17976]}, "edge": {"target": [], "time": []}}, "mouseover": {"state": {"target": ["0", "5", "0", "9", "10", "12", "0", "6", "11", "11"], "time": [3957, 6069, 10167, 10367, 12632, 13916, 16614, 17014, 17547, 17813]}, "edge": {"target": [], "time": []}}, "mouseout": {"state": {"target": ["5", "5", "0", "0", "5", "5", "0", "9", "9", "10", "12", "0", "5", "6", "5", "11", "11", "9"], "time": [155, 1637, 2836, 3988, 6518, 10133, 10250, 10766, 12533, 12999, 14299, 16633, 16914, 17399, 17464, 17613, 18130, 21662]}, "edge": {"target": [], "time": []}}}, "displayed_time": "26.10", "trialTime": 32602, "trial_type": "mouselab-mdp", "trial_index": 4, "time_elapsed": 156837, "internal_node_id": "0.0-2.0-2.0-0.0"}}, {"uniqueid": "w21672845:a95641781", "current_trial": 5, "dateTime": 1664555088924, "trialdata": {"revealed_states": [], "num_clicks_accrued": [0, 0, 0, 0, 0, 0, 0, 0, 0, 0, 0, 0, 0], "stateRewards": ["", 10, -10, -10, 10, 10, 10, -10, -10, 10, 10, -10, 10], "withholdReward": false, "trial_id": "practice_2", "block": "test", "trialIndex": 1, "score": -8, "costs": 0, "simulationMode": [null, null, null], "rewards": [10, -10, -10], "path": ["0", "0", "1", "2", "3"], "rt": [2317, 3118, 237], "actions": ["up", "up", "right"], "actionTimes": [4147, 7794, 8563], "queries": {"click": {"state": {"target": [], "time": []}, "edge": {"target": [], "time": []}}, "mouseover": {"state": {"target": ["1"], "time": [2711]}, "edge": {"target": [], "time": []}}, "mouseout": {"state": {"target": ["0"], "time": [2292]}, "edge": {"target": [], "time": []}}}, "displayed_time": "9.09", "trialTime": 12004, "trial_type": "mouselab-mdp", "trial_index": 5, "time_elapsed": 168936, "internal_node_id": "0.0-2.0-2.0-1.0"}}, {"uniqueid": "w21672845:a95641781", "current_trial": 6, "dateTime": 1664555141726, "trialdata": {"view_history": [{"page_index": 0, "viewing_time": 32534}, {"page_index": 1, "viewing_time": 11388}, {"page_index": 2, "viewing_time": 8876}], "rt": 52799, "trial_id": "mouselab_instructions_2_scarce", "trial_type": "instructions", "trial_index": 6, "time_elapsed": 221738, "internal_node_id": "0.0-2.0-3.0"}}, {"uniqueid": "w21672845:a95641781", "current_trial": 7, "dateTime": 1664555173103, "trialdata": {"rt": 31371, "response": {"Q0": "$-10 to $10", "Q1": "The cost is always $0.25.", "Q2": "The better I perform the higher my bonus will be.", "Q3": "No, the amount of cash at each node of the web may be different each time.", "Q4": "The values of the nodes walked through from start to finish.", "Q5": "No, the spider might forget to count the money on some rounds."}, "question_order": [0, 1, 2, 3, 4, 5], "correct": {"Q0": "$-48 to $48", "Q1": "The cost is always $0.25.", "Q2": "The better I perform the higher my bonus will be.", "Q3": "No, the amount of cash at each node of the web may be different each time.", "Q4": "The values of the nodes walked through from start to finish.", "Q5": "No, the spider might forget to count the money on some rounds."}, "trial_id": "mouselab_quiz_scarce", "trial_type": "survey-multi-choice", "trial_index": 7, "time_elapsed": 253115, "internal_node_id": "0.0-2.0-4.0"}}, {"uniqueid": "w21672845:a95641781", "current_trial": 8, "dateTime": 1664555178479, "trialdata": {"success": true, "trial_type": "fullscreen", "trial_index": 8, "time_elapsed": 258490, "internal_node_id": "0.0-2.1-0.1"}}, {"uniqueid": "w21672845:a95641781", "current_trial": 9, "dateTime": 1664555237202, "trialdata": {"view_history": [{"page_index": 0, "viewing_time": 31001}, {"page_index": 1, "viewing_time": 14256}, {"page_index": 2, "viewing_time": 3472}, {"page_index": 3, "viewing_time": 4352}, {"page_index": 4, "viewing_time": 5640}], "rt": 58721, "trial_id": "mouselab_instructions_1", "trial_type": "instructions", "trial_index": 9, "time_elapsed": 317214, "internal_node_id": "0.0-2.1-1.1"}}, {"uniqueid": "w21672845:a95641781", "current_trial": 10, "dateTime": 1664555250654, "trialdata": {"revealed_states": [], "num_clicks_accrued": [0, 0, 0, 0, 0, 0, 0, 0, 0, 0, 0, 0, 0], "stateRewards": ["", -10, -10, 10, 10, -10, 10, -10, 10, 10, 10, 10, -10], "withholdReward": false, "trial_id": "practice_1", "block": "test", "trialIndex": 2, "score": 30.75, "costs": -1.25, "simulationMode": [null, null, null], "rewards": [10, 10, 10], "path": ["0", "0", "9", "10", "11"], "rt": [8224, 341, 107], "actions": ["left", "left", "up"], "actionTimes": [9654, 10527, 11158], "queries": {"click": {"state": {"target": ["5", "9", "10", "12", "11"], "time": [2338, 3889, 6090, 6730, 8586]}, "edge": {"target": [], "time": []}}, "mouseover": {"state": {"target": ["5", "0", "9", "10", "12", "11"], "time": [1838, 3204, 3554, 4787, 6686, 8435]}, "edge": {"target": [], "time": []}}, "mouseout": {"state": {"target": ["0", "5", "0", "9", "10", "12", "11"], "time": [1688, 3055, 3371, 4488, 6553, 6886, 8771]}, "edge": {"target": [], "time": []}}}, "displayed_time": "11.68", "trialTime": 13352, "trial_type": "mouselab-mdp", "trial_index": 10, "time_elapsed": 330665, "internal_node_id": "0.0-2.1-2.1-0.1"}}, {"uniqueid": "w21672845:a95641781", "current_trial": 11, "dateTime": 1664555262822, "trialdata": {"revealed_states": [], "num_clicks_accrued": [0, 0, 0, 0, 0, 0, 0, 0, 0, 0, 0, 0, 0], "stateRewards": ["", 10, -10, -10, 10, 10, 10, -10, -10, 10, 10, -10, 10], "withholdReward": false, "trial_id": "practice_2", "block": "test", "trialIndex": 3, "score": 30.25, "costs": -1.75, "simulationMode": [null, null, null], "rewards": [10, 10, 10], "path": ["0", "0", "9", "10", "12"], "rt": [6573, 175, 206], "actions": ["left", "left", "down"], "actionTimes": [8221, 8917, 9647], "queries": {"click": {"state": {"target": ["1", "2", "3", "9", "10", "11", "12"], "time": [2277, 2957, 3524, 4637, 5548, 6277, 6949]}, "edge": {"target": [], "time": []}}, "mouseover": {"state": {"target": ["1", "2", "3", "9", "0", "5", "0", "10", "11", "12", "0"], "time": [2045, 2861, 3411, 4560, 4877, 4977, 5293, 5460, 6226, 6843, 7276]}, "edge": {"target": [], "time": []}}, "mouseout": {"state": {"target": ["9", "1", "2", "2", "3", "1", "9", "0", "5", "0", "9", "10", "10", "11", "10", "12", "0", "0"], "time": [1378, 2778, 3244, 3344, 3794, 4177, 4827, 4927, 5177, 5360, 5410, 5726, 6193, 6459, 6526, 7126, 7309, 10908]}, "edge": {"target": [], "time": []}}}, "displayed_time": "10.18", "trialTime": 12084, "trial_type": "mouselab-mdp", "trial_index": 11, "time_elapsed": 342834, "internal_node_id": "0.0-2.1-2.1-1.1"}}, {"uniqueid": "w21672845:a95641781", "current_trial": 12, "dateTime": 1664555295397, "trialdata": {"view_history": [{"page_index": 0, "viewing_time": 28461}, {"page_index": 1, "viewing_time": 2684}, {"page_index": 2, "viewing_time": 1428}], "rt": 32573, "trial_id": "mouselab_instructions_2_scarce", "trial_type": "instructions", "trial_index": 12, "time_elapsed": 375409, "internal_node_id": "0.0-2.1-3.1"}}, {"uniqueid": "w21672845:a95641781", "current_trial": 13, "dateTime": 1664555337659, "trialdata": {"rt": 42257, "response": {"Q0": "$-48 to $48", "Q1": "The cost is always $0.25.", "Q2": "The better I perform the higher my bonus will be.", "Q3": "No, the amount of cash at each node of the web may be different each time.", "Q4": "The values of the nodes walked through from start to finish.", "Q5": "No, the spider might forget to count the money on some rounds."}, "question_order": [0, 1, 2, 3, 4, 5], "correct": {"Q0": "$-48 to $48", "Q1": "The cost is always $0.25.", "Q2": "The better I perform the higher my bonus will be.", "Q3": "No, the amount of cash at each node of the web may be different each time.", "Q4": "The values of the nodes walked through from start to finish.", "Q5": "No, the spider might forget to count the money on some rounds."}, "trial_id": "mouselab_quiz_scarce", "trial_type": "survey-multi-choice", "trial_index": 13, "time_elapsed": 417671, "internal_node_id": "0.0-2.1-4.1"}}, {"uniqueid": "w21672845:a95641781", "current_trial": 14, "dateTime": 1664555352617, "trialdata": {"rt": 14948, "stimulus": "\n<h1> Get ready to start the game! </h1>\n\nThank you for reading the instructions. Get ready start with the first of 4 block(s) of this game.\n<br><br>\nIn this first block, you will complete 30 rounds of this game before moving on.\n<br><br>\nRemember, the more money the spider gets, the bigger your bonus will be!\n<br><br>\n<div style='text-align: center;'>Press <code>space</code> to begin.</div>\n\n<br><br>\n(If, at any point, the <code>space</code> key does not take you to the next page, click once on the text and try again.)", "response": " ", "trial_id": "mdp_ready_1", "trial_type": "html-keyboard-response", "trial_index": 14, "time_elapsed": 432629, "internal_node_id": "0.0-4.0-0.0"}}, {"uniqueid": "w21672845:a95641781", "current_trial": 15, "dateTime": 1664555366741, "trialdata": {"revealed_states": [], "num_clicks_accrued": [0, 0, 0, 0, 0, 0, 0, 0, 0, 0, 0, 0, 0], "stateRewards": ["", 4, 4, 48, -24, 2, -4, 48, 24, -4, -4, -48, 24], "withholdReward": true, "trial_id": "mdp_496003763005", "block": "test1", "trialIndex": 4, "score": 60, "costs": -1, "simulationMode": [null, null, null], "rewards": [4, 4, 48], "path": ["0", "0", "1", "2", "3"], "rt": [7081, 134, 79], "actions": ["up", "up", "right"], "actionTimes": [9311, 9972, 10584], "queries": {"click": {"state": {"target": ["9", "1", "2", "3"], "time": [4192, 5784, 7240, 7975]}, "edge": {"target": [], "time": []}}, "mouseover": {"state": {"target": ["0", "0", "9", "0", "1", "5", "2", "3"], "time": [2293, 3758, 4041, 4708, 5557, 6240, 6891, 7856]}, "edge": {"target": [], "time": []}}, "mouseout": {"state": {"target": ["0", "0", "0", "9", "0", "1", "5", "1", "2", "2", "3"], "time": [1109, 2409, 3893, 4558, 4808, 6057, 6558, 6840, 7673, 7790, 8172]}, "edge": {"target": [], "time": []}}}, "displayed_time": "11.11", "trialTime": 14029, "trial_type": "mouselab-mdp", "trial_index": 15, "time_elapsed": 446753, "internal_node_id": "0.0-4.0-1.0-0.0"}}, {"uniqueid": "w21672845:a95641781", "current_trial": 16, "dateTime": 1664555379430, "trialdata": {"revealed_states": [], "num_clicks_accrued": [0, 0, 0, 0, 0, 0, 0, 0, 0, 0, 0, 0, 0], "stateRewards": ["", 2, 4, 48, 24, -4, 8, 48, 48, 2, -4, -48, -24], "withholdReward": true, "trial_id": "mdp_822099887466", "block": "test1", "trialIndex": 5, "score": 33.5, "costs": -1.5, "simulationMode": [null, null, null], "rewards": [2, 4, 24], "path": ["0", "0", "1", "2", "4"], "rt": [6300, 217, 213], "actions": ["up", "up", "left"], "actionTimes": [7839, 8577, 9323], "queries": {"click": {"state": {"target": ["5", "9", "1", "10", "2", "4"], "time": [2245, 3092, 3788, 4636, 5532, 6389]}, "edge": {"target": [], "time": []}}, "mouseover": {"state": {"target": ["5", "0", "9", "1", "10", "2", "4"], "time": [2079, 2729, 2945, 3562, 4378, 5361, 6277]}, "edge": {"target": [], "time": []}}, "mouseout": {"state": {"target": ["0", "0", "5", "0", "9", "1", "9", "10", "9", "2", "1", "2", "4", "1"], "time": [1029, 2013, 2596, 2862, 3445, 4028, 4295, 4878, 5128, 5727, 5994, 6244, 6644, 6860]}, "edge": {"target": [], "time": []}}}, "displayed_time": "9.84", "trialTime": 12596, "trial_type": "mouselab-mdp", "trial_index": 16, "time_elapsed": 459442, "internal_node_id": "0.0-4.0-1.0-1.0"}}, {"uniqueid": "w21672845:a95641781", "current_trial": 17, "dateTime": 1664555394874, "trialdata": {"revealed_states": [], "num_clicks_accrued": [0, 0, 0, 0, 0, 0, 0, 0, 0, 0, 0, 0, 0], "stateRewards": ["", -4, 4, -24, 48, -2, 8, -48, 24, 2, 4, 48, -48], "withholdReward": true, "trial_id": "mdp_366632183904", "block": "test1", "trialIndex": 6, "score": 57.5, "costs": -1.5, "simulationMode": [null, null, null], "rewards": [2, 4, 48], "path": ["0", "0", "9", "10", "11"], "rt": [5163, 216, 215], "actions": ["left", "left", "up"], "actionTimes": [6686, 7434, 8183], "queries": {"click": {"state": {"target": ["1", "9", "5", "10", "12", "11"], "time": [2337, 3269, 3665, 4361, 4857, 5587]}, "edge": {"target": [], "time": []}}, "mouseover": {"state": {"target": ["1", "9", "0", "5", "10", "12", "11"], "time": [2003, 3036, 3469, 3569, 4335, 4785, 5518]}, "edge": {"target": [], "time": []}}, "mouseout": {"state": {"target": ["0", "0", "0", "1", "9", "0", "5", "9", "10", "12", "10", "11", "9"], "time": [770, 920, 1903, 2669, 3403, 3536, 4002, 4169, 4704, 5152, 5451, 5735, 5935]}, "edge": {"target": [], "time": []}}}, "displayed_time": "10.52", "trialTime": 15353, "trial_type": "mouselab-mdp", "trial_index": 17, "time_elapsed": 474886, "internal_node_id": "0.0-4.0-1.0-2.0"}}, {"uniqueid": "w21672845:a95641781", "current_trial": 18, "dateTime": 1664555412976, "trialdata": {"revealed_states": [], "num_clicks_accrued": [0, 0, 0, 0, 0, 0, 0, 0, 0, 0, 0, 0, 0], "stateRewards": ["", -2, 4, 48, -24, 2, 8, 24, 48, 2, 4, -24, -48], "withholdReward": true, "trial_id": "mdp_892412058587", "block": "test1", "trialIndex": 7, "score": 38.25, "costs": -0.75, "simulationMode": [null, null, null], "rewards": [2, 8, 24], "path": ["0", "0", "5", "6", "7"], "rt": [2801, 31, 108], "actions": ["right", "right", "up"], "actionTimes": [5776, 6331, 6958], "queries": {"click": {"state": {"target": ["5", "6", "7"], "time": [3445, 4148, 4701]}, "edge": {"target": [], "time": []}}, "mouseover": {"state": {"target": ["0", "5", "6", "7"], "time": [3151, 3417, 4017, 4617]}, "edge": {"target": [], "time": []}}, "mouseout": {"state": {"target": ["0", "0", "5", "5", "6", "7", "6", "8"], "time": [2817, 3300, 3684, 3983, 4567, 4850, 15662, 16795]}, "edge": {"target": [], "time": []}}}, "displayed_time": "11.98", "trialTime": 18009, "trial_type": "mouselab-mdp", "trial_index": 18, "time_elapsed": 492988, "internal_node_id": "0.0-4.0-1.0-3.0"}}, {"uniqueid": "w21672845:a95641781", "current_trial": 19, "dateTime": 1664555433035, "trialdata": {"revealed_states": [], "num_clicks_accrued": [0, 0, 0, 0, 0, 0, 0, 0, 0, 0, 0, 0, 0], "stateRewards": ["", 4, -8, 48, -24, -4, 4, 24, 24, -2, -4, 24, 24], "withholdReward": false, "trial_id": "mdp_542168715839", "block": "test1", "trialIndex": 8, "score": 27, "costs": -2, "simulationMode": [null, null, null], "rewards": [-4, 4, 24], "path": ["0", "0", "5", "6", "8"], "rt": [13837, 62, 403], "actions": ["right", "right", "down"], "actionTimes": [15471, 16066, 16990], "queries": {"click": {"state": {"target": ["1", "2", "9", "5", "10", "12", "6", "8"], "time": [2800, 3768, 5056, 5521, 7704, 9021, 10848, 11340]}, "edge": {"target": [], "time": []}}, "mouseover": {"state": {"target": ["1", "2", "1", "9", "2", "9", "9", "0", "5", "0", "10", "11", "12", "6", "8"], "time": [2077, 2210, 2693, 3310, 3659, 4526, 4909, 5425, 5492, 6325, 7424, 8158, 8757, 10273, 11206]}, "edge": {"target": [], "time": []}}, "mouseout": {"state": {"target": ["1", "2", "1", "9", "2", "1", "9", "9", "0", "5", "0", "9", "10", "11", "10", "12", "6"], "time": [2160, 2643, 3060, 3526, 4343, 4426, 4626, 5392, 5459, 6208, 6425, 7241, 8108, 8641, 8707, 9240, 11106]}, "edge": {"target": [], "time": []}}}, "displayed_time": "17.52", "trialTime": 19953, "trial_type": "mouselab-mdp", "trial_index": 19, "time_elapsed": 513047, "internal_node_id": "0.0-4.0-1.0-4.0"}}, {"uniqueid": "w21672845:a95641781", "current_trial": 20, "dateTime": 1664555443654, "trialdata": {"revealed_states": [], "num_clicks_accrued": [0, 0, 0, 0, 0, 0, 0, 0, 0, 0, 0, 0, 0], "stateRewards": ["", -2, 8, 48, 48, 4, -8, -48, 48, 2, -4, -48, 48], "withholdReward": true, "trial_id": "mdp_132958048709", "block": "test1", "trialIndex": 9, "score": 49.5, "costs": -1.5, "simulationMode": [null, null, null], "rewards": [2, -4, 48], "path": ["0", "0", "9", "10", "12"], "rt": [5355, 135, 153], "actions": ["left", "left", "down"], "actionTimes": [6644, 7306, 7990], "queries": {"click": {"state": {"target": ["1", "5", "9", "6", "10", "12"], "time": [2167, 2567, 2998, 3519, 4678, 5182]}, "edge": {"target": [], "time": []}}, "mouseover": {"state": {"target": ["5", "1", "5", "0", "9", "0", "6", "8", "10", "12"], "time": [1589, 2055, 2438, 2805, 2888, 3271, 3405, 4104, 4604, 5054]}, "edge": {"target": [], "time": []}}, "mouseout": {"state": {"target": ["8", "0", "5", "1", "5", "0", "9", "0", "5", "6", "5", "8", "9", "10", "12", "9"], "time": [872, 1439, 1789, 2338, 2757, 2855, 3221, 3321, 3388, 3871, 4021, 4287, 4437, 4853, 5387, 5755]}, "edge": {"target": [], "time": []}}}, "displayed_time": "9.29", "trialTime": 10525, "trial_type": "mouselab-mdp", "trial_index": 20, "time_elapsed": 523666, "internal_node_id": "0.0-4.0-1.0-5.0"}}, {"uniqueid": "w21672845:a95641781", "current_trial": 21, "dateTime": 1664555456107, "trialdata": {"revealed_states": [], "num_clicks_accrued": [0, 0, 0, 0, 0, 0, 0, 0, 0, 0, 0, 0, 0], "stateRewards": ["", -4, 4, -24, 24, 2, 4, -24, 48, -4, 8, -48, 48], "withholdReward": false, "trial_id": "mdp_422109108860", "block": "test1", "trialIndex": 10, "score": 57.75, "costs": -1.25, "simulationMode": [null, null, null], "rewards": [2, 4, 48], "path": ["0", "0", "5", "6", "8"], "rt": [4978, 68, 128], "actions": ["right", "right", "down"], "actionTimes": [6307, 6894, 7554], "queries": {"click": {"state": {"target": ["5", "9", "1", "6", "8"], "time": [2215, 2791, 3287, 4783, 5175]}, "edge": {"target": [], "time": []}}, "mouseover": {"state": {"target": ["5", "9", "1", "0", "6", "8"], "time": [2127, 2627, 3194, 4110, 4710, 5009]}, "edge": {"target": [], "time": []}}, "mouseout": {"state": {"target": ["9", "0", "5", "9", "1", "9", "9", "0", "5", "6", "8", "6"], "time": [1161, 1628, 2461, 3127, 3577, 3893, 4093, 4144, 4177, 4926, 5361, 5709]}, "edge": {"target": [], "time": []}}}, "displayed_time": "10.33", "trialTime": 12355, "trial_type": "mouselab-mdp", "trial_index": 21, "time_elapsed": 536119, "internal_node_id": "0.0-4.0-1.0-6.0"}}, {"uniqueid": "w21672845:a95641781", "current_trial": 22, "dateTime": 1664555473723, "trialdata": {"revealed_states": [], "num_clicks_accrued": [0, 0, 0, 0, 0, 0, 0, 0, 0, 0, 0, 0, 0], "stateRewards": ["", 2, -8, -24, 48, -4, -8, 24, -48, 4, -8, -24, -24], "withholdReward": true, "trial_id": "mdp_928911266656", "block": "test1", "trialIndex": 11, "score": 45, "costs": -2, "simulationMode": [null, null, null], "rewards": [2, -8, 48], "path": ["0", "0", "1", "2", "4"], "rt": [8922, 87, 100], "actions": ["up", "up", "left"], "actionTimes": [12840, 13452, 14081], "queries": {"click": {"state": {"target": ["1", "2", "9", "5", "10", "12", "11", "4"], "time": [4668, 5379, 6331, 6791, 7419, 9496, 10165, 10811]}, "edge": {"target": [], "time": []}}, "mouseover": {"state": {"target": ["0", "1", "2", "9", "0", "5", "0", "10", "12", "11", "4", "12", "11", "4", "3"], "time": [4269, 4519, 5285, 6251, 6635, 6684, 7134, 7251, 7868, 8134, 9050, 9466, 10033, 10583, 11149]}, "edge": {"target": [], "time": []}}, "mouseout": {"state": {"target": ["0", "0", "1", "1", "2", "1", "9", "0", "5", "0", "9", "10", "12", "10", "11", "4", "10", "12", "11", "4", "2", "3"], "time": [4052, 4335, 4852, 5235, 5818, 5951, 6601, 6668, 7101, 7167, 7234, 7767, 7984, 8067, 8667, 9150, 9283, 9735, 10349, 10999, 11116, 11649]}, "edge": {"target": [], "time": []}}}, "displayed_time": "14.62", "trialTime": 17520, "trial_type": "mouselab-mdp", "trial_index": 22, "time_elapsed": 553735, "internal_node_id": "0.0-4.0-1.0-7.0"}}, {"uniqueid": "w21672845:a95641781", "current_trial": 23, "dateTime": 1664555487133, "trialdata": {"revealed_states": [], "num_clicks_accrued": [0, 0, 0, 0, 0, 0, 0, 0, 0, 0, 0, 0, 0], "stateRewards": ["", 4, -4, 48, 24, 2, -8, 24, -48, -2, -4, -48, -48], "withholdReward": true, "trial_id": "mdp_655302318695", "block": "test1", "trialIndex": 12, "score": 50, "costs": -3, "simulationMode": [null, null, null], "rewards": [4, -4, 48], "path": ["0", "0", "1", "2", "3"], "rt": [8482, 145, 236], "actions": ["up", "up", "right"], "actionTimes": [9817, 10485, 11244], "queries": {"click": {"state": {"target": ["5", "6", "8", "7", "9", "10", "11", "12", "2", "4", "1", "3"], "time": [2125, 2790, 3262, 3901, 4893, 5341, 5901, 6357, 6917, 7589, 7893, 8237]}, "edge": {"target": [], "time": []}}, "mouseover": {"state": {"target": ["5", "5", "6", "8", "7", "0", "0", "9", "10", "11", "12", "1", "2", "4", "1", "3"], "time": [1578, 2027, 2743, 3160, 3810, 4260, 4626, 4809, 5175, 5758, 6292, 6725, 6841, 7491, 7807, 8141]}, "edge": {"target": [], "time": []}}, "mouseout": {"state": {"target": ["1", "0", "5", "5", "6", "8", "6", "7", "5", "0", "0", "9", "10", "11", "10", "12", "9", "1", "2", "4", "1", "3"], "time": [1028, 1495, 1794, 2677, 3093, 3510, 3710, 4043, 4226, 4293, 4709, 5059, 5542, 6092, 6208, 6526, 6641, 6775, 7208, 7725, 8042, 8391]}, "edge": {"target": [], "time": []}}}, "displayed_time": "11.77", "trialTime": 13311, "trial_type": "mouselab-mdp", "trial_index": 23, "time_elapsed": 567145, "internal_node_id": "0.0-4.0-1.0-8.0"}}, {"uniqueid": "w21672845:a95641781", "current_trial": 24, "dateTime": 1664555500018, "trialdata": {"revealed_states": [], "num_clicks_accrued": [0, 0, 0, 0, 0, 0, 0, 0, 0, 0, 0, 0, 0], "stateRewards": ["", -2, 8, -48, 48, -4, -8, 24, 24, -2, -4, 48, -48], "withholdReward": true, "trial_id": "mdp_867247318592", "block": "test1", "trialIndex": 13, "score": 56.75, "costs": -2.25, "simulationMode": [null, null, null], "rewards": [-2, 8, 48], "path": ["0", "0", "1", "2", "4"], "rt": [6719, 115, 96], "actions": ["up", "up", "left"], "actionTimes": [8325, 8972, 9587], "queries": {"click": {"state": {"target": ["5", "9", "1", "10", "6", "7", "8", "2", "4"], "time": [2315, 2970, 3338, 4258, 4866, 5330, 5835, 6690, 7066]}, "edge": {"target": [], "time": []}}, "mouseover": {"state": {"target": ["5", "5", "9", "1", "0", "10", "0", "6", "7", "8", "2", "4"], "time": [1810, 2143, 2909, 3259, 3909, 4159, 4642, 4742, 5225, 5675, 6558, 6991]}, "edge": {"target": [], "time": []}}, "mouseout": {"state": {"target": ["5", "0", "5", "5", "9", "1", "0", "9", "10", "9", "0", "5", "6", "7", "6", "8", "5", "1", "2", "4", "2", "1", "0"], "time": [1027, 1777, 1843, 2693, 3126, 3542, 4059, 4125, 4492, 4608, 4658, 4708, 5192, 5508, 5608, 6208, 6374, 6491, 6943, 7274, 7557, 12089, 12122]}, "edge": {"target": [], "time": []}}}, "displayed_time": "10.61", "trialTime": 12785, "trial_type": "mouselab-mdp", "trial_index": 24, "time_elapsed": 580029, "internal_node_id": "0.0-4.0-1.0-9.0"}}, {"uniqueid": "w21672845:a95641781", "current_trial": 25, "dateTime": 1664555514945, "trialdata": {"revealed_states": [], "num_clicks_accrued": [0, 0, 0, 0, 0, 0, 0, 0, 0, 0, 0, 0, 0], "stateRewards": ["", -2, 8, -24, 24, -4, -8, -24, 48, -2, -8, -48, 48], "withholdReward": true, "trial_id": "mdp_238332601315", "block": "test1", "trialIndex": 14, "score": 40.5, "costs": -2.5, "simulationMode": [null, null, null], "rewards": [-2, -8, 48], "path": ["0", "0", "9", "10", "12"], "rt": [9655, 63, 160], "actions": ["left", "left", "down"], "actionTimes": [10933, 11533, 12230], "queries": {"click": {"state": {"target": ["5", "9", "1", "2", "6", "7", "3", "4", "12", "10"], "time": [3318, 4502, 4886, 5350, 5927, 6406, 7126, 7886, 8447, 10186]}, "edge": {"target": [], "time": []}}, "mouseover": {"state": {"target": ["0", "5", "0", "9", "1", "2", "6", "7", "3", "3", "4", "10", "12", "10"], "time": [1887, 3056, 3986, 4286, 4719, 5252, 5752, 6318, 6669, 7084, 7767, 8200, 8384, 8768]}, "edge": {"target": [], "time": []}}, "mouseout": {"state": {"target": ["0", "0", "5", "0", "9", "1", "2", "6", "7", "3", "2", "2", "3", "2", "4", "10", "12"], "time": [1053, 2769, 3619, 4019, 4686, 5202, 5552, 6302, 6618, 6685, 6734, 7051, 7317, 7501, 8034, 8217, 8700]}, "edge": {"target": [], "time": []}}}, "displayed_time": "12.75", "trialTime": 14828, "trial_type": "mouselab-mdp", "trial_index": 25, "time_elapsed": 594956, "internal_node_id": "0.0-4.0-1.0-10.0"}}, {"uniqueid": "w21672845:a95641781", "current_trial": 26, "dateTime": 1664555526506, "trialdata": {"revealed_states": [], "num_clicks_accrued": [0, 0, 0, 0, 0, 0, 0, 0, 0, 0, 0, 0, 0], "stateRewards": ["", -4, 8, 48, -48, 2, -4, 24, -24, -2, 4, -24, -24], "withholdReward": true, "trial_id": "mdp_804988042722", "block": "test1", "trialIndex": 15, "score": 55.5, "costs": -1.5, "simulationMode": [null, null, null], "rewards": [-4, 8, 48], "path": ["0", "0", "1", "2", "3"], "rt": [5707, 123, 68], "actions": ["up", "up", "right"], "actionTimes": [6841, 7497, 8090], "queries": {"click": {"state": {"target": ["12", "11", "7", "8", "3", "4"], "time": [1845, 2688, 3399, 3803, 4544, 4983]}, "edge": {"target": [], "time": []}}, "mouseover": {"state": {"target": ["12", "12", "10", "11", "5", "6", "7", "6", "8", "6", "3", "2", "4", "1"], "time": [1541, 1758, 2358, 2591, 3057, 3124, 3323, 3574, 3657, 4123, 4473, 4740, 4806, 6106]}, "edge": {"target": [], "time": []}}, "mouseout": {"state": {"target": ["10", "9", "0", "12", "12", "10", "11", "5", "6", "7", "6", "8", "6", "3", "2", "4"], "time": [658, 908, 1258, 1558, 2208, 2541, 2907, 3090, 3290, 3525, 3624, 4091, 4140, 4706, 4773, 5190]}, "edge": {"target": [], "time": []}}}, "displayed_time": "10.14", "trialTime": 11468, "trial_type": "mouselab-mdp", "trial_index": 26, "time_elapsed": 606518, "internal_node_id": "0.0-4.0-1.0-11.0"}}, {"uniqueid": "w21672845:a95641781", "current_trial": 27, "dateTime": 1664555538629, "trialdata": {"revealed_states": [], "num_clicks_accrued": [0, 0, 0, 0, 0, 0, 0, 0, 0, 0, 0, 0, 0], "stateRewards": ["", -2, -4, -48, -48, -2, -8, 48, -48, 4, -8, -48, 24], "withholdReward": false, "trial_id": "mdp_468495641521", "block": "test1", "trialIndex": 16, "score": 42.75, "costs": -0.25, "simulationMode": [null, null, null], "rewards": [-2, -8, 48], "path": ["0", "0", "5", "6", "7"], "rt": [2783, 38, 161], "actions": ["right", "right", "up"], "actionTimes": [3884, 4448, 5137], "queries": {"click": {"state": {"target": ["7"], "time": [2343]}, "edge": {"target": [], "time": []}}, "mouseover": {"state": {"target": ["5", "6", "7", "3"], "time": [1758, 2025, 2175, 2625]}, "edge": {"target": [], "time": []}}, "mouseout": {"state": {"target": ["1", "0", "5", "6", "7", "3"], "time": [759, 1475, 1975, 2108, 2491, 2941]}, "edge": {"target": [], "time": []}}}, "displayed_time": "9.10", "trialTime": 12030, "trial_type": "mouselab-mdp", "trial_index": 27, "time_elapsed": 618641, "internal_node_id": "0.0-4.0-1.0-12.0"}}, {"uniqueid": "w21672845:a95641781", "current_trial": 28, "dateTime": 1664555549345, "trialdata": {"revealed_states": [], "num_clicks_accrued": [0, 0, 0, 0, 0, 0, 0, 0, 0, 0, 0, 0, 0], "stateRewards": ["", -4, 8, -48, -48, -4, 4, -24, -48, 2, -4, -24, 24], "withholdReward": true, "trial_id": "mdp_183773275291", "block": "test1", "trialIndex": 17, "score": 25.5, "costs": -1.5, "simulationMode": [null, null, null], "rewards": [2, -4, 24], "path": ["0", "0", "9", "10", "12"], "rt": [6016, 95, 207], "actions": ["left", "left", "down"], "actionTimes": [7427, 8052, 8781], "queries": {"click": {"state": {"target": ["7", "8", "12", "11", "4", "3"], "time": [2104, 2625, 3649, 4200, 4784, 5400]}, "edge": {"target": [], "time": []}}, "mouseover": {"state": {"target": ["0", "5", "7", "6", "8", "12", "12", "10", "11", "4", "4", "2", "3", "3"], "time": [1510, 1695, 1977, 2392, 2610, 3392, 3575, 3908, 4092, 4492, 4710, 4941, 4991, 5341]}, "edge": {"target": [], "time": []}}, "mouseout": {"state": {"target": ["5", "0", "0", "5", "7", "6", "8", "12", "12", "10", "11", "4", "4", "2", "3", "3"], "time": [1043, 1293, 1560, 1843, 2311, 2492, 2826, 3525, 3825, 4058, 4375, 4508, 4908, 4975, 5025, 5641]}, "edge": {"target": [], "time": []}}}, "displayed_time": "9.41", "trialTime": 10618, "trial_type": "mouselab-mdp", "trial_index": 28, "time_elapsed": 629357, "internal_node_id": "0.0-4.0-1.0-13.0"}}, {"uniqueid": "w21672845:a95641781", "current_trial": 29, "dateTime": 1664555560789, "trialdata": {"revealed_states": [], "num_clicks_accrued": [0, 0, 0, 0, 0, 0, 0, 0, 0, 0, 0, 0, 0], "stateRewards": ["", 4, 8, -24, 48, -2, -4, 24, -24, -2, 4, 24, 24], "withholdReward": true, "trial_id": "mdp_948713805479", "block": "test1", "trialIndex": 18, "score": 64.5, "costs": -0.5, "simulationMode": [null, null, null], "rewards": [4, 8, 48], "path": ["0", "0", "1", "2", "4"], "rt": [3704, 86, 83], "actions": ["up", "up", "left"], "actionTimes": [4749, 5355, 5968], "queries": {"click": {"state": {"target": ["11", "4"], "time": [2888, 3648]}, "edge": {"target": [], "time": []}}, "mouseover": {"state": {"target": ["11", "4", "3"], "time": [2784, 3501, 4034]}, "edge": {"target": [], "time": []}}, "mouseout": {"state": {"target": ["0", "11", "4", "3"], "time": [2501, 3184, 3834, 4167]}, "edge": {"target": [], "time": []}}}, "displayed_time": "10.05", "trialTime": 11342, "trial_type": "mouselab-mdp", "trial_index": 29, "time_elapsed": 640801, "internal_node_id": "0.0-4.0-1.0-14.0"}}, {"uniqueid": "w21672845:a95641781", "current_trial": 30, "dateTime": 1664555572606, "trialdata": {"revealed_states": [], "num_clicks_accrued": [0, 0, 0, 0, 0, 0, 0, 0, 0, 0, 0, 0, 0], "stateRewards": ["", -2, 8, -24, 24, 2, -8, 48, -24, 2, 8, -24, -24], "withholdReward": false, "trial_id": "mdp_674708270444", "block": "test1", "trialIndex": 19, "score": 46, "costs": -1, "simulationMode": [null, null, null], "rewards": [2, -8, 48], "path": ["0", "0", "5", "6", "7"], "rt": [5985, 56, 188], "actions": ["right", "right", "up"], "actionTimes": [7238, 7823, 8534], "queries": {"click": {"state": {"target": ["8", "12", "11", "7"], "time": [3716, 4552, 5119, 6028]}, "edge": {"target": [], "time": []}}, "mouseover": {"state": {"target": ["0", "8", "0", "9", "12", "11", "7", "7"], "time": [1365, 3597, 4230, 4248, 4297, 5046, 5680, 5880]}, "edge": {"target": [], "time": []}}, "mouseout": {"state": {"target": ["5", "0", "0", "8", "0", "9", "12", "11", "7", "7"], "time": [815, 1115, 1431, 4165, 4247, 4264, 4765, 5280, 5746, 6296]}, "edge": {"target": [], "time": []}}}, "displayed_time": "10.25", "trialTime": 11711, "trial_type": "mouselab-mdp", "trial_index": 30, "time_elapsed": 652618, "internal_node_id": "0.0-4.0-1.0-15.0"}}, {"uniqueid": "w21672845:a95641781", "current_trial": 31, "dateTime": 1664555584066, "trialdata": {"revealed_states": [], "num_clicks_accrued": [0, 0, 0, 0, 0, 0, 0, 0, 0, 0, 0, 0, 0], "stateRewards": ["", 2, -8, 24, -48, 2, 4, 48, -48, -2, -8, -48, 48], "withholdReward": false, "trial_id": "mdp_629420544881", "block": "test1", "trialIndex": 20, "score": 42.5, "costs": -0.5, "simulationMode": [null, null, null], "rewards": [-2, -8, 48], "path": ["0", "0", "9", "10", "12"], "rt": [3088, 104, 91], "actions": ["left", "left", "down"], "actionTimes": [5095, 5719, 6338], "queries": {"click": {"state": {"target": ["11", "12"], "time": [2776, 3368]}, "edge": {"target": [], "time": []}}, "mouseover": {"state": {"target": ["11", "10", "12"], "time": [2730, 3130, 3197]}, "edge": {"target": [], "time": []}}, "mouseout": {"state": {"target": ["5", "0", "11", "10", "12"], "time": [997, 2314, 3080, 3165, 3663]}, "edge": {"target": [], "time": []}}}, "displayed_time": "10.01", "trialTime": 11359, "trial_type": "mouselab-mdp", "trial_index": 31, "time_elapsed": 664078, "internal_node_id": "0.0-4.0-1.0-16.0"}}, {"uniqueid": "w21672845:a95641781", "current_trial": 32, "dateTime": 1664555595694, "trialdata": {"revealed_states": [], "num_clicks_accrued": [0, 0, 0, 0, 0, 0, 0, 0, 0, 0, 0, 0, 0], "stateRewards": ["", 2, -4, -48, -48, -2, -4, -24, -48, -2, 8, 24, 24], "withholdReward": true, "trial_id": "mdp_656069446729", "block": "test1", "trialIndex": 21, "score": 33.5, "costs": -1.5, "simulationMode": [null, null, null], "rewards": [-2, 8, 24], "path": ["0", "0", "9", "10", "11"], "rt": [7129, 114, 65], "actions": ["left", "left", "up"], "actionTimes": [8381, 9017, 9617], "queries": {"click": {"state": {"target": ["8", "12", "11", "7", "4", "3"], "time": [2576, 3360, 3953, 4912, 5704, 6168]}, "edge": {"target": [], "time": []}}, "mouseover": {"state": {"target": ["8", "12", "10", "11", "1", "7", "2", "4", "2", "3", "5"], "time": [2336, 3152, 3721, 3818, 4285, 4768, 5418, 5634, 6001, 6100, 6784]}, "edge": {"target": [], "time": []}}, "mouseout": {"state": {"target": ["0", "8", "12", "10", "11", "1", "7", "2", "4", "2", "3", "5"], "time": [1453, 2785, 3685, 3769, 4168, 4321, 5284, 5551, 5918, 6068, 6434, 6819]}, "edge": {"target": [], "time": []}}}, "displayed_time": "10.15", "trialTime": 11532, "trial_type": "mouselab-mdp", "trial_index": 32, "time_elapsed": 675706, "internal_node_id": "0.0-4.0-1.0-17.0"}}, {"uniqueid": "w21672845:a95641781", "current_trial": 33, "dateTime": 1664555606352, "trialdata": {"revealed_states": [], "num_clicks_accrued": [0, 0, 0, 0, 0, 0, 0, 0, 0, 0, 0, 0, 0], "stateRewards": ["", 2, -4, 24, 48, -2, 4, -48, -48, -4, 4, 24, -24], "withholdReward": false, "trial_id": "mdp_900363662757", "block": "test1", "trialIndex": 22, "score": 49.75, "costs": -1.25, "simulationMode": [null, null, null], "rewards": [2, -4, 48], "path": ["0", "0", "1", "2", "4"], "rt": [5132, 574, 33], "actions": ["up", "up", "left"], "actionTimes": [6186, 7285, 7843], "queries": {"click": {"state": {"target": ["12", "8", "7", "11", "4"], "time": [2235, 3139, 3722, 4354, 4938]}, "edge": {"target": [], "time": []}}, "mouseover": {"state": {"target": ["0", "12", "8", "7", "1", "11", "4", "2", "3"], "time": [1228, 2144, 3060, 3659, 4094, 4176, 4710, 5209, 5292]}, "edge": {"target": [], "time": []}}, "mouseout": {"state": {"target": ["5", "0", "0", "12", "8", "7", "1", "11", "4", "2", "3"], "time": [827, 911, 1378, 2460, 3393, 4042, 4113, 4609, 5109, 5259, 9940]}, "edge": {"target": [], "time": []}}}, "displayed_time": "9.05", "trialTime": 10553, "trial_type": "mouselab-mdp", "trial_index": 33, "time_elapsed": 686364, "internal_node_id": "0.0-4.0-1.0-18.0"}}, {"uniqueid": "w21672845:a95641781", "current_trial": 34, "dateTime": 1664555620713, "trialdata": {"revealed_states": [], "num_clicks_accrued": [0, 0, 0, 0, 0, 0, 0, 0, 0, 0, 0, 0, 0], "stateRewards": ["", -4, 4, 24, 24, -2, 8, 24, -48, 4, -8, -24, -48], "withholdReward": false, "trial_id": "mdp_651542905861", "block": "test1", "trialIndex": 23, "score": 27.5, "costs": -1.5, "simulationMode": [null, null, null], "rewards": [-4, 4, 24], "path": ["0", "0", "1", "2", "4"], "rt": [5629, 463, 15], "actions": ["up", "up", "left"], "actionTimes": [7619, 8614, 9149], "queries": {"click": {"state": {"target": ["3", "4", "11", "12", "8", "7"], "time": [2956, 3515, 4171, 4626, 5498, 6164]}, "edge": {"target": [], "time": []}}, "mouseover": {"state": {"target": ["1", "3", "2", "4", "10", "11", "10", "12", "8", "8", "6", "7", "1"], "time": [2370, 2603, 3319, 3386, 3919, 4085, 4419, 4568, 5102, 5402, 5652, 6002, 6685]}, "edge": {"target": [], "time": []}}, "mouseout": {"state": {"target": ["1", "0", "1", "3", "2", "4", "10", "11", "10", "12", "8", "8", "6", "7", "1"], "time": [1670, 2271, 2420, 3136, 3336, 3686, 4019, 4352, 4502, 4802, 5185, 5618, 5685, 6451, 6768]}, "edge": {"target": [], "time": []}}}, "displayed_time": "10.99", "trialTime": 14262, "trial_type": "mouselab-mdp", "trial_index": 34, "time_elapsed": 700725, "internal_node_id": "0.0-4.0-1.0-19.0"}}, {"uniqueid": "w21672845:a95641781", "current_trial": 35, "dateTime": 1664555632906, "trialdata": {"revealed_states": [], "num_clicks_accrued": [0, 0, 0, 0, 0, 0, 0, 0, 0, 0, 0, 0, 0], "stateRewards": ["", -2, -4, -24, -48, -4, -8, -48, 24, -4, -8, -24, -48], "withholdReward": false, "trial_id": "mdp_475782454549", "block": "test1", "trialIndex": 24, "score": 15.5, "costs": -1.5, "simulationMode": [null, null, null], "rewards": [-4, -8, 24], "path": ["0", "0", "5", "6", "8"], "rt": [5644, 336, 125], "actions": ["right", "right", "down"], "actionTimes": [6848, 7703, 8357], "queries": {"click": {"state": {"target": ["7", "8", "12", "11", "4", "3"], "time": [2497, 3066, 3722, 4096, 4592, 5241]}, "edge": {"target": [], "time": []}}, "mouseover": {"state": {"target": ["5", "7", "7", "6", "8", "12", "10", "11", "4", "2", "3", "3"], "time": [1685, 1985, 2418, 2801, 2984, 3634, 3950, 4017, 4450, 4817, 4867, 5184]}, "edge": {"target": [], "time": []}}, "mouseout": {"state": {"target": ["1", "0", "5", "7", "7", "6", "8", "12", "10", "11", "4", "2", "3", "3", "6"], "time": [952, 1585, 1785, 2285, 2718, 2884, 3252, 3901, 4000, 4300, 4767, 4850, 4900, 5483, 10831]}, "edge": {"target": [], "time": []}}}, "displayed_time": "10.21", "trialTime": 12093, "trial_type": "mouselab-mdp", "trial_index": 35, "time_elapsed": 712918, "internal_node_id": "0.0-4.0-1.0-20.0"}}, {"uniqueid": "w21672845:a95641781", "current_trial": 36, "dateTime": 1664555643248, "trialdata": {"revealed_states": [], "num_clicks_accrued": [0, 0, 0, 0, 0, 0, 0, 0, 0, 0, 0, 0, 0], "stateRewards": ["", 2, 8, -48, -24, 4, 4, 24, 48, 4, -4, -48, 48], "withholdReward": true, "trial_id": "mdp_665096999232", "block": "test1", "trialIndex": 25, "score": 52.5, "costs": -0.5, "simulationMode": [null, null, null], "rewards": [4, -4, 48], "path": ["0", "0", "9", "10", "12"], "rt": [4134, 506, 181], "actions": ["left", "left", "down"], "actionTimes": [5221, 6253, 6963], "queries": {"click": {"state": {"target": ["11", "12"], "time": [3474, 4003]}, "edge": {"target": [], "time": []}}, "mouseover": {"state": {"target": ["0", "9", "10", "11", "10", "12", "1"], "time": [3014, 3047, 3130, 3380, 3780, 3947, 4413]}, "edge": {"target": [], "time": []}}, "mouseout": {"state": {"target": ["5", "0", "9", "10", "11", "10", "12", "1", "0"], "time": [748, 3030, 3081, 3347, 3714, 3863, 4197, 4513, 8495]}, "edge": {"target": [], "time": []}}}, "displayed_time": "9.09", "trialTime": 10220, "trial_type": "mouselab-mdp", "trial_index": 36, "time_elapsed": 723260, "internal_node_id": "0.0-4.0-1.0-21.0"}}, {"uniqueid": "w21672845:a95641781", "current_trial": 37, "dateTime": 1664555657069, "trialdata": {"revealed_states": [], "num_clicks_accrued": [0, 0, 0, 0, 0, 0, 0, 0, 0, 0, 0, 0, 0], "stateRewards": ["", 4, 4, -48, -24, -2, -4, 48, 24, -4, 4, 24, -48], "withholdReward": true, "trial_id": "mdp_617383046444", "block": "test1", "trialIndex": 26, "score": 46.5, "costs": -0.5, "simulationMode": [null, null, null], "rewards": [-2, -4, 48], "path": ["0", "0", "5", "6", "7"], "rt": [2997, 118, 113], "actions": ["right", "right", "up"], "actionTimes": [5065, 5706, 6351], "queries": {"click": {"state": {"target": ["8", "7"], "time": [3106, 3768]}, "edge": {"target": [], "time": []}}, "mouseover": {"state": {"target": ["5", "6", "8", "6", "7"], "time": [2622, 2672, 2939, 3455, 3605]}, "edge": {"target": [], "time": []}}, "mouseout": {"state": {"target": ["0", "5", "6", "8", "6", "7"], "time": [2372, 2656, 2706, 3389, 3505, 3988]}, "edge": {"target": [], "time": []}}}, "displayed_time": "11.07", "trialTime": 13704, "trial_type": "mouselab-mdp", "trial_index": 37, "time_elapsed": 737081, "internal_node_id": "0.0-4.0-1.0-22.0"}}, {"uniqueid": "w21672845:a95641781", "current_trial": 38, "dateTime": 1664555667331, "trialdata": {"revealed_states": [], "num_clicks_accrued": [0, 0, 0, 0, 0, 0, 0, 0, 0, 0, 0, 0, 0], "stateRewards": ["", 4, 4, 48, -48, -2, 4, 48, -48, -4, 4, -24, -24], "withholdReward": true, "trial_id": "mdp_753324812898", "block": "test1", "trialIndex": 27, "score": 54.75, "costs": -0.25, "simulationMode": [null, null, null], "rewards": [-2, 4, 48], "path": ["0", "0", "5", "6", "7"], "rt": [2133, 184, 110], "actions": ["right", "right", "up"], "actionTimes": [3342, 4045, 4687], "queries": {"click": {"state": {"target": ["7"], "time": [1943]}, "edge": {"target": [], "time": []}}, "mouseover": {"state": {"target": ["7"], "time": [1828]}, "edge": {"target": [], "time": []}}, "mouseout": {"state": {"target": ["5", "0", "7"], "time": [928, 1578, 2213]}, "edge": {"target": [], "time": []}}}, "displayed_time": "9.21", "trialTime": 10144, "trial_type": "mouselab-mdp", "trial_index": 38, "time_elapsed": 747343, "internal_node_id": "0.0-4.0-1.0-23.0"}}, {"uniqueid": "w21672845:a95641781", "current_trial": 39, "dateTime": 1664555678942, "trialdata": {"revealed_states": [], "num_clicks_accrued": [0, 0, 0, 0, 0, 0, 0, 0, 0, 0, 0, 0, 0], "stateRewards": ["", 4, -8, -48, 48, -2, 8, -48, 48, -2, -4, 24, -48], "withholdReward": true, "trial_id": "mdp_400558136089", "block": "test1", "trialIndex": 28, "score": 58, "costs": -1, "simulationMode": [null, null, null], "rewards": [-2, 8, 48], "path": ["0", "0", "5", "6", "8"], "rt": [4182, 44, 414], "actions": ["right", "right", "down"], "actionTimes": [5457, 6034, 6970], "queries": {"click": {"state": {"target": ["7", "11", "12", "8"], "time": [2359, 3054, 3543, 4222]}, "edge": {"target": [], "time": []}}, "mouseover": {"state": {"target": ["1", "7", "11", "10", "12", "8"], "time": [1741, 2291, 2941, 3307, 3507, 4123]}, "edge": {"target": [], "time": []}}, "mouseout": {"state": {"target": ["5", "0", "1", "7", "11", "10", "12", "8"], "time": [991, 1658, 1774, 2557, 3224, 3424, 3790, 4456]}, "edge": {"target": [], "time": []}}}, "displayed_time": "10.28", "trialTime": 11505, "trial_type": "mouselab-mdp", "trial_index": 39, "time_elapsed": 758954, "internal_node_id": "0.0-4.0-1.0-24.0"}}, {"uniqueid": "w21672845:a95641781", "current_trial": 40, "dateTime": 1664555690686, "trialdata": {"revealed_states": [], "num_clicks_accrued": [0, 0, 0, 0, 0, 0, 0, 0, 0, 0, 0, 0, 0], "stateRewards": ["", -4, 8, 24, -24, 4, -8, -24, -24, -2, 8, -48, 24], "withholdReward": true, "trial_id": "mdp_240302100183", "block": "test1", "trialIndex": 29, "score": 31.5, "costs": -1.5, "simulationMode": [null, null, null], "rewards": [-4, 8, 24], "path": ["0", "0", "1", "2", "3"], "rt": [4551, 319, 13], "actions": ["up", "up", "right"], "actionTimes": [6110, 6958, 7502], "queries": {"click": {"state": {"target": ["11", "12", "8", "7", "3", "4"], "time": [2373, 2936, 3528, 3976, 4592, 5040]}, "edge": {"target": [], "time": []}}, "mouseover": {"state": {"target": ["9", "11", "11", "10", "12", "8", "6", "7", "2", "3", "2", "4"], "time": [1722, 1906, 2222, 2605, 2771, 3488, 3824, 3887, 4354, 4487, 4837, 4906]}, "edge": {"target": [], "time": []}}, "mouseout": {"state": {"target": ["0", "9", "11", "11", "10", "12", "8", "6", "7", "2", "3", "2", "4"], "time": [1674, 1789, 1955, 2522, 2688, 3155, 3804, 3854, 4221, 4421, 4803, 4887, 5220]}, "edge": {"target": [], "time": []}}}, "displayed_time": "10.56", "trialTime": 11636, "trial_type": "mouselab-mdp", "trial_index": 40, "time_elapsed": 770698, "internal_node_id": "0.0-4.0-1.0-25.0"}}, {"uniqueid": "w21672845:a95641781", "current_trial": 41, "dateTime": 1664555700179, "trialdata": {"revealed_states": [], "num_clicks_accrued": [0, 0, 0, 0, 0, 0, 0, 0, 0, 0, 0, 0, 0], "stateRewards": ["", 4, 4, 24, -24, -4, -8, 48, -24, 4, 4, 48, 24], "withholdReward": true, "trial_id": "mdp_822446942217", "block": "test1", "trialIndex": 30, "score": 40.25, "costs": -0.75, "simulationMode": [null, null, null], "rewards": [-4, -8, 48], "path": ["0", "0", "5", "6", "7"], "rt": [3293, 613, 172], "actions": ["right", "right", "up"], "actionTimes": [4633, 5773, 6464], "queries": {"click": {"state": {"target": ["4", "3", "7"], "time": [2101, 2942, 3526]}, "edge": {"target": [], "time": []}}, "mouseover": {"state": {"target": ["1", "4", "2", "3", "7", "6"], "time": [1811, 1994, 2461, 2827, 3444, 3793]}, "edge": {"target": [], "time": []}}, "mouseout": {"state": {"target": ["9", "1", "4", "2", "3", "7"], "time": [1177, 1844, 2327, 2477, 3110, 3727]}, "edge": {"target": [], "time": []}}}, "displayed_time": "8.34", "trialTime": 9390, "trial_type": "mouselab-mdp", "trial_index": 41, "time_elapsed": 780191, "internal_node_id": "0.0-4.0-1.0-26.0"}}, {"uniqueid": "w21672845:a95641781", "current_trial": 42, "dateTime": 1664555713147, "trialdata": {"revealed_states": [], "num_clicks_accrued": [0, 0, 0, 0, 0, 0, 0, 0, 0, 0, 0, 0, 0], "stateRewards": ["", -2, -8, 24, -48, 4, 4, -24, -48, -2, -8, -48, 24], "withholdReward": true, "trial_id": "mdp_556006673466", "block": "test1", "trialIndex": 31, "score": 17.5, "costs": -1.5, "simulationMode": [null, null, null], "rewards": [-2, -8, 24], "path": ["0", "0", "9", "10", "12"], "rt": [5619, 463, 569], "actions": ["left", "left", "down"], "actionTimes": [7332, 8326, 9415], "queries": {"click": {"state": {"target": ["12", "11", "7", "8", "3", "4"], "time": [2313, 2861, 3694, 4111, 4805, 5285]}, "edge": {"target": [], "time": []}}, "mouseover": {"state": {"target": ["12", "10", "11", "1", "7", "6", "8", "6", "3", "2", "4", "1", "5"], "time": [2115, 2681, 2781, 3181, 3598, 3931, 4109, 4447, 4647, 5047, 5164, 5680, 5780]}, "edge": {"target": [], "time": []}}, "mouseout": {"state": {"target": ["6", "0", "5", "0", "12", "10", "11", "1", "7", "6", "8", "6", "3", "2", "4", "1", "5"], "time": [849, 1282, 1498, 2015, 2598, 2748, 3081, 3215, 3864, 4031, 4397, 4481, 5014, 5097, 5513, 5730, 5880]}, "edge": {"target": [], "time": []}}}, "displayed_time": "11.71", "trialTime": 12849, "trial_type": "mouselab-mdp", "trial_index": 42, "time_elapsed": 793158, "internal_node_id": "0.0-4.0-1.0-27.0"}}, {"uniqueid": "w21672845:a95641781", "current_trial": 43, "dateTime": 1664555724480, "trialdata": {"revealed_states": [], "num_clicks_accrued": [0, 0, 0, 0, 0, 0, 0, 0, 0, 0, 0, 0, 0], "stateRewards": ["", 2, -4, 48, -48, 2, 4, -24, 24, -4, -8, 24, -48], "withholdReward": true, "trial_id": "mdp_238810765895", "block": "test1", "trialIndex": 32, "score": 50.25, "costs": -0.75, "simulationMode": [null, null, null], "rewards": [2, -4, 48], "path": ["0", "0", "1", "2", "3"], "rt": [3154, 7, 463], "actions": ["up", "up", "right"], "actionTimes": [4322, 4861, 5848], "queries": {"click": {"state": {"target": ["8", "7", "3"], "time": [1945, 2577, 3243]}, "edge": {"target": [], "time": []}}, "mouseover": {"state": {"target": ["5", "8", "6", "7", "3", "2"], "time": [1670, 1803, 2370, 2503, 3153, 3519]}, "edge": {"target": [], "time": []}}, "mouseout": {"state": {"target": ["5", "5", "8", "6", "7", "3", "2"], "time": [987, 1737, 2303, 2420, 2819, 3436, 3619]}, "edge": {"target": [], "time": []}}}, "displayed_time": "10.17", "trialTime": 11227, "trial_type": "mouselab-mdp", "trial_index": 43, "time_elapsed": 804492, "internal_node_id": "0.0-4.0-1.0-28.0"}}, {"uniqueid": "w21672845:a95641781", "current_trial": 44, "dateTime": 1664555735942, "trialdata": {"revealed_states": [], "num_clicks_accrued": [0, 0, 0, 0, 0, 0, 0, 0, 0, 0, 0, 0, 0], "stateRewards": ["", 2, 4, -24, -48, 4, -4, 24, 48, -4, -4, -24, 48], "withholdReward": true, "trial_id": "mdp_181958792175", "block": "test1", "trialIndex": 33, "score": 44.25, "costs": -0.75, "simulationMode": [null, null, null], "rewards": [-4, -4, 48], "path": ["0", "0", "9", "10", "12"], "rt": [2894, 85, 77], "actions": ["left", "left", "down"], "actionTimes": [3932, 4551, 5160], "queries": {"click": {"state": {"target": ["4", "3", "12"], "time": [1508, 2166, 2900]}, "edge": {"target": [], "time": []}}, "mouseover": {"state": {"target": ["4", "2", "3", "9", "12"], "time": [1399, 1933, 2049, 2616, 2782]}, "edge": {"target": [], "time": []}}, "mouseout": {"state": {"target": ["0", "4", "2", "3", "9", "12"], "time": [1200, 1917, 1999, 2332, 2682, 6164]}, "edge": {"target": [], "time": []}}}, "displayed_time": "10.04", "trialTime": 11357, "trial_type": "mouselab-mdp", "trial_index": 44, "time_elapsed": 815954, "internal_node_id": "0.0-4.0-1.0-29.0"}}, {"uniqueid": "w21672845:a95641781", "current_trial": 45, "dateTime": 1664555742412, "trialdata": {"rt": 6466, "stimulus": "<h1> End of block! </h1>\n\nYou have reached the end of the block 1/4. If you need a short break, feel free to take one now before moving on.\n\n<br><br>\nIn the next block, you will complete another 30 rounds of this game.\n\n<br><br>\n<div style='text-align: center;'>Press <code>space</code> to begin.</div>\n<br><br>\n<div style='text-align: center;'>(If the experiment doesn't continue, try clicking on the text and then pressing <code>space</code>.)</div>", "response": " ", "trial_id": "mdp_ready_2", "trial_type": "html-keyboard-response", "trial_index": 45, "time_elapsed": 822424, "internal_node_id": "0.0-4.0-2.0"}}, {"uniqueid": "w21672845:a95641781", "current_trial": 46, "dateTime": 1664555752779, "trialdata": {"revealed_states": [], "num_clicks_accrued": [0, 0, 0, 0, 0, 0, 0, 0, 0, 0, 0, 0, 0], "stateRewards": ["", -2, -8, 24, -48, -4, 8, -48, -24, 4, 8, -24, 24], "withholdReward": true, "trial_id": "mdp_940444641142", "block": "test2", "trialIndex": 34, "score": 17.5, "costs": -1.5, "simulationMode": [null, null, null], "rewards": [-2, -8, 24], "path": ["0", "0", "1", "2", "3"], "rt": [5295, 281, 280], "actions": ["up", "up", "right"], "actionTimes": [7011, 7815, 8613], "queries": {"click": {"state": {"target": ["12", "11", "7", "8", "3", "4"], "time": [2570, 3357, 4005, 4421, 5077, 5614]}, "edge": {"target": [], "time": []}}, "mouseover": {"state": {"target": ["12", "11", "5", "7", "6", "8", "3", "2", "4", "2"], "time": [2402, 3235, 3718, 3834, 4184, 4284, 4885, 5417, 5501, 5917]}, "edge": {"target": [], "time": []}}, "mouseout": {"state": {"target": ["0", "12", "11", "5", "7", "6", "8", "3", "2", "4", "2", "3"], "time": [2202, 2802, 3535, 3751, 4151, 4251, 4784, 5317, 5484, 5901, 5967, 6367]}, "edge": {"target": [], "time": []}}}, "displayed_time": "9.72", "trialTime": 10254, "trial_type": "mouselab-mdp", "trial_index": 46, "time_elapsed": 832790, "internal_node_id": "0.0-4.0-3.0-0.0"}}, {"uniqueid": "w21672845:a95641781", "current_trial": 47, "dateTime": 1664555763178, "trialdata": {"revealed_states": [], "num_clicks_accrued": [0, 0, 0, 0, 0, 0, 0, 0, 0, 0, 0, 0, 0], "stateRewards": ["", 2, -4, 24, 24, 4, -4, -24, 24, -4, -4, 48, 48], "withholdReward": true, "trial_id": "mdp_566306223773", "block": "test2", "trialIndex": 35, "score": 44.25, "costs": -0.75, "simulationMode": [null, null, null], "rewards": [-4, -4, 48], "path": ["0", "0", "9", "10", "12"], "rt": [3346, 405, 20], "actions": ["left", "left", "down"], "actionTimes": [4521, 5462, 6007], "queries": {"click": {"state": {"target": ["3", "4", "12"], "time": [1908, 2948, 3607]}, "edge": {"target": [], "time": []}}, "mouseover": {"state": {"target": ["3", "2", "4", "10", "12"], "time": [1853, 2486, 2820, 3369, 3552]}, "edge": {"target": [], "time": []}}, "mouseout": {"state": {"target": ["0", "3", "2", "4", "10", "12"], "time": [1304, 2086, 2519, 3103, 3452, 3853]}, "edge": {"target": [], "time": []}}}, "displayed_time": "9.18", "trialTime": 10293, "trial_type": "mouselab-mdp", "trial_index": 47, "time_elapsed": 843190, "internal_node_id": "0.0-4.0-3.0-1.0"}}, {"uniqueid": "w21672845:a95641781", "current_trial": 48, "dateTime": 1664555773571, "trialdata": {"revealed_states": [], "num_clicks_accrued": [0, 0, 0, 0, 0, 0, 0, 0, 0, 0, 0, 0, 0], "stateRewards": ["", -2, -8, 24, -48, 4, 4, -24, -48, -2, -8, -48, 24], "withholdReward": true, "trial_id": "mdp_556006673466", "block": "test2", "trialIndex": 36, "score": 17.5, "costs": -1.5, "simulationMode": [null, null, null], "rewards": [-2, -8, 24], "path": ["0", "0", "9", "10", "12"], "rt": [5346, 151, 137], "actions": ["left", "left", "down"], "actionTimes": [6426, 7105, 7775], "queries": {"click": {"state": {"target": ["12", "8", "7", "3", "4", "11"], "time": [1612, 2307, 2914, 3556, 4042, 4771]}, "edge": {"target": [], "time": []}}, "mouseover": {"state": {"target": ["9", "10", "12", "8", "6", "7", "3", "2", "4", "11", "11", "10"], "time": [1357, 1472, 1572, 2272, 2688, 2754, 3438, 3787, 3904, 4271, 4687, 5520]}, "edge": {"target": [], "time": []}}, "mouseout": {"state": {"target": ["9", "0", "9", "10", "12", "8", "6", "7", "3", "2", "4", "11", "11", "10", "12"], "time": [755, 1338, 1405, 1505, 1857, 2655, 2721, 3154, 3738, 3837, 4204, 4337, 4987, 5570, 9170]}, "edge": {"target": [], "time": []}}}, "displayed_time": "9.08", "trialTime": 10275, "trial_type": "mouselab-mdp", "trial_index": 48, "time_elapsed": 853582, "internal_node_id": "0.0-4.0-3.0-2.0"}}, {"uniqueid": "w21672845:a95641781", "current_trial": 49, "dateTime": 1664555783901, "trialdata": {"revealed_states": [], "num_clicks_accrued": [0, 0, 0, 0, 0, 0, 0, 0, 0, 0, 0, 0, 0], "stateRewards": ["", -2, -4, -24, -48, -2, 8, -48, 24, 4, -4, -24, -24], "withholdReward": true, "trial_id": "mdp_915304165774", "block": "test2", "trialIndex": 37, "score": 33.5, "costs": -1.5, "simulationMode": [null, null, null], "rewards": [-2, 8, 24], "path": ["0", "0", "5", "6", "8"], "rt": [5102, 477, 363], "actions": ["right", "right", "down"], "actionTimes": [6123, 7131, 8016], "queries": {"click": {"state": {"target": ["12", "11", "4", "3", "8", "7"], "time": [1797, 2405, 3493, 3989, 4647, 5158]}, "edge": {"target": [], "time": []}}, "mouseover": {"state": {"target": ["12", "10", "11", "2", "4", "2", "3", "7", "6", "8", "6", "7"], "time": [1669, 2186, 2253, 2785, 3402, 3754, 3885, 4368, 4418, 4568, 4934, 5051]}, "edge": {"target": [], "time": []}}, "mouseout": {"state": {"target": ["0", "12", "10", "11", "2", "4", "2", "3", "7", "6", "8", "6"], "time": [1519, 2152, 2219, 2669, 2935, 3685, 3835, 4285, 4385, 4501, 4918, 4968]}, "edge": {"target": [], "time": []}}}, "displayed_time": "9.02", "trialTime": 10225, "trial_type": "mouselab-mdp", "trial_index": 49, "time_elapsed": 863913, "internal_node_id": "0.0-4.0-3.0-3.0"}}, {"uniqueid": "w21672845:a95641781", "current_trial": 50, "dateTime": 1664555794578, "trialdata": {"revealed_states": [], "num_clicks_accrued": [0, 0, 0, 0, 0, 0, 0, 0, 0, 0, 0, 0, 0], "stateRewards": ["", -2, -8, 48, 24, 2, 4, 24, -24, -2, -4, 48, -48], "withholdReward": true, "trial_id": "mdp_411152402386", "block": "test2", "trialIndex": 38, "score": 42.5, "costs": -0.5, "simulationMode": [null, null, null], "rewards": [-2, -8, 48], "path": ["0", "0", "1", "2", "3"], "rt": [2701, 145, 315], "actions": ["up", "up", "right"], "actionTimes": [3819, 4493, 5330], "queries": {"click": {"state": {"target": ["7", "3"], "time": [1867, 2793]}, "edge": {"target": [], "time": []}}, "mouseover": {"state": {"target": ["0", "7", "7", "3"], "time": [1128, 1447, 1780, 2680]}, "edge": {"target": [], "time": []}}, "mouseout": {"state": {"target": ["7", "5", "0", "7", "7", "3"], "time": [680, 814, 1364, 1497, 2414, 2997]}, "edge": {"target": [], "time": []}}}, "displayed_time": "9.12", "trialTime": 10566, "trial_type": "mouselab-mdp", "trial_index": 50, "time_elapsed": 874590, "internal_node_id": "0.0-4.0-3.0-4.0"}}, {"uniqueid": "w21672845:a95641781", "current_trial": 51, "dateTime": 1664555806162, "trialdata": {"revealed_states": [], "num_clicks_accrued": [0, 0, 0, 0, 0, 0, 0, 0, 0, 0, 0, 0, 0], "stateRewards": ["", 4, 8, 24, 24, 2, -4, 48, -24, -4, 8, -24, 24], "withholdReward": false, "trial_id": "mdp_932292142091", "block": "test2", "trialIndex": 39, "score": -21.5, "costs": -0.5, "simulationMode": [null, null, null], "rewards": [2, -4, -24], "path": ["0", "0", "5", "6", "8"], "rt": [2811, 112, 96], "actions": ["right", "right", "down"], "actionTimes": [4082, 4722, 5340], "queries": {"click": {"state": {"target": ["8", "7"], "time": [2099, 2761]}, "edge": {"target": [], "time": []}}, "mouseover": {"state": {"target": ["5", "8", "6", "7", "3"], "time": [1827, 1960, 2543, 2626, 3126]}, "edge": {"target": [], "time": []}}, "mouseout": {"state": {"target": ["0", "5", "8", "6", "7", "3"], "time": [1577, 1876, 2526, 2593, 3043, 3393]}, "edge": {"target": [], "time": []}}}, "displayed_time": "9.27", "trialTime": 11469, "trial_type": "mouselab-mdp", "trial_index": 51, "time_elapsed": 886174, "internal_node_id": "0.0-4.0-3.0-5.0"}}, {"uniqueid": "w21672845:a95641781", "current_trial": 52, "dateTime": 1664555820133, "trialdata": {"revealed_states": [], "num_clicks_accrued": [0, 0, 0, 0, 0, 0, 0, 0, 0, 0, 0, 0, 0], "stateRewards": ["", 2, -4, 48, -24, 4, -8, -24, 48, -2, -4, 24, -48], "withholdReward": true, "trial_id": "mdp_357328205509", "block": "test2", "trialIndex": 40, "score": 50.5, "costs": -0.5, "simulationMode": [null, null, null], "rewards": [2, -4, 48], "path": ["0", "0", "1", "2", "3"], "rt": [2736, 159, 258], "actions": ["up", "up", "right"], "actionTimes": [7684, 8367, 9150], "queries": {"click": {"state": {"target": ["7", "3"], "time": [5768, 6538]}, "edge": {"target": [], "time": []}}, "mouseover": {"state": {"target": ["5", "7", "3", "3", "2", "1"], "time": [5376, 5526, 6192, 6442, 6759, 7026]}, "edge": {"target": [], "time": []}}, "mouseout": {"state": {"target": ["0", "0", "5", "7", "3", "3", "2", "1"], "time": [4276, 5193, 5426, 6026, 6209, 6709, 6826, 10590]}, "edge": {"target": [], "time": []}}}, "displayed_time": "12.95", "trialTime": 13863, "trial_type": "mouselab-mdp", "trial_index": 52, "time_elapsed": 900145, "internal_node_id": "0.0-4.0-3.0-6.0"}}, {"uniqueid": "w21672845:a95641781", "current_trial": 53, "dateTime": 1664555831400, "trialdata": {"revealed_states": [], "num_clicks_accrued": [0, 0, 0, 0, 0, 0, 0, 0, 0, 0, 0, 0, 0], "stateRewards": ["", 2, -4, -24, -48, -2, 8, -24, 48, -2, 8, 24, -48], "withholdReward": true, "trial_id": "mdp_566582551557", "block": "test2", "trialIndex": 41, "score": 57.5, "costs": -1.5, "simulationMode": [null, null, null], "rewards": [-2, 8, 48], "path": ["0", "0", "5", "6", "8"], "rt": [4477, 617, 108], "actions": ["right", "right", "down"], "actionTimes": [5503, 6648, 7288], "queries": {"click": {"state": {"target": ["4", "3", "12", "11", "7", "8"], "time": [1809, 2393, 3038, 3537, 4131, 4597]}, "edge": {"target": [], "time": []}}, "mouseover": {"state": {"target": ["1", "4", "2", "3", "1", "10", "12", "12", "10", "11", "1", "7", "6", "8"], "time": [1463, 1713, 2163, 2213, 2680, 2813, 2946, 3029, 3329, 3446, 3796, 4029, 4381, 4462]}, "edge": {"target": [], "time": []}}, "mouseout": {"state": {"target": ["0", "1", "4", "2", "3", "1", "10", "12", "12", "10", "11", "1", "7", "6"], "time": [1382, 1547, 2130, 2196, 2596, 2713, 2896, 2963, 3296, 3379, 3696, 3830, 4329, 4429]}, "edge": {"target": [], "time": []}}}, "displayed_time": "10.03", "trialTime": 11155, "trial_type": "mouselab-mdp", "trial_index": 53, "time_elapsed": 911412, "internal_node_id": "0.0-4.0-3.0-7.0"}}, {"uniqueid": "w21672845:a95641781", "current_trial": 54, "dateTime": 1664555842748, "trialdata": {"revealed_states": [], "num_clicks_accrued": [0, 0, 0, 0, 0, 0, 0, 0, 0, 0, 0, 0, 0], "stateRewards": ["", 2, 4, -48, -24, -4, 4, -24, 24, -2, -8, -24, 24], "withholdReward": true, "trial_id": "mdp_640720803523", "block": "test2", "trialIndex": 42, "score": 27.5, "costs": -1.5, "simulationMode": [null, null, null], "rewards": [-4, 4, 24], "path": ["0", "0", "5", "6", "8"], "rt": [5498, 229, 113], "actions": ["right", "right", "down"], "actionTimes": [6558, 7321, 7954], "queries": {"click": {"state": {"target": ["8", "12", "11", "7", "3", "4"], "time": [1698, 2626, 3360, 4200, 4874, 5370]}, "edge": {"target": [], "time": []}}, "mouseover": {"state": {"target": ["8", "8", "12", "12", "10", "11", "1", "7", "3", "2", "4", "1"], "time": [1325, 1641, 2224, 2524, 2890, 3190, 3740, 4173, 4773, 5156, 5239, 5723]}, "edge": {"target": [], "time": []}}, "mouseout": {"state": {"target": ["8", "0", "8", "8", "12", "12", "10", "11", "1", "7", "3", "2", "4", "1"], "time": [641, 1225, 1341, 2041, 2257, 2857, 3007, 3690, 3757, 4506, 5106, 5206, 5623, 5740]}, "edge": {"target": [], "time": []}}}, "displayed_time": "10.06", "trialTime": 11236, "trial_type": "mouselab-mdp", "trial_index": 54, "time_elapsed": 922760, "internal_node_id": "0.0-4.0-3.0-8.0"}}, {"uniqueid": "w21672845:a95641781", "current_trial": 55, "dateTime": 1664555853059, "trialdata": {"revealed_states": [], "num_clicks_accrued": [0, 0, 0, 0, 0, 0, 0, 0, 0, 0, 0, 0, 0], "stateRewards": ["", 2, 8, 24, -48, 4, 8, 24, 24, 4, -8, 48, 48], "withholdReward": true, "trial_id": "mdp_646103824875", "block": "test2", "trialIndex": 43, "score": 48.75, "costs": -0.25, "simulationMode": [null, null, null], "rewards": [4, -8, 48], "path": ["0", "0", "9", "10", "12"], "rt": [1612, 309, 82], "actions": ["left", "left", "down"], "actionTimes": [2522, 3363, 3968], "queries": {"click": {"state": {"target": ["12"], "time": [1357]}, "edge": {"target": [], "time": []}}, "mouseover": {"state": {"target": ["12"], "time": [1253]}, "edge": {"target": [], "time": []}}, "mouseout": {"state": {"target": ["0"], "time": [1037]}, "edge": {"target": [], "time": []}}}, "displayed_time": "8.91", "trialTime": 10198, "trial_type": "mouselab-mdp", "trial_index": 55, "time_elapsed": 933071, "internal_node_id": "0.0-4.0-3.0-9.0"}}, {"uniqueid": "w21672845:a95641781", "current_trial": 56, "dateTime": 1664555865026, "trialdata": {"revealed_states": [], "num_clicks_accrued": [0, 0, 0, 0, 0, 0, 0, 0, 0, 0, 0, 0, 0], "stateRewards": ["", 4, -8, 24, 48, 2, -4, 48, 48, 4, -8, 48, 48], "withholdReward": false, "trial_id": "mdp_962498334245", "block": "test2", "trialIndex": 44, "score": 50.75, "costs": -0.25, "simulationMode": [null, null, null], "rewards": [2, -4, 48], "path": ["0", "0", "5", "6", "8"], "rt": [1831, 348, 91], "actions": ["right", "right", "down"], "actionTimes": [2991, 3872, 4498], "queries": {"click": {"state": {"target": ["8"], "time": [1783]}, "edge": {"target": [], "time": []}}, "mouseover": {"state": {"target": ["5", "8"], "time": [1523, 1705]}, "edge": {"target": [], "time": []}}, "mouseout": {"state": {"target": ["12", "9", "0", "5"], "time": [756, 939, 1022, 1572]}, "edge": {"target": [], "time": []}}}, "displayed_time": "10.16", "trialTime": 11855, "trial_type": "mouselab-mdp", "trial_index": 56, "time_elapsed": 945038, "internal_node_id": "0.0-4.0-3.0-10.0"}}, {"uniqueid": "w21672845:a95641781", "current_trial": 57, "dateTime": 1664555876191, "trialdata": {"revealed_states": [], "num_clicks_accrued": [0, 0, 0, 0, 0, 0, 0, 0, 0, 0, 0, 0, 0], "stateRewards": ["", -4, -8, 24, 48, 2, -4, -24, 24, -4, 8, 48, 48], "withholdReward": true, "trial_id": "mdp_496672670022", "block": "test2", "trialIndex": 45, "score": 56.75, "costs": -0.25, "simulationMode": [null, null, null], "rewards": [-4, 8, 48], "path": ["0", "0", "9", "10", "12"], "rt": [1724, 385, 17], "actions": ["left", "left", "down"], "actionTimes": [2830, 3748, 4294], "queries": {"click": {"state": {"target": ["12"], "time": [1827]}, "edge": {"target": [], "time": []}}, "mouseover": {"state": {"target": ["12"], "time": [1712]}, "edge": {"target": [], "time": []}}, "mouseout": {"state": {"target": ["8", "0"], "time": [611, 1546]}, "edge": {"target": [], "time": []}}}, "displayed_time": "10.11", "trialTime": 11048, "trial_type": "mouselab-mdp", "trial_index": 57, "time_elapsed": 956203, "internal_node_id": "0.0-4.0-3.0-11.0"}}, {"uniqueid": "w21672845:a95641781", "current_trial": 58, "dateTime": 1664555886793, "trialdata": {"revealed_states": [], "num_clicks_accrued": [0, 0, 0, 0, 0, 0, 0, 0, 0, 0, 0, 0, 0], "stateRewards": ["", -4, -8, -48, -48, 4, -8, 48, 48, 2, 8, 48, 24], "withholdReward": true, "trial_id": "mdp_880437222492", "block": "test2", "trialIndex": 46, "score": 48.5, "costs": -0.5, "simulationMode": [null, null, null], "rewards": [4, -8, 48], "path": ["0", "0", "5", "6", "8"], "rt": [2559, 305, 331], "actions": ["right", "right", "down"], "actionTimes": [4104, 4941, 5800], "queries": {"click": {"state": {"target": ["12", "8"], "time": [2250, 3057]}, "edge": {"target": [], "time": []}}, "mouseover": {"state": {"target": ["0", "9", "12", "8"], "time": [1704, 1954, 2153, 2953]}, "edge": {"target": [], "time": []}}, "mouseout": {"state": {"target": ["12", "0", "0", "9", "12"], "time": [1170, 1287, 1938, 2020, 2620]}, "edge": {"target": [], "time": []}}}, "displayed_time": "9.55", "trialTime": 10481, "trial_type": "mouselab-mdp", "trial_index": 58, "time_elapsed": 966805, "internal_node_id": "0.0-4.0-3.0-12.0"}}, {"uniqueid": "w21672845:a95641781", "current_trial": 59, "dateTime": 1664555898853, "trialdata": {"revealed_states": [], "num_clicks_accrued": [0, 0, 0, 0, 0, 0, 0, 0, 0, 0, 0, 0, 0], "stateRewards": ["", -4, 8, -48, -48, -2, -8, -24, -48, 2, -4, -48, 24], "withholdReward": true, "trial_id": "mdp_743906784415", "block": "test2", "trialIndex": 47, "score": 25.5, "costs": -1.5, "simulationMode": [null, null, null], "rewards": [2, -4, 24], "path": ["0", "0", "9", "10", "12"], "rt": [5620, 200, 202], "actions": ["left", "left", "down"], "actionTimes": [6842, 7567, 8301], "queries": {"click": {"state": {"target": ["7", "11", "12", "8", "3", "4"], "time": [1777, 2537, 2994, 3976, 4769, 5233]}, "edge": {"target": [], "time": []}}, "mouseover": {"state": {"target": ["7", "11", "10", "12", "8", "3", "2", "4"], "time": [1669, 2352, 2735, 2984, 3735, 4667, 5034, 5117]}, "edge": {"target": [], "time": []}}, "mouseout": {"state": {"target": ["8", "9", "0", "7", "11", "10", "12", "8", "3", "2", "4"], "time": [619, 969, 1420, 2052, 2685, 2835, 3220, 4368, 4984, 5084, 5417]}, "edge": {"target": [], "time": []}}}, "displayed_time": "9.22", "trialTime": 11943, "trial_type": "mouselab-mdp", "trial_index": 59, "time_elapsed": 978864, "internal_node_id": "0.0-4.0-3.0-13.0"}}, {"uniqueid": "w21672845:a95641781", "current_trial": 60, "dateTime": 1664555909845, "trialdata": {"revealed_states": [], "num_clicks_accrued": [0, 0, 0, 0, 0, 0, 0, 0, 0, 0, 0, 0, 0], "stateRewards": ["", -2, 4, -48, -48, -4, -8, 48, -48, 2, 4, 48, -48], "withholdReward": true, "trial_id": "mdp_258647270500", "block": "test2", "trialIndex": 48, "score": 40.5, "costs": -0.5, "simulationMode": [null, null, null], "rewards": [-4, -8, 48], "path": ["0", "0", "5", "6", "7"], "rt": [2821, 125, 5], "actions": ["right", "right", "up"], "actionTimes": [3951, 4607, 5137], "queries": {"click": {"state": {"target": ["12", "7"], "time": [1689, 2833]}, "edge": {"target": [], "time": []}}, "mouseover": {"state": {"target": ["12", "8", "6", "7"], "time": [1549, 2266, 2433, 2549]}, "edge": {"target": [], "time": []}}, "mouseout": {"state": {"target": ["0", "12", "8", "6"], "time": [1266, 2000, 2399, 2482]}, "edge": {"target": [], "time": []}}}, "displayed_time": "10.13", "trialTime": 10871, "trial_type": "mouselab-mdp", "trial_index": 60, "time_elapsed": 989856, "internal_node_id": "0.0-4.0-3.0-14.0"}}, {"uniqueid": "w21672845:a95641781", "current_trial": 61, "dateTime": 1664555919984, "trialdata": {"revealed_states": [], "num_clicks_accrued": [0, 0, 0, 0, 0, 0, 0, 0, 0, 0, 0, 0, 0], "stateRewards": ["", 2, 4, -48, -48, 4, 4, -48, -48, -2, -8, 48, -24], "withholdReward": true, "trial_id": "mdp_175327338412", "block": "test2", "trialIndex": 49, "score": 42.5, "costs": -0.5, "simulationMode": [null, null, null], "rewards": [-2, -8, 48], "path": ["0", "0", "9", "10", "11"], "rt": [3201, 126, 50], "actions": ["left", "left", "up"], "actionTimes": [4396, 5041, 5615], "queries": {"click": {"state": {"target": ["3", "11"], "time": [2375, 3437]}, "edge": {"target": [], "time": []}}, "mouseover": {"state": {"target": ["1", "2", "3", "4", "11", "10"], "time": [1615, 1749, 2198, 2931, 3364, 3748]}, "edge": {"target": [], "time": []}}, "mouseout": {"state": {"target": ["7", "5", "1", "2", "3", "4", "11"], "time": [649, 849, 1699, 2098, 2631, 2965, 3648]}, "edge": {"target": [], "time": []}}}, "displayed_time": "9.20", "trialTime": 10014, "trial_type": "mouselab-mdp", "trial_index": 61, "time_elapsed": 999996, "internal_node_id": "0.0-4.0-3.0-15.0"}}, {"uniqueid": "w21672845:a95641781", "current_trial": 62, "dateTime": 1664555931157, "trialdata": {"revealed_states": [], "num_clicks_accrued": [0, 0, 0, 0, 0, 0, 0, 0, 0, 0, 0, 0, 0], "stateRewards": ["", -2, 8, 48, 24, 2, -8, -24, -48, -4, 8, -48, 24], "withholdReward": true, "trial_id": "mdp_224053025943", "block": "test2", "trialIndex": 50, "score": 57.75, "costs": -1.25, "simulationMode": [null, null, null], "rewards": [-2, 8, 48], "path": ["0", "0", "1", "2", "3"], "rt": [5172, 37, 381], "actions": ["up", "up", "right"], "actionTimes": [6197, 6763, 7674], "queries": {"click": {"state": {"target": ["11", "12", "8", "7", "3"], "time": [2024, 2832, 3768, 4508, 5120]}, "edge": {"target": [], "time": []}}, "mouseover": {"state": {"target": ["9", "11", "10", "12", "8", "6", "7", "3", "2"], "time": [1144, 1894, 2311, 2727, 3610, 4043, 4426, 4910, 5509]}, "edge": {"target": [], "time": []}}, "mouseout": {"state": {"target": ["10", "9", "0", "9", "11", "10", "12", "8", "6", "7", "3"], "time": [711, 794, 1128, 1161, 2244, 2327, 2978, 3926, 4160, 4826, 5443]}, "edge": {"target": [], "time": []}}}, "displayed_time": "10.03", "trialTime": 11055, "trial_type": "mouselab-mdp", "trial_index": 62, "time_elapsed": 1011169, "internal_node_id": "0.0-4.0-3.0-16.0"}}, {"uniqueid": "w21672845:a95641781", "current_trial": 63, "dateTime": 1664555942306, "trialdata": {"revealed_states": [], "num_clicks_accrued": [0, 0, 0, 0, 0, 0, 0, 0, 0, 0, 0, 0, 0], "stateRewards": ["", 4, -8, 48, 24, 4, -4, 48, 48, -4, 8, -48, 24], "withholdReward": true, "trial_id": "mdp_303828806348", "block": "test2", "trialIndex": 51, "score": 48.5, "costs": -0.5, "simulationMode": [null, null, null], "rewards": [4, -8, 48], "path": ["0", "0", "1", "2", "3"], "rt": [2141, 33, 328], "actions": ["up", "up", "right"], "actionTimes": [3193, 3751, 4613], "queries": {"click": {"state": {"target": ["4", "3"], "time": [1569, 2169]}, "edge": {"target": [], "time": []}}, "mouseover": {"state": {"target": ["4", "2", "3"], "time": [1435, 1984, 2068]}, "edge": {"target": [], "time": []}}, "mouseout": {"state": {"target": ["2", "1", "4", "2", "3"], "time": [702, 752, 1918, 2035, 2584]}, "edge": {"target": [], "time": []}}}, "displayed_time": "10.05", "trialTime": 11033, "trial_type": "mouselab-mdp", "trial_index": 63, "time_elapsed": 1022318, "internal_node_id": "0.0-4.0-3.0-17.0"}}, {"uniqueid": "w21672845:a95641781", "current_trial": 64, "dateTime": 1664555953402, "trialdata": {"revealed_states": [], "num_clicks_accrued": [0, 0, 0, 0, 0, 0, 0, 0, 0, 0, 0, 0, 0], "stateRewards": ["", -2, -8, 48, 24, 2, 8, -48, 24, -4, 8, 48, 48], "withholdReward": true, "trial_id": "mdp_875436109858", "block": "test2", "trialIndex": 52, "score": 42.75, "costs": -0.25, "simulationMode": [null, null, null], "rewards": [-2, -8, 48], "path": ["0", "0", "1", "2", "3"], "rt": [1557, 83, 40], "actions": ["up", "up", "right"], "actionTimes": [2792, 3396, 3969], "queries": {"click": {"state": {"target": ["3"], "time": [1784]}, "edge": {"target": [], "time": []}}, "mouseover": {"state": {"target": ["3", "2", "4"], "time": [1711, 2044, 2127]}, "edge": {"target": [], "time": []}}, "mouseout": {"state": {"target": ["0", "0", "3", "2"], "time": [778, 1282, 1994, 2094]}, "edge": {"target": [], "time": []}}}, "displayed_time": "10.23", "trialTime": 10960, "trial_type": "mouselab-mdp", "trial_index": 64, "time_elapsed": 1033414, "internal_node_id": "0.0-4.0-3.0-18.0"}}, {"uniqueid": "w21672845:a95641781", "current_trial": 65, "dateTime": 1664555964041, "trialdata": {"revealed_states": [], "num_clicks_accrued": [0, 0, 0, 0, 0, 0, 0, 0, 0, 0, 0, 0, 0], "stateRewards": ["", 4, -8, 48, -24, 4, -4, -48, -48, 4, -4, 24, 24], "withholdReward": false, "trial_id": "mdp_221562928904", "block": "test2", "trialIndex": 53, "score": 48.5, "costs": -0.5, "simulationMode": [null, null, null], "rewards": [4, -8, 48], "path": ["0", "0", "1", "2", "3"], "rt": [2137, 66, 47], "actions": ["up", "up", "right"], "actionTimes": [3792, 4390, 4971], "queries": {"click": {"state": {"target": ["4", "3"], "time": [2143, 2799]}, "edge": {"target": [], "time": []}}, "mouseover": {"state": {"target": ["4", "2", "3"], "time": [2041, 2558, 2608]}, "edge": {"target": [], "time": []}}, "mouseout": {"state": {"target": ["4", "1", "0", "4", "2", "3"], "time": [1075, 1175, 1758, 2508, 2591, 2991]}, "edge": {"target": [], "time": []}}}, "displayed_time": "9.65", "trialTime": 10518, "trial_type": "mouselab-mdp", "trial_index": 65, "time_elapsed": 1044053, "internal_node_id": "0.0-4.0-3.0-19.0"}}, {"uniqueid": "w21672845:a95641781", "current_trial": 66, "dateTime": 1664555975527, "trialdata": {"revealed_states": [], "num_clicks_accrued": [0, 0, 0, 0, 0, 0, 0, 0, 0, 0, 0, 0, 0], "stateRewards": ["", 4, 4, -24, -48, 2, 4, 24, -48, 2, 4, 24, 24], "withholdReward": false, "trial_id": "mdp_223558518218", "block": "test2", "trialIndex": 54, "score": 33.5, "costs": -1.5, "simulationMode": [null, null, null], "rewards": [2, 4, 24], "path": ["0", "0", "9", "10", "11"], "rt": [6844, 118, 148], "actions": ["left", "left", "up"], "actionTimes": [7910, 8559, 9238], "queries": {"click": {"state": {"target": ["3", "4", "11", "12", "8", "7"], "time": [1674, 2409, 3125, 3597, 4413, 4917]}, "edge": {"target": [], "time": []}}, "mouseover": {"state": {"target": ["3", "1", "4", "11", "10", "12", "8", "6", "7"], "time": [1575, 2124, 2293, 2791, 3357, 3574, 4273, 4740, 4823]}, "edge": {"target": [], "time": []}}, "mouseout": {"state": {"target": ["0", "3", "1", "4", "11", "10", "12", "8", "6", "7"], "time": [1241, 1958, 2158, 2591, 3274, 3474, 3874, 4707, 4773, 5256]}, "edge": {"target": [], "time": []}}}, "displayed_time": "10.07", "trialTime": 11358, "trial_type": "mouselab-mdp", "trial_index": 66, "time_elapsed": 1055538, "internal_node_id": "0.0-4.0-3.0-20.0"}}, {"uniqueid": "w21672845:a95641781", "current_trial": 67, "dateTime": 1664555986847, "trialdata": {"revealed_states": [], "num_clicks_accrued": [0, 0, 0, 0, 0, 0, 0, 0, 0, 0, 0, 0, 0], "stateRewards": ["", -4, -4, -48, 48, -4, -8, -24, -48, -2, 8, 48, 24], "withholdReward": false, "trial_id": "mdp_365393526663", "block": "test2", "trialIndex": 55, "score": 58.75, "costs": -0.25, "simulationMode": [null, null, null], "rewards": [-2, 8, 48], "path": ["0", "0", "9", "10", "11"], "rt": [1699, 147, 43], "actions": ["left", "left", "up"], "actionTimes": [2843, 3520, 4100], "queries": {"click": {"state": {"target": ["11"], "time": [1789]}, "edge": {"target": [], "time": []}}, "mouseover": {"state": {"target": ["0", "9", "10", "11", "10"], "time": [1221, 1388, 1488, 1688, 2121]}, "edge": {"target": [], "time": []}}, "mouseout": {"state": {"target": ["0", "9", "10", "11", "10"], "time": [1321, 1438, 1639, 2020, 2254]}, "edge": {"target": [], "time": []}}}, "displayed_time": "10.14", "trialTime": 11214, "trial_type": "mouselab-mdp", "trial_index": 67, "time_elapsed": 1066859, "internal_node_id": "0.0-4.0-3.0-21.0"}}, {"uniqueid": "w21672845:a95641781", "current_trial": 68, "dateTime": 1664555997310, "trialdata": {"revealed_states": [], "num_clicks_accrued": [0, 0, 0, 0, 0, 0, 0, 0, 0, 0, 0, 0, 0], "stateRewards": ["", 4, -8, -48, -24, 2, -8, -48, 48, -4, 8, 48, -48], "withholdReward": false, "trial_id": "mdp_605757196263", "block": "test2", "trialIndex": 56, "score": 56.5, "costs": -0.5, "simulationMode": [null, null, null], "rewards": [-4, 8, 48], "path": ["0", "0", "9", "10", "11"], "rt": [2422, 191, 7], "actions": ["left", "left", "up"], "actionTimes": [3699, 4415, 4948], "queries": {"click": {"state": {"target": ["7", "11"], "time": [1884, 2660]}, "edge": {"target": [], "time": []}}, "mouseover": {"state": {"target": ["5", "7", "11", "10"], "time": [1589, 1739, 2539, 2939]}, "edge": {"target": [], "time": []}}, "mouseout": {"state": {"target": ["0", "5", "7", "11", "10"], "time": [1506, 1639, 2272, 2855, 3072]}, "edge": {"target": [], "time": []}}}, "displayed_time": "9.28", "trialTime": 10317, "trial_type": "mouselab-mdp", "trial_index": 68, "time_elapsed": 1077322, "internal_node_id": "0.0-4.0-3.0-22.0"}}, {"uniqueid": "w21672845:a95641781", "current_trial": 69, "dateTime": 1664556008615, "trialdata": {"revealed_states": [], "num_clicks_accrued": [0, 0, 0, 0, 0, 0, 0, 0, 0, 0, 0, 0, 0], "stateRewards": ["", 2, 8, -24, -48, -4, 8, -48, -48, -2, -8, -24, -24], "withholdReward": true, "trial_id": "mdp_978177451072", "block": "test2", "trialIndex": 57, "score": -30.5, "costs": -1.5, "simulationMode": [null, null, null], "rewards": [-2, -8, -24], "path": ["0", "0", "9", "10", "11"], "rt": [5334, 113, 28], "actions": ["left", "left", "up"], "actionTimes": [6493, 7134, 7681], "queries": {"click": {"state": {"target": ["12", "11", "4", "3", "7", "8"], "time": [1544, 2239, 3107, 3538, 4073, 4506]}, "edge": {"target": [], "time": []}}, "mouseover": {"state": {"target": ["0", "12", "10", "11", "2", "4", "2", "3", "7", "6", "8"], "time": [1223, 1390, 1990, 2106, 2806, 3006, 3322, 3422, 3890, 4288, 4422]}, "edge": {"target": [], "time": []}}, "mouseout": {"state": {"target": ["10", "9", "0", "0", "0", "12", "10", "11", "2", "4", "2", "3", "7", "6", "8"], "time": [640, 706, 756, 1022, 1256, 1956, 2056, 2439, 2972, 3291, 3389, 3755, 4222, 4372, 5204]}, "edge": {"target": [], "time": []}}}, "displayed_time": "10.16", "trialTime": 11177, "trial_type": "mouselab-mdp", "trial_index": 69, "time_elapsed": 1088627, "internal_node_id": "0.0-4.0-3.0-23.0"}}, {"uniqueid": "w21672845:a95641781", "current_trial": 70, "dateTime": 1664556019535, "trialdata": {"revealed_states": [], "num_clicks_accrued": [0, 0, 0, 0, 0, 0, 0, 0, 0, 0, 0, 0, 0], "stateRewards": ["", 2, 4, 48, 24, -2, -8, 24, 24, -2, 4, -48, 24], "withholdReward": true, "trial_id": "mdp_130849500124", "block": "test2", "trialIndex": 58, "score": 57.75, "costs": -1.25, "simulationMode": [null, null, null], "rewards": [2, 4, 48], "path": ["0", "0", "1", "2", "3"], "rt": [4168, 118, 1748], "actions": ["up", "up", "right"], "actionTimes": [5262, 5906, 8184], "queries": {"click": {"state": {"target": ["11", "12", "7", "8", "3"], "time": [1741, 2271, 3004, 3503, 4196]}, "edge": {"target": [], "time": []}}, "mouseover": {"state": {"target": ["9", "10", "11", "10", "12", "7", "6", "8", "6", "3", "2"], "time": [1419, 1485, 1669, 2102, 2188, 2918, 3285, 3403, 3903, 4101, 4501]}, "edge": {"target": [], "time": []}}, "mouseout": {"state": {"target": ["5", "0", "9", "10", "11", "10", "12", "7", "6", "8", "6", "7", "3", "2"], "time": [819, 1386, 1452, 1569, 2068, 2135, 2468, 3252, 3335, 3884, 3934, 3988, 4468, 4684]}, "edge": {"target": [], "time": []}}}, "displayed_time": "9.09", "trialTime": 10798, "trial_type": "mouselab-mdp", "trial_index": 70, "time_elapsed": 1099547, "internal_node_id": "0.0-4.0-3.0-24.0"}}, {"uniqueid": "w21672845:a95641781", "current_trial": 71, "dateTime": 1664556029808, "trialdata": {"revealed_states": [], "num_clicks_accrued": [0, 0, 0, 0, 0, 0, 0, 0, 0, 0, 0, 0, 0], "stateRewards": ["", -2, 4, -24, 24, -4, -8, 24, -48, -4, -4, -48, -24], "withholdReward": true, "trial_id": "mdp_753137520419", "block": "test2", "trialIndex": 59, "score": 15.5, "costs": -1.5, "simulationMode": [null, null, null], "rewards": [-4, -8, 24], "path": ["0", "0", "5", "6", "7"], "rt": [6052, 36, 18], "actions": ["right", "right", "up"], "actionTimes": [7056, 7614, 8162], "queries": {"click": {"state": {"target": ["7", "3", "4", "11", "12", "8"], "time": [1580, 2274, 2825, 3305, 3740, 4446]}, "edge": {"target": [], "time": []}}, "mouseover": {"state": {"target": ["7", "6", "3", "2", "4", "11", "10", "12", "8", "8", "6"], "time": [1497, 1878, 2145, 2645, 2711, 3228, 3561, 3661, 4094, 4427, 5294]}, "edge": {"target": [], "time": []}}, "mouseout": {"state": {"target": ["1", "7", "6", "3", "2", "4", "11", "10", "12", "8", "8", "6"], "time": [778, 1812, 1978, 2428, 2663, 2978, 3477, 3611, 3961, 4113, 5143, 6076]}, "edge": {"target": [], "time": []}}}, "displayed_time": "9.01", "trialTime": 10152, "trial_type": "mouselab-mdp", "trial_index": 71, "time_elapsed": 1109820, "internal_node_id": "0.0-4.0-3.0-25.0"}}, {"uniqueid": "w21672845:a95641781", "current_trial": 72, "dateTime": 1664556041521, "trialdata": {"revealed_states": [], "num_clicks_accrued": [0, 0, 0, 0, 0, 0, 0, 0, 0, 0, 0, 0, 0], "stateRewards": ["", -4, 8, 24, -24, 4, 8, -24, -48, 2, 4, 24, -24], "withholdReward": false, "trial_id": "mdp_782187007008", "block": "test2", "trialIndex": 60, "score": 31.5, "costs": -1.5, "simulationMode": [null, null, null], "rewards": [-4, 8, 24], "path": ["0", "0", "1", "2", "3"], "rt": [4568, 100, 92], "actions": ["up", "up", "right"], "actionTimes": [6128, 6750, 7374], "queries": {"click": {"state": {"target": ["7", "8", "12", "11", "4", "3"], "time": [2079, 2551, 3178, 3616, 4114, 4816]}, "edge": {"target": [], "time": []}}, "mouseover": {"state": {"target": ["7", "6", "8", "12", "10", "11", "4", "2", "3"], "time": [1850, 2250, 2433, 3049, 3383, 3482, 3932, 4315, 4615]}, "edge": {"target": [], "time": []}}, "mouseout": {"state": {"target": ["7", "5", "0", "0", "7", "6", "8", "12", "10", "11", "4", "2", "3"], "time": [650, 733, 900, 1216, 2216, 2366, 2766, 3332, 3449, 3799, 4248, 4398, 5015]}, "edge": {"target": [], "time": []}}}, "displayed_time": "10.56", "trialTime": 11591, "trial_type": "mouselab-mdp", "trial_index": 72, "time_elapsed": 1121533, "internal_node_id": "0.0-4.0-3.0-26.0"}}, {"uniqueid": "w21672845:a95641781", "current_trial": 73, "dateTime": 1664556052609, "trialdata": {"revealed_states": [], "num_clicks_accrued": [0, 0, 0, 0, 0, 0, 0, 0, 0, 0, 0, 0, 0], "stateRewards": ["", -4, 8, -24, 48, 2, -8, 24, 48, 2, -8, -24, -48], "withholdReward": true, "trial_id": "mdp_493778446445", "block": "test2", "trialIndex": 61, "score": 46.25, "costs": -0.75, "simulationMode": [null, null, null], "rewards": [2, -8, 48], "path": ["0", "0", "5", "6", "8"], "rt": [2790, 47, 116], "actions": ["right", "right", "down"], "actionTimes": [3839, 4410, 5047], "queries": {"click": {"state": {"target": ["3", "7", "8"], "time": [1820, 2263, 2757]}, "edge": {"target": [], "time": []}}, "mouseover": {"state": {"target": ["1", "3", "3", "7", "6", "8"], "time": [1314, 1497, 1763, 2146, 2513, 2646]}, "edge": {"target": [], "time": []}}, "mouseout": {"state": {"target": ["0", "1", "3", "3", "7", "6", "8"], "time": [930, 1413, 1530, 2013, 2446, 2596, 2946]}, "edge": {"target": [], "time": []}}}, "displayed_time": "10.05", "trialTime": 10948, "trial_type": "mouselab-mdp", "trial_index": 73, "time_elapsed": 1132621, "internal_node_id": "0.0-4.0-3.0-27.0"}}, {"uniqueid": "w21672845:a95641781", "current_trial": 74, "dateTime": 1664556064019, "trialdata": {"revealed_states": [], "num_clicks_accrued": [0, 0, 0, 0, 0, 0, 0, 0, 0, 0, 0, 0, 0], "stateRewards": ["", -2, 8, 48, 48, 2, 4, -48, 24, -4, -8, 48, 24], "withholdReward": false, "trial_id": "mdp_572910394648", "block": "test2", "trialIndex": 62, "score": 40.75, "costs": -0.25, "simulationMode": [null, null, null], "rewards": [-4, -8, 48], "path": ["0", "0", "9", "10", "11"], "rt": [2301, 177, 64], "actions": ["left", "left", "up"], "actionTimes": [3235, 3941, 4527], "queries": {"click": {"state": {"target": ["11"], "time": [2007]}, "edge": {"target": [], "time": []}}, "mouseover": {"state": {"target": ["11", "10", "12"], "time": [1881, 2247, 2314]}, "edge": {"target": [], "time": []}}, "mouseout": {"state": {"target": ["0", "11", "10", "12"], "time": [1398, 2214, 2280, 10760]}, "edge": {"target": [], "time": []}}}, "displayed_time": "8.94", "trialTime": 11297, "trial_type": "mouselab-mdp", "trial_index": 74, "time_elapsed": 1144031, "internal_node_id": "0.0-4.0-3.0-28.0"}}, {"uniqueid": "w21672845:a95641781", "current_trial": 75, "dateTime": 1664556075520, "trialdata": {"revealed_states": [], "num_clicks_accrued": [0, 0, 0, 0, 0, 0, 0, 0, 0, 0, 0, 0, 0], "stateRewards": ["", -2, -4, -48, -48, -2, -8, 48, -48, 4, -8, -48, 24], "withholdReward": true, "trial_id": "mdp_468495641521", "block": "test2", "trialIndex": 63, "score": 42.75, "costs": -0.25, "simulationMode": [null, null, null], "rewards": [-2, -8, 48], "path": ["0", "0", "5", "6", "7"], "rt": [1723, 394, 94], "actions": ["right", "right", "up"], "actionTimes": [2758, 3681, 4296], "queries": {"click": {"state": {"target": ["7"], "time": [1720]}, "edge": {"target": [], "time": []}}, "mouseover": {"state": {"target": ["0", "7"], "time": [1353, 1569]}, "edge": {"target": [], "time": []}}, "mouseout": {"state": {"target": ["12", "0", "0"], "time": [669, 920, 1386]}, "edge": {"target": [], "time": []}}}, "displayed_time": "10.04", "trialTime": 11375, "trial_type": "mouselab-mdp", "trial_index": 75, "time_elapsed": 1155532, "internal_node_id": "0.0-4.0-3.0-29.0"}}, {"uniqueid": "w21672845:a95641781", "current_trial": 76, "dateTime": 1664556079697, "trialdata": {"rt": 4172, "stimulus": "<h1> End of block! </h1>\n\nYou have reached the end of the block 2/4. If you need a short break, feel free to take one now before moving on.\n\n<br><br>\nIn the next block, you will complete another 30 rounds of this game.\n\n<br><br>\n<div style='text-align: center;'>Press <code>space</code> to begin.</div>\n<br><br>\n<div style='text-align: center;'>(If the experiment doesn't continue, try clicking on the text and then pressing <code>space</code>.)</div>", "response": " ", "trial_id": "mdp_ready_3", "trial_type": "html-keyboard-response", "trial_index": 76, "time_elapsed": 1159709, "internal_node_id": "0.0-4.0-4.0"}}, {"uniqueid": "w21672845:a95641781", "current_trial": 77, "dateTime": 1664556090878, "trialdata": {"revealed_states": [], "num_clicks_accrued": [0, 0, 0, 0, 0, 0, 0, 0, 0, 0, 0, 0, 0], "stateRewards": ["", 2, -8, 48, -24, -4, -8, -24, 48, -2, 4, 24, -48], "withholdReward": true, "trial_id": "mdp_186932504904", "block": "test3", "trialIndex": 64, "score": 46.75, "costs": -0.25, "simulationMode": [null, null, null], "rewards": [2, -8, 48], "path": ["0", "0", "1", "2", "3"], "rt": [1855, 99, 333], "actions": ["up", "up", "right"], "actionTimes": [3325, 3954, 4821], "queries": {"click": {"state": {"target": ["3"], "time": [2210]}, "edge": {"target": [], "time": []}}, "mouseover": {"state": {"target": ["3", "1"], "time": [2089, 2655]}, "edge": {"target": [], "time": []}}, "mouseout": {"state": {"target": ["7", "5", "3", "1"], "time": [722, 1205, 2422, 2705]}, "edge": {"target": [], "time": []}}}, "displayed_time": "10.47", "trialTime": 11043, "trial_type": "mouselab-mdp", "trial_index": 77, "time_elapsed": 1170890, "internal_node_id": "0.0-4.0-5.0-0.0"}}, {"uniqueid": "w21672845:a95641781", "current_trial": 78, "dateTime": 1664556100979, "trialdata": {"revealed_states": [], "num_clicks_accrued": [0, 0, 0, 0, 0, 0, 0, 0, 0, 0, 0, 0, 0], "stateRewards": ["", -2, -4, 48, 48, 2, 4, -48, 24, 4, -8, 24, -24], "withholdReward": true, "trial_id": "mdp_628613319495", "block": "test3", "trialIndex": 65, "score": 46, "costs": -1, "simulationMode": [null, null, null], "rewards": [-2, -4, 48], "path": ["0", "0", "1", "2", "4"], "rt": [3573, 101, 453], "actions": ["up", "up", "left"], "actionTimes": [4521, 5147, 6132], "queries": {"click": {"state": {"target": ["8", "12", "11", "4"], "time": [1441, 2385, 2950, 3550]}, "edge": {"target": [], "time": []}}, "mouseover": {"state": {"target": ["5", "6", "8", "12", "10", "11", "4", "1"], "time": [1178, 1278, 1412, 2194, 2744, 2811, 3461, 3761]}, "edge": {"target": [], "time": []}}, "mouseout": {"state": {"target": ["0", "5", "6", "8", "12", "10", "11", "4"], "time": [1129, 1229, 1297, 2028, 2711, 2778, 3144, 3711]}, "edge": {"target": [], "time": []}}}, "displayed_time": "8.95", "trialTime": 9972, "trial_type": "mouselab-mdp", "trial_index": 78, "time_elapsed": 1180991, "internal_node_id": "0.0-4.0-5.0-1.0"}}, {"uniqueid": "w21672845:a95641781", "current_trial": 79, "dateTime": 1664556112546, "trialdata": {"revealed_states": [], "num_clicks_accrued": [0, 0, 0, 0, 0, 0, 0, 0, 0, 0, 0, 0, 0], "stateRewards": ["", -2, -8, 48, 24, 4, -8, 24, 48, 4, -4, 24, -48], "withholdReward": true, "trial_id": "mdp_871576155740", "block": "test3", "trialIndex": 66, "score": 42.75, "costs": -0.25, "simulationMode": [null, null, null], "rewards": [-2, -8, 48], "path": ["0", "0", "1", "2", "3"], "rt": [1652, 139, 147], "actions": ["up", "up", "right"], "actionTimes": [2512, 3182, 3856], "queries": {"click": {"state": {"target": ["3"], "time": [1570]}, "edge": {"target": [], "time": []}}, "mouseover": {"state": {"target": ["3", "3"], "time": [1158, 1460]}, "edge": {"target": [], "time": []}}, "mouseout": {"state": {"target": ["1", "3"], "time": [674, 1191]}, "edge": {"target": [], "time": []}}}, "displayed_time": "9.86", "trialTime": 11422, "trial_type": "mouselab-mdp", "trial_index": 79, "time_elapsed": 1192557, "internal_node_id": "0.0-4.0-5.0-2.0"}}, {"uniqueid": "w21672845:a95641781", "current_trial": 80, "dateTime": 1664556124189, "trialdata": {"revealed_states": [], "num_clicks_accrued": [0, 0, 0, 0, 0, 0, 0, 0, 0, 0, 0, 0, 0], "stateRewards": ["", -2, -4, -24, -48, 2, -8, -24, -24, 4, -8, 48, 48], "withholdReward": true, "trial_id": "mdp_950599994674", "block": "test3", "trialIndex": 67, "score": 48.5, "costs": -0.5, "simulationMode": [null, null, null], "rewards": [4, -8, 48], "path": ["0", "0", "9", "10", "11"], "rt": [3159, 289, 78], "actions": ["left", "left", "up"], "actionTimes": [4278, 5104, 5708], "queries": {"click": {"state": {"target": ["7", "11"], "time": [2114, 3379]}, "edge": {"target": [], "time": []}}, "mouseover": {"state": {"target": ["0", "7", "11", "11", "11", "10"], "time": [1134, 1733, 2679, 2995, 3278, 3578]}, "edge": {"target": [], "time": []}}, "mouseout": {"state": {"target": ["3", "0", "7", "11", "11", "11", "10"], "time": [679, 1346, 2495, 2711, 3045, 3546, 3597]}, "edge": {"target": [], "time": []}}}, "displayed_time": "10.12", "trialTime": 11525, "trial_type": "mouselab-mdp", "trial_index": 80, "time_elapsed": 1204200, "internal_node_id": "0.0-4.0-5.0-3.0"}}, {"uniqueid": "w21672845:a95641781", "current_trial": 81, "dateTime": 1664556134983, "trialdata": {"revealed_states": [], "num_clicks_accrued": [0, 0, 0, 0, 0, 0, 0, 0, 0, 0, 0, 0, 0], "stateRewards": ["", 4, 8, -48, -48, 2, 4, -24, -48, 2, 8, 48, -48], "withholdReward": false, "trial_id": "mdp_902172716465", "block": "test3", "trialIndex": 68, "score": 62.5, "costs": -0.5, "simulationMode": [null, null, null], "rewards": [2, 8, 48], "path": ["0", "0", "9", "10", "11"], "rt": [2441, 248, 222], "actions": ["left", "left", "up"], "actionTimes": [3698, 4482, 5240], "queries": {"click": {"state": {"target": ["12", "11"], "time": [1961, 2617]}, "edge": {"target": [], "time": []}}, "mouseover": {"state": {"target": ["12", "12", "10", "11"], "time": [1566, 1833, 2385, 2532]}, "edge": {"target": [], "time": []}}, "mouseout": {"state": {"target": ["9", "0", "0", "12", "12", "10", "11"], "time": [700, 816, 1417, 1616, 2366, 2449, 2982]}, "edge": {"target": [], "time": []}}}, "displayed_time": "9.26", "trialTime": 10679, "trial_type": "mouselab-mdp", "trial_index": 81, "time_elapsed": 1214995, "internal_node_id": "0.0-4.0-5.0-4.0"}}, {"uniqueid": "w21672845:a95641781", "current_trial": 82, "dateTime": 1664556145126, "trialdata": {"revealed_states": [], "num_clicks_accrued": [0, 0, 0, 0, 0, 0, 0, 0, 0, 0, 0, 0, 0], "stateRewards": ["", 4, -8, 48, -24, 4, -4, -48, -48, 4, -4, 24, 24], "withholdReward": true, "trial_id": "mdp_221562928904", "block": "test3", "trialIndex": 69, "score": 48.25, "costs": -0.75, "simulationMode": [null, null, null], "rewards": [4, -8, 48], "path": ["0", "0", "1", "2", "3"], "rt": [3040, 242, 65], "actions": ["up", "up", "right"], "actionTimes": [4055, 4826, 5416], "queries": {"click": {"state": {"target": ["8", "7", "3"], "time": [1785, 2345, 2979]}, "edge": {"target": [], "time": []}}, "mouseover": {"state": {"target": ["5", "6", "8", "6", "7", "3"], "time": [1369, 1453, 1719, 2136, 2202, 2869]}, "edge": {"target": [], "time": []}}, "mouseout": {"state": {"target": ["5", "6", "8", "6", "7", "3"], "time": [1421, 1686, 2102, 2169, 2552, 3135]}, "edge": {"target": [], "time": []}}}, "displayed_time": "9.02", "trialTime": 10029, "trial_type": "mouselab-mdp", "trial_index": 82, "time_elapsed": 1225137, "internal_node_id": "0.0-4.0-5.0-5.0"}}, {"uniqueid": "w21672845:a95641781", "current_trial": 83, "dateTime": 1664556155484, "trialdata": {"revealed_states": [], "num_clicks_accrued": [0, 0, 0, 0, 0, 0, 0, 0, 0, 0, 0, 0, 0], "stateRewards": ["", 4, 4, 24, -48, 2, -8, -24, -48, 4, 8, 48, 48], "withholdReward": true, "trial_id": "mdp_592471239511", "block": "test3", "trialIndex": 70, "score": 64, "costs": -1, "simulationMode": [null, null, null], "rewards": [4, 8, 48], "path": ["0", "0", "9", "10", "11"], "rt": [3525, 334, 280], "actions": ["left", "left", "up"], "actionTimes": [4940, 5807, 6619], "queries": {"click": {"state": {"target": ["4", "3", "11", "12"], "time": [1909, 2502, 3282, 3711]}, "edge": {"target": [], "time": []}}, "mouseover": {"state": {"target": ["4", "2", "3", "1", "9", "10", "11", "10", "12", "10"], "time": [1822, 2325, 2498, 2922, 3022, 3089, 3205, 3488, 3622, 4122]}, "edge": {"target": [], "time": []}}, "mouseout": {"state": {"target": ["0", "0", "4", "2", "3", "1", "9", "10", "11", "10", "12"], "time": [889, 1556, 2306, 2389, 2839, 2972, 3041, 3138, 3439, 3571, 4055]}, "edge": {"target": [], "time": []}}}, "displayed_time": "9.42", "trialTime": 10229, "trial_type": "mouselab-mdp", "trial_index": 83, "time_elapsed": 1235496, "internal_node_id": "0.0-4.0-5.0-6.0"}}, {"uniqueid": "w21672845:a95641781", "current_trial": 84, "dateTime": 1664556168237, "trialdata": {"revealed_states": [], "num_clicks_accrued": [0, 0, 0, 0, 0, 0, 0, 0, 0, 0, 0, 0, 0], "stateRewards": ["", -2, -4, -24, 48, -2, -8, -48, -24, 4, 8, 48, 24], "withholdReward": true, "trial_id": "mdp_625355871626", "block": "test3", "trialIndex": 71, "score": 45.75, "costs": -1.25, "simulationMode": [null, null, null], "rewards": [-2, -4, 48], "path": ["0", "0", "1", "2", "4"], "rt": [3989, 466, 84], "actions": ["up", "up", "left"], "actionTimes": [5595, 6594, 7209], "queries": {"click": {"state": {"target": ["12", "8", "7", "3", "4"], "time": [1994, 2745, 3282, 3921, 4450]}, "edge": {"target": [], "time": []}}, "mouseover": {"state": {"target": ["12", "8", "6", "7", "3", "2", "4", "11"], "time": [1860, 2693, 3043, 3143, 3809, 4209, 4309, 4825]}, "edge": {"target": [], "time": []}}, "mouseout": {"state": {"target": ["10", "9", "0", "12", "8", "6", "7", "3", "2", "4", "11"], "time": [611, 794, 1710, 2310, 2993, 3093, 3543, 4176, 4259, 4625, 4944]}, "edge": {"target": [], "time": []}}}, "displayed_time": "11.61", "trialTime": 12641, "trial_type": "mouselab-mdp", "trial_index": 84, "time_elapsed": 1248249, "internal_node_id": "0.0-4.0-5.0-7.0"}}, {"uniqueid": "w21672845:a95641781", "current_trial": 85, "dateTime": 1664556179588, "trialdata": {"revealed_states": [], "num_clicks_accrued": [0, 0, 0, 0, 0, 0, 0, 0, 0, 0, 0, 0, 0], "stateRewards": ["", -2, -4, -48, 48, -2, -4, 24, 48, -4, -8, -24, 24], "withholdReward": false, "trial_id": "mdp_917590390609", "block": "test3", "trialIndex": 72, "score": 46.25, "costs": -0.75, "simulationMode": [null, null, null], "rewards": [-2, -4, 48], "path": ["0", "0", "1", "2", "4"], "rt": [3268, 176, 448], "actions": ["up", "up", "left"], "actionTimes": [4360, 5061, 6033], "queries": {"click": {"state": {"target": ["11", "12", "4"], "time": [1698, 2184, 3184]}, "edge": {"target": [], "time": []}}, "mouseover": {"state": {"target": ["9", "10", "11", "10", "12", "9", "2", "4", "2", "3"], "time": [1385, 1518, 1585, 1967, 2134, 2501, 2717, 3117, 3450, 3550]}, "edge": {"target": [], "time": []}}, "mouseout": {"state": {"target": ["9", "10", "11", "10", "12", "9", "2", "4", "2", "3"], "time": [1485, 1537, 1884, 2067, 2401, 2534, 3067, 3384, 3517, 3734]}, "edge": {"target": [], "time": []}}}, "displayed_time": "10.09", "trialTime": 11222, "trial_type": "mouselab-mdp", "trial_index": 85, "time_elapsed": 1259599, "internal_node_id": "0.0-4.0-5.0-8.0"}}, {"uniqueid": "w21672845:a95641781", "current_trial": 86, "dateTime": 1664556190885, "trialdata": {"revealed_states": [], "num_clicks_accrued": [0, 0, 0, 0, 0, 0, 0, 0, 0, 0, 0, 0, 0], "stateRewards": ["", -4, -4, -24, -48, -4, 8, -24, -48, 4, -8, 24, -24], "withholdReward": true, "trial_id": "mdp_924927483179", "block": "test3", "trialIndex": 73, "score": 23.5, "costs": -1.5, "simulationMode": [null, null, null], "rewards": [4, -8, 24], "path": ["0", "0", "9", "10", "11"], "rt": [5281, 99, 146], "actions": ["left", "left", "up"], "actionTimes": [6254, 6884, 7564], "queries": {"click": {"state": {"target": ["3", "4", "11", "12", "7", "8"], "time": [1488, 2048, 2570, 3059, 4066, 4520]}, "edge": {"target": [], "time": []}}, "mouseover": {"state": {"target": ["0", "3", "2", "4", "11", "10", "12", "8", "7", "6", "8", "5"], "time": [988, 1419, 1854, 1919, 2435, 2818, 2968, 3501, 3934, 4367, 4434, 5084]}, "edge": {"target": [], "time": []}}, "mouseout": {"state": {"target": ["0", "3", "2", "4", "11", "10", "12", "8", "7", "6", "8", "5"], "time": [1120, 1719, 1885, 2302, 2751, 2918, 3235, 3551, 4317, 4401, 5034, 5184]}, "edge": {"target": [], "time": []}}}, "displayed_time": "9.97", "trialTime": 11176, "trial_type": "mouselab-mdp", "trial_index": 86, "time_elapsed": 1270897, "internal_node_id": "0.0-4.0-5.0-9.0"}}, {"uniqueid": "w21672845:a95641781", "current_trial": 87, "dateTime": 1664556200854, "trialdata": {"revealed_states": [], "num_clicks_accrued": [0, 0, 0, 0, 0, 0, 0, 0, 0, 0, 0, 0, 0], "stateRewards": ["", -4, 4, -24, 48, 2, 4, -48, 24, 4, -8, -24, 24], "withholdReward": true, "trial_id": "mdp_740130150937", "block": "test3", "trialIndex": 74, "score": 52.75, "costs": -0.25, "simulationMode": [null, null, null], "rewards": [-4, 4, 48], "path": ["0", "0", "1", "2", "4"], "rt": [1936, 5, 474], "actions": ["up", "up", "left"], "actionTimes": [2893, 3426, 4429], "queries": {"click": {"state": {"target": ["4"], "time": [1649]}, "edge": {"target": [], "time": []}}, "mouseover": {"state": {"target": ["1", "2", "4"], "time": [1320, 1469, 1553]}, "edge": {"target": [], "time": []}}, "mouseout": {"state": {"target": ["1", "2", "4"], "time": [1403, 1520, 2086]}, "edge": {"target": [], "time": []}}}, "displayed_time": "8.96", "trialTime": 9850, "trial_type": "mouselab-mdp", "trial_index": 87, "time_elapsed": 1280865, "internal_node_id": "0.0-4.0-5.0-10.0"}}, {"uniqueid": "w21672845:a95641781", "current_trial": 88, "dateTime": 1664556210906, "trialdata": {"revealed_states": [], "num_clicks_accrued": [0, 0, 0, 0, 0, 0, 0, 0, 0, 0, 0, 0, 0], "stateRewards": ["", 2, 4, -48, -48, 4, 4, -48, -48, -2, -8, 48, -24], "withholdReward": true, "trial_id": "mdp_175327338412", "block": "test3", "trialIndex": 75, "score": 42.25, "costs": -0.75, "simulationMode": [null, null, null], "rewards": [-2, -8, 48], "path": ["0", "0", "9", "10", "11"], "rt": [3052, 80, 102], "actions": ["left", "left", "up"], "actionTimes": [4051, 4659, 5281], "queries": {"click": {"state"