{"condition": 0, "counterbalance": 0, "assignmentId": "a99587770", "workerId": "w71849840", "hitId": "h97302326", "currenttrial": 367, "bonus": 0, "data": [{"uniqueid": "w71849840:a99587770", "current_trial": 0, "dateTime": 1664555110388, "trialdata": {"success": true, "trial_type": "fullscreen", "trial_index": 0, "time_elapsed": 28952, "internal_node_id": "0.0-0.0"}}, {"uniqueid": "w71849840:a99587770", "current_trial": 1, "dateTime": 1664555149460, "trialdata": {"view_history": [{"page_index": 0, "viewing_time": 39068}], "rt": 39069, "trial_id": "exp_instructions_distractor", "trial_type": "instructions", "trial_index": 1, "time_elapsed": 68025, "internal_node_id": "0.0-1.0"}}, {"uniqueid": "w71849840:a99587770", "current_trial": 2, "dateTime": 1664555179651, "trialdata": {"view_history": [{"page_index": 0, "viewing_time": 30189}], "rt": 30189, "trial_id": "color_game_instructions", "trial_type": "instructions", "trial_index": 2, "time_elapsed": 98216, "internal_node_id": "0.0-2.0"}}, {"uniqueid": "w71849840:a99587770", "current_trial": 3, "dateTime": 1664555190890, "trialdata": {"rt": 11237, "stimulus": "<h1> Get ready to start the game! </h1>\n\nThank you for reading the instructions. Get ready start with the first of 5 block(s) of this game.\n<br><br>\nIn this first block, you will complete 90 rounds of this game before moving on.\n<br><br>\nRemember, the better you perform, the bigger your bonus will be!\n<br><br>\n<div style='text-align: center;'>Press <code>space</code> to begin.</div>", "response": " ", "trial_id": "stroop_1_ready_1", "trial_type": "html-keyboard-response", "trial_index": 3, "time_elapsed": 109455, "internal_node_id": "0.0-3.0"}}, {"uniqueid": "w71849840:a99587770", "current_trial": 4, "dateTime": 1664555193236, "trialdata": {"rt": 2341, "stimulus": "<p id='stroop-text' class='stroop-blue'>RED</p>", "response": "b", "stimulus-type": "incongruent", "word": "red", "color": "blue", "correct_response": "b", "trial_id": "stroop-trial-1-incongruent-26", "trial_type": "html-keyboard-response", "trial_index": 4, "time_elapsed": 111801, "internal_node_id": "0.0-4.0-0.0"}}, {"uniqueid": "w71849840:a99587770", "current_trial": 5, "dateTime": 1664555194962, "trialdata": {"rt": 1218, "stimulus": "<p id='stroop-text' class='stroop-yellow'>GREEN</p>", "response": "y", "stimulus-type": "incongruent", "word": "green", "color": "yellow", "correct_response": "y", "trial_id": "stroop-trial-1-incongruent-19", "trial_type": "html-keyboard-response", "trial_index": 5, "time_elapsed": 113526, "internal_node_id": "0.0-4.0-1.0"}}, {"uniqueid": "w71849840:a99587770", "current_trial": 6, "dateTime": 1664555196529, "trialdata": {"rt": 1064, "stimulus": "<p id='stroop-text' class='stroop-green'>GREEN</p>", "response": "g", "stimulus-type": "congruent", "word": "green", "color": "green", "correct_response": "g", "trial_id": "stroop-trial-1-congruent-4", "trial_type": "html-keyboard-response", "trial_index": 6, "time_elapsed": 115093, "internal_node_id": "0.0-4.0-2.0"}}, {"uniqueid": "w71849840:a99587770", "current_trial": 7, "dateTime": 1664555198522, "trialdata": {"rt": 1491, "stimulus": "<p id='stroop-text' class='stroop-blue'>BLUE</p>", "response": "b", "stimulus-type": "congruent", "word": "blue", "color": "blue", "correct_response": "b", "trial_id": "stroop-trial-1-congruent-19", "trial_type": "html-keyboard-response", "trial_index": 7, "time_elapsed": 117087, "internal_node_id": "0.0-4.0-3.0"}}, {"uniqueid": "w71849840:a99587770", "current_trial": 8, "dateTime": 1664555200448, "trialdata": {"rt": 1423, "stimulus": "<p id='stroop-text' class='stroop-red'>BLUE</p>", "response": "r", "stimulus-type": "incongruent", "word": "blue", "color": "red", "correct_response": "r", "trial_id": "stroop-trial-1-incongruent-20", "trial_type": "html-keyboard-response", "trial_index": 8, "time_elapsed": 119012, "internal_node_id": "0.0-4.0-4.0"}}, {"uniqueid": "w71849840:a99587770", "current_trial": 9, "dateTime": 1664555202275, "trialdata": {"rt": 1324, "stimulus": "<p id='stroop-text' class='stroop-yellow'>YELLOW</p>", "response": "y", "stimulus-type": "congruent", "word": "yellow", "color": "yellow", "correct_response": "y", "trial_id": "stroop-trial-1-congruent-23", "trial_type": "html-keyboard-response", "trial_index": 9, "time_elapsed": 120840, "internal_node_id": "0.0-4.0-5.0"}}, {"uniqueid": "w71849840:a99587770", "current_trial": 10, "dateTime": 1664555204578, "trialdata": {"rt": 1793, "stimulus": "<p id='stroop-text' class='stroop-red'>BOTTLE</p>", "response": "r", "stimulus-type": "unrelated", "word": "BOTTLE", "color": "red", "correct_response": "r", "trial_id": "stroop-trial-1-unrelated-6", "trial_type": "html-keyboard-response", "trial_index": 10, "time_elapsed": 123143, "internal_node_id": "0.0-4.0-6.0"}}, {"uniqueid": "w71849840:a99587770", "current_trial": 11, "dateTime": 1664555207068, "trialdata": {"rt": 1986, "stimulus": "<p id='stroop-text' class='stroop-blue'>BLUE</p>", "response": "b", "stimulus-type": "congruent", "word": "blue", "color": "blue", "correct_response": "b", "trial_id": "stroop-trial-1-congruent-2", "trial_type": "html-keyboard-response", "trial_index": 11, "time_elapsed": 125633, "internal_node_id": "0.0-4.0-7.0"}}, {"uniqueid": "w71849840:a99587770", "current_trial": 12, "dateTime": 1664555208966, "trialdata": {"rt": 1395, "stimulus": "<p id='stroop-text' class='stroop-red'>DOG</p>", "response": "r", "stimulus-type": "unrelated", "word": "DOG", "color": "red", "correct_response": "r", "trial_id": "stroop-trial-1-unrelated-15", "trial_type": "html-keyboard-response", "trial_index": 12, "time_elapsed": 127530, "internal_node_id": "0.0-4.0-8.0"}}, {"uniqueid": "w71849840:a99587770", "current_trial": 13, "dateTime": 1664555211026, "trialdata": {"rt": 1558, "stimulus": "<p id='stroop-text' class='stroop-red'>YELLOW</p>", "response": "r", "stimulus-type": "incongruent", "word": "yellow", "color": "red", "correct_response": "r", "trial_id": "stroop-trial-1-incongruent-8", "trial_type": "html-keyboard-response", "trial_index": 13, "time_elapsed": 129590, "internal_node_id": "0.0-4.0-9.0"}}, {"uniqueid": "w71849840:a99587770", "current_trial": 14, "dateTime": 1664555212918, "trialdata": {"rt": 1390, "stimulus": "<p id='stroop-text' class='stroop-green'>YELLOW</p>", "response": "g", "stimulus-type": "incongruent", "word": "yellow", "color": "green", "correct_response": "g", "trial_id": "stroop-trial-1-incongruent-22", "trial_type": "html-keyboard-response", "trial_index": 14, "time_elapsed": 131483, "internal_node_id": "0.0-4.0-10.0"}}, {"uniqueid": "w71849840:a99587770", "current_trial": 15, "dateTime": 1664555214836, "trialdata": {"rt": 1415, "stimulus": "<p id='stroop-text' class='stroop-blue'>YELLOW</p>", "response": "b", "stimulus-type": "incongruent", "word": "yellow", "color": "blue", "correct_response": "b", "trial_id": "stroop-trial-1-incongruent-30", "trial_type": "html-keyboard-response", "trial_index": 15, "time_elapsed": 133401, "internal_node_id": "0.0-4.0-11.0"}}, {"uniqueid": "w71849840:a99587770", "current_trial": 16, "dateTime": 1664555216536, "trialdata": {"rt": 1197, "stimulus": "<p id='stroop-text' class='stroop-blue'>BLUE</p>", "response": "b", "stimulus-type": "congruent", "word": "blue", "color": "blue", "correct_response": "b", "trial_id": "stroop-trial-1-congruent-15", "trial_type": "html-keyboard-response", "trial_index": 16, "time_elapsed": 135101, "internal_node_id": "0.0-4.0-12.0"}}, {"uniqueid": "w71849840:a99587770", "current_trial": 17, "dateTime": 1664555218276, "trialdata": {"rt": 1238, "stimulus": "<p id='stroop-text' class='stroop-yellow'>RED</p>", "response": "y", "stimulus-type": "incongruent", "word": "red", "color": "yellow", "correct_response": "y", "trial_id": "stroop-trial-1-incongruent-17", "trial_type": "html-keyboard-response", "trial_index": 17, "time_elapsed": 136841, "internal_node_id": "0.0-4.0-13.0"}}, {"uniqueid": "w71849840:a99587770", "current_trial": 18, "dateTime": 1664555219969, "trialdata": {"rt": 1190, "stimulus": "<p id='stroop-text' class='stroop-blue'>GREEN</p>", "response": "b", "stimulus-type": "incongruent", "word": "green", "color": "blue", "correct_response": "b", "trial_id": "stroop-trial-1-incongruent-18", "trial_type": "html-keyboard-response", "trial_index": 18, "time_elapsed": 138534, "internal_node_id": "0.0-4.0-14.0"}}, {"uniqueid": "w71849840:a99587770", "current_trial": 19, "dateTime": 1664555221407, "trialdata": {"rt": 936, "stimulus": "<p id='stroop-text' class='stroop-red'>BLUE</p>", "response": "r", "stimulus-type": "incongruent", "word": "blue", "color": "red", "correct_response": "r", "trial_id": "stroop-trial-1-incongruent-16", "trial_type": "html-keyboard-response", "trial_index": 19, "time_elapsed": 139972, "internal_node_id": "0.0-4.0-15.0"}}, {"uniqueid": "w71849840:a99587770", "current_trial": 20, "dateTime": 1664555223137, "trialdata": {"rt": 1228, "stimulus": "<p id='stroop-text' class='stroop-yellow'>YELLOW</p>", "response": "y", "stimulus-type": "congruent", "word": "yellow", "color": "yellow", "correct_response": "y", "trial_id": "stroop-trial-1-congruent-16", "trial_type": "html-keyboard-response", "trial_index": 20, "time_elapsed": 141702, "internal_node_id": "0.0-4.0-16.0"}}, {"uniqueid": "w71849840:a99587770", "current_trial": 21, "dateTime": 1664555224865, "trialdata": {"rt": 1225, "stimulus": "<p id='stroop-text' class='stroop-blue'>YELLOW</p>", "response": "b", "stimulus-type": "incongruent", "word": "yellow", "color": "blue", "correct_response": "b", "trial_id": "stroop-trial-1-incongruent-15", "trial_type": "html-keyboard-response", "trial_index": 21, "time_elapsed": 143430, "internal_node_id": "0.0-4.0-17.0"}}, {"uniqueid": "w71849840:a99587770", "current_trial": 22, "dateTime": 1664555226348, "trialdata": {"rt": 981, "stimulus": "<p id='stroop-text' class='stroop-red'>STONE</p>", "response": "r", "stimulus-type": "unrelated", "word": "STONE", "color": "red", "correct_response": "r", "trial_id": "stroop-trial-1-unrelated-23", "trial_type": "html-keyboard-response", "trial_index": 22, "time_elapsed": 144913, "internal_node_id": "0.0-4.0-18.0"}}, {"uniqueid": "w71849840:a99587770", "current_trial": 23, "dateTime": 1664555228561, "trialdata": {"rt": 1709, "stimulus": "<p id='stroop-text' class='stroop-green'>WINDOW</p>", "response": "g", "stimulus-type": "unrelated", "word": "WINDOW", "color": "green", "correct_response": "g", "trial_id": "stroop-trial-1-unrelated-13", "trial_type": "html-keyboard-response", "trial_index": 23, "time_elapsed": 147126, "internal_node_id": "0.0-4.0-19.0"}}, {"uniqueid": "w71849840:a99587770", "current_trial": 24, "dateTime": 1664555230603, "trialdata": {"rt": 1540, "stimulus": "<p id='stroop-text' class='stroop-red'>DOG</p>", "response": "r", "stimulus-type": "unrelated", "word": "DOG", "color": "red", "correct_response": "r", "trial_id": "stroop-trial-1-unrelated-26", "trial_type": "html-keyboard-response", "trial_index": 24, "time_elapsed": 149168, "internal_node_id": "0.0-4.0-20.0"}}, {"uniqueid": "w71849840:a99587770", "current_trial": 25, "dateTime": 1664555232272, "trialdata": {"rt": 1165, "stimulus": "<p id='stroop-text' class='stroop-blue'>BLUE</p>", "response": "b", "stimulus-type": "congruent", "word": "blue", "color": "blue", "correct_response": "b", "trial_id": "stroop-trial-1-congruent-18", "trial_type": "html-keyboard-response", "trial_index": 25, "time_elapsed": 150837, "internal_node_id": "0.0-4.0-21.0"}}, {"uniqueid": "w71849840:a99587770", "current_trial": 26, "dateTime": 1664555234317, "trialdata": {"rt": 1543, "stimulus": "<p id='stroop-text' class='stroop-green'>BLUE</p>", "response": "g", "stimulus-type": "incongruent", "word": "blue", "color": "green", "correct_response": "g", "trial_id": "stroop-trial-1-incongruent-2", "trial_type": "html-keyboard-response", "trial_index": 26, "time_elapsed": 152882, "internal_node_id": "0.0-4.0-22.0"}}, {"uniqueid": "w71849840:a99587770", "current_trial": 27, "dateTime": 1664555236467, "trialdata": {"rt": 1648, "stimulus": "<p id='stroop-text' class='stroop-blue'>YELLOW</p>", "response": "b", "stimulus-type": "incongruent", "word": "yellow", "color": "blue", "correct_response": "b", "trial_id": "stroop-trial-1-incongruent-28", "trial_type": "html-keyboard-response", "trial_index": 27, "time_elapsed": 155032, "internal_node_id": "0.0-4.0-23.0"}}, {"uniqueid": "w71849840:a99587770", "current_trial": 28, "dateTime": 1664555238252, "trialdata": {"rt": 1271, "stimulus": "<p id='stroop-text' class='stroop-yellow'>FORK</p>", "response": "y", "stimulus-type": "unrelated", "word": "FORK", "color": "yellow", "correct_response": "y", "trial_id": "stroop-trial-1-unrelated-8", "trial_type": "html-keyboard-response", "trial_index": 28, "time_elapsed": 156817, "internal_node_id": "0.0-4.0-24.0"}}, {"uniqueid": "w71849840:a99587770", "current_trial": 29, "dateTime": 1664555239512, "trialdata": {"rt": 758, "stimulus": "<p id='stroop-text' class='stroop-yellow'>BOAT</p>", "response": "y", "stimulus-type": "unrelated", "word": "BOAT", "color": "yellow", "correct_response": "y", "trial_id": "stroop-trial-1-unrelated-25", "trial_type": "html-keyboard-response", "trial_index": 29, "time_elapsed": 158076, "internal_node_id": "0.0-4.0-25.0"}}, {"uniqueid": "w71849840:a99587770", "current_trial": 30, "dateTime": 1664555241604, "trialdata": {"rt": 1590, "stimulus": "<p id='stroop-text' class='stroop-blue'>BLUE</p>", "response": "b", "stimulus-type": "congruent", "word": "blue", "color": "blue", "correct_response": "b", "trial_id": "stroop-trial-1-congruent-7", "trial_type": "html-keyboard-response", "trial_index": 30, "time_elapsed": 160168, "internal_node_id": "0.0-4.0-26.0"}}, {"uniqueid": "w71849840:a99587770", "current_trial": 31, "dateTime": 1664555243008, "trialdata": {"rt": 902, "stimulus": "<p id='stroop-text' class='stroop-green'>GREEN</p>", "response": "g", "stimulus-type": "congruent", "word": "green", "color": "green", "correct_response": "g", "trial_id": "stroop-trial-1-congruent-5", "trial_type": "html-keyboard-response", "trial_index": 31, "time_elapsed": 161573, "internal_node_id": "0.0-4.0-27.0"}}, {"uniqueid": "w71849840:a99587770", "current_trial": 32, "dateTime": 1664555244439, "trialdata": {"rt": 929, "stimulus": "<p id='stroop-text' class='stroop-blue'>WINDOW</p>", "response": "b", "stimulus-type": "unrelated", "word": "WINDOW", "color": "blue", "correct_response": "b", "trial_id": "stroop-trial-1-unrelated-16", "trial_type": "html-keyboard-response", "trial_index": 32, "time_elapsed": 163004, "internal_node_id": "0.0-4.0-28.0"}}, {"uniqueid": "w71849840:a99587770", "current_trial": 33, "dateTime": 1664555245999, "trialdata": {"rt": 1058, "stimulus": "<p id='stroop-text' class='stroop-blue'>YELLOW</p>", "response": "b", "stimulus-type": "incongruent", "word": "yellow", "color": "blue", "correct_response": "b", "trial_id": "stroop-trial-1-incongruent-5", "trial_type": "html-keyboard-response", "trial_index": 33, "time_elapsed": 164564, "internal_node_id": "0.0-4.0-29.0"}}, {"uniqueid": "w71849840:a99587770", "current_trial": 34, "dateTime": 1664555247298, "trialdata": {"rt": 797, "stimulus": "<p id='stroop-text' class='stroop-yellow'>YELLOW</p>", "response": "y", "stimulus-type": "congruent", "word": "yellow", "color": "yellow", "correct_response": "y", "trial_id": "stroop-trial-1-congruent-22", "trial_type": "html-keyboard-response", "trial_index": 34, "time_elapsed": 165863, "internal_node_id": "0.0-4.0-30.0"}}, {"uniqueid": "w71849840:a99587770", "current_trial": 35, "dateTime": 1664555248495, "trialdata": {"rt": 695, "stimulus": "<p id='stroop-text' class='stroop-red'>RED</p>", "response": "r", "stimulus-type": "congruent", "word": "red", "color": "red", "correct_response": "r", "trial_id": "stroop-trial-1-congruent-26", "trial_type": "html-keyboard-response", "trial_index": 35, "time_elapsed": 167060, "internal_node_id": "0.0-4.0-31.0"}}, {"uniqueid": "w71849840:a99587770", "current_trial": 36, "dateTime": 1664555249868, "trialdata": {"rt": 870, "stimulus": "<p id='stroop-text' class='stroop-yellow'>RED</p>", "response": "y", "stimulus-type": "incongruent", "word": "red", "color": "yellow", "correct_response": "y", "trial_id": "stroop-trial-1-incongruent-23", "trial_type": "html-keyboard-response", "trial_index": 36, "time_elapsed": 168432, "internal_node_id": "0.0-4.0-32.0"}}, {"uniqueid": "w71849840:a99587770", "current_trial": 37, "dateTime": 1664555251212, "trialdata": {"rt": 842, "stimulus": "<p id='stroop-text' class='stroop-yellow'>BRIDGE</p>", "response": "y", "stimulus-type": "unrelated", "word": "BRIDGE", "color": "yellow", "correct_response": "y", "trial_id": "stroop-trial-1-unrelated-4", "trial_type": "html-keyboard-response", "trial_index": 37, "time_elapsed": 169776, "internal_node_id": "0.0-4.0-33.0"}}, {"uniqueid": "w71849840:a99587770", "current_trial": 38, "dateTime": 1664555252266, "trialdata": {"rt": 552, "stimulus": "<p id='stroop-text' class='stroop-yellow'>YELLOW</p>", "response": "y", "stimulus-type": "congruent", "word": "yellow", "color": "yellow", "correct_response": "y", "trial_id": "stroop-trial-1-congruent-8", "trial_type": "html-keyboard-response", "trial_index": 38, "time_elapsed": 170830, "internal_node_id": "0.0-4.0-34.0"}}, {"uniqueid": "w71849840:a99587770", "current_trial": 39, "dateTime": 1664555253461, "trialdata": {"rt": 693, "stimulus": "<p id='stroop-text' class='stroop-blue'>BLUE</p>", "response": "b", "stimulus-type": "congruent", "word": "blue", "color": "blue", "correct_response": "b", "trial_id": "stroop-trial-1-congruent-24", "trial_type": "html-keyboard-response", "trial_index": 39, "time_elapsed": 172026, "internal_node_id": "0.0-4.0-35.0"}}, {"uniqueid": "w71849840:a99587770", "current_trial": 40, "dateTime": 1664555254641, "trialdata": {"rt": 678, "stimulus": "<p id='stroop-text' class='stroop-blue'>BRAIN</p>", "response": "b", "stimulus-type": "unrelated", "word": "BRAIN", "color": "blue", "correct_response": "b", "trial_id": "stroop-trial-1-unrelated-29", "trial_type": "html-keyboard-response", "trial_index": 40, "time_elapsed": 173206, "internal_node_id": "0.0-4.0-36.0"}}, {"uniqueid": "w71849840:a99587770", "current_trial": 41, "dateTime": 1664555255895, "trialdata": {"rt": 752, "stimulus": "<p id='stroop-text' class='stroop-blue'>CHAIR</p>", "response": "b", "stimulus-type": "unrelated", "word": "CHAIR", "color": "blue", "correct_response": "b", "trial_id": "stroop-trial-1-unrelated-12", "trial_type": "html-keyboard-response", "trial_index": 41, "time_elapsed": 174460, "internal_node_id": "0.0-4.0-37.0"}}, {"uniqueid": "w71849840:a99587770", "current_trial": 42, "dateTime": 1664555257228, "trialdata": {"rt": 830, "stimulus": "<p id='stroop-text' class='stroop-green'>RED</p>", "response": "g", "stimulus-type": "incongruent", "word": "red", "color": "green", "correct_response": "g", "trial_id": "stroop-trial-1-incongruent-6", "trial_type": "html-keyboard-response", "trial_index": 42, "time_elapsed": 175793, "internal_node_id": "0.0-4.0-38.0"}}, {"uniqueid": "w71849840:a99587770", "current_trial": 43, "dateTime": 1664555258354, "trialdata": {"rt": 624, "stimulus": "<p id='stroop-text' class='stroop-green'>DOG</p>", "response": "g", "stimulus-type": "unrelated", "word": "DOG", "color": "green", "correct_response": "g", "trial_id": "stroop-trial-1-unrelated-11", "trial_type": "html-keyboard-response", "trial_index": 43, "time_elapsed": 176919, "internal_node_id": "0.0-4.0-39.0"}}, {"uniqueid": "w71849840:a99587770", "current_trial": 44, "dateTime": 1664555259603, "trialdata": {"rt": 746, "stimulus": "<p id='stroop-text' class='stroop-blue'>BOTTLE</p>", "response": "b", "stimulus-type": "unrelated", "word": "BOTTLE", "color": "blue", "correct_response": "b", "trial_id": "stroop-trial-1-unrelated-3", "trial_type": "html-keyboard-response", "trial_index": 44, "time_elapsed": 178168, "internal_node_id": "0.0-4.0-40.0"}}, {"uniqueid": "w71849840:a99587770", "current_trial": 45, "dateTime": 1664555260980, "trialdata": {"rt": 874, "stimulus": "<p id='stroop-text' class='stroop-green'>STONE</p>", "response": "g", "stimulus-type": "unrelated", "word": "STONE", "color": "green", "correct_response": "g", "trial_id": "stroop-trial-1-unrelated-28", "trial_type": "html-keyboard-response", "trial_index": 45, "time_elapsed": 179545, "internal_node_id": "0.0-4.0-41.0"}}, {"uniqueid": "w71849840:a99587770", "current_trial": 46, "dateTime": 1664555262237, "trialdata": {"rt": 754, "stimulus": "<p id='stroop-text' class='stroop-red'>RED</p>", "response": "r", "stimulus-type": "congruent", "word": "red", "color": "red", "correct_response": "r", "trial_id": "stroop-trial-1-congruent-13", "trial_type": "html-keyboard-response", "trial_index": 46, "time_elapsed": 180802, "internal_node_id": "0.0-4.0-42.0"}}, {"uniqueid": "w71849840:a99587770", "current_trial": 47, "dateTime": 1664555263320, "trialdata": {"rt": 580, "stimulus": "<p id='stroop-text' class='stroop-yellow'>YELLOW</p>", "response": "y", "stimulus-type": "congruent", "word": "yellow", "color": "yellow", "correct_response": "y", "trial_id": "stroop-trial-1-congruent-28", "trial_type": "html-keyboard-response", "trial_index": 47, "time_elapsed": 181885, "internal_node_id": "0.0-4.0-43.0"}}, {"uniqueid": "w71849840:a99587770", "current_trial": 48, "dateTime": 1664555264582, "trialdata": {"rt": 759, "stimulus": "<p id='stroop-text' class='stroop-red'>RED</p>", "response": "r", "stimulus-type": "congruent", "word": "red", "color": "red", "correct_response": "r", "trial_id": "stroop-trial-1-congruent-1", "trial_type": "html-keyboard-response", "trial_index": 48, "time_elapsed": 183146, "internal_node_id": "0.0-4.0-44.0"}}, {"uniqueid": "w71849840:a99587770", "current_trial": 49, "dateTime": 1664555266250, "trialdata": {"rt": 1166, "stimulus": "<p id='stroop-text' class='stroop-red'>BLUE</p>", "response": "r", "stimulus-type": "incongruent", "word": "blue", "color": "red", "correct_response": "r", "trial_id": "stroop-trial-1-incongruent-13", "trial_type": "html-keyboard-response", "trial_index": 49, "time_elapsed": 184815, "internal_node_id": "0.0-4.0-45.0"}}, {"uniqueid": "w71849840:a99587770", "current_trial": 50, "dateTime": 1664555267342, "trialdata": {"rt": 589, "stimulus": "<p id='stroop-text' class='stroop-yellow'>YELLOW</p>", "response": "y", "stimulus-type": "congruent", "word": "yellow", "color": "yellow", "correct_response": "y", "trial_id": "stroop-trial-1-congruent-9", "trial_type": "html-keyboard-response", "trial_index": 50, "time_elapsed": 185907, "internal_node_id": "0.0-4.0-46.0"}}, {"uniqueid": "w71849840:a99587770", "current_trial": 51, "dateTime": 1664555268409, "trialdata": {"rt": 565, "stimulus": "<p id='stroop-text' class='stroop-yellow'>YELLOW</p>", "response": "y", "stimulus-type": "congruent", "word": "yellow", "color": "yellow", "correct_response": "y", "trial_id": "stroop-trial-1-congruent-29", "trial_type": "html-keyboard-response", "trial_index": 51, "time_elapsed": 186974, "internal_node_id": "0.0-4.0-47.0"}}, {"uniqueid": "w71849840:a99587770", "current_trial": 52, "dateTime": 1664555269709, "trialdata": {"rt": 796, "stimulus": "<p id='stroop-text' class='stroop-green'>DOG</p>", "response": "g", "stimulus-type": "unrelated", "word": "DOG", "color": "green", "correct_response": "g", "trial_id": "stroop-trial-1-unrelated-30", "trial_type": "html-keyboard-response", "trial_index": 52, "time_elapsed": 188273, "internal_node_id": "0.0-4.0-48.0"}}, {"uniqueid": "w71849840:a99587770", "current_trial": 53, "dateTime": 1664555271243, "trialdata": {"rt": 1032, "stimulus": "<p id='stroop-text' class='stroop-blue'>RED</p>", "response": "b", "stimulus-type": "incongruent", "word": "red", "color": "blue", "correct_response": "b", "trial_id": "stroop-trial-1-incongruent-27", "trial_type": "html-keyboard-response", "trial_index": 53, "time_elapsed": 189807, "internal_node_id": "0.0-4.0-49.0"}}, {"uniqueid": "w71849840:a99587770", "current_trial": 54, "dateTime": 1664555272646, "trialdata": {"rt": 901, "stimulus": "<p id='stroop-text' class='stroop-green'>GREEN</p>", "response": "g", "stimulus-type": "congruent", "word": "green", "color": "green", "correct_response": "g", "trial_id": "stroop-trial-1-congruent-3", "trial_type": "html-keyboard-response", "trial_index": 54, "time_elapsed": 191210, "internal_node_id": "0.0-4.0-50.0"}}, {"uniqueid": "w71849840:a99587770", "current_trial": 55, "dateTime": 1664555274117, "trialdata": {"rt": 969, "stimulus": "<p id='stroop-text' class='stroop-blue'>FORK</p>", "response": "b", "stimulus-type": "unrelated", "word": "FORK", "color": "blue", "correct_response": "b", "trial_id": "stroop-trial-1-unrelated-9", "trial_type": "html-keyboard-response", "trial_index": 55, "time_elapsed": 192682, "internal_node_id": "0.0-4.0-51.0"}}, {"uniqueid": "w71849840:a99587770", "current_trial": 56, "dateTime": 1664555275263, "trialdata": {"rt": 644, "stimulus": "<p id='stroop-text' class='stroop-yellow'>BRAIN</p>", "response": "y", "stimulus-type": "unrelated", "word": "BRAIN", "color": "yellow", "correct_response": "y", "trial_id": "stroop-trial-1-unrelated-10", "trial_type": "html-keyboard-response", "trial_index": 56, "time_elapsed": 193827, "internal_node_id": "0.0-4.0-52.0"}}, {"uniqueid": "w71849840:a99587770", "current_trial": 57, "dateTime": 1664555276441, "trialdata": {"rt": 672, "stimulus": "<p id='stroop-text' class='stroop-red'>RED</p>", "response": "r", "stimulus-type": "congruent", "word": "red", "color": "red", "correct_response": "r", "trial_id": "stroop-trial-1-congruent-12", "trial_type": "html-keyboard-response", "trial_index": 57, "time_elapsed": 195006, "internal_node_id": "0.0-4.0-53.0"}}, {"uniqueid": "w71849840:a99587770", "current_trial": 58, "dateTime": 1664555277716, "trialdata": {"rt": 774, "stimulus": "<p id='stroop-text' class='stroop-yellow'>STONE</p>", "response": "y", "stimulus-type": "unrelated", "word": "STONE", "color": "yellow", "correct_response": "y", "trial_id": "stroop-trial-1-unrelated-20", "trial_type": "html-keyboard-response", "trial_index": 58, "time_elapsed": 196281, "internal_node_id": "0.0-4.0-54.0"}}, {"uniqueid": "w71849840:a99587770", "current_trial": 59, "dateTime": 1664555279551, "trialdata": {"rt": 1332, "stimulus": "<p id='stroop-text' class='stroop-red'>YELLOW</p>", "response": "r", "stimulus-type": "incongruent", "word": "yellow", "color": "red", "correct_response": "r", "trial_id": "stroop-trial-1-incongruent-25", "trial_type": "html-keyboard-response", "trial_index": 59, "time_elapsed": 198116, "internal_node_id": "0.0-4.0-55.0"}}, {"uniqueid": "w71849840:a99587770", "current_trial": 60, "dateTime": 1664555280843, "trialdata": {"rt": 790, "stimulus": "<p id='stroop-text' class='stroop-green'>BOTTLE</p>", "response": "g", "stimulus-type": "unrelated", "word": "BOTTLE", "color": "green", "correct_response": "g", "trial_id": "stroop-trial-1-unrelated-24", "trial_type": "html-keyboard-response", "trial_index": 60, "time_elapsed": 199408, "internal_node_id": "0.0-4.0-56.0"}}, {"uniqueid": "w71849840:a99587770", "current_trial": 61, "dateTime": 1664555282182, "trialdata": {"rt": 836, "stimulus": "<p id='stroop-text' class='stroop-yellow'>BLUE</p>", "response": "y", "stimulus-type": "incongruent", "word": "blue", "color": "yellow", "correct_response": "y", "trial_id": "stroop-trial-1-incongruent-9", "trial_type": "html-keyboard-response", "trial_index": 61, "time_elapsed": 200747, "internal_node_id": "0.0-4.0-57.0"}}, {"uniqueid": "w71849840:a99587770", "current_trial": 62, "dateTime": 1664555283549, "trialdata": {"rt": 865, "stimulus": "<p id='stroop-text' class='stroop-green'>BOAT</p>", "response": "g", "stimulus-type": "unrelated", "word": "BOAT", "color": "green", "correct_response": "g", "trial_id": "stroop-trial-1-unrelated-5", "trial_type": "html-keyboard-response", "trial_index": 62, "time_elapsed": 202113, "internal_node_id": "0.0-4.0-58.0"}}, {"uniqueid": "w71849840:a99587770", "current_trial": 63, "dateTime": 1664555284826, "trialdata": {"rt": 776, "stimulus": "<p id='stroop-text' class='stroop-blue'>BLUE</p>", "response": "b", "stimulus-type": "congruent", "word": "blue", "color": "blue", "correct_response": "b", "trial_id": "stroop-trial-1-congruent-17", "trial_type": "html-keyboard-response", "trial_index": 63, "time_elapsed": 203391, "internal_node_id": "0.0-4.0-59.0"}}, {"uniqueid": "w71849840:a99587770", "current_trial": 64, "dateTime": 1664555286079, "trialdata": {"rt": 751, "stimulus": "<p id='stroop-text' class='stroop-blue'>BOTTLE</p>", "response": "b", "stimulus-type": "unrelated", "word": "BOTTLE", "color": "blue", "correct_response": "b", "trial_id": "stroop-trial-1-unrelated-22", "trial_type": "html-keyboard-response", "trial_index": 64, "time_elapsed": 204644, "internal_node_id": "0.0-4.0-60.0"}}, {"uniqueid": "w71849840:a99587770", "current_trial": 65, "dateTime": 1664555287476, "trialdata": {"rt": 895, "stimulus": "<p id='stroop-text' class='stroop-green'>GREEN</p>", "response": "g", "stimulus-type": "congruent", "word": "green", "color": "green", "correct_response": "g", "trial_id": "stroop-trial-1-congruent-21", "trial_type": "html-keyboard-response", "trial_index": 65, "time_elapsed": 206041, "internal_node_id": "0.0-4.0-61.0"}}, {"uniqueid": "w71849840:a99587770", "current_trial": 66, "dateTime": 1664555288799, "trialdata": {"rt": 821, "stimulus": "<p id='stroop-text' class='stroop-blue'>BRAIN</p>", "response": "b", "stimulus-type": "unrelated", "word": "BRAIN", "color": "blue", "correct_response": "b", "trial_id": "stroop-trial-1-unrelated-18", "trial_type": "html-keyboard-response", "trial_index": 66, "time_elapsed": 207363, "internal_node_id": "0.0-4.0-62.0"}}, {"uniqueid": "w71849840:a99587770", "current_trial": 67, "dateTime": 1664555290046, "trialdata": {"rt": 745, "stimulus": "<p id='stroop-text' class='stroop-yellow'>FORK</p>", "response": "y", "stimulus-type": "unrelated", "word": "FORK", "color": "yellow", "correct_response": "y", "trial_id": "stroop-trial-1-unrelated-17", "trial_type": "html-keyboard-response", "trial_index": 67, "time_elapsed": 208610, "internal_node_id": "0.0-4.0-63.0"}}, {"uniqueid": "w71849840:a99587770", "current_trial": 68, "dateTime": 1664555291713, "trialdata": {"rt": 1163, "stimulus": "<p id='stroop-text' class='stroop-green'>DOG</p>", "response": "g", "stimulus-type": "unrelated", "word": "DOG", "color": "green", "correct_response": "g", "trial_id": "stroop-trial-1-unrelated-1", "trial_type": "html-keyboard-response", "trial_index": 68, "time_elapsed": 210277, "internal_node_id": "0.0-4.0-64.0"}}, {"uniqueid": "w71849840:a99587770", "current_trial": 69, "dateTime": 1664555292964, "trialdata": {"rt": 749, "stimulus": "<p id='stroop-text' class='stroop-red'>RED</p>", "response": "r", "stimulus-type": "congruent", "word": "red", "color": "red", "correct_response": "r", "trial_id": "stroop-trial-1-congruent-10", "trial_type": "html-keyboard-response", "trial_index": 69, "time_elapsed": 211529, "internal_node_id": "0.0-4.0-65.0"}}, {"uniqueid": "w71849840:a99587770", "current_trial": 70, "dateTime": 1664555294452, "trialdata": {"rt": 986, "stimulus": "<p id='stroop-text' class='stroop-red'>BLUE</p>", "response": "r", "stimulus-type": "incongruent", "word": "blue", "color": "red", "correct_response": "r", "trial_id": "stroop-trial-1-incongruent-10", "trial_type": "html-keyboard-response", "trial_index": 70, "time_elapsed": 213017, "internal_node_id": "0.0-4.0-66.0"}}, {"uniqueid": "w71849840:a99587770", "current_trial": 71, "dateTime": 1664555295591, "trialdata": {"rt": 637, "stimulus": "<p id='stroop-text' class='stroop-blue'>MONKEY</p>", "response": "b", "stimulus-type": "unrelated", "word": "MONKEY", "color": "blue", "correct_response": "b", "trial_id": "stroop-trial-1-unrelated-21", "trial_type": "html-keyboard-response", "trial_index": 71, "time_elapsed": 214155, "internal_node_id": "0.0-4.0-67.0"}}, {"uniqueid": "w71849840:a99587770", "current_trial": 72, "dateTime": 1664555296890, "trialdata": {"rt": 797, "stimulus": "<p id='stroop-text' class='stroop-green'>GREEN</p>", "response": "g", "stimulus-type": "congruent", "word": "green", "color": "green", "correct_response": "g", "trial_id": "stroop-trial-1-congruent-25", "trial_type": "html-keyboard-response", "trial_index": 72, "time_elapsed": 215455, "internal_node_id": "0.0-4.0-68.0"}}, {"uniqueid": "w71849840:a99587770", "current_trial": 73, "dateTime": 1664555298233, "trialdata": {"rt": 841, "stimulus": "<p id='stroop-text' class='stroop-green'>YELLOW</p>", "response": "g", "stimulus-type": "incongruent", "word": "yellow", "color": "green", "correct_response": "g", "trial_id": "stroop-trial-1-incongruent-24", "trial_type": "html-keyboard-response", "trial_index": 73, "time_elapsed": 216798, "internal_node_id": "0.0-4.0-69.0"}}, {"uniqueid": "w71849840:a99587770", "current_trial": 74, "dateTime": 1664555299568, "trialdata": {"rt": 833, "stimulus": "<p id='stroop-text' class='stroop-blue'>YELLOW</p>", "response": "b", "stimulus-type": "incongruent", "word": "yellow", "color": "blue", "correct_response": "b", "trial_id": "stroop-trial-1-incongruent-29", "trial_type": "html-keyboard-response", "trial_index": 74, "time_elapsed": 218133, "internal_node_id": "0.0-4.0-70.0"}}, {"uniqueid": "w71849840:a99587770", "current_trial": 75, "dateTime": 1664555300974, "trialdata": {"rt": 896, "stimulus": "<p id='stroop-text' class='stroop-red'>GREEN</p>", "response": "r", "stimulus-type": "incongruent", "word": "green", "color": "red", "correct_response": "r", "trial_id": "stroop-trial-1-incongruent-1", "trial_type": "html-keyboard-response", "trial_index": 75, "time_elapsed": 219539, "internal_node_id": "0.0-4.0-71.0"}}, {"uniqueid": "w71849840:a99587770", "current_trial": 76, "dateTime": 1664555302468, "trialdata": {"rt": 981, "stimulus": "<p id='stroop-text' class='stroop-green'>BRIDGE</p>", "response": "g", "stimulus-type": "unrelated", "word": "BRIDGE", "color": "green", "correct_response": "g", "trial_id": "stroop-trial-1-unrelated-27", "trial_type": "html-keyboard-response", "trial_index": 76, "time_elapsed": 221033, "internal_node_id": "0.0-4.0-72.0"}}, {"uniqueid": "w71849840:a99587770", "current_trial": 77, "dateTime": 1664555303609, "trialdata": {"rt": 635, "stimulus": "<p id='stroop-text' class='stroop-yellow'>WINDOW</p>", "response": "y", "stimulus-type": "unrelated", "word": "WINDOW", "color": "yellow", "correct_response": "y", "trial_id": "stroop-trial-1-unrelated-2", "trial_type": "html-keyboard-response", "trial_index": 77, "time_elapsed": 222174, "internal_node_id": "0.0-4.0-73.0"}}, {"uniqueid": "w71849840:a99587770", "current_trial": 78, "dateTime": 1664555305087, "trialdata": {"rt": 975, "stimulus": "<p id='stroop-text' class='stroop-green'>SHIP</p>", "response": "y", "stimulus-type": "unrelated", "word": "SHIP", "color": "green", "correct_response": "g", "trial_id": "stroop-trial-1-unrelated-7", "trial_type": "html-keyboard-response", "trial_index": 78, "time_elapsed": 223652, "internal_node_id": "0.0-4.0-74.0"}}, {"uniqueid": "w71849840:a99587770", "current_trial": 79, "dateTime": 1664555307256, "trialdata": {"rt": 1653, "stimulus": "<p id='stroop-text' class='stroop-green'>RED</p>", "response": "g", "stimulus-type": "incongruent", "word": "red", "color": "green", "correct_response": "g", "trial_id": "stroop-trial-1-incongruent-7", "trial_type": "html-keyboard-response", "trial_index": 79, "time_elapsed": 225821, "internal_node_id": "0.0-4.0-75.0"}}, {"uniqueid": "w71849840:a99587770", "current_trial": 80, "dateTime": 1664555308427, "trialdata": {"rt": 669, "stimulus": "<p id='stroop-text' class='stroop-yellow'>YELLOW</p>", "response": "y", "stimulus-type": "congruent", "word": "yellow", "color": "yellow", "correct_response": "y", "trial_id": "stroop-trial-1-congruent-11", "trial_type": "html-keyboard-response", "trial_index": 80, "time_elapsed": 226992, "internal_node_id": "0.0-4.0-76.0"}}, {"uniqueid": "w71849840:a99587770", "current_trial": 81, "dateTime": 1664555309751, "trialdata": {"rt": 808, "stimulus": "<p id='stroop-text' class='stroop-red'>RED</p>", "response": "r", "stimulus-type": "congruent", "word": "red", "color": "red", "correct_response": "r", "trial_id": "stroop-trial-1-congruent-14", "trial_type": "html-keyboard-response", "trial_index": 81, "time_elapsed": 228316, "internal_node_id": "0.0-4.0-77.0"}}, {"uniqueid": "w71849840:a99587770", "current_trial": 82, "dateTime": 1664555311259, "trialdata": {"rt": 1005, "stimulus": "<p id='stroop-text' class='stroop-green'>YELLOW</p>", "response": "g", "stimulus-type": "incongruent", "word": "yellow", "color": "green", "correct_response": "g", "trial_id": "stroop-trial-1-incongruent-21", "trial_type": "html-keyboard-response", "trial_index": 82, "time_elapsed": 229824, "internal_node_id": "0.0-4.0-78.0"}}, {"uniqueid": "w71849840:a99587770", "current_trial": 83, "dateTime": 1664555312432, "trialdata": {"rt": 671, "stimulus": "<p id='stroop-text' class='stroop-blue'>RED</p>", "response": "b", "stimulus-type": "incongruent", "word": "red", "color": "blue", "correct_response": "b", "trial_id": "stroop-trial-1-incongruent-12", "trial_type": "html-keyboard-response", "trial_index": 83, "time_elapsed": 230996, "internal_node_id": "0.0-4.0-79.0"}}, {"uniqueid": "w71849840:a99587770", "current_trial": 84, "dateTime": 1664555313732, "trialdata": {"rt": 798, "stimulus": "<p id='stroop-text' class='stroop-blue'>BLUE</p>", "response": "b", "stimulus-type": "congruent", "word": "blue", "color": "blue", "correct_response": "b", "trial_id": "stroop-trial-1-congruent-6", "trial_type": "html-keyboard-response", "trial_index": 84, "time_elapsed": 232297, "internal_node_id": "0.0-4.0-80.0"}}, {"uniqueid": "w71849840:a99587770", "current_trial": 85, "dateTime": 1664555314999, "trialdata": {"rt": 766, "stimulus": "<p id='stroop-text' class='stroop-green'>GREEN</p>", "response": "g", "stimulus-type": "congruent", "word": "green", "color": "green", "correct_response": "g", "trial_id": "stroop-trial-1-congruent-27", "trial_type": "html-keyboard-response", "trial_index": 85, "time_elapsed": 233564, "internal_node_id": "0.0-4.0-81.0"}}, {"uniqueid": "w71849840:a99587770", "current_trial": 86, "dateTime": 1664555316448, "trialdata": {"rt": 946, "stimulus": "<p id='stroop-text' class='stroop-green'>STONE</p>", "response": "g", "stimulus-type": "unrelated", "word": "STONE", "color": "green", "correct_response": "g", "trial_id": "stroop-trial-1-unrelated-19", "trial_type": "html-keyboard-response", "trial_index": 86, "time_elapsed": 235013, "internal_node_id": "0.0-4.0-82.0"}}, {"uniqueid": "w71849840:a99587770", "current_trial": 87, "dateTime": 1664555317755, "trialdata": {"rt": 799, "stimulus": "<p id='stroop-text' class='stroop-red'>GREEN</p>", "response": "r", "stimulus-type": "incongruent", "word": "green", "color": "red", "correct_response": "r", "trial_id": "stroop-trial-1-incongruent-11", "trial_type": "html-keyboard-response", "trial_index": 87, "time_elapsed": 236320, "internal_node_id": "0.0-4.0-83.0"}}, {"uniqueid": "w71849840:a99587770", "current_trial": 88, "dateTime": 1664555319023, "trialdata": {"rt": 766, "stimulus": "<p id='stroop-text' class='stroop-red'>RED</p>", "response": "r", "stimulus-type": "congruent", "word": "red", "color": "red", "correct_response": "r", "trial_id": "stroop-trial-1-congruent-30", "trial_type": "html-keyboard-response", "trial_index": 88, "time_elapsed": 237588, "internal_node_id": "0.0-4.0-84.0"}}, {"uniqueid": "w71849840:a99587770", "current_trial": 89, "dateTime": 1664555320397, "trialdata": {"rt": 872, "stimulus": "<p id='stroop-text' class='stroop-green'>GREEN</p>", "response": "g", "stimulus-type": "congruent", "word": "green", "color": "green", "correct_response": "g", "trial_id": "stroop-trial-1-congruent-20", "trial_type": "html-keyboard-response", "trial_index": 89, "time_elapsed": 238962, "internal_node_id": "0.0-4.0-85.0"}}, {"uniqueid": "w71849840:a99587770", "current_trial": 90, "dateTime": 1664555321749, "trialdata": {"rt": 851, "stimulus": "<p id='stroop-text' class='stroop-red'>GREEN</p>", "response": "r", "stimulus-type": "incongruent", "word": "green", "color": "red", "correct_response": "r", "trial_id": "stroop-trial-1-incongruent-14", "trial_type": "html-keyboard-response", "trial_index": 90, "time_elapsed": 240314, "internal_node_id": "0.0-4.0-86.0"}}, {"uniqueid": "w71849840:a99587770", "current_trial": 91, "dateTime": 1664555323118, "trialdata": {"rt": 867, "stimulus": "<p id='stroop-text' class='stroop-red'>BLUE</p>", "response": "r", "stimulus-type": "incongruent", "word": "blue", "color": "red", "correct_response": "r", "trial_id": "stroop-trial-1-incongruent-4", "trial_type": "html-keyboard-response", "trial_index": 91, "time_elapsed": 241682, "internal_node_id": "0.0-4.0-87.0"}}, {"uniqueid": "w71849840:a99587770", "current_trial": 92, "dateTime": 1664555324307, "trialdata": {"rt": 686, "stimulus": "<p id='stroop-text' class='stroop-blue'>GREEN</p>", "response": "b", "stimulus-type": "incongruent", "word": "green", "color": "blue", "correct_response": "b", "trial_id": "stroop-trial-1-incongruent-3", "trial_type": "html-keyboard-response", "trial_index": 92, "time_elapsed": 242872, "internal_node_id": "0.0-4.0-88.0"}}, {"uniqueid": "w71849840:a99587770", "current_trial": 93, "dateTime": 1664555325593, "trialdata": {"rt": 769, "stimulus": "<p id='stroop-text' class='stroop-blue'>MONKEY</p>", "response": "b", "stimulus-type": "unrelated", "word": "MONKEY", "color": "blue", "correct_response": "b", "trial_id": "stroop-trial-1-unrelated-14", "trial_type": "html-keyboard-response", "trial_index": 93, "time_elapsed": 244157, "internal_node_id": "0.0-4.0-89.0"}}, {"uniqueid": "w71849840:a99587770", "current_trial": 94, "dateTime": 1664555367116, "trialdata": {"rt": 41020, "stimulus": "  <h1> End of block! </h1>\n\n  You have reached the end of the block 1/5. If you need a short break, feel free to take one now before moving on.\n\n  <br><br>\n  In the next block, you will complete another 90 rounds of this game.\n\n  <br><br>\n  <div style='text-align: center;'>Press <code>space</code> to begin.</div>\n  <br><br>\n<div style='text-align: center;'>(If the experiment doesn't continue, try clicking on the text and then pressing <code>space</code>.)</div>", "response": " ", "trial_id": "stroop_1_ready_2", "trial_type": "html-keyboard-response", "trial_index": 94, "time_elapsed": 285681, "internal_node_id": "0.0-5.0"}}, {"uniqueid": "w71849840:a99587770", "current_trial": 95, "dateTime": 1664555370909, "trialdata": {"rt": 3791, "stimulus": "<p id='stroop-text' class='stroop-yellow'>DOG</p>", "response": "y", "stimulus-type": "unrelated", "word": "DOG", "color": "yellow", "correct_response": "y", "trial_id": "stroop-trial-1-unrelated-19", "trial_type": "html-keyboard-response", "trial_index": 95, "time_elapsed": 289473, "internal_node_id": "0.0-6.0-0.0"}}, {"uniqueid": "w71849840:a99587770", "current_trial": 96, "dateTime": 1664555372556, "trialdata": {"rt": 1144, "stimulus": "<p id='stroop-text' class='stroop-blue'>BOAT</p>", "response": "b", "stimulus-type": "unrelated", "word": "BOAT", "color": "blue", "correct_response": "b", "trial_id": "stroop-trial-1-unrelated-18", "trial_type": "html-keyboard-response", "trial_index": 96, "time_elapsed": 291121, "internal_node_id": "0.0-6.0-1.0"}}, {"uniqueid": "w71849840:a99587770", "current_trial": 97, "dateTime": 1664555374425, "trialdata": {"rt": 1366, "stimulus": "<p id='stroop-text' class='stroop-green'>RED</p>", "response": "g", "stimulus-type": "incongruent", "word": "red", "color": "green", "correct_response": "g", "trial_id": "stroop-trial-1-incongruent-15", "trial_type": "html-keyboard-response", "trial_index": 97, "time_elapsed": 292990, "internal_node_id": "0.0-6.0-2.0"}}, {"uniqueid": "w71849840:a99587770", "current_trial": 98, "dateTime": 1664555375925, "trialdata": {"rt": 997, "stimulus": "<p id='stroop-text' class='stroop-blue'>RED</p>", "response": "b", "stimulus-type": "incongruent", "word": "red", "color": "blue", "correct_response": "b", "trial_id": "stroop-trial-1-incongruent-4", "trial_type": "html-keyboard-response", "trial_index": 98, "time_elapsed": 294490, "internal_node_id": "0.0-6.0-3.0"}}, {"uniqueid": "w71849840:a99587770", "current_trial": 99, "dateTime": 1664555377907, "trialdata": {"rt": 1480, "stimulus": "<p id='stroop-text' class='stroop-green'>GREEN</p>", "response": "g", "stimulus-type": "congruent", "word": "green", "color": "green", "correct_response": "g", "trial_id": "stroop-trial-1-congruent-1", "trial_type": "html-keyboard-response", "trial_index": 99, "time_elapsed": 296472, "internal_node_id": "0.0-6.0-4.0"}}, {"uniqueid": "w71849840:a99587770", "current_trial": 100, "dateTime": 1664555379074, "trialdata": {"rt": 665, "stimulus": "<p id='stroop-text' class='stroop-red'>BLUE</p>", "response": "r", "stimulus-type": "incongruent", "word": "blue", "color": "red", "correct_response": "r", "trial_id": "stroop-trial-1-incongruent-18", "trial_type": "html-keyboard-response", "trial_index": 100, "time_elapsed": 297639, "internal_node_id": "0.0-6.0-5.0"}}, {"uniqueid": "w71849840:a99587770", "current_trial": 101, "dateTime": 1664555380218, "trialdata": {"rt": 642, "stimulus": "<p id='stroop-text' class='stroop-green'>GREEN</p>", "response": "g", "stimulus-type": "congruent", "word": "green", "color": "green", "correct_response": "g", "trial_id": "stroop-trial-1-congruent-20", "trial_type": "html-keyboard-response", "trial_index": 101, "time_elapsed": 298783, "internal_node_id": "0.0-6.0-6.0"}}, {"uniqueid": "w71849840:a99587770", "current_trial": 102, "dateTime": 1664555381480, "trialdata": {"rt": 759, "stimulus": "<p id='stroop-text' class='stroop-yellow'>RED</p>", "response": "y", "stimulus-type": "incongruent", "word": "red", "color": "yellow", "correct_response": "y", "trial_id": "stroop-trial-1-incongruent-23", "trial_type": "html-keyboard-response", "trial_index": 102, "time_elapsed": 300045, "internal_node_id": "0.0-6.0-7.0"}}, {"uniqueid": "w71849840:a99587770", "current_trial": 103, "dateTime": 1664555382470, "trialdata": {"rt": 488, "stimulus": "<p id='stroop-text' class='stroop-yellow'>YELLOW</p>", "response": "y", "stimulus-type": "congruent", "word": "yellow", "color": "yellow", "correct_response": "y", "trial_id": "stroop-trial-1-congruent-26", "trial_type": "html-keyboard-response", "trial_index": 103, "time_elapsed": 301034, "internal_node_id": "0.0-6.0-8.0"}}, {"uniqueid": "w71849840:a99587770", "current_trial": 104, "dateTime": 1664555383534, "trialdata": {"rt": 562, "stimulus": "<p id='stroop-text' class='stroop-red'>RED</p>", "response": "r", "stimulus-type": "congruent", "word": "red", "color": "red", "correct_response": "r", "trial_id": "stroop-trial-1-congruent-28", "trial_type": "html-keyboard-response", "trial_index": 104, "time_elapsed": 302099, "internal_node_id": "0.0-6.0-9.0"}}, {"uniqueid": "w71849840:a99587770", "current_trial": 105, "dateTime": 1664555384528, "trialdata": {"rt": 492, "stimulus": "<p id='stroop-text' class='stroop-blue'>BOAT</p>", "response": "b", "stimulus-type": "unrelated", "word": "BOAT", "color": "blue", "correct_response": "b", "trial_id": "stroop-trial-1-unrelated-30", "trial_type": "html-keyboard-response", "trial_index": 105, "time_elapsed": 303093, "internal_node_id": "0.0-6.0-10.0"}}, {"uniqueid": "w71849840:a99587770", "current_trial": 106, "dateTime": 1664555385710, "trialdata": {"rt": 678, "stimulus": "<p id='stroop-text' class='stroop-red'>GREEN</p>", "response": "r", "stimulus-type": "incongruent", "word": "green", "color": "red", "correct_response": "r", "trial_id": "stroop-trial-1-incongruent-27", "trial_type": "html-keyboard-response", "trial_index": 106, "time_elapsed": 304274, "internal_node_id": "0.0-6.0-11.0"}}, {"uniqueid": "w71849840:a99587770", "current_trial": 107, "dateTime": 1664555386857, "trialdata": {"rt": 644, "stimulus": "<p id='stroop-text' class='stroop-red'>YELLOW</p>", "response": "r", "stimulus-type": "incongruent", "word": "yellow", "color": "red", "correct_response": "r", "trial_id": "stroop-trial-1-incongruent-28", "trial_type": "html-keyboard-response", "trial_index": 107, "time_elapsed": 305422, "internal_node_id": "0.0-6.0-12.0"}}, {"uniqueid": "w71849840:a99587770", "current_trial": 108, "dateTime": 1664555387950, "trialdata": {"rt": 589, "stimulus": "<p id='stroop-text' class='stroop-red'>BRIDGE</p>", "response": "r", "stimulus-type": "unrelated", "word": "BRIDGE", "color": "red", "correct_response": "r", "trial_id": "stroop-trial-1-unrelated-6", "trial_type": "html-keyboard-response", "trial_index": 108, "time_elapsed": 306515, "internal_node_id": "0.0-6.0-13.0"}}, {"uniqueid": "w71849840:a99587770", "current_trial": 109, "dateTime": 1664555388978, "trialdata": {"rt": 515, "stimulus": "<p id='stroop-text' class='stroop-yellow'>YELLOW</p>", "response": "y", "stimulus-type": "congruent", "word": "yellow", "color": "yellow", "correct_response": "y", "trial_id": "stroop-trial-1-congruent-24", "trial_type": "html-keyboard-response", "trial_index": 109, "time_elapsed": 307543, "internal_node_id": "0.0-6.0-14.0"}}, {"uniqueid": "w71849840:a99587770", "current_trial": 110, "dateTime": 1664555390148, "trialdata": {"rt": 669, "stimulus": "<p id='stroop-text' class='stroop-red'>RED</p>", "response": "r", "stimulus-type": "congruent", "word": "red", "color": "red", "correct_response": "r", "trial_id": "stroop-trial-1-congruent-21", "trial_type": "html-keyboard-response", "trial_index": 110, "time_elapsed": 308713, "internal_node_id": "0.0-6.0-15.0"}}, {"uniqueid": "w71849840:a99587770", "current_trial": 111, "dateTime": 1664555391222, "trialdata": {"rt": 571, "stimulus": "<p id='stroop-text' class='stroop-yellow'>FORK</p>", "response": "y", "stimulus-type": "unrelated", "word": "FORK", "color": "yellow", "correct_response": "y", "trial_id": "stroop-trial-1-unrelated-29", "trial_type": "html-keyboard-response", "trial_index": 111, "time_elapsed": 309787, "internal_node_id": "0.0-6.0-16.0"}}, {"uniqueid": "w71849840:a99587770", "current_trial": 112, "dateTime": 1664555392437, "trialdata": {"rt": 711, "stimulus": "<p id='stroop-text' class='stroop-yellow'>BLUE</p>", "response": "y", "stimulus-type": "incongruent", "word": "blue", "color": "yellow", "correct_response": "y", "trial_id": "stroop-trial-1-incongruent-29", "trial_type": "html-keyboard-response", "trial_index": 112, "time_elapsed": 311001, "internal_node_id": "0.0-6.0-17.0"}}, {"uniqueid": "w71849840:a99587770", "current_trial": 113, "dateTime": 1664555393480, "trialdata": {"rt": 541, "stimulus": "<p id='stroop-text' class='stroop-blue'>BLUE</p>", "response": "b", "stimulus-type": "congruent", "word": "blue", "color": "blue", "correct_response": "b", "trial_id": "stroop-trial-1-congruent-22", "trial_type": "html-keyboard-response", "trial_index": 113, "time_elapsed": 312045, "internal_node_id": "0.0-6.0-18.0"}}, {"uniqueid": "w71849840:a99587770", "current_trial": 114, "dateTime": 1664555394915, "trialdata": {"rt": 933, "stimulus": "<p id='stroop-text' class='stroop-yellow'>BLUE</p>", "response": "y", "stimulus-type": "incongruent", "word": "blue", "color": "yellow", "correct_response": "y", "trial_id": "stroop-trial-1-incongruent-3", "trial_type": "html-keyboard-response", "trial_index": 114, "time_elapsed": 313480, "internal_node_id": "0.0-6.0-19.0"}}, {"uniqueid": "w71849840:a99587770", "current_trial": 115, "dateTime": 1664555395964, "trialdata": {"rt": 546, "stimulus": "<p id='stroop-text' class='stroop-red'>RED</p>", "response": "r", "stimulus-type": "congruent", "word": "red", "color": "red", "correct_response": "r", "trial_id": "stroop-trial-1-congruent-30", "trial_type": "html-keyboard-response", "trial_index": 115, "time_elapsed": 314529, "internal_node_id": "0.0-6.0-20.0"}}, {"uniqueid": "w71849840:a99587770", "current_trial": 116, "dateTime": 1664555397185, "trialdata": {"rt": 718, "stimulus": "<p id='stroop-text' class='stroop-green'>GREEN</p>", "response": "g", "stimulus-type": "congruent", "word": "green", "color": "green", "correct_response": "g", "trial_id": "stroop-trial-1-congruent-3", "trial_type": "html-keyboard-response", "trial_index": 116, "time_elapsed": 315750, "internal_node_id": "0.0-6.0-21.0"}}, {"uniqueid": "w71849840:a99587770", "current_trial": 117, "dateTime": 1664555398772, "trialdata": {"rt": 1084, "stimulus": "<p id='stroop-text' class='stroop-blue'>DOG</p>", "response": "b", "stimulus-type": "unrelated", "word": "DOG", "color": "blue", "correct_response": "b", "trial_id": "stroop-trial-1-unrelated-14", "trial_type": "html-keyboard-response", "trial_index": 117, "time_elapsed": 317336, "internal_node_id": "0.0-6.0-22.0"}}, {"uniqueid": "w71849840:a99587770", "current_trial": 118, "dateTime": 1664555399958, "trialdata": {"rt": 684, "stimulus": "<p id='stroop-text' class='stroop-red'>RED</p>", "response": "r", "stimulus-type": "congruent", "word": "red", "color": "red", "correct_response": "r", "trial_id": "stroop-trial-1-congruent-4", "trial_type": "html-keyboard-response", "trial_index": 118, "time_elapsed": 318523, "internal_node_id": "0.0-6.0-23.0"}}, {"uniqueid": "w71849840:a99587770", "current_trial": 119, "dateTime": 1664555401437, "trialdata": {"rt": 976, "stimulus": "<p id='stroop-text' class='stroop-blue'>RED</p>", "response": "b", "stimulus-type": "incongruent", "word": "red", "color": "blue", "correct_response": "b", "trial_id": "stroop-trial-1-incongruent-6", "trial_type": "html-keyboard-response", "trial_index": 119, "time_elapsed": 320002, "internal_node_id": "0.0-6.0-24.0"}}, {"uniqueid": "w71849840:a99587770", "current_trial": 120, "dateTime": 1664555402626, "trialdata": {"rt": 686, "stimulus": "<p id='stroop-text' class='stroop-red'>RED</p>", "response": "r", "stimulus-type": "congruent", "word": "red", "color": "red", "correct_response": "r", "trial_id": "stroop-trial-1-congruent-29", "trial_type": "html-keyboard-response", "trial_index": 120, "time_elapsed": 321190, "internal_node_id": "0.0-6.0-25.0"}}, {"uniqueid": "w71849840:a99587770", "current_trial": 121, "dateTime": 1664555403865, "trialdata": {"rt": 736, "stimulus": "<p id='stroop-text' class='stroop-blue'>GREEN</p>", "response": "b", "stimulus-type": "incongruent", "word": "green", "color": "blue", "correct_response": "b", "trial_id": "stroop-trial-1-incongruent-24", "trial_type": "html-keyboard-response", "trial_index": 121, "time_elapsed": 322430, "internal_node_id": "0.0-6.0-26.0"}}, {"uniqueid": "w71849840:a99587770", "current_trial": 122, "dateTime": 1664555405775, "trialdata": {"rt": 1398, "stimulus": "<p id='stroop-text' class='stroop-red'>RED</p>", "response": "r", "stimulus-type": "congruent", "word": "red", "color": "red", "correct_response": "r", "trial_id": "stroop-trial-1-congruent-9", "trial_type": "html-keyboard-response", "trial_index": 122, "time_elapsed": 324340, "internal_node_id": "0.0-6.0-27.0"}}, {"uniqueid": "w71849840:a99587770", "current_trial": 123, "dateTime": 1664555407382, "trialdata": {"rt": 1100, "stimulus": "<p id='stroop-text' class='stroop-blue'>DOG</p>", "response": "b", "stimulus-type": "unrelated", "word": "DOG", "color": "blue", "correct_response": "b", "trial_id": "stroop-trial-1-unrelated-2", "trial_type": "html-keyboard-response", "trial_index": 123, "time_elapsed": 325946, "internal_node_id": "0.0-6.0-28.0"}}, {"uniqueid": "w71849840:a99587770", "current_trial": 124, "dateTime": 1664555408473, "trialdata": {"rt": 589, "stimulus": "<p id='stroop-text' class='stroop-yellow'>BOAT</p>", "response": "y", "stimulus-type": "unrelated", "word": "BOAT", "color": "yellow", "correct_response": "y", "trial_id": "stroop-trial-1-unrelated-20", "trial_type": "html-keyboard-response", "trial_index": 124, "time_elapsed": 327038, "internal_node_id": "0.0-6.0-29.0"}}, {"uniqueid": "w71849840:a99587770", "current_trial": 125, "dateTime": 1664555409530, "trialdata": {"rt": 555, "stimulus": "<p id='stroop-text' class='stroop-yellow'>YELLOW</p>", "response": "y", "stimulus-type": "congruent", "word": "yellow", "color": "yellow", "correct_response": "y", "trial_id": "stroop-trial-1-congruent-17", "trial_type": "html-keyboard-response", "trial_index": 125, "time_elapsed": 328095, "internal_node_id": "0.0-6.0-30.0"}}, {"uniqueid": "w71849840:a99587770", "current_trial": 126, "dateTime": 1664555410649, "trialdata": {"rt": 617, "stimulus": "<p id='stroop-text' class='stroop-blue'>RED</p>", "response": "b", "stimulus-type": "incongruent", "word": "red", "color": "blue", "correct_response": "b", "trial_id": "stroop-trial-1-incongruent-7", "trial_type": "html-keyboard-response", "trial_index": 126, "time_elapsed": 329214, "internal_node_id": "0.0-6.0-31.0"}}, {"uniqueid": "w71849840:a99587770", "current_trial": 127, "dateTime": 1664555411699, "trialdata": {"rt": 547, "stimulus": "<p id='stroop-text' class='stroop-blue'>MONKEY</p>", "response": "b", "stimulus-type": "unrelated", "word": "MONKEY", "color": "blue", "correct_response": "b", "trial_id": "stroop-trial-1-unrelated-27", "trial_type": "html-keyboard-response", "trial_index": 127, "time_elapsed": 330264, "internal_node_id": "0.0-6.0-32.0"}}, {"uniqueid": "w71849840:a99587770", "current_trial": 128, "dateTime": 1664555412832, "trialdata": {"rt": 631, "stimulus": "<p id='stroop-text' class='stroop-yellow'>RED</p>", "response": "y", "stimulus-type": "incongruent", "word": "red", "color": "yellow", "correct_response": "y", "trial_id": "stroop-trial-1-incongruent-11", "trial_type": "html-keyboard-response", "trial_index": 128, "time_elapsed": 331397, "internal_node_id": "0.0-6.0-33.0"}}, {"uniqueid": "w71849840:a99587770", "current_trial": 129, "dateTime": 1664555414244, "trialdata": {"rt": 909, "stimulus": "<p id='stroop-text' class='stroop-yellow'>GREEN</p>", "response": "y", "stimulus-type": "incongruent", "word": "green", "color": "yellow", "correct_response": "y", "trial_id": "stroop-trial-1-incongruent-22", "trial_type": "html-keyboard-response", "trial_index": 129, "time_elapsed": 332809, "internal_node_id": "0.0-6.0-34.0"}}, {"uniqueid": "w71849840:a99587770", "current_trial": 130, "dateTime": 1664555415480, "trialdata": {"rt": 733, "stimulus": "<p id='stroop-text' class='stroop-yellow'>GREEN</p>", "response": "y", "stimulus-type": "incongruent", "word": "green", "color": "yellow", "correct_response": "y", "trial_id": "stroop-trial-1-incongruent-5", "trial_type": "html-keyboard-response", "trial_index": 130, "time_elapsed": 334044, "internal_node_id": "0.0-6.0-35.0"}}, {"uniqueid": "w71849840:a99587770", "current_trial": 131, "dateTime": 1664555417204, "trialdata": {"rt": 1221, "stimulus": "<p id='stroop-text' class='stroop-green'>YELLOW</p>", "response": "g", "stimulus-type": "incongruent", "word": "yellow", "color": "green", "correct_response": "g", "trial_id": "stroop-trial-1-incongruent-25", "trial_type": "html-keyboard-response", "trial_index": 131, "time_elapsed": 335769, "internal_node_id": "0.0-6.0-36.0"}}, {"uniqueid": "w71849840:a99587770", "current_trial": 132, "dateTime": 1664555419278, "trialdata": {"rt": 1572, "stimulus": "<p id='stroop-text' class='stroop-blue'>STONE</p>", "response": "b", "stimulus-type": "unrelated", "word": "STONE", "color": "blue", "correct_response": "b", "trial_id": "stroop-trial-1-unrelated-13", "trial_type": "html-keyboard-response", "trial_index": 132, "time_elapsed": 337843, "internal_node_id": "0.0-6.0-37.0"}}, {"uniqueid": "w71849840:a99587770", "current_trial": 133, "dateTime": 1664555421425, "trialdata": {"rt": 1644, "stimulus": "<p id='stroop-text' class='stroop-green'>GREEN</p>", "response": "g", "stimulus-type": "congruent", "word": "green", "color": "green", "correct_response": "g", "trial_id": "stroop-trial-1-congruent-13", "trial_type": "html-keyboard-response", "trial_index": 133, "time_elapsed": 339989, "internal_node_id": "0.0-6.0-38.0"}}, {"uniqueid": "w71849840:a99587770", "current_trial": 134, "dateTime": 1664555423059, "trialdata": {"rt": 1132, "stimulus": "<p id='stroop-text' class='stroop-green'>STONE</p>", "response": "g", "stimulus-type": "unrelated", "word": "STONE", "color": "green", "correct_response": "g", "trial_id": "stroop-trial-1-unrelated-25", "trial_type": "html-keyboard-response", "trial_index": 134, "time_elapsed": 341624, "internal_node_id": "0.0-6.0-39.0"}}, {"uniqueid": "w71849840:a99587770", "current_trial": 135, "dateTime": 1664555424196, "trialdata": {"rt": 634, "stimulus": "<p id='stroop-text' class='stroop-yellow'>GREEN</p>", "response": "y", "stimulus-type": "incongruent", "word": "green", "color": "yellow", "correct_response": "y", "trial_id": "stroop-trial-1-incongruent-21", "trial_type": "html-keyboard-response", "trial_index": 135, "time_elapsed": 342761, "internal_node_id": "0.0-6.0-40.0"}}, {"uniqueid": "w71849840:a99587770", "current_trial": 136, "dateTime": 1664555425325, "trialdata": {"rt": 626, "stimulus": "<p id='stroop-text' class='stroop-yellow'>WINDOW</p>", "response": "y", "stimulus-type": "unrelated", "word": "WINDOW", "color": "yellow", "correct_response": "y", "trial_id": "stroop-trial-1-unrelated-16", "trial_type": "html-keyboard-response", "trial_index": 136, "time_elapsed": 343889, "internal_node_id": "0.0-6.0-41.0"}}, {"uniqueid": "w71849840:a99587770", "current_trial": 137, "dateTime": 1664555426388, "trialdata": {"rt": 561, "stimulus": "<p id='stroop-text' class='stroop-yellow'>YELLOW</p>", "response": "y", "stimulus-type": "congruent", "word": "yellow", "color": "yellow", "correct_response": "y", "trial_id": "stroop-trial-1-congruent-23", "trial_type": "html-keyboard-response", "trial_index": 137, "time_elapsed": 344953, "internal_node_id": "0.0-6.0-42.0"}}, {"uniqueid": "w71849840:a99587770", "current_trial": 138, "dateTime": 1664555427847, "trialdata": {"rt": 957, "stimulus": "<p id='stroop-text' class='stroop-green'>STONE</p>", "response": "g", "stimulus-type": "unrelated", "word": "STONE", "color": "green", "correct_response": "g", "trial_id": "stroop-trial-1-unrelated-21", "trial_type": "html-keyboard-response", "trial_index": 138, "time_elapsed": 346412, "internal_node_id": "0.0-6.0-43.0"}}, {"uniqueid": "w71849840:a99587770", "current_trial": 139, "dateTime": 1664555429793, "trialdata": {"rt": 1433, "stimulus": "<p id='stroop-text' class='stroop-red'>RED</p>", "response": "r", "stimulus-type": "congruent", "word": "red", "color": "red", "correct_response": "r", "trial_id": "stroop-trial-1-congruent-10", "trial_type": "html-keyboard-response", "trial_index": 139, "time_elapsed": 348357, "internal_node_id": "0.0-6.0-44.0"}}, {"uniqueid": "w71849840:a99587770", "current_trial": 140, "dateTime": 1664555430752, "trialdata": {"rt": 457, "stimulus": "<p id='stroop-text' class='stroop-blue'>YELLOW</p>", "response": "b", "stimulus-type": "incongruent", "word": "yellow", "color": "blue", "correct_response": "b", "trial_id": "stroop-trial-1-incongruent-12", "trial_type": "html-keyboard-response", "trial_index": 140, "time_elapsed": 349317, "internal_node_id": "0.0-6.0-45.0"}}, {"uniqueid": "w71849840:a99587770", "current_trial": 141, "dateTime": 1664555431973, "trialdata": {"rt": 718, "stimulus": "<p id='stroop-text' class='stroop-green'>GREEN</p>", "response": "g", "stimulus-type": "congruent", "word": "green", "color": "green", "correct_response": "g", "trial_id": "stroop-trial-1-congruent-2", "trial_type": "html-keyboard-response", "trial_index": 141, "time_elapsed": 350538, "internal_node_id": "0.0-6.0-46.0"}}, {"uniqueid": "w71849840:a99587770", "current_trial": 142, "dateTime": 1664555433303, "trialdata": {"rt": 828, "stimulus": "<p id='stroop-text' class='stroop-blue'>CHAIR</p>", "response": "b", "stimulus-type": "unrelated", "word": "CHAIR", "color": "blue", "correct_response": "b", "trial_id": "stroop-trial-1-unrelated-17", "trial_type": "html-keyboard-response", "trial_index": 142, "time_elapsed": 351867, "internal_node_id": "0.0-6.0-47.0"}}, {"uniqueid": "w71849840:a99587770", "current_trial": 143, "dateTime": 1664555435102, "trialdata": {"rt": 1296, "stimulus": "<p id='stroop-text' class='stroop-blue'>YELLOW</p>", "response": "b", "stimulus-type": "incongruent", "word": "yellow", "color": "blue", "correct_response": "b", "trial_id": "stroop-trial-1-incongruent-16", "trial_type": "html-keyboard-response", "trial_index": 143, "time_elapsed": 353666, "internal_node_id": "0.0-6.0-48.0"}}, {"uniqueid": "w71849840:a99587770", "current_trial": 144, "dateTime": 1664555436569, "trialdata": {"rt": 965, "stimulus": "<p id='stroop-text' class='stroop-red'>CHAIR</p>", "response": "r", "stimulus-type": "unrelated", "word": "CHAIR", "color": "red", "correct_response": "r", "trial_id": "stroop-trial-1-unrelated-22", "trial_type": "html-keyboard-response", "trial_index": 144, "time_elapsed": 355134, "internal_node_id": "0.0-6.0-49.0"}}, {"uniqueid": "w71849840:a99587770", "current_trial": 145, "dateTime": 1664555437756, "trialdata": {"rt": 684, "stimulus": "<p id='stroop-text' class='stroop-red'>DOG</p>", "response": "r", "stimulus-type": "unrelated", "word": "DOG", "color": "red", "correct_response": "r", "trial_id": "stroop-trial-1-unrelated-4", "trial_type": "html-keyboard-response", "trial_index": 145, "time_elapsed": 356321, "internal_node_id": "0.0-6.0-50.0"}}, {"uniqueid": "w71849840:a99587770", "current_trial": 146, "dateTime": 1664555438998, "trialdata": {"rt": 739, "stimulus": "<p id='stroop-text' class='stroop-red'>YELLOW</p>", "response": "r", "stimulus-type": "incongruent", "word": "yellow", "color": "red", "correct_response": "r", "trial_id": "stroop-trial-1-incongruent-14", "trial_type": "html-keyboard-response", "trial_index": 146, "time_elapsed": 357563, "internal_node_id": "0.0-6.0-51.0"}}, {"uniqueid": "w71849840:a99587770", "current_trial": 147, "dateTime": 1664555440262, "trialdata": {"rt": 761, "stimulus": "<p id='stroop-text' class='stroop-blue'>BRIDGE</p>", "response": "b", "stimulus-type": "unrelated", "word": "BRIDGE", "color": "blue", "correct_response": "b", "trial_id": "stroop-trial-1-unrelated-9", "trial_type": "html-keyboard-response", "trial_index": 147, "time_elapsed": 358827, "internal_node_id": "0.0-6.0-52.0"}}, {"uniqueid": "w71849840:a99587770", "current_trial": 148, "dateTime": 1664555441836, "trialdata": {"rt": 1072, "stimulus": "<p id='stroop-text' class='stroop-red'>RED</p>", "response": "r", "stimulus-type": "congruent", "word": "red", "color": "red", "correct_response": "r", "trial_id": "stroop-trial-1-congruent-6", "trial_type": "html-keyboard-response", "trial_index": 148, "time_elapsed": 360401, "internal_node_id": "0.0-6.0-53.0"}}, {"uniqueid": "w71849840:a99587770", "current_trial": 149, "dateTime": 1664555443644, "trialdata": {"rt": 1306, "stimulus": "<p id='stroop-text' class='stroop-blue'>BRAIN</p>", "response": "b", "stimulus-type": "unrelated", "word": "BRAIN", "color": "blue", "correct_response": "b", "trial_id": "stroop-trial-1-unrelated-15", "trial_type": "html-keyboard-response", "trial_index": 149, "time_elapsed": 362209, "internal_node_id": "0.0-6.0-54.0"}}, {"uniqueid": "w71849840:a99587770", "current_trial": 150, "dateTime": 1664555445121, "trialdata": {"rt": 974, "stimulus": "<p id='stroop-text' class='stroop-yellow'>BOTTLE</p>", "response": "y", "stimulus-type": "unrelated", "word": "BOTTLE", "color": "yellow", "correct_response": "y", "trial_id": "stroop-trial-1-unrelated-11", "trial_type": "html-keyboard-response", "trial_index": 150, "time_elapsed": 363685, "internal_node_id": "0.0-6.0-55.0"}}, {"uniqueid": "w71849840:a99587770", "current_trial": 151, "dateTime": 1664555446635, "trialdata": {"rt": 1001, "stimulus": "<p id='stroop-text' class='stroop-yellow'>YELLOW</p>", "response": "y", "stimulus-type": "congruent", "word": "yellow", "color": "yellow", "correct_response": "y", "trial_id": "stroop-trial-1-congruent-18", "trial_type": "html-keyboard-response", "trial_index": 151, "time_elapsed": 365200, "internal_node_id": "0.0-6.0-56.0"}}, {"uniqueid": "w71849840:a99587770", "current_trial": 152, "dateTime": 1664555447738, "trialdata": {"rt": 600, "stimulus": "<p id='stroop-text' class='stroop-yellow'>CHAIR</p>", "response": "y", "stimulus-type": "unrelated", "word": "CHAIR", "color": "yellow", "correct_response": "y", "trial_id": "stroop-trial-1-unrelated-12", "trial_type": "html-keyboard-response", "trial_index": 152, "time_elapsed": 366303, "internal_node_id": "0.0-6.0-57.0"}}, {"uniqueid": "w71849840:a99587770", "current_trial": 153, "dateTime": 1664555448781, "trialdata": {"rt": 541, "stimulus": "<p id='stroop-text' class='stroop-yellow'>CHAIR</p>", "response": "y", "stimulus-type": "unrelated", "word": "CHAIR", "color": "yellow", "correct_response": "y", "trial_id": "stroop-trial-1-unrelated-10", "trial_type": "html-keyboard-response", "trial_index": 153, "time_elapsed": 367346, "internal_node_id": "0.0-6.0-58.0"}}, {"uniqueid": "w71849840:a99587770", "current_trial": 154, "dateTime": 1664555450379, "trialdata": {"rt": 1095, "stimulus": "<p id='stroop-text' class='stroop-green'>RED</p>", "response": "g", "stimulus-type": "incongruent", "word": "red", "color": "green", "correct_response": "g", "trial_id": "stroop-trial-1-incongruent-30", "trial_type": "html-keyboard-response", "trial_index": 154, "time_elapsed": 368943, "internal_node_id": "0.0-6.0-59.0"}}, {"uniqueid": "w71849840:a99587770", "current_trial": 155, "dateTime": 1664555452688, "trialdata": {"rt": 1806, "stimulus": "<p id='stroop-text' class='stroop-red'>WINDOW</p>", "response": "r", "stimulus-type": "unrelated", "word": "WINDOW", "color": "red", "correct_response": "r", "trial_id": "stroop-trial-1-unrelated-7", "trial_type": "html-keyboard-response", "trial_index": 155, "time_elapsed": 371253, "internal_node_id": "0.0-6.0-60.0"}}, {"uniqueid": "w71849840:a99587770", "current_trial": 156, "dateTime": 1664555453778, "trialdata": {"rt": 588, "stimulus": "<p id='stroop-text' class='stroop-red'>FORK</p>", "response": "r", "stimulus-type": "unrelated", "word": "FORK", "color": "red", "correct_response": "r", "trial_id": "stroop-trial-1-unrelated-26", "trial_type": "html-keyboard-response", "trial_index": 156, "time_elapsed": 372342, "internal_node_id": "0.0-6.0-61.0"}}, {"uniqueid": "w71849840:a99587770", "current_trial": 157, "dateTime": 1664555455974, "trialdata": {"rt": 1694, "stimulus": "<p id='stroop-text' class='stroop-green'>GREEN</p>", "response": "g", "stimulus-type": "congruent", "word": "green", "color": "green", "correct_response": "g", "trial_id": "stroop-trial-1-congruent-27", "trial_type": "html-keyboard-response", "trial_index": 157, "time_elapsed": 374539, "internal_node_id": "0.0-6.0-62.0"}}, {"uniqueid": "w71849840:a99587770", "current_trial": 158, "dateTime": 1664555457078, "trialdata": {"rt": 600, "stimulus": "<p id='stroop-text' class='stroop-blue'>BLUE</p>", "response": "b", "stimulus-type": "congruent", "word": "blue", "color": "blue", "correct_response": "b", "trial_id": "stroop-trial-1-congruent-15", "trial_type": "html-keyboard-response", "trial_index": 158, "time_elapsed": 375643, "internal_node_id": "0.0-6.0-63.0"}}, {"uniqueid": "w71849840:a99587770", "current_trial": 159, "dateTime": 1664555458186, "trialdata": {"rt": 604, "stimulus": "<p id='stroop-text' class='stroop-green'>SHIP</p>", "response": "g", "stimulus-type": "unrelated", "word": "SHIP", "color": "green", "correct_response": "g", "trial_id": "stroop-trial-1-unrelated-28", "trial_type": "html-keyboard-response", "trial_index": 159, "time_elapsed": 376751, "internal_node_id": "0.0-6.0-64.0"}}, {"uniqueid": "w71849840:a99587770", "current_trial": 160, "dateTime": 1664555459157, "trialdata": {"rt": 468, "stimulus": "<p id='stroop-text' class='stroop-green'>GREEN</p>", "response": "g", "stimulus-type": "congruent", "word": "green", "color": "green", "correct_response": "g", "trial_id": "stroop-trial-1-congruent-5", "trial_type": "html-keyboard-response", "trial_index": 160, "time_elapsed": 377722, "internal_node_id": "0.0-6.0-65.0"}}, {"uniqueid": "w71849840:a99587770", "current_trial": 161, "dateTime": 1664555460289, "trialdata": {"rt": 615, "stimulus": "<p id='stroop-text' class='stroop-blue'>BLUE</p>", "response": "b", "stimulus-type": "congruent", "word": "blue", "color": "blue", "correct_response": "b", "trial_id": "stroop-trial-1-congruent-16", "trial_type": "html-keyboard-response", "trial_index": 161, "time_elapsed": 378853, "internal_node_id": "0.0-6.0-66.0"}}, {"uniqueid": "w71849840:a99587770", "current_trial": 162, "dateTime": 1664555462297, "trialdata": {"rt": 1505, "stimulus": "<p id='stroop-text' class='stroop-green'>YELLOW</p>", "response": "g", "stimulus-type": "incongruent", "word": "yellow", "color": "green", "correct_response": "g", "trial_id": "stroop-trial-1-incongruent-1", "trial_type": "html-keyboard-response", "trial_index": 162, "time_elapsed": 380861, "internal_node_id": "0.0-6.0-67.0"}}, {"uniqueid": "w71849840:a99587770", "current_trial": 163, "dateTime": 1664555463550, "trialdata": {"rt": 750, "stimulus": "<p id='stroop-text' class='stroop-yellow'>BLUE</p>", "response": "y", "stimulus-type": "incongruent", "word": "blue", "color": "yellow", "correct_response": "y", "trial_id": "stroop-trial-1-incongruent-2", "trial_type": "html-keyboard-response", "trial_index": 163, "time_elapsed": 382114, "internal_node_id": "0.0-6.0-68.0"}}, {"uniqueid": "w71849840:a99587770", "current_trial": 164, "dateTime": 1664555465857, "trialdata": {"rt": 1805, "stimulus": "<p id='stroop-text' class='stroop-blue'>BLUE</p>", "response": "b", "stimulus-type": "congruent", "word": "blue", "color": "blue", "correct_response": "b", "trial_id": "stroop-trial-1-congruent-11", "trial_type": "html-keyboard-response", "trial_index": 164, "time_elapsed": 384422, "internal_node_id": "0.0-6.0-69.0"}}, {"uniqueid": "w71849840:a99587770", "current_trial": 165, "dateTime": 1664555467049, "trialdata": {"rt": 690, "stimulus": "<p id='stroop-text' class='stroop-blue'>YELLOW</p>", "response": "b", "stimulus-type": "incongruent", "word": "yellow", "color": "blue", "correct_response": "b", "trial_id": "stroop-trial-1-incongruent-26", "trial_type": "html-keyboard-response", "trial_index": 165, "time_elapsed": 385614, "internal_node_id": "0.0-6.0-70.0"}}, {"uniqueid": "w71849840:a99587770", "current_trial": 166, "dateTime": 1664555468006, "trialdata": {"rt": 454, "stimulus": "<p id='stroop-text' class='stroop-blue'>BLUE</p>", "response": "b", "stimulus-type": "congruent", "word": "blue", "color": "blue", "correct_response": "b", "trial_id": "stroop-trial-1-congruent-12", "trial_type": "html-keyboard-response", "trial_index": 166, "time_elapsed": 386571, "internal_node_id": "0.0-6.0-71.0"}}, {"uniqueid": "w71849840:a99587770", "current_trial": 167, "dateTime": 1664555470551, "trialdata": {"rt": 2042, "stimulus": "<p id='stroop-text' class='stroop-yellow'>FORK</p>", "response": "g", "stimulus-type": "unrelated", "word": "FORK", "color": "yellow", "correct_response": "y", "trial_id": "stroop-trial-1-unrelated-1", "trial_type": "html-keyboard-response", "trial_index": 167, "time_elapsed": 389116, "internal_node_id": "0.0-6.0-72.0"}}, {"uniqueid": "w71849840:a99587770", "current_trial": 168, "dateTime": 1664555472293, "trialdata": {"rt": 1240, "stimulus": "<p id='stroop-text' class='stroop-green'>GREEN</p>", "response": "g", "stimulus-type": "congruent", "word": "green", "color": "green", "correct_response": "g", "trial_id": "stroop-trial-1-congruent-14", "trial_type": "html-keyboard-response", "trial_index": 168, "time_elapsed": 390858, "internal_node_id": "0.0-6.0-73.0"}}, {"uniqueid": "w71849840:a99587770", "current_trial": 169, "dateTime": 1664555473378, "trialdata": {"rt": 583, "stimulus": "<p id='stroop-text' class='stroop-green'>BOTTLE</p>", "response": "g", "stimulus-type": "unrelated", "word": "BOTTLE", "color": "green", "correct_response": "g", "trial_id": "stroop-trial-1-unrelated-5", "trial_type": "html-keyboard-response", "trial_index": 169, "time_elapsed": 391943, "internal_node_id": "0.0-6.0-74.0"}}, {"uniqueid": "w71849840:a99587770", "current_trial": 170, "dateTime": 1664555474529, "trialdata": {"rt": 648, "stimulus": "<p id='stroop-text' class='stroop-blue'>YELLOW</p>", "response": "b", "stimulus-type": "incongruent", "word": "yellow", "color": "blue", "correct_response": "b", "trial_id": "stroop-trial-1-incongruent-8", "trial_type": "html-keyboard-response", "trial_index": 170, "time_elapsed": 393093, "internal_node_id": "0.0-6.0-75.0"}}, {"uniqueid": "w71849840:a99587770", "current_trial": 171, "dateTime": 1664555476015, "trialdata": {"rt": 983, "stimulus": "<p id='stroop-text' class='stroop-green'>STONE</p>", "response": "g", "stimulus-type": "unrelated", "word": "STONE", "color": "green", "correct_response": "g", "trial_id": "stroop-trial-1-unrelated-23", "trial_type": "html-keyboard-response", "trial_index": 171, "time_elapsed": 394579, "internal_node_id": "0.0-6.0-76.0"}}, {"uniqueid": "w71849840:a99587770", "current_trial": 172, "dateTime": 1664555477195, "trialdata": {"rt": 678, "stimulus": "<p id='stroop-text' class='stroop-yellow'>FORK</p>", "response": "y", "stimulus-type": "unrelated", "word": "FORK", "color": "yellow", "correct_response": "y", "trial_id": "stroop-trial-1-unrelated-8", "trial_type": "html-keyboard-response", "trial_index": 172, "time_elapsed": 395760, "internal_node_id": "0.0-6.0-77.0"}}, {"uniqueid": "w71849840:a99587770", "current_trial": 173, "dateTime": 1664555478758, "trialdata": {"rt": 1059, "stimulus": "<p id='stroop-text' class='stroop-yellow'>YELLOW</p>", "response": "y", "stimulus-type": "congruent", "word": "yellow", "color": "yellow", "correct_response": "y", "trial_id": "stroop-trial-1-congruent-19", "trial_type": "html-keyboard-response", "trial_index": 173, "time_elapsed": 397322, "internal_node_id": "0.0-6.0-78.0"}}, {"uniqueid": "w71849840:a99587770", "current_trial": 174, "dateTime": 1664555480535, "trialdata": {"rt": 1275, "stimulus": "<p id='stroop-text' class='stroop-red'>YELLOW</p>", "response": "r", "stimulus-type": "incongruent", "word": "yellow", "color": "red", "correct_response": "r", "trial_id": "stroop-trial-1-incongruent-19", "trial_type": "html-keyboard-response", "trial_index": 174, "time_elapsed": 399100, "internal_node_id": "0.0-6.0-79.0"}}, {"uniqueid": "w71849840:a99587770", "current_trial": 175, "dateTime": 1664555481909, "trialdata": {"rt": 870, "stimulus": "<p id='stroop-text' class='stroop-blue'>GREEN</p>", "response": "b", "stimulus-type": "incongruent", "word": "green", "color": "blue", "correct_response": "b", "trial_id": "stroop-trial-1-incongruent-10", "trial_type": "html-keyboard-response", "trial_index": 175, "time_elapsed": 400474, "internal_node_id": "0.0-6.0-80.0"}}, {"uniqueid": "w71849840:a99587770", "current_trial": 176, "dateTime": 1664555483320, "trialdata": {"rt": 908, "stimulus": "<p id='stroop-text' class='stroop-green'>GREEN</p>", "response": "g", "stimulus-type": "congruent", "word": "green", "color": "green", "correct_response": "g", "trial_id": "stroop-trial-1-congruent-8", "trial_type": "html-keyboard-response", "trial_index": 176, "time_elapsed": 401884, "internal_node_id": "0.0-6.0-81.0"}}, {"uniqueid": "w71849840:a99587770", "current_trial": 177, "dateTime": 1664555486023, "trialdata": {"rt": 2201, "stimulus": "<p id='stroop-text' class='stroop-red'>FORK</p>", "response": "r", "stimulus-type": "unrelated", "word": "FORK", "color": "red", "correct_response": "r", "trial_id": "stroop-trial-1-unrelated-24", "trial_type": "html-keyboard-response", "trial_index": 177, "time_elapsed": 404588, "internal_node_id": "0.0-6.0-82.0"}}, {"uniqueid": "w71849840:a99587770", "current_trial": 178, "dateTime": 1664555490417, "trialdata": {"rt": 3891, "stimulus": "<p id='stroop-text' class='stroop-green'>RED</p>", "response": "g", "stimulus-type": "incongruent", "word": "red", "color": "green", "correct_response": "g", "trial_id": "stroop-trial-1-incongruent-13", "trial_type": "html-keyboard-response", "trial_index": 178, "time_elapsed": 408981, "internal_node_id": "0.0-6.0-83.0"}}, {"uniqueid": "w71849840:a99587770", "current_trial": 179, "dateTime": 1664555491663, "trialdata": {"rt": 744, "stimulus": "<p id='stroop-text' class='stroop-yellow'>BLUE</p>", "response": "y", "stimulus-type": "incongruent", "word": "blue", "color": "yellow", "correct_response": "y", "trial_id": "stroop-trial-1-incongruent-9", "trial_type": "html-keyboard-response", "trial_index": 179, "time_elapsed": 410228, "internal_node_id": "0.0-6.0-84.0"}}, {"uniqueid": "w71849840:a99587770", "current_trial": 180, "dateTime": 1664555494551, "trialdata": {"rt": 2385, "stimulus": "<p id='stroop-text' class='stroop-red'>RED</p>", "response": "r", "stimulus-type": "congruent", "word": "red", "color": "red", "correct_response": "r", "trial_id": "stroop-trial-1-congruent-7", "trial_type": "html-keyboard-response", "trial_index": 180, "time_elapsed": 413116, "internal_node_id": "0.0-6.0-85.0"}}, {"uniqueid": "w71849840:a99587770", "current_trial": 181, "dateTime": 1664555495771, "trialdata": {"rt": 718, "stimulus": "<p id='stroop-text' class='stroop-blue'>YELLOW</p>", "response": "b", "stimulus-type": "incongruent", "word": "yellow", "color": "blue", "correct_response": "b", "trial_id": "stroop-trial-1-incongruent-17", "trial_type": "html-keyboard-response", "trial_index": 181, "time_elapsed": 414336, "internal_node_id": "0.0-6.0-86.0"}}, {"uniqueid": "w71849840:a99587770", "current_trial": 182, "dateTime": 1664555497025, "trialdata": {"rt": 751, "stimulus": "<p id='stroop-text' class='stroop-yellow'>YELLOW</p>", "response": "y", "stimulus-type": "congruent", "word": "yellow", "color": "yellow", "correct_response": "y", "trial_id": "stroop-trial-1-congruent-25", "trial_type": "html-keyboard-response", "trial_index": 182, "time_elapsed": 415590, "internal_node_id": "0.0-6.0-87.0"}}, {"uniqueid": "w71849840:a99587770", "current_trial": 183, "dateTime": 1664555500700, "trialdata": {"rt": 3172, "stimulus": "<p id='stroop-text' class='stroop-red'>GREEN</p>", "response": "r", "stimulus-type": "incongruent", "word": "green", "color": "red", "correct_response": "r", "trial_id": "stroop-trial-1-incongruent-20", "trial_type": "html-keyboard-response", "trial_index": 183, "time_elapsed": 419265, "internal_node_id": "0.0-6.0-88.0"}}, {"uniqueid": "w71849840:a99587770", "current_trial": 184, "dateTime": 1664555505085, "trialdata": {"rt": 3881, "stimulus": "<p id='stroop-text' class='stroop-red'>SHIP</p>", "response": "r", "stimulus-type": "unrelated", "word": "SHIP", "color": "red", "correct_response": "r", "trial_id": "stroop-trial-1-unrelated-3", "trial_type": "html-keyboard-response", "trial_index": 184, "time_elapsed": 423649, "internal_node_id": "0.0-6.0-89.0"}}, {"uniqueid": "w71849840:a99587770", "current_trial": 185, "dateTime": 1664555731815, "trialdata": {"rt": 226228, "stimulus": "  <h1> End of block! </h1>\n\n  You have reached the end of the block 2/5. If you need a short break, feel free to take one now before moving on.\n\n  <br><br>\n  In the next block, you will complete another 90 rounds of this game.\n\n  <br><br>\n  <div style='text-align: center;'>Press <code>space</code> to begin.</div>\n  <br><br>\n<div style='text-align: center;'>(If the experiment doesn't continue, try clicking on the text and then pressing <code>space</code>.)</div>", "response": " ", "trial_id": "stroop_1_ready_3", "trial_type": "html-keyboard-response", "trial_index": 185, "time_elapsed": 650380, "internal_node_id": "0.0-7.0"}}, {"uniqueid": "w71849840:a99587770", "current_trial": 186, "dateTime": 1664555735833, "trialdata": {"rt": 4015, "stimulus": "<p id='stroop-text' class='stroop-red'>BLUE</p>", "response": "r", "stimulus-type": "incongruent", "word": "blue", "color": "red", "correct_response": "r", "trial_id": "stroop-trial-1-incongruent-12", "trial_type": "html-keyboard-response", "trial_index": 186, "time_elapsed": 654397, "internal_node_id": "0.0-8.0-0.0"}}, {"uniqueid": "w71849840:a99587770", "current_trial": 187, "dateTime": 1664555737947, "trialdata": {"rt": 1611, "stimulus": "<p id='stroop-text' class='stroop-blue'>BLUE</p>", "response": "b", "stimulus-type": "congruent", "word": "blue", "color": "blue", "correct_response": "b", "trial_id": "stroop-trial-1-congruent-27", "trial_type": "html-keyboard-response", "trial_index": 187, "time_elapsed": 656512, "internal_node_id": "0.0-8.0-1.0"}}, {"uniqueid": "w71849840:a99587770", "current_trial": 188, "dateTime": 1664555739621, "trialdata": {"rt": 1170, "stimulus": "<p id='stroop-text' class='stroop-blue'>BLUE</p>", "response": "b", "stimulus-type": "congruent", "word": "blue", "color": "blue", "correct_response": "b", "trial_id": "stroop-trial-1-congruent-29", "trial_type": "html-keyboard-response", "trial_index": 188, "time_elapsed": 658186, "internal_node_id": "0.0-8.0-2.0"}}, {"uniqueid": "w71849840:a99587770", "current_trial": 189, "dateTime": 1664555740998, "trialdata": {"rt": 875, "stimulus": "<p id='stroop-text' class='stroop-blue'>RED</p>", "response": "b", "stimulus-type": "incongruent", "word": "red", "color": "blue", "correct_response": "b", "trial_id": "stroop-trial-1-incongruent-18", "trial_type": "html-keyboard-response", "trial_index": 189, "time_elapsed": 659563, "internal_node_id": "0.0-8.0-3.0"}}, {"uniqueid": "w71849840:a99587770", "current_trial": 190, "dateTime": 1664555742269, "trialdata": {"rt": 755, "stimulus": "<p id='stroop-text' class='stroop-blue'>RED</p>", "response": "b", "stimulus-type": "incongruent", "word": "red", "color": "blue", "correct_response": "b", "trial_id": "stroop-trial-1-incongruent-26", "trial_type": "html-keyboard-response", "trial_index": 190, "time_elapsed": 660834, "internal_node_id": "0.0-8.0-4.0"}}, {"uniqueid": "w71849840:a99587770", "current_trial": 191, "dateTime": 1664555743303, "trialdata": {"rt": 531, "stimulus": "<p id='stroop-text' class='stroop-blue'>BLUE</p>", "response": "b", "stimulus-type": "congruent", "word": "blue", "color": "blue", "correct_response": "b", "trial_id": "stroop-trial-1-congruent-30", "trial_type": "html-keyboard-response", "trial_index": 191, "time_elapsed": 661868, "internal_node_id": "0.0-8.0-5.0"}}, {"uniqueid": "w71849840:a99587770", "current_trial": 192, "dateTime": 1664555744402, "trialdata": {"rt": 587, "stimulus": "<p id='stroop-text' class='stroop-red'>RED</p>", "response": "r", "stimulus-type": "congruent", "word": "red", "color": "red", "correct_response": "r", "trial_id": "stroop-trial-1-congruent-21", "trial_type": "html-keyboard-response", "trial_index": 192, "time_elapsed": 662967, "internal_node_id": "0.0-8.0-6.0"}}, {"uniqueid": "w71849840:a99587770", "current_trial": 193, "dateTime": 1664555745472, "trialdata": {"rt": 566, "stimulus": "<p id='stroop-text' class='stroop-yellow'>YELLOW</p>", "response": "y", "stimulus-type": "congruent", "word": "yellow", "color": "yellow", "correct_response": "y", "trial_id": "stroop-trial-1-congruent-7", "trial_type": "html-keyboard-response", "trial_index": 193, "time_elapsed": 664036, "internal_node_id": "0.0-8.0-7.0"}}, {"uniqueid": "w71849840:a99587770", "current_trial": 194, "dateTime": 1664555746592, "trialdata": {"rt": 618, "stimulus": "<p id='stroop-text' class='stroop-yellow'>DOG</p>", "response": "y", "stimulus-type": "unrelated", "word": "DOG", "color": "yellow", "correct_response": "y", "trial_id": "stroop-trial-1-unrelated-7", "trial_type": "html-keyboard-response", "trial_index": 194, "time_elapsed": 665157, "internal_node_id": "0.0-8.0-8.0"}}, {"uniqueid": "w71849840:a99587770", "current_trial": 195, "dateTime": 1664555747692, "trialdata": {"rt": 597, "stimulus": "<p id='stroop-text' class='stroop-red'>RED</p>", "response": "r", "stimulus-type": "congruent", "word": "red", "color": "red", "correct_response": "r", "trial_id": "stroop-trial-1-congruent-17", "trial_type": "html-keyboard-response", "trial_index": 195, "time_elapsed": 666257, "internal_node_id": "0.0-8.0-9.0"}}, {"uniqueid": "w71849840:a99587770", "current_trial": 196, "dateTime": 1664555748872, "trialdata": {"rt": 678, "stimulus": "<p id='stroop-text' class='stroop-yellow'>RED</p>", "response": "y", "stimulus-type": "incongruent", "word": "red", "color": "yellow", "correct_response": "y", "trial_id": "stroop-trial-1-incongruent-14", "trial_type": "html-keyboard-response", "trial_index": 196, "time_elapsed": 667437, "internal_node_id": "0.0-8.0-10.0"}}, {"uniqueid": "w71849840:a99587770", "current_trial": 197, "dateTime": 1664555751673, "trialdata": {"rt": 2299, "stimulus": "<p id='stroop-text' class='stroop-blue'>FORK</p>", "response": "b", "stimulus-type": "unrelated", "word": "FORK", "color": "blue", "correct_response": "b", "trial_id": "stroop-trial-1-unrelated-8", "trial_type": "html-keyboard-response", "trial_index": 197, "time_elapsed": 670238, "internal_node_id": "0.0-8.0-11.0"}}, {"uniqueid": "w71849840:a99587770", "current_trial": 198, "dateTime": 1664555752845, "trialdata": {"rt": 669, "stimulus": "<p id='stroop-text' class='stroop-yellow'>SHIP</p>", "response": "y", "stimulus-type": "unrelated", "word": "SHIP", "color": "yellow", "correct_response": "y", "trial_id": "stroop-trial-1-unrelated-11", "trial_type": "html-keyboard-response", "trial_index": 198, "time_elapsed": 671410, "internal_node_id": "0.0-8.0-12.0"}}, {"uniqueid": "w71849840:a99587770", "current_trial": 199, "dateTime": 1664555754058, "trialdata": {"rt": 710, "stimulus": "<p id='stroop-text' class='stroop-yellow'>YELLOW</p>", "response": "y", "stimulus-type": "congruent", "word": "yellow", "color": "yellow", "correct_response": "y", "trial_id": "stroop-trial-1-congruent-14", "trial_type": "html-keyboard-response", "trial_index": 199, "time_elapsed": 672623, "internal_node_id": "0.0-8.0-13.0"}}, {"uniqueid": "w71849840:a99587770", "current_trial": 200, "dateTime": 1664555755277, "trialdata": {"rt": 716, "stimulus": "<p id='stroop-text' class='stroop-red'>RED</p>", "response": "r", "stimulus-type": "congruent", "word": "red", "color": "red", "correct_response": "r", "trial_id": "stroop-trial-1-congruent-20", "trial_type": "html-keyboard-response", "trial_index": 200, "time_elapsed": 673841, "internal_node_id": "0.0-8.0-14.0"}}, {"uniqueid": "w71849840:a99587770", "current_trial": 201, "dateTime": 1664555756847, "trialdata": {"rt": 1067, "stimulus": "<p id='stroop-text' class='stroop-yellow'>RED</p>", "response": "y", "stimulus-type": "incongruent", "word": "red", "color": "yellow", "correct_response": "y", "trial_id": "stroop-trial-1-incongruent-13", "trial_type": "html-keyboard-response", "trial_index": 201, "time_elapsed": 675411, "internal_node_id": "0.0-8.0-15.0"}}, {"uniqueid": "w71849840:a99587770", "current_trial": 202, "dateTime": 1664555758880, "trialdata": {"rt": 1524, "stimulus": "<p id='stroop-text' class='stroop-red'>RED</p>", "response": "r", "stimulus-type": "congruent", "word": "red", "color": "red", "correct_response": "r", "trial_id": "stroop-trial-1-congruent-2", "trial_type": "html-keyboard-response", "trial_index": 202, "time_elapsed": 677445, "internal_node_id": "0.0-8.0-16.0"}}, {"uniqueid": "w71849840:a99587770", "current_trial": 203, "dateTime": 1664555760215, "trialdata": {"rt": 832, "stimulus": "<p id='stroop-text' class='stroop-yellow'>BRIDGE</p>", "response": "y", "stimulus-type": "unrelated", "word": "BRIDGE", "color": "yellow", "correct_response": "y", "trial_id": "stroop-trial-1-unrelated-9", "trial_type": "html-keyboard-response", "trial_index": 203, "time_elapsed": 678780, "internal_node_id": "0.0-8.0-17.0"}}, {"uniqueid": "w71849840:a99587770", "current_trial": 204, "dateTime": 1664555761258, "trialdata": {"rt": 540, "stimulus": "<p id='stroop-text' class='stroop-yellow'>YELLOW</p>", "response": "y", "stimulus-type": "congruent", "word": "yellow", "color": "yellow", "correct_response": "y", "trial_id": "stroop-trial-1-congruent-18", "trial_type": "html-keyboard-response", "trial_index": 204, "time_elapsed": 679823, "internal_node_id": "0.0-8.0-18.0"}}, {"uniqueid": "w71849840:a99587770", "current_trial": 205, "dateTime": 1664555762557, "trialdata": {"rt": 796, "stimulus": "<p id='stroop-text' class='stroop-green'>SHIP</p>", "response": "g", "stimulus-type": "unrelated", "word": "SHIP", "color": "green", "correct_response": "g", "trial_id": "stroop-trial-1-unrelated-5", "trial_type": "html-keyboard-response", "trial_index": 205, "time_elapsed": 681122, "internal_node_id": "0.0-8.0-19.0"}}, {"uniqueid": "w71849840:a99587770", "current_trial": 206, "dateTime": 1664555763795, "trialdata": {"rt": 734, "stimulus": "<p id='stroop-text' class='stroop-red'>BRAIN</p>", "response": "r", "stimulus-type": "unrelated", "word": "BRAIN", "color": "red", "correct_response": "r", "trial_id": "stroop-trial-1-unrelated-24", "trial_type": "html-keyboard-response", "trial_index": 206, "time_elapsed": 682359, "internal_node_id": "0.0-8.0-20.0"}}, {"uniqueid": "w71849840:a99587770", "current_trial": 207, "dateTime": 1664555764924, "trialdata": {"rt": 626, "stimulus": "<p id='stroop-text' class='stroop-yellow'>SHIP</p>", "response": "y", "stimulus-type": "unrelated", "word": "SHIP", "color": "yellow", "correct_response": "y", "trial_id": "stroop-trial-1-unrelated-1", "trial_type": "html-keyboard-response", "trial_index": 207, "time_elapsed": 683489, "internal_node_id": "0.0-8.0-21.0"}}, {"uniqueid": "w71849840:a99587770", "current_trial": 208, "dateTime": 1664555766420, "trialdata": {"rt": 992, "stimulus": "<p id='stroop-text' class='stroop-red'>RED</p>", "response": "g", "stimulus-type": "congruent", "word": "red", "color": "red", "correct_response": "r", "trial_id": "stroop-trial-1-congruent-6", "trial_type": "html-keyboard-response", "trial_index": 208, "time_elapsed": 684985, "internal_node_id": "0.0-8.0-22.0"}}, {"uniqueid": "w71849840:a99587770", "current_trial": 209, "dateTime": 1664555768047, "trialdata": {"rt": 1125, "stimulus": "<p id='stroop-text' class='stroop-green'>BLUE</p>", "response": "g", "stimulus-type": "incongruent", "word": "blue", "color": "green", "correct_response": "g", "trial_id": "stroop-trial-1-incongruent-25", "trial_type": "html-keyboard-response", "trial_index": 209, "time_elapsed": 686612, "internal_node_id": "0.0-8.0-23.0"}}, {"uniqueid": "w71849840:a99587770", "current_trial": 210, "dateTime": 1664555769341, "trialdata": {"rt": 790, "stimulus": "<p id='stroop-text' class='stroop-blue'>FORK</p>", "response": "b", "stimulus-type": "unrelated", "word": "FORK", "color": "blue", "correct_response": "b", "trial_id": "stroop-trial-1-unrelated-27", "trial_type": "html-keyboard-response", "trial_index": 210, "time_elapsed": 687906, "internal_node_id": "0.0-8.0-24.0"}}, {"uniqueid": "w71849840:a99587770", "current_trial": 211, "dateTime": 1664555770629, "trialdata": {"rt": 784, "stimulus": "<p id='stroop-text' class='stroop-red'>RED</p>", "response": "r", "stimulus-type": "congruent", "word": "red", "color": "red", "correct_response": "r", "trial_id": "stroop-trial-1-congruent-3", "trial_type": "html-keyboard-response", "trial_index": 211, "time_elapsed": 689194, "internal_node_id": "0.0-8.0-25.0"}}, {"uniqueid": "w71849840:a99587770", "current_trial": 212, "dateTime": 1664555771907, "trialdata": {"rt": 775, "stimulus": "<p id='stroop-text' class='stroop-blue'>STONE</p>", "response": "b", "stimulus-type": "unrelated", "word": "STONE", "color": "blue", "correct_response": "b", "trial_id": "stroop-trial-1-unrelated-15", "trial_type": "html-keyboard-response", "trial_index": 212, "time_elapsed": 690472, "internal_node_id": "0.0-8.0-26.0"}}, {"uniqueid": "w71849840:a99587770", "current_trial": 213, "dateTime": 1664555773256, "trialdata": {"rt": 837, "stimulus": "<p id='stroop-text' class='stroop-green'>YELLOW</p>", "response": "g", "stimulus-type": "incongruent", "word": "yellow", "color": "green", "correct_response": "g", "trial_id": "stroop-trial-1-incongruent-9", "trial_type": "html-keyboard-response", "trial_index": 213, "time_elapsed": 691821, "internal_node_id": "0.0-8.0-27.0"}}, {"uniqueid": "w71849840:a99587770", "current_trial": 214, "dateTime": 1664555774437, "trialdata": {"rt": 678, "stimulus": "<p id='stroop-text' class='stroop-green'>GREEN</p>", "response": "g", "stimulus-type": "congruent", "word": "green", "color": "green", "correct_response": "g", "trial_id": "stroop-trial-1-congruent-12", "trial_type": "html-keyboard-response", "trial_index": 214, "time_elapsed": 693002, "internal_node_id": "0.0-8.0-28.0"}}, {"uniqueid": "w71849840:a99587770", "current_trial": 215, "dateTime": 1664555775555, "trialdata": {"rt": 614, "stimulus": "<p id='stroop-text' class='stroop-green'>BRAIN</p>", "response": "g", "stimulus-type": "unrelated", "word": "BRAIN", "color": "green", "correct_response": "g", "trial_id": "stroop-trial-1-unrelated-29", "trial_type": "html-keyboard-response", "trial_index": 215, "time_elapsed": 694120, "internal_node_id": "0.0-8.0-29.0"}}, {"uniqueid": "w71849840:a99587770", "current_trial": 216, "dateTime": 1664555776684, "trialdata": {"rt": 626, "stimulus": "<p id='stroop-text' class='stroop-red'>BOAT</p>", "response": "r", "stimulus-type": "unrelated", "word": "BOAT", "color": "red", "correct_response": "r", "trial_id": "stroop-trial-1-unrelated-28", "trial_type": "html-keyboard-response", "trial_index": 216, "time_elapsed": 695249, "internal_node_id": "0.0-8.0-30.0"}}, {"uniqueid": "w71849840:a99587770", "current_trial": 217, "dateTime": 1664555778012, "trialdata": {"rt": 826, "stimulus": "<p id='stroop-text' class='stroop-green'>BOTTLE</p>", "response": "g", "stimulus-type": "unrelated", "word": "BOTTLE", "color": "green", "correct_response": "g", "trial_id": "stroop-trial-1-unrelated-22", "trial_type": "html-keyboard-response", "trial_index": 217, "time_elapsed": 696577, "internal_node_id": "0.0-8.0-31.0"}}, {"uniqueid": "w71849840:a99587770", "current_trial": 218, "dateTime": 1664555779057, "trialdata": {"rt": 542, "stimulus": "<p id='stroop-text' class='stroop-green'>GREEN</p>", "response": "g", "stimulus-type": "congruent", "word": "green", "color": "green", "correct_response": "g", "trial_id": "stroop-trial-1-congruent-15", "trial_type": "html-keyboard-response", "trial_index": 218, "time_elapsed": 697622, "internal_node_id": "0.0-8.0-32.0"}}, {"uniqueid": "w71849840:a99587770", "current_trial": 219, "dateTime": 1664555780072, "trialdata": {"rt": 512, "stimulus": "<p id='stroop-text' class='stroop-red'>RED</p>", "response": "r", "stimulus-type": "congruent", "word": "red", "color": "red", "correct_response": "r", "trial_id": "stroop-trial-1-congruent-22", "trial_type": "html-keyboard-response", "trial_index": 219, "time_elapsed": 698636, "internal_node_id": "0.0-8.0-33.0"}}, {"uniqueid": "w71849840:a99587770", "current_trial": 220, "dateTime": 1664555781237, "trialdata": {"rt": 662, "stimulus": "<p id='stroop-text' class='stroop-green'>BLUE</p>", "response": "g", "stimulus-type": "incongruent", "word": "blue", "color": "green", "correct_response": "g", "trial_id": "stroop-trial-1-incongruent-17", "trial_type": "html-keyboard-response", "trial_index": 220, "time_elapsed": 699801, "internal_node_id": "0.0-8.0-34.0"}}, {"uniqueid": "w71849840:a99587770", "current_trial": 221, "dateTime": 1664555782327, "trialdata": {"rt": 587, "stimulus": "<p id='stroop-text' class='stroop-blue'>BLUE</p>", "response": "b", "stimulus-type": "congruent", "word": "blue", "color": "blue", "correct_response": "b", "trial_id": "stroop-trial-1-congruent-16", "trial_type": "html-keyboard-response", "trial_index": 221, "time_elapsed": 700892, "internal_node_id": "0.0-8.0-35.0"}}, {"uniqueid": "w71849840:a99587770", "current_trial": 222, "dateTime": 1664555783477, "trialdata": {"rt": 636, "stimulus": "<p id='stroop-text' class='stroop-red'>RED</p>", "response": "r", "stimulus-type": "congruent", "word": "red", "color": "red", "correct_response": "r", "trial_id": "stroop-trial-1-congruent-5", "trial_type": "html-keyboard-response", "trial_index": 222, "time_elapsed