{"condition": 1, "counterbalance": 0, "assignmentId": "a59332715", "workerId": "w68918451", "hitId": "h60706181", "currenttrial": 137, "bonus": 0, "data": [{"uniqueid": "w68918451:a59332715", "current_trial": 0, "dateTime": 1664554883443, "trialdata": {"success": true, "trial_type": "fullscreen", "trial_index": 0, "time_elapsed": 3466, "internal_node_id": "0.0-0.0"}}, {"uniqueid": "w68918451:a59332715", "current_trial": 1, "dateTime": 1664554891154, "trialdata": {"view_history": [{"page_index": 0, "viewing_time": 7708}], "rt": 7708, "trial_id": "exp_instructions_no_distractor", "trial_type": "instructions", "trial_index": 1, "time_elapsed": 11177, "internal_node_id": "0.0-1.0"}}, {"uniqueid": "w68918451:a59332715", "current_trial": 2, "dateTime": 1664554893457, "trialdata": {"success": true, "trial_type": "fullscreen", "trial_index": 2, "time_elapsed": 13480, "internal_node_id": "0.0-2.0-0.0"}}, {"uniqueid": "w68918451:a59332715", "current_trial": 3, "dateTime": 1664554957439, "trialdata": {"view_history": [{"page_index": 0, "viewing_time": 24732}, {"page_index": 1, "viewing_time": 13082}, {"page_index": 2, "viewing_time": 9854}, {"page_index": 3, "viewing_time": 6118}, {"page_index": 4, "viewing_time": 10193}], "rt": 63979, "trial_id": "mouselab_instructions_1", "trial_type": "instructions", "trial_index": 3, "time_elapsed": 77461, "internal_node_id": "0.0-2.0-1.0"}}, {"uniqueid": "w68918451:a59332715", "current_trial": 4, "dateTime": 1664554976128, "trialdata": {"revealed_states": [], "num_clicks_accrued": [0, 0, 0, 0, 0, 0, 0, 0, 0, 0, 0, 0, 0], "stateRewards": ["", 10, 10, -10, 10, 10, 10, -10, 10, -10, -10, 10, -10], "withholdReward": false, "trial_id": "practice_1", "block": "test", "trialIndex": 0, "score": 10.75, "costs": -1.25, "simulationMode": [null, null, null], "rewards": [10, 10, -10], "path": ["0", "0", "5", "6", "7"], "rt": [9711, 346, 242], "actions": ["right", "right", "up"], "actionTimes": [11023, 11871, 12616], "queries": {"click": {"state": {"target": ["1", "9", "5", "6", "2"], "time": [4126, 6304, 7024, 8430, 8891]}, "edge": {"target": [], "time": []}}, "mouseover": {"state": {"target": ["0", "1", "9", "0", "5", "6", "2"], "time": [3364, 3853, 6216, 6519, 6829, 8228, 8713]}, "edge": {"target": [], "time": []}}, "mouseout": {"state": {"target": ["0", "0", "1", "9", "0", "5", "5", "5", "6", "2", "5"], "time": [1137, 3525, 4374, 6476, 6664, 7212, 7967, 8198, 8574, 9076, 15058]}, "edge": {"target": [], "time": []}}}, "displayed_time": "13.13", "trialTime": 18561, "trial_type": "mouselab-mdp", "trial_index": 4, "time_elapsed": 96151, "internal_node_id": "0.0-2.0-2.0-0.0"}}, {"uniqueid": "w68918451:a59332715", "current_trial": 5, "dateTime": 1664554988466, "trialdata": {"revealed_states": [], "num_clicks_accrued": [0, 0, 0, 0, 0, 0, 0, 0, 0, 0, 0, 0, 0], "stateRewards": ["", -10, 10, -10, 10, -10, 10, 10, 10, 10, 10, -10, 10], "withholdReward": false, "trial_id": "practice_2", "block": "test", "trialIndex": 1, "score": 31.5, "costs": -0.5, "simulationMode": [null, null, null], "rewards": [10, 10, 10], "path": ["0", "0", "9", "10", "12"], "rt": [4011, 319, 198], "actions": ["left", "left", "down"], "actionTimes": [8553, 9382, 10088], "queries": {"click": {"state": {"target": ["1", "9"], "time": [6242, 7211]}, "edge": {"target": [], "time": []}}, "mouseover": {"state": {"target": ["1", "0", "9"], "time": [5932, 6957, 7083]}, "edge": {"target": [], "time": []}}, "mouseout": {"state": {"target": ["0", "1", "0", "1", "0", "9"], "time": [4083, 4186, 5780, 6514, 7016, 7441]}, "edge": {"target": [], "time": []}}}, "displayed_time": "10.60", "trialTime": 12282, "trial_type": "mouselab-mdp", "trial_index": 5, "time_elapsed": 108489, "internal_node_id": "0.0-2.0-2.0-1.0"}}, {"uniqueid": "w68918451:a59332715", "current_trial": 6, "dateTime": 1664555017051, "trialdata": {"view_history": [{"page_index": 0, "viewing_time": 15787}, {"page_index": 1, "viewing_time": 7419}, {"page_index": 2, "viewing_time": 5376}], "rt": 28582, "trial_id": "mouselab_instructions_2_scarce", "trial_type": "instructions", "trial_index": 6, "time_elapsed": 137074, "internal_node_id": "0.0-2.0-3.0"}}, {"uniqueid": "w68918451:a59332715", "current_trial": 7, "dateTime": 1664555034895, "trialdata": {"rt": 17841, "response": {"Q0": "$-48 to $48", "Q1": "The cost is always $0.25.", "Q2": "The better I perform the higher my bonus will be.", "Q3": "No, the amount of cash at each node of the web may be different each time.", "Q4": "The values of the nodes walked through from start to finish.", "Q5": "No, the spider might forget to count the money on some rounds."}, "question_order": [0, 1, 2, 3, 4, 5], "correct": {"Q0": "$-48 to $48", "Q1": "The cost is always $0.25.", "Q2": "The better I perform the higher my bonus will be.", "Q3": "No, the amount of cash at each node of the web may be different each time.", "Q4": "The values of the nodes walked through from start to finish.", "Q5": "No, the spider might forget to count the money on some rounds."}, "trial_id": "mouselab_quiz_scarce", "trial_type": "survey-multi-choice", "trial_index": 7, "time_elapsed": 154918, "internal_node_id": "0.0-2.0-4.0"}}, {"uniqueid": "w68918451:a59332715", "current_trial": 8, "dateTime": 1664555044908, "trialdata": {"rt": 10009, "stimulus": "\n<h1> Get ready to start the game! </h1>\n\nThank you for reading the instructions. Get ready start with the first of 4 block(s) of this game.\n<br><br>\nIn this first block, you will complete 30 rounds of this game before moving on.\n<br><br>\nRemember, the more money the spider gets, the bigger your bonus will be!\n<br><br>\n<div style='text-align: center;'>Press <code>space</code> to begin.</div>\n\n<br><br>\n(If, at any point, the <code>space</code> key does not take you to the next page, click once on the text and try again.)", "response": " ", "trial_id": "mdp_ready_1", "trial_type": "html-keyboard-response", "trial_index": 8, "time_elapsed": 164931, "internal_node_id": "0.0-4.0-0.0"}}, {"uniqueid": "w68918451:a59332715", "current_trial": 9, "dateTime": 1664555056560, "trialdata": {"revealed_states": [], "num_clicks_accrued": [0, 0, 0, 0, 0, 0, 0, 0, 0, 0, 0, 0, 0], "stateRewards": ["", 4, 4, 48, -24, 2, -4, 48, 24, -4, -4, -48, 24], "withholdReward": true, "trial_id": "mdp_496003763005", "block": "test1", "trialIndex": 2, "score": 60.25, "costs": -0.75, "simulationMode": [null, null, null], "rewards": [4, 4, 48], "path": ["0", "0", "1", "2", "3"], "rt": [3372, 338, 94], "actions": ["up", "up", "right"], "actionTimes": [5489, 6338, 6942], "queries": {"click": {"state": {"target": ["9", "1", "5"], "time": [3364, 3993, 4496]}, "edge": {"target": [], "time": []}}, "mouseover": {"state": {"target": ["0", "9", "1", "5"], "time": [2242, 2981, 3611, 4272]}, "edge": {"target": [], "time": []}}, "mouseout": {"state": {"target": ["0", "3", "3", "0", "9", "1", "5"], "time": [1418, 1515, 1636, 2375, 3539, 4169, 4623]}, "edge": {"target": [], "time": []}}}, "displayed_time": "10.19", "trialTime": 11590, "trial_type": "mouselab-mdp", "trial_index": 9, "time_elapsed": 176583, "internal_node_id": "0.0-4.0-1.0-0.0"}}, {"uniqueid": "w68918451:a59332715", "current_trial": 10, "dateTime": 1664555068866, "trialdata": {"revealed_states": [], "num_clicks_accrued": [0, 0, 0, 0, 0, 0, 0, 0, 0, 0, 0, 0, 0], "stateRewards": ["", -4, -4, -48, 48, -4, -8, -24, -48, -2, 8, 48, 24], "withholdReward": true, "trial_id": "mdp_365393526663", "block": "test1", "trialIndex": 3, "score": 58.25, "costs": -0.75, "simulationMode": [null, null, null], "rewards": [-2, 8, 48], "path": ["0", "0", "9", "10", "11"], "rt": [3622, 233, 23], "actions": ["left", "left", "up"], "actionTimes": [5352, 6098, 6640], "queries": {"click": {"state": {"target": ["9", "5", "1"], "time": [2821, 3328, 3882]}, "edge": {"target": [], "time": []}}, "mouseover": {"state": {"target": ["9", "0", "5", "1", "0"], "time": [2593, 3053, 3217, 3666, 4150]}, "edge": {"target": [], "time": []}}, "mouseout": {"state": {"target": ["0", "9", "0", "5", "1", "0"], "time": [2292, 2998, 3126, 3587, 4066, 4229]}, "edge": {"target": [], "time": []}}}, "displayed_time": "10.84", "trialTime": 12252, "trial_type": "mouselab-mdp", "trial_index": 10, "time_elapsed": 188889, "internal_node_id": "0.0-4.0-1.0-1.0"}}, {"uniqueid": "w68918451:a59332715", "current_trial": 11, "dateTime": 1664555080176, "trialdata": {"revealed_states": [], "num_clicks_accrued": [0, 0, 0, 0, 0, 0, 0, 0, 0, 0, 0, 0, 0], "stateRewards": ["", 2, 8, -48, -24, 4, 4, 24, 48, 4, -4, -48, 48], "withholdReward": true, "trial_id": "mdp_665096999232", "block": "test1", "trialIndex": 4, "score": 58, "costs": -3, "simulationMode": [null, null, null], "rewards": [4, 4, 48], "path": ["0", "0", "5", "6", "8"], "rt": [7067, 426, 216], "actions": ["right", "right", "down"], "actionTimes": [8097, 9035, 9759], "queries": {"click": {"state": {"target": ["9", "10", "12", "11", "4", "2", "3", "1", "7", "6", "8", "5"], "time": [1889, 2202, 2547, 2977, 3621, 3885, 4157, 4493, 4930, 5344, 5629, 6070]}, "edge": {"target": [], "time": []}}, "mouseover": {"state": {"target": ["9", "10", "12", "11", "4", "2", "3", "1", "7", "6", "8", "5"], "time": [1762, 2064, 2374, 2755, 3465, 3767, 4064, 4391, 4749, 5215, 5556, 5986]}, "edge": {"target": [], "time": []}}, "mouseout": {"state": {"target": ["0", "9", "10", "12", "10", "11", "4", "2", "3", "1", "7", "6", "8", "5"], "time": [1385, 2028, 2324, 2646, 2718, 3228, 3732, 4034, 4300, 4671, 5173, 5506, 5816, 6235]}, "edge": {"target": [], "time": []}}}, "displayed_time": "10.27", "trialTime": 11252, "trial_type": "mouselab-mdp", "trial_index": 11, "time_elapsed": 200199, "internal_node_id": "0.0-4.0-1.0-2.0"}}, {"uniqueid": "w68918451:a59332715", "current_trial": 12, "dateTime": 1664555093580, "trialdata": {"revealed_states": [], "num_clicks_accrued": [0, 0, 0, 0, 0, 0, 0, 0, 0, 0, 0, 0, 0], "stateRewards": ["", -2, -4, -48, -48, 4, 8, 24, -48, 4, -8, 24, 24], "withholdReward": false, "trial_id": "mdp_749799219195", "block": "test1", "trialIndex": 5, "score": 38, "costs": -3, "simulationMode": [null, null, null], "rewards": [4, 8, 24], "path": ["0", "0", "5", "6", "7"], "rt": [8251, 474, 277], "actions": ["right", "right", "up"], "actionTimes": [9301, 10300, 11086], "queries": {"click": {"state": {"target": ["9", "10", "12", "11", "4", "2", "1", "3", "7", "6", "8", "5"], "time": [1616, 2322, 2726, 3215, 3870, 4185, 4532, 4921, 5366, 5676, 5940, 6257]}, "edge": {"target": [], "time": []}}, "mouseover": {"state": {"target": ["0", "9", "10", "10", "12", "11", "4", "2", "1", "3", "7", "6", "8", "5"], "time": [1196, 1455, 1770, 1989, 2504, 2958, 3612, 4050, 4444, 4704, 5134, 5570, 5867, 6158]}, "edge": {"target": [], "time": []}}, "mouseout": {"state": {"target": ["0", "0", "9", "10", "10", "12", "10", "11", "4", "2", "1", "3", "7", "6", "8", "5"], "time": [1054, 1389, 1740, 1819, 2455, 2825, 2891, 3474, 4013, 4346, 4643, 5055, 5510, 5825, 6056, 6394]}, "edge": {"target": [], "time": []}}}, "displayed_time": "11.59", "trialTime": 13339, "trial_type": "mouselab-mdp", "trial_index": 12, "time_elapsed": 213603, "internal_node_id": "0.0-4.0-1.0-3.0"}}, {"uniqueid": "w68918451:a59332715", "current_trial": 13, "dateTime": 1664555116714, "trialdata": {"revealed_states": [], "num_clicks_accrued": [0, 0, 0, 0, 0, 0, 0, 0, 0, 0, 0, 0, 0], "stateRewards": ["", -2, -4, -48, 48, -4, 4, -48, 24, -4, -8, 24, 48], "withholdReward": true, "trial_id": "mdp_264482284450", "block": "test1", "trialIndex": 6, "score": 44, "costs": -3, "simulationMode": [null, null, null], "rewards": [-2, -4, 48], "path": ["0", "0", "1", "2", "4"], "rt": [15818, 447, 291], "actions": ["up", "up", "left"], "actionTimes": [20084, 21042, 21848], "queries": {"click": {"state": {"target": ["9", "10", "12", "11", "4", "2", "3", "1", "5", "6", "7", "8"], "time": [5302, 5571, 5814, 6189, 6754, 7035, 7326, 7803, 8264, 8541, 8835, 9419]}, "edge": {"target": [], "time": []}}, "mouseover": {"state": {"target": ["0", "0", "9", "10", "12", "11", "4", "2", "3", "1", "5", "6", "7", "8"], "time": [4612, 4963, 5126, 5430, 5775, 6066, 6539, 6909, 7230, 7678, 8146, 8418, 8738, 9157]}, "edge": {"target": [], "time": []}}, "mouseout": {"state": {"target": ["0", "0", "0", "9", "10", "12", "10", "11", "4", "2", "3", "1", "5", "6", "7", "6", "8"], "time": [3854, 4709, 4970, 5393, 5721, 5914, 6006, 6351, 6860, 7193, 7532, 7915, 8381, 8702, 8963, 9084, 9606]}, "edge": {"target": [], "time": []}}}, "displayed_time": "22.36", "trialTime": 23077, "trial_type": "mouselab-mdp", "trial_index": 13, "time_elapsed": 236737, "internal_node_id": "0.0-4.0-1.0-4.0"}}, {"uniqueid": "w68918451:a59332715", "current_trial": 14, "dateTime": 1664555130598, "trialdata": {"revealed_states": [], "num_clicks_accrued": [0, 0, 0, 0, 0, 0, 0, 0, 0, 0, 0, 0, 0], "stateRewards": ["", 2, 8, 24, 24, 2, -8, -24, -48, 2, 8, -48, 48], "withholdReward": true, "trial_id": "mdp_745175888812", "block": "test1", "trialIndex": 7, "score": 60, "costs": -3, "simulationMode": [null, null, null], "rewards": [2, 8, 48], "path": ["0", "0", "9", "10", "12"], "rt": [9546, 111, 125], "actions": ["left", "left", "down"], "actionTimes": [10867, 11490, 12134], "queries": {"click": {"state": {"target": ["9", "10", "12", "11", "4", "2", "1", "3", "7", "6", "8", "5"], "time": [4387, 4918, 5194, 5645, 6224, 6618, 6908, 7326, 7832, 8153, 8443, 8803]}, "edge": {"target": [], "time": []}}, "mouseover": {"state": {"target": ["0", "9", "0", "9", "10", "10", "12", "11", "4", "2", "1", "3", "7", "6", "8", "5"], "time": [2016, 2325, 3652, 4107, 4603, 4749, 5131, 5513, 5907, 6434, 6822, 7119, 7579, 8045, 8349, 8736]}, "edge": {"target": [], "time": []}}, "mouseout": {"state": {"target": ["6", "5", "0", "9", "0", "9", "10", "10", "12", "10", "11", "4", "2", "1", "3", "7", "6", "8", "5"], "time": [876, 918, 2204, 2670, 4069, 4567, 4640, 5058, 5313, 5427, 5815, 6403, 6767, 7033, 7476, 7974, 8300, 8586, 8979]}, "edge": {"target": [], "time": []}}}, "displayed_time": "12.65", "trialTime": 13833, "trial_type": "mouselab-mdp", "trial_index": 14, "time_elapsed": 250621, "internal_node_id": "0.0-4.0-1.0-5.0"}}, {"uniqueid": "w68918451:a59332715", "current_trial": 15, "dateTime": 1664555144708, "trialdata": {"revealed_states": [], "num_clicks_accrued": [0, 0, 0, 0, 0, 0, 0, 0, 0, 0, 0, 0, 0], "stateRewards": ["", 2, 4, -48, 24, -4, -4, -24, 24, 2, -4, 24, -24], "withholdReward": true, "trial_id": "mdp_163600331068", "block": "test1", "trialIndex": 8, "score": 32, "costs": -3, "simulationMode": [null, null, null], "rewards": [2, 4, 24], "path": ["0", "0", "1", "2", "4"], "rt": [10308, 10, 129], "actions": ["up", "up", "left"], "actionTimes": [11685, 12206, 12848], "queries": {"click": {"state": {"target": ["9", "10", "11", "12", "4", "2", "3", "1", "5", "6", "7", "8"], "time": [1977, 2269, 2551, 2870, 3425, 3710, 3995, 4320, 4860, 5131, 5843, 6335]}, "edge": {"target": [], "time": []}}, "mouseover": {"state": {"target": ["9", "10", "11", "12", "4", "2", "3", "1", "5", "6", "7", "7", "7", "8"], "time": [1686, 2189, 2468, 2789, 3340, 3577, 3898, 4292, 4619, 4994, 5274, 5471, 5728, 6128]}, "edge": {"target": [], "time": []}}, "mouseout": {"state": {"target": ["0", "9", "10", "11", "10", "12", "10", "4", "2", "3", "1", "5", "6", "7", "7", "6", "7", "6", "8"], "time": [589, 2092, 2400, 2650, 2728, 2959, 3001, 3541, 3861, 4140, 4588, 4965, 5243, 5364, 5528, 5685, 5964, 6067, 6504]}, "edge": {"target": [], "time": []}}}, "displayed_time": "13.36", "trialTime": 14055, "trial_type": "mouselab-mdp", "trial_index": 15, "time_elapsed": 264731, "internal_node_id": "0.0-4.0-1.0-6.0"}}, {"uniqueid": "w68918451:a59332715", "current_trial": 16, "dateTime": 1664555166589, "trialdata": {"revealed_states": [], "num_clicks_accrued": [0, 0, 0, 0, 0, 0, 0, 0, 0, 0, 0, 0, 0], "stateRewards": ["", 2, 8, 24, -48, 4, 8, 24, 24, 4, -8, 48, 48], "withholdReward": false, "trial_id": "mdp_646103824875", "block": "test1", "trialIndex": 9, "score": 46, "costs": -3, "simulationMode": [null, null, null], "rewards": [4, -8, 48], "path": ["0", "0", "9", "10", "11"], "rt": [16883, 345, 172], "actions": ["left", "left", "up"], "actionTimes": [18465, 19321, 20006], "queries": {"click": {"state": {"target": ["9", "10", "12", "11", "4", "2", "3", "1", "5", "6", "7", "8"], "time": [2544, 2927, 3266, 3675, 4071, 4358, 5026, 5451, 5919, 6226, 6479, 6891]}, "edge": {"target": [], "time": []}}, "mouseover": {"state": {"target": ["9", "9", "10", "12", "11", "4", "2", "3", "3", "1", "5", "6", "7", "8"], "time": [2238, 2420, 2687, 3092, 3486, 3856, 4232, 4505, 4681, 5262, 5699, 6081, 6378, 6802]}, "edge": {"target": [], "time": []}}, "mouseout": {"state": {"target": ["1", "0", "9", "9", "10", "12", "10", "11", "4", "2", "3", "3", "1", "5", "6", "7", "6", "8"], "time": [989, 2189, 2292, 2650, 3044, 3377, 3457, 3801, 4195, 4480, 4614, 5177, 5590, 6038, 6341, 6596, 6711, 7051]}, "edge": {"target": [], "time": []}}}, "displayed_time": "20.52", "trialTime": 21829, "trial_type": "mouselab-mdp", "trial_index": 16, "time_elapsed": 286612, "internal_node_id": "0.0-4.0-1.0-7.0"}}, {"uniqueid": "w68918451:a59332715", "current_trial": 17, "dateTime": 1664555179037, "trialdata": {"revealed_states": [], "num_clicks_accrued": [0, 0, 0, 0, 0, 0, 0, 0, 0, 0, 0, 0, 0], "stateRewards": ["", -4, 8, -24, 24, -2, -8, 24, -24, 4, -4, -48, 48], "withholdReward": true, "trial_id": "mdp_297684722007", "block": "test1", "trialIndex": 10, "score": 50, "costs": -3, "simulationMode": [null, null, null], "rewards": [4, -4, 48], "path": ["0", "0", "9", "10", "12"], "rt": [8400, 78, 75], "actions": ["left", "left", "down"], "actionTimes": [9651, 10234, 10817], "queries": {"click": {"state": {"target": ["9", "10", "12", "11", "4", "2", "3", "1", "5", "6", "7", "8"], "time": [1799, 2248, 2581, 3030, 3493, 3806, 4059, 4471, 4902, 5150, 5436, 5760]}, "edge": {"target": [], "time": []}}, "mouseover": {"state": {"target": ["9", "10", "12", "11", "4", "2", "3", "1", "5", "6", "7", "8"], "time": [1548, 1991, 2482, 2828, 3245, 3639, 3967, 4318, 4731, 5058, 5342, 5688]}, "edge": {"target": [], "time": []}}, "mouseout": {"state": {"target": ["6", "5", "0", "9", "10", "12", "10", "11", "4", "2", "3", "1", "5", "6", "7", "6", "8"], "time": [433, 518, 1524, 1931, 2433, 2701, 2784, 3142, 3603, 3930, 4210, 4585, 5009, 5300, 5567, 5645, 5957]}, "edge": {"target": [], "time": []}}}, "displayed_time": "11.33", "trialTime": 12393, "trial_type": "mouselab-mdp", "trial_index": 17, "time_elapsed": 299059, "internal_node_id": "0.0-4.0-1.0-8.0"}}, {"uniqueid": "w68918451:a59332715", "current_trial": 18, "dateTime": 1664555196940, "trialdata": {"revealed_states": [], "num_clicks_accrued": [0, 0, 0, 0, 0, 0, 0, 0, 0, 0, 0, 0, 0], "stateRewards": ["", 2, -4, 24, 24, 4, -4, -24, 24, -4, -4, 48, 48], "withholdReward": false, "trial_id": "mdp_566306223773", "block": "test1", "trialIndex": 11, "score": 42, "costs": -3, "simulationMode": [null, null, null], "rewards": [-4, -4, 48], "path": ["0", "0", "9", "10", "11"], "rt": [7597, 434, 312], "actions": ["left", "left", "up"], "actionTimes": [8606, 9544, 10373], "queries": {"click": {"state": {"target": ["9", "10", "12", "11", "4", "2", "3", "1", "7", "6", "8", "5"], "time": [1609, 1836, 2101, 2483, 2887, 3178, 3437, 3927, 4423, 4689, 4956, 5262]}, "edge": {"target": [], "time": []}}, "mouseover": {"state": {"target": ["0", "9", "9", "10", "12", "11", "4", "2", "3", "1", "7", "6", "8", "5"], "time": [1241, 1338, 1483, 1762, 2035, 2289, 2665, 3059, 3344, 3805, 4150, 4599, 4902, 5192]}, "edge": {"target": [], "time": []}}, "mouseout": {"state": {"target": ["0", "9", "9", "10", "12", "10", "11", "4", "2", "3", "1", "7", "6", "8", "5"], "time": [1314, 1398, 1714, 1980, 2162, 2247, 2598, 2998, 3295, 3702, 4072, 4532, 4853, 5071, 5447]}, "edge": {"target": [], "time": []}}}, "displayed_time": "10.88", "trialTime": 17849, "trial_type": "mouselab-mdp", "trial_index": 18, "time_elapsed": 316963, "internal_node_id": "0.0-4.0-1.0-9.0"}}, {"uniqueid": "w68918451:a59332715", "current_trial": 19, "dateTime": 1664555215143, "trialdata": {"revealed_states": [], "num_clicks_accrued": [0, 0, 0, 0, 0, 0, 0, 0, 0, 0, 0, 0, 0], "stateRewards": ["", 2, 4, 48, 24, -4, 8, 48, 48, 2, -4, -48, -24], "withholdReward": true, "trial_id": "mdp_822099887466", "block": "test1", "trialIndex": 12, "score": 56, "costs": -3, "simulationMode": [null, null, null], "rewards": [2, 4, 48], "path": ["0", "0", "1", "2", "3"], "rt": [8740, 220, 1424], "actions": ["up", "up", "right"], "actionTimes": [10053, 10778, 12712], "queries": {"click": {"state": {"target": ["9", "10", "12", "11", "4", "2", "3", "1", "5", "6", "7", "8"], "time": [1943, 2279, 2576, 2896, 3331, 3728, 4085, 4499, 4892, 5216, 5486, 6066]}, "edge": {"target": [], "time": []}}, "mouseover": {"state": {"target": ["9", "9", "10", "12", "11", "4", "2", "3", "1", "5", "6", "7", "8"], "time": [1551, 1788, 2194, 2491, 2782, 3109, 3472, 3922, 4333, 4691, 5079, 5388, 5843]}, "edge": {"target": [], "time": []}}, "mouseout": {"state": {"target": ["1", "9", "0", "9", "9", "10", "12", "10", "11", "4", "2", "3", "1", "5", "6", "7", "6", "8"], "time": [479, 698, 1180, 1600, 2091, 2430, 2667, 2739, 3031, 3455, 3861, 4219, 4637, 5036, 5352, 5636, 5757, 6339]}, "edge": {"target": [], "time": []}}}, "displayed_time": "13.22", "trialTime": 18140, "trial_type": "mouselab-mdp", "trial_index": 19, "time_elapsed": 335166, "internal_node_id": "0.0-4.0-1.0-10.0"}}, {"uniqueid": "w68918451:a59332715", "current_trial": 20, "dateTime": 1664555228847, "trialdata": {"revealed_states": [], "num_clicks_accrued": [0, 0, 0, 0, 0, 0, 0, 0, 0, 0, 0, 0, 0], "stateRewards": ["", -2, -4, -48, 48, -2, -4, 24, 48, -4, -8, -24, 24], "withholdReward": true, "trial_id": "mdp_917590390609", "block": "test1", "trialIndex": 13, "score": 44, "costs": -3, "simulationMode": [null, null, null], "rewards": [-2, -4, 48], "path": ["0", "0", "5", "6", "8"], "rt": [7983, 474, 1653], "actions": ["right", "right", "down"], "actionTimes": [8975, 9955, 12111], "queries": {"click": {"state": {"target": ["12", "10", "11", "9", "4", "2", "3", "1", "5", "6", "7", "8"], "time": [1524, 1800, 2040, 2384, 2959, 3574, 3853, 4131, 4541, 4857, 5063, 5359]}, "edge": {"target": [], "time": []}}, "mouseover": {"state": {"target": ["9", "12", "10", "11", "9", "4", "2", "2", "3", "1", "5", "6", "7", "8"], "time": [1259, 1416, 1665, 1968, 2283, 2767, 3150, 3309, 3743, 4058, 4454, 4756, 5004, 5270]}, "edge": {"target": [], "time": []}}, "mouseout": {"state": {"target": ["6", "5", "0", "9", "12", "10", "11", "9", "4", "2", "2", "3", "1", "5", "6", "7", "6", "8"], "time": [628, 798, 1222, 1296, 1622, 1920, 2162, 2562, 3107, 3240, 3701, 3955, 4350, 4695, 4974, 5161, 5229, 5603]}, "edge": {"target": [], "time": []}}}, "displayed_time": "12.62", "trialTime": 13646, "trial_type": "mouselab-mdp", "trial_index": 20, "time_elapsed": 348869, "internal_node_id": "0.0-4.0-1.0-11.0"}}, {"uniqueid": "w68918451:a59332715", "current_trial": 21, "dateTime": 1664555244470, "trialdata": {"revealed_states": [], "num_clicks_accrued": [0, 0, 0, 0, 0, 0, 0, 0, 0, 0, 0, 0, 0], "stateRewards": ["", -4, 8, 24, -24, 4, 8, -24, -48, 2, 4, 24, -24], "withholdReward": false, "trial_id": "mdp_782187007008", "block": "test1", "trialIndex": 14, "score": 32, "costs": -3, "simulationMode": [null, null, null], "rewards": [2, 4, 24], "path": ["0", "0", "9", "10", "11"], "rt": [9611, 33, 444], "actions": ["left", "left", "up"], "actionTimes": [11006, 11547, 12498], "queries": {"click": {"state": {"target": ["9", "10", "12", "11", "4", "2", "3", "7", "6", "8", "5", "1"], "time": [2174, 2808, 3132, 3468, 3782, 4067, 4592, 4988, 5435, 5843, 6221, 6512]}, "edge": {"target": [], "time": []}}, "mouseover": {"state": {"target": ["9", "10", "10", "12", "11", "4", "2", "3", "7", "6", "8", "5", "1", "0"], "time": [2058, 2334, 2534, 3024, 3346, 3673, 3928, 4237, 4776, 5159, 5596, 6044, 6389, 6783]}, "edge": {"target": [], "time": []}}, "mouseout": {"state": {"target": ["5", "0", "0", "9", "10", "10", "12", "10", "11", "4", "2", "3", "7", "6", "8", "5", "1", "0"], "time": [903, 946, 1873, 2297, 2406, 2982, 3219, 3303, 3595, 3897, 4200, 4716, 5117, 5548, 5976, 6334, 6710, 6819]}, "edge": {"target": [], "time": []}}}, "displayed_time": "13.00", "trialTime": 15570, "trial_type": "mouselab-mdp", "trial_index": 21, "time_elapsed": 364493, "internal_node_id": "0.0-4.0-1.0-12.0"}}, {"uniqueid": "w68918451:a59332715", "current_trial": 22, "dateTime": 1664555255670, "trialdata": {"revealed_states": [], "num_clicks_accrued": [0, 0, 0, 0, 0, 0, 0, 0, 0, 0, 0, 0, 0], "stateRewards": ["", 4, 8, -24, 48, -2, -4, 24, -24, -2, 4, 24, 24], "withholdReward": true, "trial_id": "mdp_948713805479", "block": "test1", "trialIndex": 15, "score": 62.25, "costs": -2.75, "simulationMode": [null, null, null], "rewards": [4, 8, 48], "path": ["0", "0", "1", "2", "4"], "rt": [6630, 73, 117], "actions": ["up", "up", "left"], "actionTimes": [7769, 8351, 8972], "queries": {"click": {"state": {"target": ["9", "10", "12", "11", "5", "6", "8", "7", "1", "2", "4"], "time": [1985, 2393, 2650, 2986, 3590, 3836, 4088, 4375, 4793, 5033, 5281]}, "edge": {"target": [], "time": []}}, "mouseover": {"state": {"target": ["0", "9", "10", "12", "11", "5", "6", "8", "7", "1", "2", "4", "3"], "time": [1579, 1785, 2150, 2574, 2883, 3445, 3755, 4027, 4288, 4635, 4938, 5222, 5586]}, "edge": {"target": [], "time": []}}, "mouseout": {"state": {"target": ["0", "9", "10", "12", "10", "11", "5", "6", "8", "6", "7", "1", "2", "4", "2", "3"], "time": [1599, 2108, 2518, 2755, 2821, 3143, 3731, 3998, 4185, 4253, 4520, 4895, 5185, 5385, 5470, 5968]}, "edge": {"target": [], "time": []}}}, "displayed_time": "10.24", "trialTime": 11143, "trial_type": "mouselab-mdp", "trial_index": 22, "time_elapsed": 375693, "internal_node_id": "0.0-4.0-1.0-13.0"}}, {"uniqueid": "w68918451:a59332715", "current_trial": 23, "dateTime": 1664555267914, "trialdata": {"revealed_states": [], "num_clicks_accrued": [0, 0, 0, 0, 0, 0, 0, 0, 0, 0, 0, 0, 0], "stateRewards": ["", -2, 8, 24, -48, -4, -8, -24, -48, -4, 8, -24, 48], "withholdReward": false, "trial_id": "mdp_464339499860", "block": "test1", "trialIndex": 16, "score": 54.75, "costs": -2.25, "simulationMode": [null, null, null], "rewards": [-4, 8, 48], "path": ["0", "0", "9", "10", "12"], "rt": [8160, 60, 55], "actions": ["left", "left", "down"], "actionTimes": [9879, 10440, 11003], "queries": {"click": {"state": {"target": ["12", "10", "11", "9", "5", "6", "1", "2", "4"], "time": [2586, 2849, 3184, 3859, 4736, 5137, 5814, 6413, 6761]}, "edge": {"target": [], "time": []}}, "mouseover": {"state": {"target": ["9", "12", "10", "11", "9", "5", "6", "8", "1", "2", "4"], "time": [2194, 2394, 2733, 3011, 3673, 4544, 5078, 5345, 5720, 6333, 6696]}, "edge": {"target": [], "time": []}}, "mouseout": {"state": {"target": ["5", "0", "9", "12", "10", "11", "9", "5", "6", "8", "6", "1", "1", "2", "4", "2"], "time": [1423, 2035, 2296, 2690, 2969, 3551, 3993, 4981, 5284, 5478, 5508, 5956, 6284, 6667, 6866, 6945]}, "edge": {"target": [], "time": []}}}, "displayed_time": "11.52", "trialTime": 12189, "trial_type": "mouselab-mdp", "trial_index": 23, "time_elapsed": 387937, "internal_node_id": "0.0-4.0-1.0-14.0"}}, {"uniqueid": "w68918451:a59332715", "current_trial": 24, "dateTime": 1664555292493, "trialdata": {"revealed_states": [], "num_clicks_accrued": [0, 0, 0, 0, 0, 0, 0, 0, 0, 0, 0, 0, 0], "stateRewards": ["", -4, 8, 24, 24, 2, 4, -48, 24, -2, -4, -24, -24], "withholdReward": true, "trial_id": "mdp_752328329546", "block": "test1", "trialIndex": 17, "score": 32.25, "costs": -2.75, "simulationMode": [null, null, null], "rewards": [2, 4, 24], "path": ["0", "0", "5", "6", "8"], "rt": [19306, 254, 127], "actions": ["right", "right", "down"], "actionTimes": [20555, 21321, 21964], "queries": {"click": {"state": {"target": ["9", "5", "1", "11", "12", "8", "7", "3", "4", "2", "6"], "time": [2049, 2607, 3469, 4602, 4984, 5631, 6085, 6803, 7158, 8766, 16346]}, "edge": {"target": [], "time": []}}, "mouseover": {"state": {"target": ["9", "0", "5", "1", "2", "4", "11", "10", "12", "8", "6", "7", "3", "3", "2", "4", "2", "6"], "time": [1549, 2337, 2409, 2913, 3937, 4040, 4300, 4737, 4840, 5355, 5822, 5931, 6477, 6597, 6926, 7050, 8549, 12525]}, "edge": {"target": [], "time": []}}, "mouseout": {"state": {"target": ["5", "0", "9", "0", "5", "1", "2", "4", "11", "10", "12", "8", "6", "7", "3", "3", "2", "4", "2", "5", "6"], "time": [1034, 1482, 2313, 2361, 2828, 3859, 3980, 4252, 4700, 4798, 5210, 5792, 5883, 6331, 6525, 6901, 6967, 7355, 8919, 9785, 16616]}, "edge": {"target": [], "time": []}}}, "displayed_time": "22.48", "trialTime": 24522, "trial_type": "mouselab-mdp", "trial_index": 24, "time_elapsed": 412516, "internal_node_id": "0.0-4.0-1.0-15.0"}}, {"uniqueid": "w68918451:a59332715", "current_trial": 25, "dateTime": 1664555305504, "trialdata": {"revealed_states": [], "num_clicks_accrued": [0, 0, 0, 0, 0, 0, 0, 0, 0, 0, 0, 0, 0], "stateRewards": ["", 2, 4, 48, -48, 2, 4, 24, -24, 2, -4, -24, -48], "withholdReward": false, "trial_id": "mdp_706591889062", "block": "test1", "trialIndex": 18, "score": 56.5, "costs": -2.5, "simulationMode": [null, null, null], "rewards": [2, 4, 48], "path": ["0", "0", "1", "2", "3"], "rt": [7793, 441, 292], "actions": ["up", "up", "right"], "actionTimes": [9604, 10563, 11372], "queries": {"click": {"state": {"target": ["9", "5", "1", "11", "12", "8", "7", "3", "4", "2"], "time": [3197, 3688, 4001, 4655, 5004, 5580, 6006, 6503, 6876, 7542]}, "edge": {"target": [], "time": []}}, "mouseover": {"state": {"target": ["9", "0", "5", "5", "1", "11", "11", "10", "12", "8", "8", "6", "7", "3", "2", "4", "2", "6"], "time": [2396, 3378, 3415, 3511, 3912, 4366, 4570, 4814, 4941, 5266, 5475, 5742, 5869, 6275, 6638, 6699, 7395, 8293]}, "edge": {"target": [], "time": []}}, "mouseout": {"state": {"target": ["6", "5", "0", "9", "0", "5", "5", "1", "11", "11", "10", "12", "8", "8", "6", "7", "3", "2", "4", "2", "6"], "time": [1384, 1420, 2256, 3360, 3402, 3451, 3832, 4312, 4408, 4778, 4869, 5154, 5287, 5705, 5795, 6172, 6608, 6675, 7245, 7723, 8657]}, "edge": {"target": [], "time": []}}}, "displayed_time": "11.89", "trialTime": 12947, "trial_type": "mouselab-mdp", "trial_index": 25, "time_elapsed": 425527, "internal_node_id": "0.0-4.0-1.0-16.0"}}, {"uniqueid": "w68918451:a59332715", "current_trial": 26, "dateTime": 1664555315744, "trialdata": {"revealed_states": [], "num_clicks_accrued": [0, 0, 0, 0, 0, 0, 0, 0, 0, 0, 0, 0, 0], "stateRewards": ["", -4, -4, -24, 48, 2, 4, -24, -48, -2, 4, 24, 24], "withholdReward": true, "trial_id": "mdp_360934723192", "block": "test1", "trialIndex": 19, "score": 42.5, "costs": -2.5, "simulationMode": [null, null, null], "rewards": [-4, -4, 48], "path": ["0", "0", "1", "2", "4"], "rt": [6869, 175, 173], "actions": ["up", "up", "left"], "actionTimes": [7544, 8229, 8911], "queries": {"click": {"state": {"target": ["8", "7", "3", "4", "11", "12", "1", "2", "10", "9"], "time": [1296, 1764, 2113, 2469, 2891, 3315, 4019, 4243, 5995, 6289]}, "edge": {"target": [], "time": []}}, "mouseover": {"state": {"target": ["8", "6", "7", "3", "2", "4", "11", "10", "12", "9", "1", "2", "9", "10", "9"], "time": [1119, 1434, 1562, 1998, 2283, 2331, 2762, 3040, 3114, 3677, 3918, 4174, 4695, 4895, 6185]}, "edge": {"target": [], "time": []}}, "mouseout": {"state": {"target": ["6", "5", "0", "8", "6", "7", "3", "2", "4", "11", "10", "12", "9", "1", "2", "9", "10", "9"], "time": [289, 410, 871, 1404, 1483, 1931, 2252, 2313, 2646, 3017, 3077, 3550, 3689, 4132, 4416, 4762, 6124, 6622]}, "edge": {"target": [], "time": []}}}, "displayed_time": "9.42", "trialTime": 10182, "trial_type": "mouselab-mdp", "trial_index": 26, "time_elapsed": 435767, "internal_node_id": "0.0-4.0-1.0-17.0"}}, {"uniqueid": "w68918451:a59332715", "current_trial": 27, "dateTime": 1664555326579, "trialdata": {"revealed_states": [], "num_clicks_accrued": [0, 0, 0, 0, 0, 0, 0, 0, 0, 0, 0, 0, 0], "stateRewards": ["", -4, 8, 24, -24, 4, -8, -24, -24, -2, 8, -48, 24], "withholdReward": true, "trial_id": "mdp_240302100183", "block": "test1", "trialIndex": 20, "score": 32.5, "costs": -2.5, "simulationMode": [null, null, null], "rewards": [-2, 8, 24], "path": ["0", "0", "9", "10", "12"], "rt": [7128, 27, 121], "actions": ["left", "left", "down"], "actionTimes": [8035, 8577, 9200], "queries": {"click": {"state": {"target": ["12", "11", "4", "3", "7", "8", "1", "2", "9", "10"], "time": [1636, 2074, 2758, 3179, 3563, 3908, 5311, 5513, 6002, 6180]}, "edge": {"target": [], "time": []}}, "mouseover": {"state": {"target": ["9", "12", "10", "11", "4", "2", "3", "7", "6", "8", "9", "1", "2", "9", "10"], "time": [1260, 1527, 1764, 1878, 2309, 2982, 3066, 3437, 3721, 3830, 5036, 5085, 5448, 5812, 6133]}, "edge": {"target": [], "time": []}}, "mouseout": {"state": {"target": ["0", "9", "12", "10", "11", "4", "2", "3", "7", "6", "8", "9", "1", "2", "9", "10"], "time": [1244, 1297, 1733, 1818, 2211, 2957, 3024, 3376, 3697, 3751, 4279, 5046, 5406, 5679, 6109, 6952]}, "edge": {"target": [], "time": []}}}, "displayed_time": "9.72", "trialTime": 10778, "trial_type": "mouselab-mdp", "trial_index": 27, "time_elapsed": 446602, "internal_node_id": "0.0-4.0-1.0-18.0"}}, {"uniqueid": "w68918451:a59332715", "current_trial": 28, "dateTime": 1664555338323, "trialdata": {"revealed_states": [], "num_clicks_accrued": [0, 0, 0, 0, 0, 0, 0, 0, 0, 0, 0, 0, 0], "stateRewards": ["", 4, -8, -48, 24, 4, 4, -24, -24, 2, 4, -48, 24], "withholdReward": true, "trial_id": "mdp_626971397185", "block": "test1", "trialIndex": 21, "score": 32.5, "costs": -2.5, "simulationMode": [null, null, null], "rewards": [2, 4, 24], "path": ["0", "0", "9", "10", "12"], "rt": [7946, 795, 151], "actions": ["left", "left", "down"], "actionTimes": [8628, 9936, 10601], "queries": {"click": {"state": {"target": ["12", "11", "4", "3", "7", "8", "10", "9", "1", "2"], "time": [1340, 1715, 2020, 2465, 2908, 4300, 5671, 5882, 6446, 6620]}, "edge": {"target": [], "time": []}}, "mouseover": {"state": {"target": ["0", "9", "12", "10", "11", "4", "2", "3", "7", "6", "8", "8", "10", "9", "1", "1", "2"], "time": [1029, 1079, 1195, 1479, 1576, 1885, 2171, 2243, 2691, 3098, 3297, 4194, 5570, 5837, 6121, 6394, 6559]}, "edge": {"target": [], "time": []}}, "mouseout": {"state": {"target": ["0", "0", "9", "12", "10", "11", "4", "2", "3", "7", "6", "8", "8", "10", "9", "1", "1", "2"], "time": [618, 1056, 1098, 1450, 1528, 1837, 2152, 2218, 2601, 3043, 3218, 3876, 4564, 5794, 6067, 6213, 6528, 6861]}, "edge": {"target": [], "time": []}}}, "displayed_time": "11.11", "trialTime": 11686, "trial_type": "mouselab-mdp", "trial_index": 28, "time_elapsed": 458346, "internal_node_id": "0.0-4.0-1.0-19.0"}}, {"uniqueid": "w68918451:a59332715", "current_trial": 29, "dateTime": 1664555349731, "trialdata": {"revealed_states": [], "num_clicks_accrued": [0, 0, 0, 0, 0, 0, 0, 0, 0, 0, 0, 0, 0], "stateRewards": ["", 2, 4, -48, 24, -4, 4, -24, 48, -2, -8, -48, 48], "withholdReward": true, "trial_id": "mdp_424193661731", "block": "test1", "trialIndex": 22, "score": 50.5, "costs": -2.5, "simulationMode": [null, null, null], "rewards": [-4, 4, 48], "path": ["0", "0", "5", "6", "8"], "rt": [8461, 33, 63], "actions": ["right", "right", "down"], "actionTimes": [9146, 9687, 10269], "queries": {"click": {"state": {"target": ["12", "11", "9", "10", "4", "3", "7", "8", "5", "6"], "time": [1391, 1740, 3664, 3898, 4552, 4939, 5488, 5867, 6645, 6913]}, "edge": {"target": [], "time": []}}, "mouseover": {"state": {"target": ["0", "9", "12", "10", "11", "4", "1", "9", "10", "4", "2", "3", "7", "6", "8", "5", "6"], "time": [939, 974, 1211, 1508, 1581, 2029, 2622, 3332, 3829, 4483, 4708, 4884, 5211, 5690, 5811, 6465, 6847]}, "edge": {"target": [], "time": []}}, "mouseout": {"state": {"target": ["3", "0", "0", "9", "12", "10", "11", "4", "1", "9", "10", "9", "4", "2", "3", "7", "6", "8", "8", "5", "6"], "time": [325, 773, 948, 983, 1483, 1545, 1968, 2549, 2632, 3792, 4217, 4277, 4665, 4799, 5126, 5634, 5756, 6246, 6429, 6804, 7071]}, "edge": {"target": [], "time": []}}}, "displayed_time": "10.78", "trialTime": 11353, "trial_type": "mouselab-mdp", "trial_index": 29, "time_elapsed": 469754, "internal_node_id": "0.0-4.0-1.0-20.0"}}, {"uniqueid": "w68918451:a59332715", "current_trial": 30, "dateTime": 1664555362585, "trialdata": {"revealed_states": [], "num_clicks_accrued": [0, 0, 0, 0, 0, 0, 0, 0, 0, 0, 0, 0, 0], "stateRewards": ["", -2, 8, 48, 24, 2, -4, 48, -48, 2, 8, 24, -24], "withholdReward": true, "trial_id": "mdp_176207245985", "block": "test1", "trialIndex": 23, "score": 56.5, "costs": -2.5, "simulationMode": [null, null, null], "rewards": [-2, 8, 48], "path": ["0", "0", "1", "2", "3"], "rt": [9158, 477, 406], "actions": ["up", "up", "right"], "actionTimes": [9900, 10879, 11789], "queries": {"click": {"state": {"target": ["12", "11", "4", "3", "7", "8", "5", "6", "1", "2"], "time": [1520, 1931, 2386, 2746, 3207, 3567, 4323, 4708, 5301, 5532]}, "edge": {"target": [], "time": []}}, "mouseover": {"state": {"target": ["0", "9", "12", "10", "11", "4", "2", "3", "7", "6", "8", "6", "5", "6", "1", "2"], "time": [956, 1197, 1408, 1669, 1814, 2245, 2541, 2620, 2984, 3367, 3469, 3978, 4166, 4590, 5154, 5463]}, "edge": {"target": [], "time": []}}, "mouseout": {"state": {"target": ["6", "5", "0", "0", "9", "12", "10", "11", "4", "2", "3", "7", "6", "8", "6", "5", "6", "5", "1", "2", "3"], "time": [299, 445, 590, 1149, 1227, 1627, 1736, 2130, 2517, 2578, 2930, 3324, 3415, 3924, 4099, 4511, 4936, 5081, 5414, 5657, 5711]}, "edge": {"target": [], "time": []}}}, "displayed_time": "12.30", "trialTime": 12792, "trial_type": "mouselab-mdp", "trial_index": 30, "time_elapsed": 482607, "internal_node_id": "0.0-4.0-1.0-21.0"}}, {"uniqueid": "w68918451:a59332715", "current_trial": 31, "dateTime": 1664555373111, "trialdata": {"revealed_states": [], "num_clicks_accrued": [0, 0, 0, 0, 0, 0, 0, 0, 0, 0, 0, 0, 0], "stateRewards": ["", -2, -8, -24, -48, 4, -8, 48, 24, 2, 4, -48, -48], "withholdReward": true, "trial_id": "mdp_898082967464", "block": "test1", "trialIndex": 24, "score": 47.5, "costs": -1.5, "simulationMode": [null, null, null], "rewards": [4, -8, 48], "path": ["0", "0", "5", "6", "7"], "rt": [6284, 402, 384], "actions": ["right", "right", "up"], "actionTimes": [7419, 8329, 9218], "queries": {"click": {"state": {"target": ["12", "11", "4", "3", "7", "8"], "time": [1902, 2231, 2556, 3074, 3416, 3783]}, "edge": {"target": [], "time": []}}, "mouseover": {"state": {"target": ["12", "10", "11", "4", "2", "3", "7", "8", "5", "6"], "time": [1769, 2017, 2078, 2441, 2769, 2993, 3326, 3708, 4205, 6192]}, "edge": {"target": [], "time": []}}, "mouseout": {"state": {"target": ["7", "0", "12", "10", "11", "4", "2", "3", "7", "8", "5", "6"], "time": [732, 1526, 1999, 2053, 2375, 2732, 2823, 3242, 3533, 4156, 6145, 6241]}, "edge": {"target": [], "time": []}}}, "displayed_time": "9.74", "trialTime": 10466, "trial_type": "mouselab-mdp", "trial_index": 31, "time_elapsed": 493133, "internal_node_id": "0.0-4.0-1.0-22.0"}}, {"uniqueid": "w68918451:a59332715", "current_trial": 32, "dateTime": 1664555383188, "trialdata": {"revealed_states": [], "num_clicks_accrued": [0, 0, 0, 0, 0, 0, 0, 0, 0, 0, 0, 0, 0], "stateRewards": ["", 2, -4, -48, 24, 4, 4, 48, -48, -2, -4, -24, -48], "withholdReward": true, "trial_id": "mdp_858916930936", "block": "test1", "trialIndex": 25, "score": 59.5, "costs": -1.5, "simulationMode": [null, null, null], "rewards": [4, 4, 48], "path": ["0", "0", "5", "6", "7"], "rt": [3514, 125, 234], "actions": ["right", "right", "up"], "actionTimes": [4324, 4968, 5712], "queries": {"click": {"state": {"target": ["12", "11", "4", "3", "7", "8"], "time": [1238, 1614, 2088, 2448, 2854, 3182]}, "edge": {"target": [], "time": []}}, "mouseover": {"state": {"target": ["9", "12", "10", "11", "4", "2", "3", "7", "6", "8"], "time": [1023, 1150, 1417, 1539, 1969, 2260, 2351, 2702, 3023, 3114]}, "edge": {"target": [], "time": []}}, "mouseout": {"state": {"target": ["6", "5", "0", "9", "12", "10", "11", "4", "2", "3", "7", "6", "8"], "time": [435, 478, 1005, 1033, 1374, 1484, 1842, 2235, 2315, 2642, 2993, 3072, 3369]}, "edge": {"target": [], "time": []}}}, "displayed_time": "8.88", "trialTime": 10016, "trial_type": "mouselab-mdp", "trial_index": 32, "time_elapsed": 503211, "internal_node_id": "0.0-4.0-1.0-23.0"}}, {"uniqueid": "w68918451:a59332715", "current_trial": 33, "dateTime": 1664555392218, "trialdata": {"revealed_states": [], "num_clicks_accrued": [0, 0, 0, 0, 0, 0, 0, 0, 0, 0, 0, 0, 0], "stateRewards": ["", 2, 4, 48, 48, 4, -8, 24, -48, -4, -8, -24, -48], "withholdReward": true, "trial_id": "mdp_343818007251", "block": "test1", "trialIndex": 26, "score": 57.5, "costs": -1.5, "simulationMode": [null, null, null], "rewards": [2, 4, 48], "path": ["0", "0", "1", "2", "3"], "rt": [5262, 500, 317], "actions": ["up", "up", "right"], "actionTimes": [6069, 7081, 7911], "queries": {"click": {"state": {"target": ["12", "11", "4", "3", "7", "8"], "time": [1406, 1725, 2090, 2532, 2935, 3262]}, "edge": {"target": [], "time": []}}, "mouseover": {"state": {"target": ["9", "12", "10", "11", "4", "2", "3", "7", "6", "8", "5", "1"], "time": [1132, 1332, 1574, 1683, 1968, 2235, 2413, 2744, 3095, 3228, 3619, 3896]}, "edge": {"target": [], "time": []}}, "mouseout": {"state": {"target": ["12", "12", "9", "9", "12", "10", "11", "4", "2", "3", "7", "6", "8", "5", "1"], "time": [301, 380, 501, 1168, 1538, 1629, 1895, 2204, 2283, 2653, 3053, 3162, 3563, 3658, 4750]}, "edge": {"target": [], "time": []}}}, "displayed_time": "8.42", "trialTime": 8974, "trial_type": "mouselab-mdp", "trial_index": 33, "time_elapsed": 512241, "internal_node_id": "0.0-4.0-1.0-24.0"}}, {"uniqueid": "w68918451:a59332715", "current_trial": 34, "dateTime": 1664555404487, "trialdata": {"revealed_states": [], "num_clicks_accrued": [0, 0, 0, 0, 0, 0, 0, 0, 0, 0, 0, 0, 0], "stateRewards": ["", 2, -4, -24, 24, 2, 8, 48, 48, 2, -8, 48, -24], "withholdReward": false, "trial_id": "mdp_330392242530", "block": "test1", "trialIndex": 27, "score": 60.5, "costs": -2.5, "simulationMode": [null, null, null], "rewards": [2, 8, 48], "path": ["0", "0", "5", "6", "7"], "rt": [7540, 664, 207], "actions": ["right", "right", "up"], "actionTimes": [8631, 9807, 10533], "queries": {"click": {"state": {"target": ["12", "11", "4", "3", "7", "8", "9", "10", "5", "6"], "time": [1489, 2167, 2626, 3200, 4074, 4435, 6106, 6364, 6914, 7170]}, "edge": {"target": [], "time": []}}, "mouseover": {"state": {"target": ["9", "12", "10", "11", "11", "4", "2", "3", "7", "6", "8", "9", "10", "0", "5", "6"], "time": [1264, 1343, 1610, 1658, 2040, 2416, 2827, 2907, 3404, 4210, 4313, 5839, 6277, 6585, 6707, 7052]}, "edge": {"target": [], "time": []}}, "mouseout": {"state": {"target": ["1", "9", "9", "9", "12", "10", "11", "11", "4", "2", "3", "7", "6", "8", "8", "9", "10", "9", "0", "5", "6"], "time": [264, 343, 434, 1283, 1586, 1640, 1726, 2318, 2798, 2871, 3342, 4186, 4259, 4891, 5027, 6210, 6488, 6560, 6622, 7028, 7415]}, "edge": {"target": [], "time": []}}}, "displayed_time": "11.05", "trialTime": 12211, "trial_type": "mouselab-mdp", "trial_index": 34, "time_elapsed": 524510, "internal_node_id": "0.0-4.0-1.0-25.0"}}, {"uniqueid": "w68918451:a59332715", "current_trial": 35, "dateTime": 1664555413805, "trialdata": {"revealed_states": [], "num_clicks_accrued": [0, 0, 0, 0, 0, 0, 0, 0, 0, 0, 0, 0, 0], "stateRewards": ["", 4, 4, 48, -48, -2, 4, 48, -48, -4, 4, -24, -24], "withholdReward": true, "trial_id": "mdp_753324812898", "block": "test1", "trialIndex": 28, "score": 58.5, "costs": -2.5, "simulationMode": [null, null, null], "rewards": [4, 4, 48], "path": ["0", "0", "1", "2", "3"], "rt": [5107, 743, 156], "actions": ["up", "up", "right"], "actionTimes": [5700, 6960, 7625], "queries": {"click": {"state": {"target": ["12", "11", "4", "3", "7", "8", "5", "6", "1", "2"], "time": [1137, 1471, 1769, 2099, 2514, 2907, 3694, 3923, 4310, 4513]}, "edge": {"target": [], "time": []}}, "mouseover": {"state": {"target": ["9", "12", "10", "11", "4", "2", "3", "7", "8", "6", "5", "6", "1", "2"], "time": [850, 996, 1263, 1335, 1687, 1959, 2014, 2318, 2809, 3287, 3626, 3832, 4129, 4450]}, "edge": {"target": [], "time": []}}, "mouseout": {"state": {"target": ["6", "0", "9", "12", "10", "11", "4", "2", "3", "7", "8", "6", "5", "6", "1", "2", "3"], "time": [269, 456, 887, 1232, 1299, 1608, 1936, 1990, 2257, 2626, 3202, 3596, 3802, 4026, 4402, 4723, 4790]}, "edge": {"target": [], "time": []}}}, "displayed_time": "8.70", "trialTime": 9262, "trial_type": "mouselab-mdp", "trial_index": 35, "time_elapsed": 533828, "internal_node_id": "0.0-4.0-1.0-26.0"}}, {"uniqueid": "w68918451:a59332715", "current_trial": 36, "dateTime": 1664555424025, "trialdata": {"revealed_states": [], "num_clicks_accrued": [0, 0, 0, 0, 0, 0, 0, 0, 0, 0, 0, 0, 0], "stateRewards": ["", -2, 8, -24, 48, -4, 4, -48, 24, 4, -8, 48, -24], "withholdReward": true, "trial_id": "mdp_425320427962", "block": "test1", "trialIndex": 29, "score": 56.5, "costs": -2.5, "simulationMode": [null, null, null], "rewards": [-2, 8, 48], "path": ["0", "0", "1", "2", "4"], "rt": [6217, 715, 178], "actions": ["up", "up", "left"], "actionTimes": [6942, 8159, 8842], "queries": {"click": {"state": {"target": ["12", "11", "4", "3", "7", "8", "1", "2", "9", "10"], "time": [1342, 1630, 2006, 2753, 3051, 3399, 4534, 4732, 5129, 5353]}, "edge": {"target": [], "time": []}}, "mouseover": {"state": {"target": ["12", "10", "11", "4", "2", "3", "7", "6", "8", "1", "2", "9", "10"], "time": [1178, 1456, 1524, 1930, 2196, 2632, 2965, 3196, 3311, 4347, 4657, 4984, 5281]}, "edge": {"target": [], "time": []}}, "mouseout": {"state": {"target": ["0", "12", "10", "11", "4", "2", "3", "7", "6", "8", "1", "2", "9", "10"], "time": [1093, 1433, 1493, 1803, 2166, 2245, 2887, 3160, 3269, 3681, 4621, 4838, 5262, 5469]}, "edge": {"target": [], "time": []}}}, "displayed_time": "9.36", "trialTime": 10154, "trial_type": "mouselab-mdp", "trial_index": 36, "time_elapsed": 544048, "internal_node_id": "0.0-4.0-1.0-27.0"}}, {"uniqueid": "w68918451:a59332715", "current_trial": 37, "dateTime": 1664555434960, "trialdata": {"revealed_states": [], "num_clicks_accrued": [0, 0, 0, 0, 0, 0, 0, 0, 0, 0, 0, 0, 0], "stateRewards": ["", -2, -8, 24, -48, 4, 4, -24, -48, -2, -8, -48, 24], "withholdReward": true, "trial_id": "mdp_556006673466", "block": "test1", "trialIndex": 30, "score": 16.5, "costs": -2.5, "simulationMode": [null, null, null], "rewards": [-2, -8, 24], "path": ["0", "0", "9", "10", "12"], "rt": [6732, 991, 210], "actions": ["left", "left", "down"], "actionTimes": [7458, 8961, 9689], "queries": {"click": {"state": {"target": ["12", "11", "4", "3", "7", "8", "9", "10", "1", "2"], "time": [1232, 1547, 1891, 2369, 2665, 3003, 5028, 5217, 5659, 5841]}, "edge": {"target": [], "time": []}}, "mouseover": {"state": {"target": ["12", "10", "11", "4", "2", "3", "7", "6", "8", "9", "10", "1", "2"], "time": [1146, 1346, 1455, 1770, 2067, 2225, 2558, 2861, 2933, 4896, 5177, 5499, 5781]}, "edge": {"target": [], "time": []}}, "mouseout": {"state": {"target": ["10", "9", "0", "12", "10", "11", "4", "2", "3", "7", "6", "8", "9", "10", "1", "2"], "time": [382, 491, 909, 1328, 1388, 1679, 2030, 2115, 2527, 2824, 2904, 3225, 5128, 5321, 5746, 6031]}, "edge": {"target": [], "time": []}}}, "displayed_time": "10.20", "trialTime": 10876, "trial_type": "mouselab-mdp", "trial_index": 37, "time_elapsed": 554983, "internal_node_id": "0.0-4.0-1.0-28.0"}}, {"uniqueid": "w68918451:a59332715", "current_trial": 38, "dateTime": 1664555447453, "trialdata": {"revealed_states": [], "num_clicks_accrued": [0, 0, 0, 0, 0, 0, 0, 0, 0, 0, 0, 0, 0], "stateRewards": ["", -4, 4, 24, 24, 4, -8, 48, -48, -2, -8, 24, 24], "withholdReward": false, "trial_id": "mdp_395264223239", "block": "test1", "trialIndex": 31, "score": 47.5, "costs": -1.5, "simulationMode": [null, null, null], "rewards": [4, -8, 48], "path": ["0", "0", "5", "6", "7"], "rt": [4588, 844, 342], "actions": ["right", "right", "up"], "actionTimes": [5265, 6626, 7474], "queries": {"click": {"state": {"target": ["12", "11", "4", "3", "7", "8"], "time": [1187, 2161, 2526, 2978, 3278, 3646]}, "edge": {"target": [], "time": []}}, "mouseover": {"state": {"target": ["9", "12", "10", "11", "4", "11", "4", "2", "3", "7", "6", "8", "6"], "time": [936, 1081, 1299, 1359, 1711, 2032, 2372, 2699, 2895, 3191, 3468, 3566, 4214]}, "edge": {"target": [], "time": []}}, "mouseout": {"state": {"target": ["1", "0", "9", "12", "10", "11", "4", "11", "4", "2", "3", "7", "6", "8"], "time": [427, 894, 950, 1281, 1336, 1439, 1935, 2311, 2675, 2742, 3118, 3420, 3523, 3875]}, "edge": {"target": [], "time": []}}}, "displayed_time": "10.79", "trialTime": 12432, "trial_type": "mouselab-mdp", "trial_index": 38, "time_elapsed": 567476, "internal_node_id": "0.0-4.0-1.0-29.0"}}, {"uniqueid": "w68918451:a59332715", "current_trial": 39, "dateTime": 1664555583207, "trialdata": {"rt": 135751, "stimulus": "<h1> End of block! </h1>\n\nYou have reached the end of the block 1/4. If you need a short break, feel free to take one now before moving on.\n\n<br><br>\nIn the next block, you will complete another 30 rounds of this game.\n\n<br><br>\n<div style='text-align: center;'>Press <code>space</code> to begin.</div>\n<br><br>\n<div style='text-align: center;'>(If the experiment doesn't continue, try clicking on the text and then pressing <code>space</code>.)</div>", "response": " ", "trial_id": "mdp_ready_2", "trial_type": "html-keyboard-response", "trial_index": 39, "time_elapsed": 703230, "internal_node_id": "0.0-4.0-2.0"}}, {"uniqueid": "w68918451:a59332715", "current_trial": 40, "dateTime": 1664555594263, "trialdata": {"revealed_states": [], "num_clicks_accrued": [0, 0, 0, 0, 0, 0, 0, 0, 0, 0, 0, 0, 0], "stateRewards": ["", -2, 4, -24, 24, -4, -8, 24, -48, -4, -4, -48, -24], "withholdReward": true, "trial_id": "mdp_753137520419", "block": "test2", "trialIndex": 32, "score": 28, "costs": -3, "simulationMode": [null, null, null], "rewards": [-2, 4, 24], "path": ["0", "0", "1", "2", "4"], "rt": [7743, 6, 15], "actions": ["up", "up", "left"], "actionTimes": [8882, 9403, 9927], "queries": {"click": {"state": {"target": ["12", "11", "4", "3", "7", "8", "6", "5", "9", "1", "10", "2"], "time": [1630, 2147, 2712, 3262, 3728, 4020, 4282, 4552, 5032, 5290, 5642, 6727]}, "edge": {"target": [], "time": []}}, "mouseover": {"state": {"target": ["12", "10", "11", "4", "2", "3", "7", "6", "8", "6", "5", "0", "9", "1", "10", "2", "0"], "time": [1461, 1788, 2073, 2395, 2933, 3115, 3515, 3891, 3970, 4176, 4467, 4765, 4952, 5225, 5527, 6140, 7031]}, "edge": {"target": [], "time": []}}, "mouseout": {"state": {"target": ["5", "0", "12", "10", "11", "4", "2", "3", "7", "6", "8", "6", "5", "0", "9", "1", "10", "1", "2", "1", "0"], "time": [879, 1352, 1758, 1867, 2329, 2891, 3000, 3425, 3867, 3934, 4133, 4400, 4740, 4806, 5154, 5443, 5868, 6000, 6836, 6959, 7049]}, "edge": {"target": [], "time": []}}}, "displayed_time": "10.44", "trialTime": 10988, "trial_type": "mouselab-mdp", "trial_index": 40, "time_elapsed": 714286, "internal_node_id": "0.0-4.0-3.0-0.0"}}, {"uniqueid": "w68918451:a59332715", "current_trial": 41, "dateTime": 1664555605753, "trialdata": {"revealed_states": [], "num_clicks_accrued": [0, 0, 0, 0, 0, 0, 0, 0, 0, 0, 0, 0, 0], "stateRewards": ["", -4, -4, -48, 48, -4, -8, -24, -48, -2, 8, 48, 24], "withholdReward": false, "trial_id": "mdp_365393526663", "block": "test2", "trialIndex": 33, "score": 56.5, "costs": -2.5, "simulationMode": [null, null, null], "rewards": [-2, 8, 48], "path": ["0", "0", "9", "10", "11"], "rt": [7293, 629, 417], "actions": ["left", "left", "up"], "actionTimes": [8232, 9367, 10299], "queries": {"click": {"state": {"target": ["12", "11", "4", "3", "7", "8", "1", "2", "9", "10"], "time": [1471, 1806, 2875, 3259, 3673, 4064, 6020, 6273, 6748, 6961]}, "edge": {"target": [], "time": []}}, "mouseover": {"state": {"target": ["0", "12", "10", "11", "4", "2", "3", "7", "6", "8", "9", "10", "9", "1", "2", "9", "10"], "time": [1052, 1196, 1596, 1656, 2014, 3050, 3141, 3475, 3845, 4014, 4602, 4881, 5589, 5742, 6195, 6559, 6941]}, "edge": {"target": [], "time": []}}, "mouseout": {"state": {"target": ["0", "12", "10", "11", "4", "2", "3", "7", "6", "8", "8", "9", "10", "9", "1", "2", "9", "10"], "time": [1142, 1571, 1626, 1954, 3014, 3099, 3414, 3795, 3941, 4305, 4487, 4814, 5323, 5620, 6159, 6414, 6899, 7165]}, "edge": {"target": [], "time": []}}}, "displayed_time": "10.80", "trialTime": 11425, "trial_type": "mouselab-mdp", "trial_index": 41, "time_elapsed": 725776, "internal_node_id": "0.0-4.0-3.0-1.0"}}, {"uniqueid": "w68918451:a59332715", "current_trial": 42, "dateTime": 1664555619664, "trialdata": {"revealed_states": [], "num_clicks_accrued": [0, 0, 0, 0, 0, 0, 0, 0, 0, 0, 0, 0, 0], "stateRewards": ["", 4, -8, -48, 48, -2, 8, -48, 48, -2, -4, 24, -48], "withholdReward": true, "trial_id": "mdp_400558136089", "block": "test2", "trialIndex": 34, "score": 56.5, "costs": -2.5, "simulationMode": [null, null, null], "rewards": [-2, 8, 48], "path": ["0", "0", "5", "6", "8"], "rt": [7910, 447, 167], "actions": ["right", "right", "down"], "actionTimes": [11188, 12139, 12822], "queries": {"click": {"state": {"target": ["12", "11", "4", "3", "7", "8", "1", "2", "5", "6"], "time": [4393, 4742, 5084, 5455, 5897, 6203, 7508, 7741, 8328, 9268]}, "edge": {"target": [], "time": []}}, "mouseover": {"state": {"target": ["0", "9", "12", "10", "11", "4", "2", "3", "7", "6", "8", "5", "1", "2", "5", "6", "6", "6"], "time": [3778, 3857, 4107, 4535, 4603, 4996, 5293, 5348, 5803, 6057, 6160, 6996, 7268, 7669, 7985, 8487, 8874, 9074]}, "edge": {"target": [], "time": []}}, "mouseout": {"state": {"target": ["10", "9", "0", "0", "9", "12", "10", "11", "4", "2", "3", "7", "6", "8", "8", "5", "1", "2", "5", "6", "6", "6"], "time": [2808, 2850, 2892, 3797, 3917, 4505, 4565, 4881, 5263, 5323, 5669, 6014, 6118, 6475, 6942, 7069, 7627, 7875, 8457, 8536, 8911, 9445]}, "edge": {"target": [], "time": []}}}, "displayed_time": "13.33", "trialTime": 13846, "trial_type": "mouselab-mdp", "trial_index": 42, "time_elapsed": 739687, "internal_node_id": "0.0-4.0-3.0-2.0"}}, {"uniqueid": "w68918451:a59332715", "current_trial": 43, "dateTime": 1664555631712, "trialdata": {"revealed_states": [], "num_clicks_accrued": [0, 0, 0, 0, 0, 0, 0, 0, 0, 0, 0, 0, 0], "stateRewards": ["", -4, -8, -48, 48, -2, -8, -48, -24, 4, 8, 24, -48], "withholdReward": true, "trial_id": "mdp_509977295685", "block": "test2", "trialIndex": 35, "score": 39.5, "costs": -1.5, "simulationMode": [null, null, null], "rewards": [-4, -8, 48], "path": ["0", "0", "1", "2", "4"], "rt": [4344, 169, 210], "actions": ["up", "up", "left"], "actionTimes": [5017, 5702, 6426], "queries": {"click": {"state": {"target": ["12", "11", "4", "3", "7", "8"], "time": [1118, 1429, 1834, 2255, 2636, 2979]}, "edge": {"target": [], "time": []}}, "mouseover": {"state": {"target": ["9", "12", "10", "11", "4", "2", "3", "7", "6", "8", "6", "5", "1"], "time": [872, 951, 1242, 1309, 1648, 1988, 2066, 2455, 2799, 2902, 3417, 3472, 3581]}, "edge": {"target": [], "time": []}}, "mouseout": {"state": {"target": ["6", "5", "0", "9", "12", "10", "11", "4", "2", "3", "7", "6", "8", "8", "6", "5", "1", "1"], "time": [332, 526, 849, 884, 1212, 1278, 1587, 1964, 2023, 2381, 2757, 2860, 3291, 3356, 3436, 3490, 4099, 9574]}, "edge": {"target": [], "time": []}}}, "displayed_time": "9.77", "trialTime": 11982, "trial_type": "mouselab-mdp", "trial_index": 43, "time_elapsed": 751735, "internal_node_id": "0.0-4.0-3.0-3.0"}}, {"uniqueid": "w68918451:a59332715", "current_trial": 44, "dateTime": 1664555647140, "trialdata": {"revealed_states": [], "num_clicks_accrued": [0, 0, 0, 0, 0, 0, 0, 0, 0, 0, 0, 0, 0], "stateRewards": ["", 4, 4, 48, -48, -2, -8, -48, -24, 2, 4, -24, -48], "withholdReward": false, "trial_id": "mdp_239929662917", "block": "test2", "trialIndex": 36, "score": 59.5, "costs": -1.5, "simulationMode": [null, null, null], "rewards": [4, 4, 48], "path": ["0", "0", "1", "2", "3"], "rt": [3904, 256, 130], "actions": ["up", "up", "right"], "actionTimes": [4545, 5311, 5956], "queries": {"click": {"state": {"target": ["12", "11", "4", "3", "7", "8"], "time": [1512, 1836, 2187, 2613, 2925, 3276]}, "edge": {"target": [], "time": []}}, "mouseover": {"state": {"target": ["9", "12", "10", "11", "4", "2", "3", "7", "6", "8", "6"], "time": [1140, 1419, 1668, 1746, 2086, 2371, 2455, 2825, 3085, 3183, 3547]}, "edge": {"target": [], "time": []}}, "mouseout": {"state": {"target": ["0", "9", "12", "10", "11", "4", "2", "3", "7", "6", "8", "6", "6"], "time": [1104, 1183, 1644, 1710, 2001, 2347, 2419, 2752, 3056, 3140, 3504, 3595, 14764]}, "edge": {"target": [], "time": []}}}, "displayed_time": "9.77", "trialTime": 15362, "trial_type": "mouselab-mdp", "trial_index": 44, "time_elapsed": 767163, "internal_node_id": "0.0-4.0-3.0-4.0"}}, {"uniqueid": "w68918451:a59332715", "current_trial": 45, "dateTime": 1664555669495, "trialdata": {"revealed_states": [], "num_clicks_accrued": [0, 0, 0, 0, 0, 0, 0, 0, 0, 0, 0, 0, 0], "stateRewards": ["", 4, -8, 48, -24, -4, 4, 24, 24, -2, -4, 24, 24], "withholdReward": true, "trial_id": "mdp_542168715839", "block": "test2", "trialIndex": 37, "score": 47.5, "costs": -1.5, "simulationMode": [null, null, null], "rewards": [4, -8, 48], "path": ["0", "0", "1", "2", "3"], "rt": [3865, 130, 56], "actions": ["up", "up", "right"], "actionTimes": [4547, 5190, 5754], "queries": {"click": {"state": {"target": ["12", "11", "4", "3", "7", "8"], "time": [1360, 1726, 2111, 2451, 2815, 3139]}, "edge": {"target": [], "time": []}}, "mouseover": {"state": {"target": ["9", "12", "10", "11", "4", "2", "3", "7", "6", "8", "6", "5"], "time": [1083, 1132, 1501, 1599, 1950, 2272, 2332, 2689, 2980, 3059, 3550, 3592]}, "edge": {"target": [], "time": []}}, "mouseout": {"state": {"target": ["5", "9", "12", "10", "11", "4", "2", "3", "7", "6", "8", "6", "5", "1"], "time": [441, 1101, 1465, 1557, 1872, 2247, 2308, 2653, 2943, 3029, 3308, 3568, 3634, 22101]}, "edge": {"target": [], "time": []}}}, "displayed_time": "8.78", "trialTime": 22291, "trial_type": "mouselab-mdp", "trial_index": 45, "time_elapsed": 789517, "internal_node_id": "0.0-4.0-3.0-5.0"}}, {"uniqueid": "w68918451:a59332715", "current_trial": 46, "dateTime": 1664555687237, "trialdata": {"revealed_states": [], "num_clicks_accrued": [0, 0, 0, 0, 0, 0, 0, 0, 0, 0, 0, 0, 0], "stateRewards": ["", 4, 4, 48, -24, -4, -8, 24, -24, 2, -8, -24, 24], "withholdReward": true, "trial_id": "mdp_933201675789", "block": "test2", "trialIndex": 38, "score": 59.5, "costs": -1.5, "simulationMode": [null, null, null], "rewards": [4, 4, 48], "path": ["0", "0", "1", "2", "3"], "rt": [3738, 29, 81], "actions": ["up", "up", "right"], "actionTimes": [4318, 4859, 5443], "queries": {"click": {"state": {"target": ["12", "11", "4", "3", "7", "8"], "time": [1052, 1319, 1772, 2134, 2452, 2793]}, "edge": {"target": [], "time": []}}, "mouseover": {"state": {"target": ["12", "10", "11", "4", "2", "3", "7", "6", "8"], "time": [951, 1144, 1205, 1656, 1938, 2010, 2362, 2629, 2780]}, "edge": {"target": [], "time": []}}, "mouseout": {"state": {"target": ["0", "12", "10", "11", "4", "2", "3", "7", "6", "8"], "time": [720, 1126, 1181, 1440, 1901, 1975, 2295, 2593, 2695, 2950]}, "edge": {"target": [], "time": []}}}, "displayed_time": "9.68", "trialTime": 17676, "trial_type": "mouselab-mdp", "trial_index": 46, "time_elapsed": 807260, "internal_node_id": "0.0-4.0-3.0-6.0"}}, {"uniqueid": "w68918451:a59332715", "current_trial": 47, "dateTime": 1664555695517, "trialdata": {"revealed_states": [], "num_clicks_accrued": [0, 0, 0, 0, 0, 0, 0, 0, 0, 0, 0, 0, 0], "stateRewards": ["", -2, 8, 48, -24, 2, 4, -48, -24, -4, 8, -48, -48], "withholdReward": true, "trial_id": "mdp_539167561933", "block": "test2", "trialIndex": 39, "score": 57.5, "costs": -1.5, "simulationMode": [null, null, null], "rewards": [-2, 8, 48], "path": ["0", "0", "1", "2", "3"], "rt": [3519, 341, 351], "actions": ["up", "up", "right"], "actionTimes": [4046, 4902, 5772], "queries": {"click": {"state": {"target": ["12", "11", "4", "3", "7", "8"], "time": [1028, 1324, 1704, 2448, 2775, 3092]}, "edge": {"target": [], "time": []}}, "mouseover": {"state": {"target": ["12", "10", "11", "4", "2", "3", "7", "6", "8"], "time": [881, 1154, 1227, 1602, 1893, 2251, 2680, 2923, 3026]}, "edge": {"target": [], "time": []}}, "mouseout": {"state": {"target": ["8", "0", "12", "10", "11", "4", "2", "3", "7", "6", "8"], "time": [208, 759, 1130, 1190, 1487, 1863, 1948, 2602, 2887, 2986, 3269]}, "edge": {"target": [], "time": []}}}, "displayed_time": "7.59", "trialTime": 8209, "trial_type": "mouselab-mdp", "trial_index": 47, "time_elapsed": 815540, "internal_node_id": "0.0-4.0-3.0-7.0"}}, {"uniqueid": "w68918451:a59332715", "current_trial": 48, "dateTime": 1664555706331, "trialdata": {"revealed_states": [], "num_clicks_accrued": [0, 0, 0, 0, 0, 0, 0, 0, 0, 0, 0, 0, 0], "stateRewards": ["", -2, 8, -48, 48, -4, -8, 24, 24, -2, -4, 48, -48], "withholdReward": true, "trial_id": "mdp_867247318592", "block": "test2", "trialIndex": 40, "score": 56.5, "costs": -2.5, "simulationMode": [null, null, null], "rewards": [-2, 8, 48], "path": ["0", "0", "1", "2", "4"], "rt": [5756, 68, 190], "actions": ["up", "up", "left"], "actionTimes": [6739, 7322, 8024], "queries": {"click": {"state": {"target": ["12", "11", "4", "3", "7", "8", "10", "9", "1", "2"], "time": [1459, 1811, 2272, 2712, 3051, 3366, 4770, 5164, 5489, 5729]}, "edge": {"target": [], "time": []}}, "mouseover": {"state": {"target": ["12", "10", "11", "4", "2", "3", "7", "6", "8", "10", "9", "1", "2"], "time": [1390, 1601, 1698, 2184, 2438, 2499, 2911, 3195, 3275, 4480, 5032, 5384, 5668]}, "edge": {"target": [], "time": []}}, "mouseout": {"state": {"target": ["5", "0", "12", "10", "11", "4", "2", "3", "7", "6", "8", "10", "9", "1", "2"], "time": [656, 1129, 1571, 1657, 2007, 2414, 2475, 2844, 3135, 3250, 3741, 4899, 5336, 5620, 5904]}, "edge": {"target": [], "time": []}}}, "displayed_time": "10.10", "trialTime": 10750, "trial_type": "mouselab-mdp", "trial_index": 48, "time_elapsed": 826354, "internal_node_id": "0.0-4.0-3.0-8.0"}}, {"uniqueid": "w68918451:a59332715", "current_trial": 49, "dateTime": 1664555741313, "trialdata": {"revealed_states": [], "num_clicks_accrued": [0, 0, 0, 0, 0, 0, 0, 0, 0, 0, 0, 0, 0], "stateRewards": ["", -2, 8, 48, -48, 4, -8, 24, 24, 4, 4, -48, -24], "withholdReward": false, "trial_id": "mdp_746937869927", "block": "test2", "trialIndex": 41, "score": 57.5, "costs": -1.5, "simulationMode": [null, null, null], "rewards": [-2, 8, 48], "path": ["0", "0", "1", "2", "3"], "rt": [3194, 112, 116], "actions": ["up", "up", "right"], "actionTimes": [4510, 5133, 5757], "queries": {"click": {"state": {"target": ["12", "11", "4", "3", "7", "8"], "time": [1923, 2209, 2561, 2974, 3314, 3648]}, "edge": {"target": [], "time": []}}, "mouseover": {"state": {"target": ["12", "10", "11", "4", "2", "3", "7", "6", "8"], "time": [1705, 2063, 2130, 2427, 2723, 2866, 3184, 3463, 3523]}, "edge": {"target": [], "time": []}}, "mouseout": {"state": {"target": ["1", "0", "12", "10", "11", "4", "2", "3", "7", "6", "8"], "time": [923, 1578, 2039, 2099, 2361, 2700, 2760, 3106, 3432, 3505, 3869]}, "edge": {"target": [], "time": []}}}, "displayed_time": "9.38", "trialTime": 34920, "trial_type": "mouselab-mdp", "trial_index": 49, "time_elapsed": 861335, "internal_node_id": "0.0-4.0-3.0-9.0"}}, {"uniqueid": "w68918451:a59332715", "current_trial": 50, "dateTime": 1664555754777, "trialdata": {"revealed_states": [], "num_clicks_accrued": [0, 0, 0, 0, 0, 0, 0, 0, 0, 0, 0, 0, 0], "stateRewards": ["", -2, -8, -24, 48, -2, -8, -48, -48, 2, -8, -48, 24], "withholdReward": true, "trial_id": "mdp_288324580942", "block": "test2", "trialIndex": 42, "score": 41.5, "costs": -1.5, "simulationMode": [null, null, null], "rewards": [-2, -8, 48], "path": ["0", "0", "1", "2", "4"], "rt": [3815, 528, 201], "actions": ["up", "up", "left"], "actionTimes": [4781, 5823, 6526], "queries": {"click": {"state": {"target": ["12", "11", "4", "3", "7", "8"], "time": [1683, 2003, 2403, 2746, 3122, 3441]}, "edge": {"target": [], "time": []}}, "mouseover": {"state": {"target": ["12", "10", "11", "4", "2", "3", "7", "6", "8"], "time": [1627, 1809, 1912, 2318, 2572, 2633, 2991, 3257, 3361]}, "edge": {"target": [], "time": []}}, "mouseout": {"state": {"target": ["6", "9", "0", "12", "10", "11", "4", "2", "3", "7", "6", "8"], "time": [476, 810, 1318, 1779, 1865, 2221, 2548, 2609, 2924, 3233, 3312, 3578]}, "edge": {"target": [], "time": []}}}, "displayed_time": "10.11", "trialTime": 13392, "trial_type": "mouselab-mdp", "trial_index": 50, "time_elapsed": 874800, "internal_node_id": "0.0-4.0-3.0-10.0"}}, {"uniqueid": "w68918451:a59332715", "current_trial": 51, "dateTime": 1664555765446, "trialdata": {"revealed_states": [], "num_clicks_accrued": [0, 0, 0, 0, 0, 0, 0, 0, 0, 0, 0, 0, 0], "stateRewards": ["", -2, -4, -48, -48, 4, -4, 48, 24, 4, 4, 48, 48], "withholdReward": true, "trial_id": "mdp_950960813932", "block": "test2", "trialIndex": 43, "score": 58.5, "costs": -2.5, "simulationMode": [null, null, null], "rewards": [4, 4, 48], "path": ["0", "0", "9", "10", "11"], "rt": [5693, 423, 239], "actions": ["left", "left", "up"], "actionTimes": [6836, 7767, 8515], "queries": {"click": {"state": {"target": ["12", "11", "4", "3", "7", "8", "10", "9", "5", "6"], "time": [1548, 1972, 2564, 2933, 3242, 3537, 4392, 4597, 5241, 5738]}, "edge": {"target": [], "time": []}}, "mouseover": {"state": {"target": ["12", "10", "11", "4", "2", "3", "7", "6", "8", "5", "0", "9", "10", "9", "0", "5", "5", "6", "6"], "time": [1424, 1703, 1860, 2236, 2733, 2800, 3133, 3401, 3497, 3982, 4013, 4061, 4309, 4521, 4891, 4930, 5164, 5357, 5648]}, "edge": {"target": [], "time": []}}, "mouseout": {"state": {"target": ["6", "5", "0", "12", "10", "11", "4", "2", "3", "7", "6", "8", "5", "0", "9", "10", "9", "0", "5", "5", "6", "6"], "time": [769, 909, 1297, 1678, 1715, 2128, 2703, 2775, 3079, 3358, 3448, 3870, 3995, 4025, 4121, 4486, 4866, 4915, 4964, 5340, 5401, 5916]}, "edge": {"target": [], "time": []}}}, "displayed_time": "10.24", "trialTime": 10603, "trial_type": "mouselab-mdp", "trial_index": 51, "time_elapsed": 885468, "internal_node_id": "0.0-4.0-3.0-11.0"}}, {"uniqueid": "w68918451:a59332715", "current_trial": 52, "dateTime": 1664555776258, "trialdata": {"revealed_states": [], "num_clicks_accrued": [0, 0, 0, 0, 0, 0, 0, 0, 0, 0, 0, 0, 0], "stateRewards": ["", 4, -4, 48, -48, -4, -4, 48, -48, 4, 4, -48, -24], "withholdReward": false, "trial_id": "mdp_490058671112", "block": "test2", "trialIndex": 44, "score": 50.25, "costs": -2.75, "simulationMode": [null, null, null], "rewards": [4, -4, 48], "path": ["0", "0", "1", "2", "3"], "rt": [6136, 825, 158], "actions": ["up", "up", "right"], "actionTimes": [7610, 8950, 9617], "queries": {"click": {"state": {"target": ["9", "12", "11", "4", "3", "7", "8", "1", "2", "5", "6"], "time": [2257, 2789, 3169, 3508, 4059, 4400, 4698, 5591, 5795, 6246, 6499]}, "edge": {"target": [], "time": []}}, "mouseover": {"state": {"target": ["9", "12", "10", "11", "4", "2", "3", "7", "6", "8", "6", "1", "2", "5", "6"], "time": [2046, 2707, 2919, 2985, 3385, 3658, 3877, 4301, 4550, 4628, 5192, 5494, 5737, 6088, 6452]}, "edge": {"target": [], "time": []}}, "mouseout": {"state": {"target": ["6", "5", "0", "9", "12", "10", "11", "4", "2", "3", "7", "6", "8", "6", "1", "2", "5", "6"], "time": [1161, 1307, 1973, 2434, 2894, 2954, 3295, 3633, 3694, 4246, 4500, 4598, 5022, 5264, 5694, 5925, 6385, 6670]}, "edge": {"target": [], "time": []}}}, "displayed_time": "10.13", "trialTime": 10741, "trial_type": "mouselab-mdp", "trial_index": 52, "time_elapsed": 896281, "internal_node_id": "0.0-4.0-3.0-12.0"}}, {"uniqueid": "w68918451:a59332715", "current_trial": 53, "dateTime": 1664555797733, "trialdata": {"revealed_states": [], "num_clicks_accrued": [0, 0, 0, 0, 0, 0, 0, 0, 0, 0, 0, 0, 0], "stateRewards": ["", -2, 8, -48, -24, -2, 8, 48, -48, -4, 8, 24, 48], "withholdReward": false, "trial_id": "mdp_160707003673", "block": "test2", "trialIndex": 45, "score": 56.5, "costs": -2.5, "simulationMode": [null, null, null], "rewards": [-2, 8, 48], "path": ["0", "0", "5", "6", "7"], "rt": [16226, 176, 378], "actions": ["right", "right", "up"], "actionTimes": [17586, 18272, 19159], "queries": {"click": {"state": {"target": ["12", "11", "4", "3", "7", "8", "10", "9", "5", "6"], "time": [11563, 12255, 12930, 13420, 13917, 14368, 15185, 15472, 15923, 16210]}, "edge": {"target": [], "time": []}}, "mouseover": {"state": {"target": ["5", "8", "12", "10", "11", "11", "4", "4", "2", "3", "7", "6", "8", "10", "9", "0", "5", "6"], "time": [4891, 4923, 11369, 11740, 11800, 12051, 12515, 12770, 13104, 13164, 13756, 14091, 14298, 14873, 15364, 15679, 15740, 16122]}, "edge": {"target": [], "time": []}}, "mouseout": {"state": {"target": ["6", "5", "0", "5", "8", "12", "10", "11", "11", "4", "4", "2", "3", "7", "6", "8", "10", "9", "0", "5", "6"], "time": [1006, 1042, 1473, 4909, 4940, 11716, 11769, 11819, 12455, 12563, 13073, 13134, 13583, 14037, 14170, 14632, 15333, 15655, 15716, 16079, 16341]}, "edge": {"target": [], "time": []}}}, "displayed_time": "19.68", "trialTime": 21412, "trial_type": "mouselab-mdp", "trial_index": 53, "time_elapsed": 917756, "internal_node_id": "0.0-4.0-3.0-13.0"}}, {"uniqueid": "w68918451:a59332715", "current_trial": 54, "dateTime": 1664555808444, "trialdata": {"revealed_states": [], "num_clicks_accrued": [0, 0, 0, 0, 0, 0, 0, 0, 0, 0, 0, 0, 0], "stateRewards": ["", -2, -4, -48, -48, 4, 8, 24, -48, 4, -8, 24, 24], "withholdReward": false, "trial_id": "mdp_749799219195", "block": "test2", "trialIndex": 46, "score": 38.5, "costs": -2.5, "simulationMode": [null, null, null], "rewards": [4, 8, 24], "path": ["0", "0", "5", "6", "7"], "rt": [6874, 134, 86], "actions": ["right", "right", "up"], "actionTimes": [8144, 8788, 9389], "queries": {"click": {"state": {"target": ["12", "11", "4", "3", "7", "8", "10", "9", "5", "6"], "time": [1969, 2654, 3130, 3697, 4120, 4519, 6071, 6290, 6703, 7181]}, "edge": {"target": [], "time": []}}, "mouseover": {"state": {"target": ["9", "12", "10", "11", "4", "2", "3", "3", "7", "6", "8", "9", "10", "9", "0", "5", "6", "6"], "time": [1690, 1854, 2144, 2345, 2896, 3326, 3387, 3629, 3981, 4284, 4394, 5829, 5903, 6211, 6460, 6520, 6823, 7090]}, "edge": {"target": [], "time": []}}, "mouseout": {"state": {"target": ["6", "5", "0", "0", "9", "12", "10", "11", "4", "2", "3", "3", "7", "6", "8", "8", "9", "10", "9", "0", "5", "6", "6"], "time": [788, 817, 980, 1180, 1721, 2096, 2266, 2823, 3296, 3362, 3417, 3823, 4247, 4344, 5381, 5557, 5865, 6175, 6429, 6490, 6805, 6854, 7356]}, "edge": {"target": [], "time": []}}}, "displayed_time": "9.90", "trialTime": 10638, "trial_type": "mouselab-mdp", "trial_index": 54, "time_elapsed": 928467, "internal_node_id": "0.0-4.0-3.0-14.0"}}, {"uniqueid": "w68918451:a59332715", "current_trial": 55, "dateTime": 1664555819381, "trialdata": {"revealed_states": [], "num_clicks_accrued": [0, 0, 0, 0, 0, 0, 0, 0, 0, 0, 0, 0, 0], "stateRewards": ["", 2, 4, 48, -48, 2, 8, -24, 48, 4, 8, 48, -48], "withholdReward": false, "trial_id": "mdp_110142964375", "block": "test2", "trialIndex": 47, "score": 63, "costs": -2, "simulationMode": [null, null, null], "rewards": [4, 8, 48], "path": ["0", "0", "9", "10", "11"], "rt": [7495, 175, 213], "actions": ["left", "left", "up"], "actionTimes": [8066, 8751, 9478], "queries": {"click": {"state": {"target": ["12", "11", "4", "3", "7", "8", "10", "9"], "time": [1030, 1441, 1812, 2293, 2652, 3002, 5996, 6251]}, "edge": {"target": [], "time": []}}, "mouseover": {"state": {"target": ["12", "10", "11", "4", "2", "3", "7", "6", "8", "10", "10", "9", "0", "5", "5"], "time": [895, 1172, 1372, 1688, 2021, 2094, 2530, 2815, 2913, 4760, 5840, 6161, 6428, 6493, 6937]}, "edge": {"target": [], "time": []}}, "mouseout": {"state": {"target": ["0", "12", "10", "11", "4", "2", "3", "7", "6", "8", "10", "10", "9", "0", "5"], "time": [767, 1137, 1227, 1591, 1991, 2057, 2446, 2779, 2876, 3803, 5556, 6124, 6390, 6469, 6640]}, "edge": {"target": [], "time": []}}}, "displayed_time": "9.98", "trialTime": 10870, "trial_type": "mouselab-mdp", "trial_index": 55, "time_elapsed": 939404, "internal_node_id": "0.0-4.0-3.0-15.0"}}, {"uniqueid": "w68918451:a59332715", "current_trial": 56, "dateTime": 1664555829255, "trialdata": {"revealed_states": [], "num_clicks_accrued": [0, 0, 0, 0, 0, 0, 0, 0, 0, 0, 0, 0, 0], "stateRewards": ["", 4, -4, 48, -48, -2, -8, -24, 48, -2, 4, 24, -24], "withholdReward": true, "trial_id": "mdp_507290896735", "block": "test2", "trialIndex": 48, "score": 50.5, "costs": -2.5, "simulationMode": [null, null, null], "rewards": [4, -4, 48], "path": ["0", "0", "1", "2", "3"], "rt": [5336, 18, 116], "actions": ["up", "up", "right"], "actionTimes": [5965, 6485, 7110], "queries": {"click": {"state": {"target": ["12", "11", "4", "3", "7", "8", "1", "2", "5", "6"], "time": [1262, 1685, 2128, 2476, 2939, 3255, 3976, 4225, 4697, 4967]}, "edge": {"target": [], "time": []}}, "mouseover": {"state": {"target": ["9", "12", "10", "11", "4", "2", "3", "7", "6", "8", "5", "1", "2", "5", "6"], "time": [910, 964, 1509, 1637, 2030, 2309, 2376, 2746, 3079, 3164, 3636, 3793, 4116, 4594, 4860]}, "edge": {"target": [], "time": []}}, "mouseout": {"state": {"target": ["5", "0", "9", "12", "10", "11", "4", "2", "3", "7", "6", "8", "5", "1", "2", "5", "6"], "time": [279, 890, 917, 1406, 1545, 1903, 2273, 2352, 2680, 3048, 3115, 3570, 3678, 4078, 4394, 4831, 5084]}, "edge": {"target": [], "time": []}}}, "displayed_time": "8.73", "trialTime": 9813, "trial_type": "mouselab-mdp", "trial_index": 56, "time_elapsed": 949278, "internal_node_id": "0.0-4.0-3.0-16.0"}}, {"uniqueid": "w68918451:a59332715", "current_trial": 57, "dateTime": 1664555842099, "trialdata": {"revealed_states": [], "num_clicks_accrued": [0, 0, 0, 0, 0, 0, 0, 0, 0, 0, 0, 0, 0], "stateRewards": ["", 2, 4, 48, -48, 2, -4, 48, 24, -2, -8, -24, 48], "withholdReward": true, "trial_id": "mdp_962424406744", "block": "test2", "trialIndex": 49, "score": 56, "costs": -3, "simulationMode": [null, null, null], "rewards": [2, 4, 48], "path": ["0", "0", "1", "2", "3"], "rt": [8492, 243, 238], "actions": ["up", "up", "right"], "actionTimes": [9669, 10417, 11164], "queries": {"click": {"state": {"target": ["12", "11", "9", "10", "4", "3", "1", "2", "7", "8", "5", "6"], "time": [1572, 1949, 2943, 3246, 3896, 4235, 5623, 5847, 6689, 7238, 7761, 7988]}, "edge": {"target": [], "time": []}}, "mouseover": {"state": {"target": ["0", "12", "10", "11", "9", "10", "4", "2", "3", "7", "1", "2", "7", "6", "8", "5", "6"], "time": [1250, 1385, 1710, 1846, 2771, 3165, 3741, 4014, 4111, 4481, 5105, 5753, 6038, 6868, 6989, 7613, 7923]}, "edge": {"target": [], "time": []}}, "mouseout": {"state": {"target": ["12", "9", "0", "12", "10", "11", "9", "10", "4", "2", "3", "7", "1", "2", "7", "6", "8", "8", "5", "6"], "time": [801, 1001, 1293, 1687, 1759, 2275, 3080, 3414, 3996, 4050, 4377, 4971, 5730, 5953, 6825, 6929, 7413, 7571, 7874, 8147]}, "edge": {"target": [], "time": []}}}, "displayed_time": "11.67", "trialTime": 12781, "trial_type": "mouselab-mdp", "trial_index": 57, "time_elapsed": 962122, "internal_node_id": "0.0-4.0-3.0-17.0"}}, {"uniqueid": "w68918451:a59332715", "current_trial": 58, "dateTime": 1664555851419, "trialdata": {"revealed_states": [], "num_clicks_accrued": [0, 0, 0, 0, 0, 0, 0, 0, 0, 0, 0, 0, 0], "stateRewards": ["", -2, -8, 48, 24, 2, 4, 24, -24, -2, -4, 48, -48], "withholdReward": true, "trial_id": "mdp_411152402386", "block": "test2", "trialIndex": 50, "score": 44.5, "costs": -2.5, "simulationMode": [null, null, null], "rewards": [-2, -4, 48], "path": ["0", "0", "9", "10", "11"], "rt": [5568, 94, 133], "actions": ["left", "left", "up"], "actionTimes": [6550, 7152, 7798], "queries": {"click": {"state": {"target": ["12", "11", "4", "3", "7", "8", "1", "2", "9", "10"], "time": [1526, 1900, 2700, 2974, 3407, 3703, 4538, 4763, 5190, 5371]}, "edge": {"target": [], "time": []}}, "mouseover": {"state": {"target": ["0", "9", "12", "10", "11", "4", "4", "4", "2", "3", "7", "6", "8", "6", "5", "1", "2", "9", "10"], "time": [1069, 1281, 1390, 1662, 1778, 2221, 2364, 2639, 2828, 2881, 3287, 3566, 3644, 4166, 4232, 4445, 4699, 5027, 5341]}, "edge": {"target": [], "time": []}}, "mouseout": {"state": {"target": ["6", "5", "0", "0", "9", "12", "10", "11", "4", "4", "4", "2", "3", "7", "6", "8", "8", "6", "5", "1", "2", "9", "10"], "time": [650, 738, 863, 1263, 1305, 1633, 1718, 2038, 2293, 2456, 2804, 2863, 3226, 3529, 3614, 3857, 4099, 4195, 4257, 4626, 4880, 5306, 5565]}, "edge": {"target": [], "time": []}}}, "displayed_time": "9.11", "trialTime": 9252, "trial_type": "mouselab-mdp", "trial_index": 58, "time_elapsed": 971441, "internal_node_id": "0.0-4.0-3.0-18.0"}}, {"uniqueid": "w68918451:a59332715", "current_trial": 59, "dateTime": 1664555862910, "trialdata": {"revealed_states": [], "num_clicks_accrued": [0, 0, 0, 0, 0, 0, 0, 0, 0, 0, 0, 0, 0], "stateRewards": ["", -4, -8, -48, 24, -4, -4, -24, -48, 2, -8, -24, -48], "withholdReward": true, "trial_id": "mdp_628181832088", "block": "test2", "trialIndex": 51, "score": 15.5, "costs": -1.5, "simulationMode": [null, null, null], "rewards": [-4, -8, 24], "path": ["0", "0", "1", "2", "4"], "rt": [3956, 127, 133], "actions": ["up", "up", "left"], "actionTimes": [5609, 6251, 6894], "queries": {"click": {"state": {"target": ["12", "11", "4", "3", "7", "8"], "time": [2283, 2715, 3120, 3478, 3854, 4146]}, "edge": {"target": [], "time": []}}, "mouseover": {"state": {"target": ["12", "10", "11", "4", "2", "3", "7", "6", "8"], "time": [2197, 2495, 2580, 3028, 3264, 3421, 3731, 4028, 4107]}, "edge": {"target": [], "time": []}}, "mouseout": {"state": {"target": ["0", "12", "10", "11", "4", "2", "3", "7", "6", "8"], "time": [1986, 2452, 2537, 2870, 3240, 3307, 3658, 3986, 4070, 4859]}, "edge": {"target": [], "time": []}}}, "displayed_time": "10.80", "trialTime": 11424, "trial_type": "mouselab-mdp", "trial_index": 59, "time_elapsed": 982933, "internal_node_id": "0.0-4.0-3.0-19.0"}}, {"uniqueid": "w68918451:a59332715", "current_trial": 60, "dateTime": 1664555873701, "trialdata": {"revealed_states": [], "num_clicks_accrued": [0, 0, 0, 0, 0, 0, 0, 0, 0, 0, 0, 0, 0], "stateRewards": ["", -2, -8, 24, -24, 4, -8, 48, 48, -4, -8, -24, -48], "withholdReward": true, "trial_id": "mdp_286767261523", "block": "test2", "trialIndex": 52, "score": 47.5, "costs": -1.5, "simulationMode": [null, null, null], "rewards": [4, -8, 48], "path": ["0", "0", "5", "6", "7"], "rt": [6283, 205, 195], "actions": ["right", "right", "up"], "actionTimes": [7309, 8035, 8739], "queries": {"click": {"state": {"target": ["12", "11", "4", "3", "7", "8"], "time": [1785, 2262, 2715, 3992, 4405, 5372]}, "edge": {"target": [], "time": []}}, "mouseover": {"state": {"target": ["9", "12", "10", "11", "4", "2", "3", "7", "6", "8", "8"], "time": [1362, 1502, 1993, 2102, 2533, 2877, 3107, 4259, 4581, 4902, 5277]}, "edge": {"target": [], "time": []}}, "mouseout": {"state": {"target": ["8", "6", "5", "9", "12", "10", "11", "4", "2", "3", "7", "6", "8", "8"], "time": [568, 701, 823, 1441, 1950, 2059, 2459, 2847, 2920, 4126, 4550, 4653, 4933, 5501]}, "edge": {"target": [], "time": []}}}, "displayed_time": "10.13", "trialTime": 10726, "trial_type": "mouselab-mdp", "trial_index": 60, "time_elapsed": 993724, "internal_node_id": "0.0-4.0-3.0-20.0"}}, {"uniqueid": "w68918451:a59332715", "current_trial": 61, "dateTime": 1664555884310, "trialdata": {"revealed_states": [], "num_clicks_accrued": [0, 0, 0, 0, 0, 0, 0, 0, 0, 0, 0, 0, 0], "stateRewards": ["", -2, -4, -24, 48, -2, -8, -48, -24, 4, 8, 48, 24], "withholdReward": true, "trial_id": "mdp_625355871626", "block": "test2", "trialIndex": 53, "score": 62.5, "costs": -2.5, "simulationMode": [null, null, null], "rewards": [4, 8, 48], "path": ["0", "0", "9", "10", "11"], "rt": [4701, 121, 137], "actions": ["left", "left", "up"], "actionTimes": [5657, 6281, 6926], "queries": {"click": {"state": {"target": ["12", "11", "4", "3", "7", "8", "10", "9", "1", "2"], "time": [1413, 1725, 2155, 2577, 2864, 3147, 3947, 4178, 4598, 4865]}, "edge": {"target": [], "time": []}}, "mouseover": {"state": {"target": ["9", "12", "10", "11", "4", "2", "3", "7", "6", "8", "0", "9", "10", "9", "1", "2"], "time": [1208, 1299, 1548, 1632, 2043, 2312, 2366, 2773, 3027, 3105, 3548, 3621, 3778, 4075, 4427, 4772]}, "edge": {"target": [], "time": []}}, "mouseout": {"state": {"target": ["6", "5", "0", "9", "12", "10", "11", "4", "2", "3", "7", "6", "8", "8", "0", "9", "10", "9", "1", "2"], "time": [621, 753, 1166, 1222, 1518, 1596, 1912, 2293, 2342, 2711, 2985, 3069, 3332, 3499, 3578, 3729, 4051, 4318, 4718, 4996]}, "edge": {"target": [], "time": []}}}, "displayed_time": "10.13", "trialTime": 10533, "trial_type": "mouselab-mdp", "trial_index": 61, "time_elapsed": 1004333, "internal_node_id": "0.0-4.0-3.0-21.0"}}, {"uniqueid": "w68918451:a59332715", "current_trial": 62, "dateTime": 1664555900764, "trialdata": {"revealed_states": [], "num_clicks_accrued": [0, 0, 0, 0, 0, 0, 0, 0, 0, 0, 0, 0, 0], "stateRewards": ["", -2, -4, -48, -48, -2, -8, 48, -48, 4, -8, -48, 24], "withholdReward": true, "trial_id": "mdp_468495641521", "block": "test2", "trialIndex": 54, "score": 41.5, "costs": -1.5, "simulationMode": [null, null, null], "rewards": [-2, -8, 48], "path": ["0", "0", "5", "6", "7"], "rt": [3635, 232, 141], "actions": ["right", "right", "up"], "actionTimes": [4795, 5542, 6204], "queries": {"click": {"state": {"target": ["12", "11", "4", "3", "7", "8"], "time": [1720, 2081, 2495, 3079, 3341, 3713]}, "edge": {"target": [], "time": []}}, "mouseover": {"state": {"target": ["9", "12", "10", "11", "4", "2", "3", "3", "7", "6", "8", "6", "6"], "time": [1376, 1601, 1892, 1989, 2389, 2655, 2729, 2965, 3280, 3516, 3631, 3934, 4237]}, "edge": {"target": [], "time": []}}, "mouseout": {"state": {"target": ["4", "9", "0", "9", "12", "10", "11", "4", "2", "3", "3", "7", "6", "8", "6", "6", "6"], "time": [813, 926, 1346, 1387, 1825, 1965, 2213, 2625, 2698, 2764, 3195, 3462, 3571, 3849, 4014, 7086, 15777]}, "edge": {"target": [], "time": []}}}, "displayed_time": "10.31", "trialTime": 16392, "trial_type": "mouselab-mdp", "trial_index": 62, "time_elapsed": 1020787, "internal_node_id": "0.0-4.0-3.0-22.0"}}, {"uniqueid": "w68918451:a59332715", "current_trial": 63, "dateTime": 1664555921297, "trialdata": {"revealed_states": [], "num_clicks_accrued": [0, 0, 0, 0, 0, 0, 0, 0, 0, 0, 0, 0, 0], "stateRewards": ["", -4, 4, -24, 24, -2, -4, 48, 24, 2, 8, -48, 24], "withholdReward": true, "trial_id": "mdp_150340189492", "block": "test2", "trialIndex": 55, "score": 45.5, "costs": -1.5, "simulationMode": [null, null, null], "rewards": [-2, -4, 48], "path": ["0", "0", "5", "6", "7"], "rt": [3330, 80, 454], "actions": ["right", "right", "up"], "actionTimes": [4260, 4842, 5811], "queries": {"click": {"state": {"target": ["12", "11", "4", "3", "7", "8"], "time": [1374, 1793, 2245, 2666, 3105, 3360]}, "edge": {"target": [], "time": []}}, "mouseover": {"state": {"target": ["9", "12", "10", "11", "4", "2", "3", "7", "6", "8"], "time": [1163, 1272, 1515, 1617, 2108, 2404, 2651, 2915, 3230, 3273]}, "edge": {"target": [], "time": []}}, "mouseout": {"state": {"target": ["0", "0", "9", "12", "10", "11", "4", "2", "3", "7", "6", "8"], "time": [618, 1139, 1183, 1485, 1570, 1957, 2357, 2498, 2788, 3206, 3254, 3594]}, "edge": {"target": [], "time": []}}}, "displayed_time": "10.05", "trialTime": 20468, "trial_type": "mouselab-mdp", "trial_index": 63, "time_elapsed": 1041320, "internal_node_id": "0.0-4.0-3.0-23.0"}}, {"uniqueid": "w68918451:a59332715", "current_trial": 64, "dateTime": 1664555938521, "trialdata": {"revealed_states": [], "num_clicks_accrued": [0, 0, 0, 0, 0, 0, 0, 0, 0, 0, 0, 0, 0], "stateRewards": ["", 2, -4, 48, -24, 4, -8, -24, 48, -2, -4, 24, -48], "withholdReward": true, "trial_id": "mdp_357328205509", "block": "test2", "trialIndex": 56, "score": 48.5, "costs": -2.5, "simulationMode": [null, null, null], "rewards": [2, -4, 48], "path": ["0", "0", "1", "2", "3"], "rt": [12374, 113, 176], "actions": ["up", "up", "right"], "actionTimes": [13552, 14176, 14861], "queries": {"click": {"state": {"target": ["12", "11", "4", "3", "7", "8", "5", "6", "1", "2"], "time": [1675, 2063, 2412, 2762, 3171, 3969, 4820, 5026, 5484, 5690]}, "edge": {"target": [], "time": []}}, "mouseover": {"state": {"target": ["12", "10", "11", "4", "2", "3", "7", "6", "8", "6", "5", "6", "1", "2"], "time": [1536, 1814, 1953, 2305, 2614, 2686, 3038, 3420, 3557, 4541, 4608, 4959, 5274, 5626]}, "edge": {"target": [], "time": []}}, "mouseout": {"state": {"target": ["8", "0", "12", "10", "11", "4", "2", "3", "7", "6", "8", "6", "5", "6", "1", "2", "3"], "time": [560, 1438, 1784, 1863, 2214, 2572, 2656, 2971, 3347, 3474, 4099, 4565, 4935, 5178, 5602, 5838, 5910]}, "edge": {"target": [], "time": []}}}, "displayed_time": "15.37", "trialTime": 17155, "trial_type": "mouselab-mdp", "trial_index": 64, "time_elapsed": 1058543, "internal_node_id": "0.0-4.0-3.0-24.0"}}, {"uniqueid": "w68918451:a59332715", "current_trial": 65, "dateTime": 1664555949774, "trialdata": {"revealed_states": [], "num_clicks_accrued": [0, 0, 0, 0, 0, 0, 0, 0, 0, 0, 0, 0, 0], "stateRewards": ["", -2, 8, -24, 24, -4, -8, -24, 48, -2, -8, -48, 48], "withholdReward": true, "trial_id": "mdp_238332601315", "block": "test2", "trialIndex": 57, "score": 40.5, "costs": -2.5, "simulationMode": [null, null, null], "rewards": [-2, -8, 48], "path": ["0", "0", "9", "10", "12"], "rt": [5224, 343, 316], "actions": ["left", "left", "down"], "actionTimes": [6286, 7142, 7971], "queries": {"click": {"state": {"target": ["12", "11", "4", "3", "7", "8", "10", "9", "5", "6"], "time": [1439, 1874, 2376, 2733, 3069, 3419, 4029, 4476, 4889, 5135]}, "edge": {"target": [], "time": []}}, "mouseover": {"state": {"target": ["9", "12", "10", "11", "4", "2", "3", "7", "6", "8", "9", "10", "9", "9", "0", "5", "6"], "time": [1212, 1314, 1545, 1605, 2150, 2502, 2617, 2975, 3272, 3368, 3817, 3866, 4144, 4281, 4629, 4726, 5047]}, "edge": {"target": [], "time": []}}, "mouseout": {"state": {"target": ["3", "1", "0", "9", "12", "10", "11", "4", "2", "3", "7", "6", "8", "9", "10", "9", "9", "0", "5", "6"], "time": [672, 733, 1163, 1238, 1526, 1581, 2072, 2478, 2545, 2878, 3229, 3327, 3757, 3847, 4127, 4175, 4599, 4683, 5006, 5308]}, "edge": {"target": [], "time": []}}}, "displayed_time": "10.22", "trialTime": 11188, "trial_type": "mouselab-mdp", "trial_index": 65, "time_elapsed": 1069797, "internal_node_id": "0.0-4.0-3.0-25.0"}}, {"uniqueid": "w68918451:a59332715", "current_trial": 66, "dateTime": 1664555960302, "trialdata": {"revealed_states": [], "num_clicks_accrued": [0, 0, 0, 0, 0, 0, 0, 0, 0, 0, 0, 0, 0], "stateRewards": ["", 2, 4, 24, 48, -2, 8, 24, -24, -4, -4, 48, 48], "withholdReward": true, "trial_id": "mdp_753439303214", "block": "test2", "trialIndex": 58, "score": 56.5, "costs": -2.5, "simulationMode": [null, null, null], "rewards": [2, 4, 48], "path": ["0", "0", "1", "2", "4"], "rt": [5993, 223, 97], "actions": ["up", "up", "left"], "actionTimes": [6964, 7690, 8292], "queries": {"click": {"state": {"target": ["12", "11", "4", "3", "7", "8", "9", "10", "1", "2"], "time": [1508, 1923, 2446, 3066, 3456, 3756, 4665, 4897, 5342, 5785]}, "edge": {"target": [], "time": []}}, "mouseover": {"state": {"target": ["12", "10", "11", "4", "2", "3", "3", "7", "6", "8", "5", "0", "9", "9", "10", "1", "2"], "time": [1261, 1619, 1740, 2225, 2613, 2675, 2923, 3316, 3610, 3685, 4230, 4291, 4349, 4528, 4837, 5195, 5674]}, "edge": {"target": [], "time": []}}, "mouseout": {"state": {"target": ["6", "5", "0", "12", "10", "11", "4", "2", "3", "3", "7", "6", "8", "8", "5", "0", "9", "9", "10", "9", "1", "2"], "time": [346, 576, 1116, 1595, 1632, 2061, 2583, 2661, 2704, 3225, 3565, 3643, 3911, 4117, 4243, 4333, 4388, 4782, 5007, 5061, 5582, 5928]}, "edge": {"target": [], "time": []}}}, "displayed_time": "10.09", "trialTime": 10464, "trial_type": "mouselab-mdp", "trial_index": 66, "time_elapsed": 1080325, "internal_node_id": "0.0-4.0-3.0-26.0"}}, {"uniqueid": "w68918451:a59332715", "current_trial": 67, "dateTime": 1664555973266, "trialdata": {"revealed_states": [], "num_clicks_accrued": [0, 0, 0, 0, 0, 0, 0, 0, 0, 0, 0, 0, 0], "stateRewards": ["", -4, -8, 48, 24, 4, -8, 24, -48, -2, -8, 24, -48], "withholdReward": true, "trial_id": "mdp_952038635544", "block": "test2", "trialIndex": 59, "score": 39, "costs": -2, "simulationMode": [null, null, null], "rewards": [-4, -8, 48], "path": ["0", "0", "1", "2", "3"], "rt": [5078, 88, 136], "actions": ["up", "up", "right"], "actionTimes": [5875, 6479, 7123], "queries": {"click": {"state": {"target": ["12", "11", "4", "3", "7", "8", "1", "2"], "time": [1296, 1713, 2098, 2532, 3627, 3954, 4698, 4891]}, "edge": {"target": [], "time": []}}, "mouseover": {"state": {"target": ["12", "12", "10", "11", "4", "2", "3", "7", "6", "8", "5", "1", "2"], "time": [1054, 1211, 1460, 1551, 1962, 2248, 2351, 2756, 3775, 3866, 4370, 4605, 4836]}, "edge": {"target": [], "time": []}}, "mouseout": {"state": {"target": ["2", "1", "0", "12", "12", "10", "11", "4", "2", "3", "7", "6", "8", "5", "1", "2"], "time": [478, 531, 944, 1063, 1430, 1484, 1848, 2223, 2297, 2665, 3727, 3830, 4315, 4388, 4799, 5042]}, "edge": {"target": [], "time": []}}}, "displayed_time": "8.91", "trialTime": 12899, "trial_type": "mouselab-mdp", "trial_index": 67, "time_elapsed": 1093289, "internal_node_id": "0.0-4.0-3.0-27.0"}}, {"uniqueid": "w68918451:a59332715", "current_trial": 68, "dateTime": 1664555982726, "trialdata": {"revealed_states": [], "num_clicks_accrued": [0, 0, 0, 0, 0, 0, 0, 0, 0, 0, 0, 0, 0], "stateRewards": ["", 4, 4, 24, 24, 4, -4, 48, 48, 4, 4, 24, -48], "withholdReward": false, "trial_id": "mdp_454251689008", "block": "test2", "trialIndex": 60, "score": 51.5, "costs": -1.5, "simulationMode": [null, null, null], "rewards": [4, -4, 48], "path": ["0", "0", "5", "6", "7"], "rt": [3934, 95, 200], "actions": ["right", "right", "up"], "actionTimes": [4887, 5489, 6194], "queries": {"click": {"state": {"target": ["12", "11", "4", "3", "7", "8"], "time": [1328, 1680, 2124, 2912, 3290, 3659]}, "edge": {"target": [], "time": []}}, "mouseover": {"state": {"target": ["9", "12", "10", "11", "4", "2", "3", "3", "7", "6", "8", "6", "6"], "time": [1115, 1198, 1471, 1586, 1992, 2398, 2508, 2592, 3204, 3452, 3532, 3974, 4271]}, "edge": {"target": [], "time": []}}, "mouseout": {"state": {"target": ["3", "0", "9", "12", "10", "11", "4", "2", "3", "3", "7", "6", "8", "6", "6", "7"], "time": [646, 1089, 1144, 1442, 1519, 1889, 2374, 2447, 2549, 3155, 3404, 3495, 3799, 4016, 4313, 9094]}, "edge": {"target": [], "time": []}}}, "displayed_time": "9.03", "trialTime": 9389, "trial_type": "mouselab-mdp", "trial_index": 68, "time_elapsed": 1102749, "internal_node_id": "0.0-4.0-3.0-28.0"}}, {"uniqueid": "w68918451:a59332715", "current_trial": 69, "dateTime": 1664555993601, "trialdata": {"revealed_states": [], "num_clicks_accrued": [0, 0, 0, 0, 0, 0, 0, 0, 0, 0, 0, 0, 0], "stateRewards": ["", 2, -4, -24, -24, -2, -8, -48, 24, -4, -8, 24, 24], "withholdReward": true, "trial_id": "mdp_521351546461", "block": "test2", "trialIndex": 61, "score": 16.5, "costs": -2.5, "simulationMode": [null, null, null], "rewards": [-2, -8, 24], "path": ["0", "0", "5", "6", "8"], "rt": [6237, 114, 59], "actions": ["right", "right", "down"], "actionTimes": [6860, 7482, 8063], "queries": {"click": {"state": {"target": ["12", "11", "4", "3", "7", "8", "5", "6", "9", "10"], "time": [1036, 1417, 1787, 2102, 2421, 3026, 4799, 5060, 5469, 5686]}, "edge": {"target": [], "time": []}}, "mouseover": {"state": {"target": ["12", "10", "11", "4", "2", "3", "7", "6", "8", "8", "0", "5", "6", "0", "9", "10"], "time": [931, 1162, 1271, 1677, 1938, 1993, 2331, 2568, 2634, 2919, 4592, 4665, 4955, 5265, 5331, 5635]}, "edge": {"target": [], "time": []}}, "mouseout": {"state": {"target": ["6", "5", "0", "12", "10", "11", "4", "2", "3", "7", "6", "8", "8", "8", "0", "5", "6", "5", "0", "9", "10"], "time": [319, 386, 823, 1131, 1209, 1586, 1913, 1967, 2228, 2537, 2603, 2731, 3209, 3828, 4628, 4925, 5198, 5239, 5300, 5603, 5967]}, "edge": {"target": [], "time": []}}}, "displayed_time": "8.71", "trialTime": 10808, "trial_type": "mouselab-mdp", "trial_index": 69, "time_elapsed": 1113623, "internal_node_id": "0.0-4.0-3.0-29.0"}}, {"uniqueid": "w68918451:a59332715", "current_trial": 70, "dateTime": 1664556011255, "trialdata": {"rt": 17652, "stimulus": "<h1> End of block! </h1>\n\nYou have reached the end of the block 2/4. If you need a short break, feel free to take one now before moving on.\n\n<br><br>\nIn the next block, you will complete another 30 rounds of this game.\n\n<br><br>\n<div style='text-align: center;'>Press <code>space</code> to begin.</div>\n<br><br>\n<div style='text-align: center;'>(If the experiment doesn't continue, try clicking on the text and then pressing <code>space</code>.)</div>", "response": " ", "trial_id": "mdp_ready_3", "trial_type": "html-keyboard-response", "trial_index": 70, "time_elapsed": 1131278, "internal_node_id": "0.0-4.0-4.0"}}, {"uniqueid": "w68918451:a59332715", "current_trial": 71, "dateTime": 1664556020637, "trialdata": {"revealed_states": [], "num_clicks_accrued": [0, 0, 0, 0, 0, 0, 0, 0, 0, 0, 0, 0, 0], "stateRewards": ["", -2, 4, -48, -48, -4, -8, 48, -48, 2, 4, 48, -48], "withholdReward": true, "trial_id": "mdp_258647270500", "block": "test3", "trialIndex": 62, "score": 56.5, "costs": -2.5, "simulationMode": [null, null, null], "rewards": [2, 4, 48], "path": ["0", "0", "9", "10", "11"], "rt": [5164, 155, 158], "actions": ["left", "left", "up"], "actionTimes": [5930, 6594, 7260], "queries": {"click": {"state": {"target": ["12", "11", "4", "3", "7", "8", "6", "5", "9", "10"], "time": [1306, 1679, 2153, 2531, 2958, 3285, 3925, 4181, 4650, 4870]}, "edge": {"target": [], "time": []}}, "mouseover": {"state": {"target": ["9", "12", "10", "11", "4", "2", "3", "7", "6", "8", "6", "5", "0", "9", "10"], "time": [983, 1152, 1444, 1546, 1915, 2322, 2425, 2831, 3111, 3206, 3618, 4110, 4358, 4414, 4818]}, "edge": {"target": [], "time": []}}, "mouseout": {"state": {"target": ["0", "9", "12", "10", "11", "4", "2", "3", "7", "6", "8", "6", "5", "0", "9", "10"], "time": [807, 1037, 1413, 1497, 1861, 2279, 2376, 2728, 3067, 3158, 3570, 4068, 4335, 4389, 4789, 8109]}, "edge": {"target": [], "time": []}}}, "displayed_time": "8.89", "trialTime": 9308, "trial_type": "mouselab-mdp", "trial_index": 71, "time_elapsed": 1140659, "internal_node_id": "0.0-4.0-5.0-0.0"}}, {"uniqueid": "w68918451:a59332715", "current_trial": 72, "dateTime": 1664556031594, "trialdata": {"revealed_states": [], "num_clicks_accrued": [0, 0, 0, 0, 0, 0, 0, 0, 0, 0, 0, 0, 0], "stateRewards": ["", -2, -4, -24, 48, -2, -8, -48, -24, 4, 8, 48, 24], "withholdReward": true, "trial_id": "mdp_625355871626", "block": "test3", "trialIndex": 63, "score": 62.5, "costs": -2.5, "simulationMode": [null, null, null], "rewards": [4, 8, 48], "path": ["0", "0", "9", "10", "11"], "rt": [5237, 134, 257], "actions": ["left", "left", "up"], "actionTimes": [5910, 6553, 7321], "queries": {"click": {"state": {"target": ["12", "11", "4", "3", "7", "8", "1", "2", "9", "10"], "time": [1057, 1374, 1747, 2408, 2746, 3027, 3969, 4205, 4597, 4846]}, "edge": {"target": [], "time": []}}, "mouseover": {"state": {"target": ["12", "10", "11", "4", "2", "3", "7", "6", "8", "0", "9", "1", "2", "9", "10"], "time": [925, 1205, 1365, 1661, 1915, 2314, 2641, 2894, 2975, 3507, 3550, 3798, 4131, 4483, 4793]}, "edge": {"target": [], "time": []}}, "mouseout": {"state": {"target": ["0", "12", "10", "11", "4", "2", "3", "7", "6", "8", "0", "9", "1", "2", "1", "9", "10", "9", "9", "0"], "time": [798, 1173, 1272, 1573, 1894, 1956, 2562, 2853, 2944, 3380, 3520, 3737, 4089, 4362, 4411, 4756, 4998, 9167, 9979, 10114]}, "edge": {"target": [], "time": []}}}, "displayed_time": "9.77", "trialTime": 10886, "trial_type": "mouselab-mdp", "trial_index": 72, "time_elapsed": 1151615, "internal_node_id": "0.0-4.0-5.0-1.0"}}, {"uniqueid": "w68918451:a59332715", "current_trial": 73, "dateTime": 1664556042033, "trialdata": {"revealed_states": [], "num_clicks_accrued": [0, 0, 0, 0, 0, 0, 0, 0, 0, 0, 0, 0, 0], "stateRewards": ["", -4, 8, 24, 24, 2, 4, -48, 24, -2, -4, -24, -24], "withholdReward": true, "trial_id": "mdp_752328329546", "block": "test3", "trialIndex": 64, "score": 32.5, "costs": -2.5, "simulationMode": [null, null, null], "rewards": [2, 4, 24], "path": ["0", "0", "5", "6", "8"], "rt": [6052, 534, 838], "actions": ["right", "right", "down"], "actionTimes": [6696, 7737, 9086], "queries": {"click": {"state": {"target": ["12", "11", "4", "3", "7", "8", "1", "2", "5", "6"], "time": [1228, 1680, 2081, 2523, 2875, 3213, 4324, 4504, 5281, 5450]}, "edge": {"target": [], "time": []}}, "mouseover": {"state": {"target": ["9", "12", "10", "11", "4", "2", "3", "7", "6", "8", "6", "1", "2", "5", "5", "6", "5", "6"], "time": [998, 1077, 1441, 1538, 1907, 2266, 2398, 2852, 3065, 3150, 4012, 4205, 4447, 4750, 4968, 5065, 5199, 5399]}, "edge": {"target": [], "time": []}}, "mouseout": {"state": {"target": ["0", "9", "12", "10", "11", "4", "2", "3", "7", "6", "8", "6", "1", "2", "5", "5", "6", "5", "6"], "time": [968, 1010, 1404, 1496, 1829, 2224, 2319, 2683, 3017, 3113, 3368, 4047, 4410, 4629, 4877, 5035, 5150, 5374, 5610]}, "edge": {"target": [], "time": []}}}, "displayed_time": "9.80", "trialTime": 10375, "trial_type": "mouselab-mdp", "trial_index": 73, "time_elapsed": 1162056, "internal_node_id": "0.0-4.0-5.0-2.0"}}, {"uniqueid": "w68918451:a59332715", "current_trial": 74, "dateTime": 1664556051787, "trialdata": {"revealed_states": [], "num_clicks_accrued": [0, 0, 0, 0, 0, 0, 0, 0, 0, 0, 0, 0, 0], "stateRewards": ["", 2, -4, 48, -48, -4, -8, -48, 24, -4, 4, 48, 48], "withholdReward": true, "trial_id": "mdp_544803968425", "block": "test3", "trialIndex": 65, "score": 50.5, "costs": -2.5, "simulationMode": [null, null, null], "rewards": [-4, 4, 48], "path": ["0", "0", "9", "10", "12"], "rt": [6589, 366, 154], "actions": ["left", "left", "down"], "actionTimes": [7228, 8106, 8771], "queries": {"click": {"state": {"target": ["12", "11", "4", "3", "7", "8", "10", "9", "1", "2"], "time": [1085, 1518, 1941, 2416, 2833, 3166, 3996, 4696, 5383, 5643]}, "edge": {"target": [], "time": []}}, "mouseover": {"state": {"target": ["12", "10", "11", "4", "2", "3", "7", "6", "8", "9", "10", "9", "1", "2"], "time": [990, 1232, 1395, 1814, 2136, 2201, 2737, 2989, 3099, 3674, 3847, 4208, 5233, 5559]}, "edge": {"target": [], "time": []}}, "mouseout": {"state": {"target": ["0", "12", "10", "11", "4", "2", "3", "7", "6", "8", "9", "10", "9", "1", "2"], "time": [802, 1189, 1305, 1699, 2099, 2171, 2584, 2954, 3050, 3541, 3735, 4110, 5111, 5506, 5753]}, "edge": {"target": [], "time": []}}}, "displayed_time": "9.28", "trialTime": 9691, "trial_type": "mouselab-mdp", "trial_index": 74, "time_elapsed": 1171810, "internal_node_id": "0.0-4.0-5.0-3.0"}}, {"uniqueid": "w68918451:a59332715", "current_trial": 75, "dateTime": 1664556061616, "trialdata": {"revealed_states": [], "num_clicks_accrued": [0, 0, 0, 0, 0, 0, 0, 0, 0, 0, 0, 0, 0], "stateRewards": ["", -2, -8, -24, -48, -2, -4, 48, -48, 4, 4, -48, 48], "withholdReward": true, "trial_id": "mdp_156977432949", "block": "test3", "trialIndex": 66, "score": 58.5, "costs": -2.5, "simulationMode": [null, null, null], "rewards": [4, 4, 48], "path": ["0", "0", "9", "10", "12"], "rt": [6135, 219, 156], "actions": ["left", "left", "down"], "actionTimes": [7181, 7907, 8572], "queries": {"click": {"state": {"target": ["12", "11", "4", "3", "7", "8", "10", "9", "5", "6"], "time": [187