{"condition": 0, "counterbalance": 0, "assignmentId": "a41771334", "workerId": "w38795424", "hitId": "h12921795", "currenttrial": 959, "bonus": 0, "data": [{"uniqueid": "w38795424:a41771334", "current_trial": 0, "dateTime": 1664555312222, "trialdata": {"success": true, "trial_type": "fullscreen", "trial_index": 0, "time_elapsed": 3848, "internal_node_id": "0.0-0.0"}}, {"uniqueid": "w38795424:a41771334", "current_trial": 1, "dateTime": 1664555366161, "trialdata": {"view_history": [{"page_index": 0, "viewing_time": 53928}], "rt": 53929, "trial_id": "exp_instructions_distractor", "trial_type": "instructions", "trial_index": 1, "time_elapsed": 57789, "internal_node_id": "0.0-1.0"}}, {"uniqueid": "w38795424:a41771334", "current_trial": 2, "dateTime": 1664555400744, "trialdata": {"view_history": [{"page_index": 0, "viewing_time": 34579}], "rt": 34579, "trial_id": "color_game_instructions", "trial_type": "instructions", "trial_index": 2, "time_elapsed": 92372, "internal_node_id": "0.0-2.0"}}, {"uniqueid": "w38795424:a41771334", "current_trial": 3, "dateTime": 1664555429667, "trialdata": {"rt": 28919, "stimulus": "<h1> Get ready to start the game! </h1>\n\nThank you for reading the instructions. Get ready start with the first of 5 block(s) of this game.\n<br><br>\nIn this first block, you will complete 90 rounds of this game before moving on.\n<br><br>\nRemember, the better you perform, the bigger your bonus will be!\n<br><br>\n<div style='text-align: center;'>Press <code>space</code> to begin.</div>", "response": " ", "trial_id": "stroop_1_ready_1", "trial_type": "html-keyboard-response", "trial_index": 3, "time_elapsed": 121295, "internal_node_id": "0.0-3.0"}}, {"uniqueid": "w38795424:a41771334", "current_trial": 4, "dateTime": 1664555431291, "trialdata": {"rt": 1603, "stimulus": "<p id='stroop-text' class='stroop-green'>CHAIR</p>", "response": "g", "stimulus-type": "unrelated", "word": "CHAIR", "color": "green", "correct_response": "g", "trial_id": "stroop-trial-1-unrelated-20", "trial_type": "html-keyboard-response", "trial_index": 4, "time_elapsed": 122918, "internal_node_id": "0.0-4.0-0.0"}}, {"uniqueid": "w38795424:a41771334", "current_trial": 5, "dateTime": 1664555433238, "trialdata": {"rt": 1443, "stimulus": "<p id='stroop-text' class='stroop-blue'>BLUE</p>", "response": "r", "stimulus-type": "congruent", "word": "blue", "color": "blue", "correct_response": "b", "trial_id": "stroop-trial-1-congruent-18", "trial_type": "html-keyboard-response", "trial_index": 5, "time_elapsed": 124865, "internal_node_id": "0.0-4.0-1.0"}}, {"uniqueid": "w38795424:a41771334", "current_trial": 6, "dateTime": 1664555437170, "trialdata": {"rt": 3428, "stimulus": "<p id='stroop-text' class='stroop-blue'>YELLOW</p>", "response": "b", "stimulus-type": "incongruent", "word": "yellow", "color": "blue", "correct_response": "b", "trial_id": "stroop-trial-1-incongruent-28", "trial_type": "html-keyboard-response", "trial_index": 6, "time_elapsed": 128797, "internal_node_id": "0.0-4.0-2.0"}}, {"uniqueid": "w38795424:a41771334", "current_trial": 7, "dateTime": 1664555439233, "trialdata": {"rt": 1559, "stimulus": "<p id='stroop-text' class='stroop-red'>RED</p>", "response": "r", "stimulus-type": "congruent", "word": "red", "color": "red", "correct_response": "r", "trial_id": "stroop-trial-1-congruent-5", "trial_type": "html-keyboard-response", "trial_index": 7, "time_elapsed": 130860, "internal_node_id": "0.0-4.0-3.0"}}, {"uniqueid": "w38795424:a41771334", "current_trial": 8, "dateTime": 1664555440687, "trialdata": {"rt": 950, "stimulus": "<p id='stroop-text' class='stroop-green'>GREEN</p>", "response": "g", "stimulus-type": "congruent", "word": "green", "color": "green", "correct_response": "g", "trial_id": "stroop-trial-1-congruent-30", "trial_type": "html-keyboard-response", "trial_index": 8, "time_elapsed": 132315, "internal_node_id": "0.0-4.0-4.0"}}, {"uniqueid": "w38795424:a41771334", "current_trial": 9, "dateTime": 1664555442643, "trialdata": {"rt": 1449, "stimulus": "<p id='stroop-text' class='stroop-red'>RED</p>", "response": "r", "stimulus-type": "congruent", "word": "red", "color": "red", "correct_response": "r", "trial_id": "stroop-trial-1-congruent-9", "trial_type": "html-keyboard-response", "trial_index": 9, "time_elapsed": 134271, "internal_node_id": "0.0-4.0-5.0"}}, {"uniqueid": "w38795424:a41771334", "current_trial": 10, "dateTime": 1664555444079, "trialdata": {"rt": 932, "stimulus": "<p id='stroop-text' class='stroop-red'>CHAIR</p>", "response": "r", "stimulus-type": "unrelated", "word": "CHAIR", "color": "red", "correct_response": "r", "trial_id": "stroop-trial-1-unrelated-29", "trial_type": "html-keyboard-response", "trial_index": 10, "time_elapsed": 135707, "internal_node_id": "0.0-4.0-6.0"}}, {"uniqueid": "w38795424:a41771334", "current_trial": 11, "dateTime": 1664555445913, "trialdata": {"rt": 1330, "stimulus": "<p id='stroop-text' class='stroop-yellow'>YELLOW</p>", "response": "y", "stimulus-type": "congruent", "word": "yellow", "color": "yellow", "correct_response": "y", "trial_id": "stroop-trial-1-congruent-2", "trial_type": "html-keyboard-response", "trial_index": 11, "time_elapsed": 137541, "internal_node_id": "0.0-4.0-7.0"}}, {"uniqueid": "w38795424:a41771334", "current_trial": 12, "dateTime": 1664555447375, "trialdata": {"rt": 958, "stimulus": "<p id='stroop-text' class='stroop-green'>GREEN</p>", "response": "g", "stimulus-type": "congruent", "word": "green", "color": "green", "correct_response": "g", "trial_id": "stroop-trial-1-congruent-20", "trial_type": "html-keyboard-response", "trial_index": 12, "time_elapsed": 139002, "internal_node_id": "0.0-4.0-8.0"}}, {"uniqueid": "w38795424:a41771334", "current_trial": 13, "dateTime": 1664555449403, "trialdata": {"rt": 1524, "stimulus": "<p id='stroop-text' class='stroop-blue'>RED</p>", "response": "b", "stimulus-type": "incongruent", "word": "red", "color": "blue", "correct_response": "b", "trial_id": "stroop-trial-1-incongruent-7", "trial_type": "html-keyboard-response", "trial_index": 13, "time_elapsed": 141031, "internal_node_id": "0.0-4.0-9.0"}}, {"uniqueid": "w38795424:a41771334", "current_trial": 14, "dateTime": 1664555450936, "trialdata": {"rt": 1029, "stimulus": "<p id='stroop-text' class='stroop-yellow'>GREEN</p>", "response": "g", "stimulus-type": "incongruent", "word": "green", "color": "yellow", "correct_response": "y", "trial_id": "stroop-trial-1-incongruent-29", "trial_type": "html-keyboard-response", "trial_index": 14, "time_elapsed": 142563, "internal_node_id": "0.0-4.0-10.0"}}, {"uniqueid": "w38795424:a41771334", "current_trial": 15, "dateTime": 1664555456333, "trialdata": {"rt": 4895, "stimulus": "<p id='stroop-text' class='stroop-blue'>GREEN</p>", "response": "b", "stimulus-type": "incongruent", "word": "green", "color": "blue", "correct_response": "b", "trial_id": "stroop-trial-1-incongruent-6", "trial_type": "html-keyboard-response", "trial_index": 15, "time_elapsed": 147961, "internal_node_id": "0.0-4.0-11.0"}}, {"uniqueid": "w38795424:a41771334", "current_trial": 16, "dateTime": 1664555457857, "trialdata": {"rt": 1020, "stimulus": "<p id='stroop-text' class='stroop-yellow'>SHIP</p>", "response": "y", "stimulus-type": "unrelated", "word": "SHIP", "color": "yellow", "correct_response": "y", "trial_id": "stroop-trial-1-unrelated-1", "trial_type": "html-keyboard-response", "trial_index": 16, "time_elapsed": 149484, "internal_node_id": "0.0-4.0-12.0"}}, {"uniqueid": "w38795424:a41771334", "current_trial": 17, "dateTime": 1664555459865, "trialdata": {"rt": 1504, "stimulus": "<p id='stroop-text' class='stroop-blue'>RED</p>", "response": "b", "stimulus-type": "incongruent", "word": "red", "color": "blue", "correct_response": "b", "trial_id": "stroop-trial-1-incongruent-11", "trial_type": "html-keyboard-response", "trial_index": 17, "time_elapsed": 151493, "internal_node_id": "0.0-4.0-13.0"}}, {"uniqueid": "w38795424:a41771334", "current_trial": 18, "dateTime": 1664555461296, "trialdata": {"rt": 928, "stimulus": "<p id='stroop-text' class='stroop-green'>GREEN</p>", "response": "g", "stimulus-type": "congruent", "word": "green", "color": "green", "correct_response": "g", "trial_id": "stroop-trial-1-congruent-23", "trial_type": "html-keyboard-response", "trial_index": 18, "time_elapsed": 152924, "internal_node_id": "0.0-4.0-14.0"}}, {"uniqueid": "w38795424:a41771334", "current_trial": 19, "dateTime": 1664555462778, "trialdata": {"rt": 975, "stimulus": "<p id='stroop-text' class='stroop-yellow'>BOTTLE</p>", "response": "y", "stimulus-type": "unrelated", "word": "BOTTLE", "color": "yellow", "correct_response": "y", "trial_id": "stroop-trial-1-unrelated-18", "trial_type": "html-keyboard-response", "trial_index": 19, "time_elapsed": 154406, "internal_node_id": "0.0-4.0-15.0"}}, {"uniqueid": "w38795424:a41771334", "current_trial": 20, "dateTime": 1664555464818, "trialdata": {"rt": 1536, "stimulus": "<p id='stroop-text' class='stroop-blue'>BLUE</p>", "response": "b", "stimulus-type": "congruent", "word": "blue", "color": "blue", "correct_response": "b", "trial_id": "stroop-trial-1-congruent-27", "trial_type": "html-keyboard-response", "trial_index": 20, "time_elapsed": 156446, "internal_node_id": "0.0-4.0-16.0"}}, {"uniqueid": "w38795424:a41771334", "current_trial": 21, "dateTime": 1664555466601, "trialdata": {"rt": 1279, "stimulus": "<p id='stroop-text' class='stroop-yellow'>CHAIR</p>", "response": "y", "stimulus-type": "unrelated", "word": "CHAIR", "color": "yellow", "correct_response": "y", "trial_id": "stroop-trial-1-unrelated-10", "trial_type": "html-keyboard-response", "trial_index": 21, "time_elapsed": 158228, "internal_node_id": "0.0-4.0-17.0"}}, {"uniqueid": "w38795424:a41771334", "current_trial": 22, "dateTime": 1664555468073, "trialdata": {"rt": 967, "stimulus": "<p id='stroop-text' class='stroop-green'>GREEN</p>", "response": "g", "stimulus-type": "congruent", "word": "green", "color": "green", "correct_response": "g", "trial_id": "stroop-trial-1-congruent-19", "trial_type": "html-keyboard-response", "trial_index": 22, "time_elapsed": 159700, "internal_node_id": "0.0-4.0-18.0"}}, {"uniqueid": "w38795424:a41771334", "current_trial": 23, "dateTime": 1664555469761, "trialdata": {"rt": 1184, "stimulus": "<p id='stroop-text' class='stroop-yellow'>BRAIN</p>", "response": "y", "stimulus-type": "unrelated", "word": "BRAIN", "color": "yellow", "correct_response": "y", "trial_id": "stroop-trial-1-unrelated-2", "trial_type": "html-keyboard-response", "trial_index": 23, "time_elapsed": 161388, "internal_node_id": "0.0-4.0-19.0"}}, {"uniqueid": "w38795424:a41771334", "current_trial": 24, "dateTime": 1664555471127, "trialdata": {"rt": 855, "stimulus": "<p id='stroop-text' class='stroop-green'>BRAIN</p>", "response": "g", "stimulus-type": "unrelated", "word": "BRAIN", "color": "green", "correct_response": "g", "trial_id": "stroop-trial-1-unrelated-27", "trial_type": "html-keyboard-response", "trial_index": 24, "time_elapsed": 162755, "internal_node_id": "0.0-4.0-20.0"}}, {"uniqueid": "w38795424:a41771334", "current_trial": 25, "dateTime": 1664555472645, "trialdata": {"rt": 1014, "stimulus": "<p id='stroop-text' class='stroop-blue'>BRAIN</p>", "response": "b", "stimulus-type": "unrelated", "word": "BRAIN", "color": "blue", "correct_response": "b", "trial_id": "stroop-trial-1-unrelated-15", "trial_type": "html-keyboard-response", "trial_index": 25, "time_elapsed": 164272, "internal_node_id": "0.0-4.0-21.0"}}, {"uniqueid": "w38795424:a41771334", "current_trial": 26, "dateTime": 1664555473722, "trialdata": {"rt": 571, "stimulus": "<p id='stroop-text' class='stroop-blue'>STONE</p>", "response": "b", "stimulus-type": "unrelated", "word": "STONE", "color": "blue", "correct_response": "b", "trial_id": "stroop-trial-1-unrelated-6", "trial_type": "html-keyboard-response", "trial_index": 26, "time_elapsed": 165350, "internal_node_id": "0.0-4.0-22.0"}}, {"uniqueid": "w38795424:a41771334", "current_trial": 27, "dateTime": 1664555476000, "trialdata": {"rt": 1773, "stimulus": "<p id='stroop-text' class='stroop-yellow'>BLUE</p>", "response": "y", "stimulus-type": "incongruent", "word": "blue", "color": "yellow", "correct_response": "y", "trial_id": "stroop-trial-1-incongruent-3", "trial_type": "html-keyboard-response", "trial_index": 27, "time_elapsed": 167627, "internal_node_id": "0.0-4.0-23.0"}}, {"uniqueid": "w38795424:a41771334", "current_trial": 28, "dateTime": 1664555477607, "trialdata": {"rt": 1101, "stimulus": "<p id='stroop-text' class='stroop-red'>STONE</p>", "response": "r", "stimulus-type": "unrelated", "word": "STONE", "color": "red", "correct_response": "r", "trial_id": "stroop-trial-1-unrelated-22", "trial_type": "html-keyboard-response", "trial_index": 28, "time_elapsed": 169235, "internal_node_id": "0.0-4.0-24.0"}}, {"uniqueid": "w38795424:a41771334", "current_trial": 29, "dateTime": 1664555479284, "trialdata": {"rt": 1173, "stimulus": "<p id='stroop-text' class='stroop-blue'>BLUE</p>", "response": "b", "stimulus-type": "congruent", "word": "blue", "color": "blue", "correct_response": "b", "trial_id": "stroop-trial-1-congruent-1", "trial_type": "html-keyboard-response", "trial_index": 29, "time_elapsed": 170912, "internal_node_id": "0.0-4.0-25.0"}}, {"uniqueid": "w38795424:a41771334", "current_trial": 30, "dateTime": 1664555480400, "trialdata": {"rt": 612, "stimulus": "<p id='stroop-text' class='stroop-blue'>BRIDGE</p>", "response": "b", "stimulus-type": "unrelated", "word": "BRIDGE", "color": "blue", "correct_response": "b", "trial_id": "stroop-trial-1-unrelated-23", "trial_type": "html-keyboard-response", "trial_index": 30, "time_elapsed": 172028, "internal_node_id": "0.0-4.0-26.0"}}, {"uniqueid": "w38795424:a41771334", "current_trial": 31, "dateTime": 1664555481360, "trialdata": {"rt": 454, "stimulus": "<p id='stroop-text' class='stroop-blue'>BLUE</p>", "response": "b", "stimulus-type": "congruent", "word": "blue", "color": "blue", "correct_response": "b", "trial_id": "stroop-trial-1-congruent-10", "trial_type": "html-keyboard-response", "trial_index": 31, "time_elapsed": 172987, "internal_node_id": "0.0-4.0-27.0"}}, {"uniqueid": "w38795424:a41771334", "current_trial": 32, "dateTime": 1664555482726, "trialdata": {"rt": 862, "stimulus": "<p id='stroop-text' class='stroop-yellow'>GREEN</p>", "response": "y", "stimulus-type": "incongruent", "word": "green", "color": "yellow", "correct_response": "y", "trial_id": "stroop-trial-1-incongruent-4", "trial_type": "html-keyboard-response", "trial_index": 32, "time_elapsed": 174353, "internal_node_id": "0.0-4.0-28.0"}}, {"uniqueid": "w38795424:a41771334", "current_trial": 33, "dateTime": 1664555484437, "trialdata": {"rt": 1207, "stimulus": "<p id='stroop-text' class='stroop-red'>RED</p>", "response": "r", "stimulus-type": "congruent", "word": "red", "color": "red", "correct_response": "r", "trial_id": "stroop-trial-1-congruent-3", "trial_type": "html-keyboard-response", "trial_index": 33, "time_elapsed": 176064, "internal_node_id": "0.0-4.0-29.0"}}, {"uniqueid": "w38795424:a41771334", "current_trial": 34, "dateTime": 1664555485453, "trialdata": {"rt": 511, "stimulus": "<p id='stroop-text' class='stroop-red'>CHAIR</p>", "response": "r", "stimulus-type": "unrelated", "word": "CHAIR", "color": "red", "correct_response": "r", "trial_id": "stroop-trial-1-unrelated-19", "trial_type": "html-keyboard-response", "trial_index": 34, "time_elapsed": 177081, "internal_node_id": "0.0-4.0-30.0"}}, {"uniqueid": "w38795424:a41771334", "current_trial": 35, "dateTime": 1664555486456, "trialdata": {"rt": 498, "stimulus": "<p id='stroop-text' class='stroop-red'>GREEN</p>", "response": "r", "stimulus-type": "incongruent", "word": "green", "color": "red", "correct_response": "r", "trial_id": "stroop-trial-1-incongruent-17", "trial_type": "html-keyboard-response", "trial_index": 35, "time_elapsed": 178083, "internal_node_id": "0.0-4.0-31.0"}}, {"uniqueid": "w38795424:a41771334", "current_trial": 36, "dateTime": 1664555487392, "trialdata": {"rt": 418, "stimulus": "<p id='stroop-text' class='stroop-red'>RED</p>", "response": "r", "stimulus-type": "congruent", "word": "red", "color": "red", "correct_response": "r", "trial_id": "stroop-trial-1-congruent-4", "trial_type": "html-keyboard-response", "trial_index": 36, "time_elapsed": 179020, "internal_node_id": "0.0-4.0-32.0"}}, {"uniqueid": "w38795424:a41771334", "current_trial": 37, "dateTime": 1664555488603, "trialdata": {"rt": 707, "stimulus": "<p id='stroop-text' class='stroop-green'>GREEN</p>", "response": "g", "stimulus-type": "congruent", "word": "green", "color": "green", "correct_response": "g", "trial_id": "stroop-trial-1-congruent-7", "trial_type": "html-keyboard-response", "trial_index": 37, "time_elapsed": 180231, "internal_node_id": "0.0-4.0-33.0"}}, {"uniqueid": "w38795424:a41771334", "current_trial": 38, "dateTime": 1664555489515, "trialdata": {"rt": 408, "stimulus": "<p id='stroop-text' class='stroop-green'>GREEN</p>", "response": "g", "stimulus-type": "congruent", "word": "green", "color": "green", "correct_response": "g", "trial_id": "stroop-trial-1-congruent-16", "trial_type": "html-keyboard-response", "trial_index": 38, "time_elapsed": 181143, "internal_node_id": "0.0-4.0-34.0"}}, {"uniqueid": "w38795424:a41771334", "current_trial": 39, "dateTime": 1664555491502, "trialdata": {"rt": 1483, "stimulus": "<p id='stroop-text' class='stroop-red'>RED</p>", "response": "r", "stimulus-type": "congruent", "word": "red", "color": "red", "correct_response": "r", "trial_id": "stroop-trial-1-congruent-11", "trial_type": "html-keyboard-response", "trial_index": 39, "time_elapsed": 183130, "internal_node_id": "0.0-4.0-35.0"}}, {"uniqueid": "w38795424:a41771334", "current_trial": 40, "dateTime": 1664555493887, "trialdata": {"rt": 1879, "stimulus": "<p id='stroop-text' class='stroop-blue'>RED</p>", "response": "b", "stimulus-type": "incongruent", "word": "red", "color": "blue", "correct_response": "b", "trial_id": "stroop-trial-1-incongruent-26", "trial_type": "html-keyboard-response", "trial_index": 40, "time_elapsed": 185514, "internal_node_id": "0.0-4.0-36.0"}}, {"uniqueid": "w38795424:a41771334", "current_trial": 41, "dateTime": 1664555494948, "trialdata": {"rt": 557, "stimulus": "<p id='stroop-text' class='stroop-blue'>BOTTLE</p>", "response": "b", "stimulus-type": "unrelated", "word": "BOTTLE", "color": "blue", "correct_response": "b", "trial_id": "stroop-trial-1-unrelated-13", "trial_type": "html-keyboard-response", "trial_index": 41, "time_elapsed": 186576, "internal_node_id": "0.0-4.0-37.0"}}, {"uniqueid": "w38795424:a41771334", "current_trial": 42, "dateTime": 1664555496511, "trialdata": {"rt": 1059, "stimulus": "<p id='stroop-text' class='stroop-blue'>GREEN</p>", "response": "b", "stimulus-type": "incongruent", "word": "green", "color": "blue", "correct_response": "b", "trial_id": "stroop-trial-1-incongruent-25", "trial_type": "html-keyboard-response", "trial_index": 42, "time_elapsed": 188139, "internal_node_id": "0.0-4.0-38.0"}}, {"uniqueid": "w38795424:a41771334", "current_trial": 43, "dateTime": 1664555497853, "trialdata": {"rt": 838, "stimulus": "<p id='stroop-text' class='stroop-yellow'>BLUE</p>", "response": "y", "stimulus-type": "incongruent", "word": "blue", "color": "yellow", "correct_response": "y", "trial_id": "stroop-trial-1-incongruent-21", "trial_type": "html-keyboard-response", "trial_index": 43, "time_elapsed": 189480, "internal_node_id": "0.0-4.0-39.0"}}, {"uniqueid": "w38795424:a41771334", "current_trial": 44, "dateTime": 1664555500032, "trialdata": {"rt": 1675, "stimulus": "<p id='stroop-text' class='stroop-blue'>BLUE</p>", "response": "b", "stimulus-type": "congruent", "word": "blue", "color": "blue", "correct_response": "b", "trial_id": "stroop-trial-1-congruent-28", "trial_type": "html-keyboard-response", "trial_index": 44, "time_elapsed": 191659, "internal_node_id": "0.0-4.0-40.0"}}, {"uniqueid": "w38795424:a41771334", "current_trial": 45, "dateTime": 1664555501077, "trialdata": {"rt": 541, "stimulus": "<p id='stroop-text' class='stroop-blue'>SHIP</p>", "response": "b", "stimulus-type": "unrelated", "word": "SHIP", "color": "blue", "correct_response": "b", "trial_id": "stroop-trial-1-unrelated-11", "trial_type": "html-keyboard-response", "trial_index": 45, "time_elapsed": 192704, "internal_node_id": "0.0-4.0-41.0"}}, {"uniqueid": "w38795424:a41771334", "current_trial": 46, "dateTime": 1664555502364, "trialdata": {"rt": 782, "stimulus": "<p id='stroop-text' class='stroop-red'>DOG</p>", "response": "r", "stimulus-type": "unrelated", "word": "DOG", "color": "red", "correct_response": "r", "trial_id": "stroop-trial-1-unrelated-8", "trial_type": "html-keyboard-response", "trial_index": 46, "time_elapsed": 193991, "internal_node_id": "0.0-4.0-42.0"}}, {"uniqueid": "w38795424:a41771334", "current_trial": 47, "dateTime": 1664555503812, "trialdata": {"rt": 941, "stimulus": "<p id='stroop-text' class='stroop-yellow'>YELLOW</p>", "response": "y", "stimulus-type": "congruent", "word": "yellow", "color": "yellow", "correct_response": "y", "trial_id": "stroop-trial-1-congruent-8", "trial_type": "html-keyboard-response", "trial_index": 47, "time_elapsed": 195439, "internal_node_id": "0.0-4.0-43.0"}}, {"uniqueid": "w38795424:a41771334", "current_trial": 48, "dateTime": 1664555505039, "trialdata": {"rt": 722, "stimulus": "<p id='stroop-text' class='stroop-green'>GREEN</p>", "response": "g", "stimulus-type": "congruent", "word": "green", "color": "green", "correct_response": "g", "trial_id": "stroop-trial-1-congruent-29", "trial_type": "html-keyboard-response", "trial_index": 48, "time_elapsed": 196666, "internal_node_id": "0.0-4.0-44.0"}}, {"uniqueid": "w38795424:a41771334", "current_trial": 49, "dateTime": 1664555506936, "trialdata": {"rt": 1394, "stimulus": "<p id='stroop-text' class='stroop-blue'>GREEN</p>", "response": "b", "stimulus-type": "incongruent", "word": "green", "color": "blue", "correct_response": "b", "trial_id": "stroop-trial-1-incongruent-12", "trial_type": "html-keyboard-response", "trial_index": 49, "time_elapsed": 198564, "internal_node_id": "0.0-4.0-45.0"}}, {"uniqueid": "w38795424:a41771334", "current_trial": 50, "dateTime": 1664555508404, "trialdata": {"rt": 960, "stimulus": "<p id='stroop-text' class='stroop-blue'>SHIP</p>", "response": "b", "stimulus-type": "unrelated", "word": "SHIP", "color": "blue", "correct_response": "b", "trial_id": "stroop-trial-1-unrelated-9", "trial_type": "html-keyboard-response", "trial_index": 50, "time_elapsed": 200031, "internal_node_id": "0.0-4.0-46.0"}}, {"uniqueid": "w38795424:a41771334", "current_trial": 51, "dateTime": 1664555509805, "trialdata": {"rt": 897, "stimulus": "<p id='stroop-text' class='stroop-green'>GREEN</p>", "response": "g", "stimulus-type": "congruent", "word": "green", "color": "green", "correct_response": "g", "trial_id": "stroop-trial-1-congruent-13", "trial_type": "html-keyboard-response", "trial_index": 51, "time_elapsed": 201433, "internal_node_id": "0.0-4.0-47.0"}}, {"uniqueid": "w38795424:a41771334", "current_trial": 52, "dateTime": 1664555511223, "trialdata": {"rt": 911, "stimulus": "<p id='stroop-text' class='stroop-green'>BOTTLE</p>", "response": "g", "stimulus-type": "unrelated", "word": "BOTTLE", "color": "green", "correct_response": "g", "trial_id": "stroop-trial-1-unrelated-24", "trial_type": "html-keyboard-response", "trial_index": 52, "time_elapsed": 202850, "internal_node_id": "0.0-4.0-48.0"}}, {"uniqueid": "w38795424:a41771334", "current_trial": 53, "dateTime": 1664555512304, "trialdata": {"rt": 578, "stimulus": "<p id='stroop-text' class='stroop-green'>WINDOW</p>", "response": "g", "stimulus-type": "unrelated", "word": "WINDOW", "color": "green", "correct_response": "g", "trial_id": "stroop-trial-1-unrelated-28", "trial_type": "html-keyboard-response", "trial_index": 53, "time_elapsed": 203932, "internal_node_id": "0.0-4.0-49.0"}}, {"uniqueid": "w38795424:a41771334", "current_trial": 54, "dateTime": 1664555513773, "trialdata": {"rt": 965, "stimulus": "<p id='stroop-text' class='stroop-yellow'>GREEN</p>", "response": "y", "stimulus-type": "incongruent", "word": "green", "color": "yellow", "correct_response": "y", "trial_id": "stroop-trial-1-incongruent-8", "trial_type": "html-keyboard-response", "trial_index": 54, "time_elapsed": 205401, "internal_node_id": "0.0-4.0-50.0"}}, {"uniqueid": "w38795424:a41771334", "current_trial": 55, "dateTime": 1664555514923, "trialdata": {"rt": 635, "stimulus": "<p id='stroop-text' class='stroop-yellow'>GREEN</p>", "response": "y", "stimulus-type": "incongruent", "word": "green", "color": "yellow", "correct_response": "y", "trial_id": "stroop-trial-1-incongruent-23", "trial_type": "html-keyboard-response", "trial_index": 55, "time_elapsed": 206551, "internal_node_id": "0.0-4.0-51.0"}}, {"uniqueid": "w38795424:a41771334", "current_trial": 56, "dateTime": 1664555516997, "trialdata": {"rt": 1570, "stimulus": "<p id='stroop-text' class='stroop-green'>BLUE</p>", "response": "r", "stimulus-type": "incongruent", "word": "blue", "color": "green", "correct_response": "g", "trial_id": "stroop-trial-1-incongruent-15", "trial_type": "html-keyboard-response", "trial_index": 56, "time_elapsed": 208625, "internal_node_id": "0.0-4.0-52.0"}}, {"uniqueid": "w38795424:a41771334", "current_trial": 57, "dateTime": 1664555518664, "trialdata": {"rt": 1163, "stimulus": "<p id='stroop-text' class='stroop-blue'>YELLOW</p>", "response": "b", "stimulus-type": "incongruent", "word": "yellow", "color": "blue", "correct_response": "b", "trial_id": "stroop-trial-1-incongruent-14", "trial_type": "html-keyboard-response", "trial_index": 57, "time_elapsed": 210291, "internal_node_id": "0.0-4.0-53.0"}}, {"uniqueid": "w38795424:a41771334", "current_trial": 58, "dateTime": 1664555520131, "trialdata": {"rt": 961, "stimulus": "<p id='stroop-text' class='stroop-red'>CHAIR</p>", "response": "r", "stimulus-type": "unrelated", "word": "CHAIR", "color": "red", "correct_response": "r", "trial_id": "stroop-trial-1-unrelated-30", "trial_type": "html-keyboard-response", "trial_index": 58, "time_elapsed": 211758, "internal_node_id": "0.0-4.0-54.0"}}, {"uniqueid": "w38795424:a41771334", "current_trial": 59, "dateTime": 1664555521363, "trialdata": {"rt": 728, "stimulus": "<p id='stroop-text' class='stroop-red'>FORK</p>", "response": "r", "stimulus-type": "unrelated", "word": "FORK", "color": "red", "correct_response": "r", "trial_id": "stroop-trial-1-unrelated-7", "trial_type": "html-keyboard-response", "trial_index": 59, "time_elapsed": 212991, "internal_node_id": "0.0-4.0-55.0"}}, {"uniqueid": "w38795424:a41771334", "current_trial": 60, "dateTime": 1664555523016, "trialdata": {"rt": 1148, "stimulus": "<p id='stroop-text' class='stroop-yellow'>BLUE</p>", "response": "y", "stimulus-type": "incongruent", "word": "blue", "color": "yellow", "correct_response": "y", "trial_id": "stroop-trial-1-incongruent-19", "trial_type": "html-keyboard-response", "trial_index": 60, "time_elapsed": 214643, "internal_node_id": "0.0-4.0-56.0"}}, {"uniqueid": "w38795424:a41771334", "current_trial": 61, "dateTime": 1664555524343, "trialdata": {"rt": 824, "stimulus": "<p id='stroop-text' class='stroop-yellow'>BLUE</p>", "response": "y", "stimulus-type": "incongruent", "word": "blue", "color": "yellow", "correct_response": "y", "trial_id": "stroop-trial-1-incongruent-27", "trial_type": "html-keyboard-response", "trial_index": 61, "time_elapsed": 215971, "internal_node_id": "0.0-4.0-57.0"}}, {"uniqueid": "w38795424:a41771334", "current_trial": 62, "dateTime": 1664555526155, "trialdata": {"rt": 1307, "stimulus": "<p id='stroop-text' class='stroop-red'>WINDOW</p>", "response": "r", "stimulus-type": "unrelated", "word": "WINDOW", "color": "red", "correct_response": "r", "trial_id": "stroop-trial-1-unrelated-25", "trial_type": "html-keyboard-response", "trial_index": 62, "time_elapsed": 217783, "internal_node_id": "0.0-4.0-58.0"}}, {"uniqueid": "w38795424:a41771334", "current_trial": 63, "dateTime": 1664555527713, "trialdata": {"rt": 1051, "stimulus": "<p id='stroop-text' class='stroop-green'>GREEN</p>", "response": "g", "stimulus-type": "congruent", "word": "green", "color": "green", "correct_response": "g", "trial_id": "stroop-trial-1-congruent-6", "trial_type": "html-keyboard-response", "trial_index": 63, "time_elapsed": 219340, "internal_node_id": "0.0-4.0-59.0"}}, {"uniqueid": "w38795424:a41771334", "current_trial": 64, "dateTime": 1664555531023, "trialdata": {"rt": 2806, "stimulus": "<p id='stroop-text' class='stroop-red'>YELLOW</p>", "response": "r", "stimulus-type": "incongruent", "word": "yellow", "color": "red", "correct_response": "r", "trial_id": "stroop-trial-1-incongruent-22", "trial_type": "html-keyboard-response", "trial_index": 64, "time_elapsed": 222650, "internal_node_id": "0.0-4.0-60.0"}}, {"uniqueid": "w38795424:a41771334", "current_trial": 65, "dateTime": 1664555533332, "trialdata": {"rt": 1805, "stimulus": "<p id='stroop-text' class='stroop-yellow'>GREEN</p>", "response": "y", "stimulus-type": "incongruent", "word": "green", "color": "yellow", "correct_response": "y", "trial_id": "stroop-trial-1-incongruent-24", "trial_type": "html-keyboard-response", "trial_index": 65, "time_elapsed": 224960, "internal_node_id": "0.0-4.0-61.0"}}, {"uniqueid": "w38795424:a41771334", "current_trial": 66, "dateTime": 1664555534883, "trialdata": {"rt": 1047, "stimulus": "<p id='stroop-text' class='stroop-red'>RED</p>", "response": "r", "stimulus-type": "congruent", "word": "red", "color": "red", "correct_response": "r", "trial_id": "stroop-trial-1-congruent-21", "trial_type": "html-keyboard-response", "trial_index": 66, "time_elapsed": 226511, "internal_node_id": "0.0-4.0-62.0"}}, {"uniqueid": "w38795424:a41771334", "current_trial": 67, "dateTime": 1664555536372, "trialdata": {"rt": 983, "stimulus": "<p id='stroop-text' class='stroop-green'>BRIDGE</p>", "response": "g", "stimulus-type": "unrelated", "word": "BRIDGE", "color": "green", "correct_response": "g", "trial_id": "stroop-trial-1-unrelated-3", "trial_type": "html-keyboard-response", "trial_index": 67, "time_elapsed": 227999, "internal_node_id": "0.0-4.0-63.0"}}, {"uniqueid": "w38795424:a41771334", "current_trial": 68, "dateTime": 1664555537353, "trialdata": {"rt": 477, "stimulus": "<p id='stroop-text' class='stroop-green'>GREEN</p>", "response": "g", "stimulus-type": "congruent", "word": "green", "color": "green", "correct_response": "g", "trial_id": "stroop-trial-1-congruent-22", "trial_type": "html-keyboard-response", "trial_index": 68, "time_elapsed": 228981, "internal_node_id": "0.0-4.0-64.0"}}, {"uniqueid": "w38795424:a41771334", "current_trial": 69, "dateTime": 1664555539021, "trialdata": {"rt": 1163, "stimulus": "<p id='stroop-text' class='stroop-blue'>GREEN</p>", "response": "b", "stimulus-type": "incongruent", "word": "green", "color": "blue", "correct_response": "b", "trial_id": "stroop-trial-1-incongruent-2", "trial_type": "html-keyboard-response", "trial_index": 69, "time_elapsed": 230648, "internal_node_id": "0.0-4.0-65.0"}}, {"uniqueid": "w38795424:a41771334", "current_trial": 70, "dateTime": 1664555541309, "trialdata": {"rt": 1776, "stimulus": "<p id='stroop-text' class='stroop-green'>BRAIN</p>", "response": "g", "stimulus-type": "unrelated", "word": "BRAIN", "color": "green", "correct_response": "g", "trial_id": "stroop-trial-1-unrelated-17", "trial_type": "html-keyboard-response", "trial_index": 70, "time_elapsed": 232936, "internal_node_id": "0.0-4.0-66.0"}}, {"uniqueid": "w38795424:a41771334", "current_trial": 71, "dateTime": 1664555542992, "trialdata": {"rt": 1179, "stimulus": "<p id='stroop-text' class='stroop-blue'>BLUE</p>", "response": "b", "stimulus-type": "congruent", "word": "blue", "color": "blue", "correct_response": "b", "trial_id": "stroop-trial-1-congruent-15", "trial_type": "html-keyboard-response", "trial_index": 71, "time_elapsed": 234620, "internal_node_id": "0.0-4.0-67.0"}}, {"uniqueid": "w38795424:a41771334", "current_trial": 72, "dateTime": 1664555544093, "trialdata": {"rt": 596, "stimulus": "<p id='stroop-text' class='stroop-yellow'>YELLOW</p>", "response": "y", "stimulus-type": "congruent", "word": "yellow", "color": "yellow", "correct_response": "y", "trial_id": "stroop-trial-1-congruent-14", "trial_type": "html-keyboard-response", "trial_index": 72, "time_elapsed": 235720, "internal_node_id": "0.0-4.0-68.0"}}, {"uniqueid": "w38795424:a41771334", "current_trial": 73, "dateTime": 1664555545335, "trialdata": {"rt": 737, "stimulus": "<p id='stroop-text' class='stroop-red'>BLUE</p>", "response": "r", "stimulus-type": "incongruent", "word": "blue", "color": "red", "correct_response": "r", "trial_id": "stroop-trial-1-incongruent-18", "trial_type": "html-keyboard-response", "trial_index": 73, "time_elapsed": 236962, "internal_node_id": "0.0-4.0-69.0"}}, {"uniqueid": "w38795424:a41771334", "current_trial": 74, "dateTime": 1664555546372, "trialdata": {"rt": 531, "stimulus": "<p id='stroop-text' class='stroop-red'>SHIP</p>", "response": "r", "stimulus-type": "unrelated", "word": "SHIP", "color": "red", "correct_response": "r", "trial_id": "stroop-trial-1-unrelated-26", "trial_type": "html-keyboard-response", "trial_index": 74, "time_elapsed": 237999, "internal_node_id": "0.0-4.0-70.0"}}, {"uniqueid": "w38795424:a41771334", "current_trial": 75, "dateTime": 1664555547698, "trialdata": {"rt": 812, "stimulus": "<p id='stroop-text' class='stroop-yellow'>YELLOW</p>", "response": "y", "stimulus-type": "congruent", "word": "yellow", "color": "yellow", "correct_response": "y", "trial_id": "stroop-trial-1-congruent-26", "trial_type": "html-keyboard-response", "trial_index": 75, "time_elapsed": 239326, "internal_node_id": "0.0-4.0-71.0"}}, {"uniqueid": "w38795424:a41771334", "current_trial": 76, "dateTime": 1664555548856, "trialdata": {"rt": 654, "stimulus": "<p id='stroop-text' class='stroop-red'>RED</p>", "response": "r", "stimulus-type": "congruent", "word": "red", "color": "red", "correct_response": "r", "trial_id": "stroop-trial-1-congruent-24", "trial_type": "html-keyboard-response", "trial_index": 76, "time_elapsed": 240484, "internal_node_id": "0.0-4.0-72.0"}}, {"uniqueid": "w38795424:a41771334", "current_trial": 77, "dateTime": 1664555550038, "trialdata": {"rt": 676, "stimulus": "<p id='stroop-text' class='stroop-yellow'>BLUE</p>", "response": "y", "stimulus-type": "incongruent", "word": "blue", "color": "yellow", "correct_response": "y", "trial_id": "stroop-trial-1-incongruent-9", "trial_type": "html-keyboard-response", "trial_index": 77, "time_elapsed": 241666, "internal_node_id": "0.0-4.0-73.0"}}, {"uniqueid": "w38795424:a41771334", "current_trial": 78, "dateTime": 1664555551364, "trialdata": {"rt": 822, "stimulus": "<p id='stroop-text' class='stroop-yellow'>BOTTLE</p>", "response": "y", "stimulus-type": "unrelated", "word": "BOTTLE", "color": "yellow", "correct_response": "y", "trial_id": "stroop-trial-1-unrelated-16", "trial_type": "html-keyboard-response", "trial_index": 78, "time_elapsed": 242991, "internal_node_id": "0.0-4.0-74.0"}}, {"uniqueid": "w38795424:a41771334", "current_trial": 79, "dateTime": 1664555554344, "trialdata": {"rt": 2473, "stimulus": "<p id='stroop-text' class='stroop-blue'>RED</p>", "response": "b", "stimulus-type": "incongruent", "word": "red", "color": "blue", "correct_response": "b", "trial_id": "stroop-trial-1-incongruent-5", "trial_type": "html-keyboard-response", "trial_index": 79, "time_elapsed": 245972, "internal_node_id": "0.0-4.0-75.0"}}, {"uniqueid": "w38795424:a41771334", "current_trial": 80, "dateTime": 1664555555234, "trialdata": {"rt": 385, "stimulus": "<p id='stroop-text' class='stroop-blue'>RED</p>", "response": "b", "stimulus-type": "incongruent", "word": "red", "color": "blue", "correct_response": "b", "trial_id": "stroop-trial-1-incongruent-20", "trial_type": "html-keyboard-response", "trial_index": 80, "time_elapsed": 246862, "internal_node_id": "0.0-4.0-76.0"}}, {"uniqueid": "w38795424:a41771334", "current_trial": 81, "dateTime": 1664555556457, "trialdata": {"rt": 714, "stimulus": "<p id='stroop-text' class='stroop-red'>RED</p>", "response": "r", "stimulus-type": "congruent", "word": "red", "color": "red", "correct_response": "r", "trial_id": "stroop-trial-1-congruent-12", "trial_type": "html-keyboard-response", "trial_index": 81, "time_elapsed": 248084, "internal_node_id": "0.0-4.0-77.0"}}, {"uniqueid": "w38795424:a41771334", "current_trial": 82, "dateTime": 1664555557765, "trialdata": {"rt": 804, "stimulus": "<p id='stroop-text' class='stroop-green'>GREEN</p>", "response": "g", "stimulus-type": "congruent", "word": "green", "color": "green", "correct_response": "g", "trial_id": "stroop-trial-1-congruent-17", "trial_type": "html-keyboard-response", "trial_index": 82, "time_elapsed": 249393, "internal_node_id": "0.0-4.0-78.0"}}, {"uniqueid": "w38795424:a41771334", "current_trial": 83, "dateTime": 1664555558852, "trialdata": {"rt": 581, "stimulus": "<p id='stroop-text' class='stroop-green'>BLUE</p>", "response": "g", "stimulus-type": "incongruent", "word": "blue", "color": "green", "correct_response": "g", "trial_id": "stroop-trial-1-incongruent-10", "trial_type": "html-keyboard-response", "trial_index": 83, "time_elapsed": 250479, "internal_node_id": "0.0-4.0-79.0"}}, {"uniqueid": "w38795424:a41771334", "current_trial": 84, "dateTime": 1664555559843, "trialdata": {"rt": 485, "stimulus": "<p id='stroop-text' class='stroop-green'>BRAIN</p>", "response": "g", "stimulus-type": "unrelated", "word": "BRAIN", "color": "green", "correct_response": "g", "trial_id": "stroop-trial-1-unrelated-5", "trial_type": "html-keyboard-response", "trial_index": 84, "time_elapsed": 251471, "internal_node_id": "0.0-4.0-80.0"}}, {"uniqueid": "w38795424:a41771334", "current_trial": 85, "dateTime": 1664555560830, "trialdata": {"rt": 482, "stimulus": "<p id='stroop-text' class='stroop-yellow'>BRIDGE</p>", "response": "y", "stimulus-type": "unrelated", "word": "BRIDGE", "color": "yellow", "correct_response": "y", "trial_id": "stroop-trial-1-unrelated-4", "trial_type": "html-keyboard-response", "trial_index": 85, "time_elapsed": 252457, "internal_node_id": "0.0-4.0-81.0"}}, {"uniqueid": "w38795424:a41771334", "current_trial": 86, "dateTime": 1664555562150, "trialdata": {"rt": 815, "stimulus": "<p id='stroop-text' class='stroop-red'>YELLOW</p>", "response": "r", "stimulus-type": "incongruent", "word": "yellow", "color": "red", "correct_response": "r", "trial_id": "stroop-trial-1-incongruent-16", "trial_type": "html-keyboard-response", "trial_index": 86, "time_elapsed": 253777, "internal_node_id": "0.0-4.0-82.0"}}, {"uniqueid": "w38795424:a41771334", "current_trial": 87, "dateTime": 1664555563162, "trialdata": {"rt": 506, "stimulus": "<p id='stroop-text' class='stroop-red'>WINDOW</p>", "response": "r", "stimulus-type": "unrelated", "word": "WINDOW", "color": "red", "correct_response": "r", "trial_id": "stroop-trial-1-unrelated-12", "trial_type": "html-keyboard-response", "trial_index": 87, "time_elapsed": 254789, "internal_node_id": "0.0-4.0-83.0"}}, {"uniqueid": "w38795424:a41771334", "current_trial": 88, "dateTime": 1664555564063, "trialdata": {"rt": 385, "stimulus": "<p id='stroop-text' class='stroop-red'>STONE</p>", "response": "r", "stimulus-type": "unrelated", "word": "STONE", "color": "red", "correct_response": "r", "trial_id": "stroop-trial-1-unrelated-14", "trial_type": "html-keyboard-response", "trial_index": 88, "time_elapsed": 255691, "internal_node_id": "0.0-4.0-84.0"}}, {"uniqueid": "w38795424:a41771334", "current_trial": 89, "dateTime": 1664555565837, "trialdata": {"rt": 1261, "stimulus": "<p id='stroop-text' class='stroop-blue'>GREEN</p>", "response": "b", "stimulus-type": "incongruent", "word": "green", "color": "blue", "correct_response": "b", "trial_id": "stroop-trial-1-incongruent-1", "trial_type": "html-keyboard-response", "trial_index": 89, "time_elapsed": 257465, "internal_node_id": "0.0-4.0-85.0"}}, {"uniqueid": "w38795424:a41771334", "current_trial": 90, "dateTime": 1664555567132, "trialdata": {"rt": 788, "stimulus": "<p id='stroop-text' class='stroop-green'>WINDOW</p>", "response": "g", "stimulus-type": "unrelated", "word": "WINDOW", "color": "green", "correct_response": "g", "trial_id": "stroop-trial-1-unrelated-21", "trial_type": "html-keyboard-response", "trial_index": 90, "time_elapsed": 258759, "internal_node_id": "0.0-4.0-86.0"}}, {"uniqueid": "w38795424:a41771334", "current_trial": 91, "dateTime": 1664555568170, "trialdata": {"rt": 534, "stimulus": "<p id='stroop-text' class='stroop-yellow'>YELLOW</p>", "response": "y", "stimulus-type": "congruent", "word": "yellow", "color": "yellow", "correct_response": "y", "trial_id": "stroop-trial-1-congruent-25", "trial_type": "html-keyboard-response", "trial_index": 91, "time_elapsed": 259798, "internal_node_id": "0.0-4.0-87.0"}}, {"uniqueid": "w38795424:a41771334", "current_trial": 92, "dateTime": 1664555569662, "trialdata": {"rt": 986, "stimulus": "<p id='stroop-text' class='stroop-blue'>RED</p>", "response": "b", "stimulus-type": "incongruent", "word": "red", "color": "blue", "correct_response": "b", "trial_id": "stroop-trial-1-incongruent-13", "trial_type": "html-keyboard-response", "trial_index": 92, "time_elapsed": 261289, "internal_node_id": "0.0-4.0-88.0"}}, {"uniqueid": "w38795424:a41771334", "current_trial": 93, "dateTime": 1664555571535, "trialdata": {"rt": 1366, "stimulus": "<p id='stroop-text' class='stroop-blue'>GREEN</p>", "response": "b", "stimulus-type": "incongruent", "word": "green", "color": "blue", "correct_response": "b", "trial_id": "stroop-trial-1-incongruent-30", "trial_type": "html-keyboard-response", "trial_index": 93, "time_elapsed": 263162, "internal_node_id": "0.0-4.0-89.0"}}, {"uniqueid": "w38795424:a41771334", "current_trial": 94, "dateTime": 1664555579425, "trialdata": {"rt": 7383, "stimulus": "  <h1> End of block! </h1>\n\n  You have reached the end of the block 1/5. If you need a short break, feel free to take one now before moving on.\n\n  <br><br>\n  In the next block, you will complete another 90 rounds of this game.\n\n  <br><br>\n  <div style='text-align: center;'>Press <code>space</code> to begin.</div>\n  <br><br>\n<div style='text-align: center;'>(If the experiment doesn't continue, try clicking on the text and then pressing <code>space</code>.)</div>", "response": " ", "trial_id": "stroop_1_ready_2", "trial_type": "html-keyboard-response", "trial_index": 94, "time_elapsed": 271053, "internal_node_id": "0.0-5.0"}}, {"uniqueid": "w38795424:a41771334", "current_trial": 95, "dateTime": 1664555580913, "trialdata": {"rt": 1483, "stimulus": "<p id='stroop-text' class='stroop-blue'>BLUE</p>", "response": "b", "stimulus-type": "congruent", "word": "blue", "color": "blue", "correct_response": "b", "trial_id": "stroop-trial-1-congruent-6", "trial_type": "html-keyboard-response", "trial_index": 95, "time_elapsed": 272540, "internal_node_id": "0.0-6.0-0.0"}}, {"uniqueid": "w38795424:a41771334", "current_trial": 96, "dateTime": 1664555582055, "trialdata": {"rt": 637, "stimulus": "<p id='stroop-text' class='stroop-red'>RED</p>", "response": "r", "stimulus-type": "congruent", "word": "red", "color": "red", "correct_response": "r", "trial_id": "stroop-trial-1-congruent-1", "trial_type": "html-keyboard-response", "trial_index": 96, "time_elapsed": 273683, "internal_node_id": "0.0-6.0-1.0"}}, {"uniqueid": "w38795424:a41771334", "current_trial": 97, "dateTime": 1664555583772, "trialdata": {"rt": 1212, "stimulus": "<p id='stroop-text' class='stroop-blue'>FORK</p>", "response": "b", "stimulus-type": "unrelated", "word": "FORK", "color": "blue", "correct_response": "b", "trial_id": "stroop-trial-1-unrelated-30", "trial_type": "html-keyboard-response", "trial_index": 97, "time_elapsed": 275400, "internal_node_id": "0.0-6.0-2.0"}}, {"uniqueid": "w38795424:a41771334", "current_trial": 98, "dateTime": 1664555585155, "trialdata": {"rt": 876, "stimulus": "<p id='stroop-text' class='stroop-red'>BLUE</p>", "response": "r", "stimulus-type": "incongruent", "word": "blue", "color": "red", "correct_response": "r", "trial_id": "stroop-trial-1-incongruent-3", "trial_type": "html-keyboard-response", "trial_index": 98, "time_elapsed": 276783, "internal_node_id": "0.0-6.0-3.0"}}, {"uniqueid": "w38795424:a41771334", "current_trial": 99, "dateTime": 1664555586336, "trialdata": {"rt": 676, "stimulus": "<p id='stroop-text' class='stroop-red'>FORK</p>", "response": "r", "stimulus-type": "unrelated", "word": "FORK", "color": "red", "correct_response": "r", "trial_id": "stroop-trial-1-unrelated-9", "trial_type": "html-keyboard-response", "trial_index": 99, "time_elapsed": 277964, "internal_node_id": "0.0-6.0-4.0"}}, {"uniqueid": "w38795424:a41771334", "current_trial": 100, "dateTime": 1664555587810, "trialdata": {"rt": 968, "stimulus": "<p id='stroop-text' class='stroop-green'>RED</p>", "response": "g", "stimulus-type": "incongruent", "word": "red", "color": "green", "correct_response": "g", "trial_id": "stroop-trial-1-incongruent-13", "trial_type": "html-keyboard-response", "trial_index": 100, "time_elapsed": 279437, "internal_node_id": "0.0-6.0-5.0"}}, {"uniqueid": "w38795424:a41771334", "current_trial": 101, "dateTime": 1664555588874, "trialdata": {"rt": 559, "stimulus": "<p id='stroop-text' class='stroop-yellow'>BRIDGE</p>", "response": "y", "stimulus-type": "unrelated", "word": "BRIDGE", "color": "yellow", "correct_response": "y", "trial_id": "stroop-trial-1-unrelated-14", "trial_type": "html-keyboard-response", "trial_index": 101, "time_elapsed": 280502, "internal_node_id": "0.0-6.0-6.0"}}, {"uniqueid": "w38795424:a41771334", "current_trial": 102, "dateTime": 1664555589873, "trialdata": {"rt": 491, "stimulus": "<p id='stroop-text' class='stroop-yellow'>YELLOW</p>", "response": "y", "stimulus-type": "congruent", "word": "yellow", "color": "yellow", "correct_response": "y", "trial_id": "stroop-trial-1-congruent-29", "trial_type": "html-keyboard-response", "trial_index": 102, "time_elapsed": 281500, "internal_node_id": "0.0-6.0-7.0"}}, {"uniqueid": "w38795424:a41771334", "current_trial": 103, "dateTime": 1664555591015, "trialdata": {"rt": 633, "stimulus": "<p id='stroop-text' class='stroop-green'>CHAIR</p>", "response": "g", "stimulus-type": "unrelated", "word": "CHAIR", "color": "green", "correct_response": "g", "trial_id": "stroop-trial-1-unrelated-8", "trial_type": "html-keyboard-response", "trial_index": 103, "time_elapsed": 282642, "internal_node_id": "0.0-6.0-8.0"}}, {"uniqueid": "w38795424:a41771334", "current_trial": 104, "dateTime": 1664555592320, "trialdata": {"rt": 800, "stimulus": "<p id='stroop-text' class='stroop-yellow'>RED</p>", "response": "y", "stimulus-type": "incongruent", "word": "red", "color": "yellow", "correct_response": "y", "trial_id": "stroop-trial-1-incongruent-6", "trial_type": "html-keyboard-response", "trial_index": 104, "time_elapsed": 283948, "internal_node_id": "0.0-6.0-9.0"}}, {"uniqueid": "w38795424:a41771334", "current_trial": 105, "dateTime": 1664555593767, "trialdata": {"rt": 942, "stimulus": "<p id='stroop-text' class='stroop-green'>DOG</p>", "response": "g", "stimulus-type": "unrelated", "word": "DOG", "color": "green", "correct_response": "g", "trial_id": "stroop-trial-1-unrelated-18", "trial_type": "html-keyboard-response", "trial_index": 105, "time_elapsed": 285394, "internal_node_id": "0.0-6.0-10.0"}}, {"uniqueid": "w38795424:a41771334", "current_trial": 106, "dateTime": 1664555596721, "trialdata": {"rt": 2451, "stimulus": "<p id='stroop-text' class='stroop-blue'>YELLOW</p>", "response": "b", "stimulus-type": "incongruent", "word": "yellow", "color": "blue", "correct_response": "b", "trial_id": "stroop-trial-1-incongruent-1", "trial_type": "html-keyboard-response", "trial_index": 106, "time_elapsed": 288349, "internal_node_id": "0.0-6.0-11.0"}}, {"uniqueid": "w38795424:a41771334", "current_trial": 107, "dateTime": 1664555598263, "trialdata": {"rt": 1038, "stimulus": "<p id='stroop-text' class='stroop-yellow'>GREEN</p>", "response": "y", "stimulus-type": "incongruent", "word": "green", "color": "yellow", "correct_response": "y", "trial_id": "stroop-trial-1-incongruent-14", "trial_type": "html-keyboard-response", "trial_index": 107, "time_elapsed": 289891, "internal_node_id": "0.0-6.0-12.0"}}, {"uniqueid": "w38795424:a41771334", "current_trial": 108, "dateTime": 1664555599501, "trialdata": {"rt": 731, "stimulus": "<p id='stroop-text' class='stroop-green'>GREEN</p>", "response": "g", "stimulus-type": "congruent", "word": "green", "color": "green", "correct_response": "g", "trial_id": "stroop-trial-1-congruent-4", "trial_type": "html-keyboard-response", "trial_index": 108, "time_elapsed": 291128, "internal_node_id": "0.0-6.0-13.0"}}, {"uniqueid": "w38795424:a41771334", "current_trial": 109, "dateTime": 1664555600627, "trialdata": {"rt": 618, "stimulus": "<p id='stroop-text' class='stroop-red'>BLUE</p>", "response": "r", "stimulus-type": "incongruent", "word": "blue", "color": "red", "correct_response": "r", "trial_id": "stroop-trial-1-incongruent-16", "trial_type": "html-keyboard-response", "trial_index": 109, "time_elapsed": 292254, "internal_node_id": "0.0-6.0-14.0"}}, {"uniqueid": "w38795424:a41771334", "current_trial": 110, "dateTime": 1664555602024, "trialdata": {"rt": 892, "stimulus": "<p id='stroop-text' class='stroop-yellow'>BOAT</p>", "response": "y", "stimulus-type": "unrelated", "word": "BOAT", "color": "yellow", "correct_response": "y", "trial_id": "stroop-trial-1-unrelated-7", "trial_type": "html-keyboard-response", "trial_index": 110, "time_elapsed": 293651, "internal_node_id": "0.0-6.0-15.0"}}, {"uniqueid": "w38795424:a41771334", "current_trial": 111, "dateTime": 1664555603167, "trialdata": {"rt": 637, "stimulus": "<p id='stroop-text' class='stroop-yellow'>BOAT</p>", "response": "y", "stimulus-type": "unrelated", "word": "BOAT", "color": "yellow", "correct_response": "y", "trial_id": "stroop-trial-1-unrelated-10", "trial_type": "html-keyboard-response", "trial_index": 111, "time_elapsed": 294794, "internal_node_id": "0.0-6.0-16.0"}}, {"uniqueid": "w38795424:a41771334", "current_trial": 112, "dateTime": 1664555604468, "trialdata": {"rt": 791, "stimulus": "<p id='stroop-text' class='stroop-blue'>BOTTLE</p>", "response": "b", "stimulus-type": "unrelated", "word": "BOTTLE", "color": "blue", "correct_response": "b", "trial_id": "stroop-trial-1-unrelated-17", "trial_type": "html-keyboard-response", "trial_index": 112, "time_elapsed": 296096, "internal_node_id": "0.0-6.0-17.0"}}, {"uniqueid": "w38795424:a41771334", "current_trial": 113, "dateTime": 1664555605534, "trialdata": {"rt": 561, "stimulus": "<p id='stroop-text' class='stroop-blue'>YELLOW</p>", "response": "b", "stimulus-type": "incongruent", "word": "yellow", "color": "blue", "correct_response": "b", "trial_id": "stroop-trial-1-incongruent-20", "trial_type": "html-keyboard-response", "trial_index": 113, "time_elapsed": 297161, "internal_node_id": "0.0-6.0-18.0"}}, {"uniqueid": "w38795424:a41771334", "current_trial": 114, "dateTime": 1664555606540, "trialdata": {"rt": 501, "stimulus": "<p id='stroop-text' class='stroop-red'>BOTTLE</p>", "response": "r", "stimulus-type": "unrelated", "word": "BOTTLE", "color": "red", "correct_response": "r", "trial_id": "stroop-trial-1-unrelated-27", "trial_type": "html-keyboard-response", "trial_index": 114, "time_elapsed": 298167, "internal_node_id": "0.0-6.0-19.0"}}, {"uniqueid": "w38795424:a41771334", "current_trial": 115, "dateTime": 1664555607767, "trialdata": {"rt": 720, "stimulus": "<p id='stroop-text' class='stroop-blue'>BLUE</p>", "response": "b", "stimulus-type": "congruent", "word": "blue", "color": "blue", "correct_response": "b", "trial_id": "stroop-trial-1-congruent-13", "trial_type": "html-keyboard-response", "trial_index": 115, "time_elapsed": 299395, "internal_node_id": "0.0-6.0-20.0"}}, {"uniqueid": "w38795424:a41771334", "current_trial": 116, "dateTime": 1664555608975, "trialdata": {"rt": 700, "stimulus": "<p id='stroop-text' class='stroop-yellow'>CHAIR</p>", "response": "y", "stimulus-type": "unrelated", "word": "CHAIR", "color": "yellow", "correct_response": "y", "trial_id": "stroop-trial-1-unrelated-12", "trial_type": "html-keyboard-response", "trial_index": 116, "time_elapsed": 300602, "internal_node_id": "0.0-6.0-21.0"}}, {"uniqueid": "w38795424:a41771334", "current_trial": 117, "dateTime": 1664555610843, "trialdata": {"rt": 1363, "stimulus": "<p id='stroop-text' class='stroop-blue'>GREEN</p>", "response": "b", "stimulus-type": "incongruent", "word": "green", "color": "blue", "correct_response": "b", "trial_id": "stroop-trial-1-incongruent-7", "trial_type": "html-keyboard-response", "trial_index": 117, "time_elapsed": 302470, "internal_node_id": "0.0-6.0-22.0"}}, {"uniqueid": "w38795424:a41771334", "current_trial": 118, "dateTime": 1664555612460, "trialdata": {"rt": 1112, "stimulus": "<p id='stroop-text' class='stroop-green'>YELLOW</p>", "response": "g", "stimulus-type": "incongruent", "word": "yellow", "color": "green", "correct_response": "g", "trial_id": "stroop-trial-1-incongruent-19", "trial_type": "html-keyboard-response", "trial_index": 118, "time_elapsed": 304087, "internal_node_id": "0.0-6.0-23.0"}}, {"uniqueid": "w38795424:a41771334", "current_trial": 119, "dateTime": 1664555614404, "trialdata": {"rt": 1438, "stimulus": "<p id='stroop-text' class='stroop-blue'>STONE</p>", "response": "b", "stimulus-type": "unrelated", "word": "STONE", "color": "blue", "correct_response": "b", "trial_id": "stroop-trial-1-unrelated-13", "trial_type": "html-keyboard-response", "trial_index": 119, "time_elapsed": 306031, "internal_node_id": "0.0-6.0-24.0"}}, {"uniqueid": "w38795424:a41771334", "current_trial": 120, "dateTime": 1664555615594, "trialdata": {"rt": 682, "stimulus": "<p id='stroop-text' class='stroop-blue'>RED</p>", "response": "b", "stimulus-type": "incongruent", "word": "red", "color": "blue", "correct_response": "b", "trial_id": "stroop-trial-1-incongruent-30", "trial_type": "html-keyboard-response", "trial_index": 120, "time_elapsed": 307222, "internal_node_id": "0.0-6.0-25.0"}}, {"uniqueid": "w38795424:a41771334", "current_trial": 121, "dateTime": 1664555617577, "trialdata": {"rt": 1477, "stimulus": "<p id='stroop-text' class='stroop-red'>GREEN</p>", "response": "r", "stimulus-type": "incongruent", "word": "green", "color": "red", "correct_response": "r", "trial_id": "stroop-trial-1-incongruent-4", "trial_type": "html-keyboard-response", "trial_index": 121, "time_elapsed": 309204, "internal_node_id": "0.0-6.0-26.0"}}, {"uniqueid": "w38795424:a41771334", "current_trial": 122, "dateTime": 1664555618484, "trialdata": {"rt": 402, "stimulus": "<p id='stroop-text' class='stroop-red'>RED</p>", "response": "r", "stimulus-type": "congruent", "word": "red", "color": "red", "correct_response": "r", "trial_id": "stroop-trial-1-congruent-27", "trial_type": "html-keyboard-response", "trial_index": 122, "time_elapsed": 310111, "internal_node_id": "0.0-6.0-27.0"}}, {"uniqueid": "w38795424:a41771334", "current_trial": 123, "dateTime": 1664555619715, "trialdata": {"rt": 726, "stimulus": "<p id='stroop-text' class='stroop-yellow'>GREEN</p>", "response": "y", "stimulus-type": "incongruent", "word": "green", "color": "yellow", "correct_response": "y", "trial_id": "stroop-trial-1-incongruent-2", "trial_type": "html-keyboard-response", "trial_index": 123, "time_elapsed": 311342, "internal_node_id": "0.0-6.0-28.0"}}, {"uniqueid": "w38795424:a41771334", "current_trial": 124, "dateTime": 1664555621803, "trialdata": {"rt": 1581, "stimulus": "<p id='stroop-text' class='stroop-green'>STONE</p>", "response": "g", "stimulus-type": "unrelated", "word": "STONE", "color": "green", "correct_response": "g", "trial_id": "stroop-trial-1-unrelated-25", "trial_type": "html-keyboard-response", "trial_index": 124, "time_elapsed": 313431, "internal_node_id": "0.0-6.0-29.0"}}, {"uniqueid": "w38795424:a41771334", "current_trial": 125, "dateTime": 1664555622749, "trialdata": {"rt": 441, "stimulus": "<p id='stroop-text' class='stroop-green'>GREEN</p>", "response": "g", "stimulus-type": "congruent", "word": "green", "color": "green", "correct_response": "g", "trial_id": "stroop-trial-1-congruent-5", "trial_type": "html-keyboard-response", "trial_index": 125, "time_elapsed": 314376, "internal_node_id": "0.0-6.0-30.0"}}, {"uniqueid": "w38795424:a41771334", "current_trial": 126, "dateTime": 1664555624046, "trialdata": {"rt": 792, "stimulus": "<p id='stroop-text' class='stroop-yellow'>BLUE</p>", "response": "y", "stimulus-type": "incongruent", "word": "blue", "color": "yellow", "correct_response": "y", "trial_id": "stroop-trial-1-incongruent-25", "trial_type": "html-keyboard-response", "trial_index": 126, "time_elapsed": 315674, "internal_node_id": "0.0-6.0-31.0"}}, {"uniqueid": "w38795424:a41771334", "current_trial": 127, "dateTime": 1664555624979, "trialdata": {"rt": 425, "stimulus": "<p id='stroop-text' class='stroop-yellow'>WINDOW</p>", "response": "y", "stimulus-type": "unrelated", "word": "WINDOW", "color": "yellow", "correct_response": "y", "trial_id": "stroop-trial-1-unrelated-19", "trial_type": "html-keyboard-response", "trial_index": 127, "time_elapsed": 316606, "internal_node_id": "0.0-6.0-32.0"}}, {"uniqueid": "w38795424:a41771334", "current_trial": 128, "dateTime": 1664555626806, "trialdata": {"rt": 1323, "stimulus": "<p id='stroop-text' class='stroop-red'>BRAIN</p>", "response": "r", "stimulus-type": "unrelated", "word": "BRAIN", "color": "red", "correct_response": "r", "trial_id": "stroop-trial-1-unrelated-15", "trial_type": "html-keyboard-response", "trial_index": 128, "time_elapsed": 318433, "internal_node_id": "0.0-6.0-33.0"}}, {"uniqueid": "w38795424:a41771334", "current_trial": 129, "dateTime": 1664555627716, "trialdata": {"rt": 406, "stimulus": "<p id='stroop-text' class='stroop-red'>GREEN</p>", "response": "r", "stimulus-type": "incongruent", "word": "green", "color": "red", "correct_response": "r", "trial_id": "stroop-trial-1-incongruent-12", "trial_type": "html-keyboard-response", "trial_index": 129, "time_elapsed": 319344, "internal_node_id": "0.0-6.0-34.0"}}, {"uniqueid": "w38795424:a41771334", "current_trial": 130, "dateTime": 1664555629014, "trialdata": {"rt": 792, "stimulus": "<p id='stroop-text' class='stroop-blue'>MONKEY</p>", "response": "b", "stimulus-type": "unrelated", "word": "MONKEY", "color": "blue", "correct_response": "b", "trial_id": "stroop-trial-1-unrelated-28", "trial_type": "html-keyboard-response", "trial_index": 130, "time_elapsed": 320641, "internal_node_id": "0.0-6.0-35.0"}}, {"uniqueid": "w38795424:a41771334", "current_trial": 131, "dateTime": 1664555632058, "trialdata": {"rt": 2535, "stimulus": "<p id='stroop-text' class='stroop-yellow'>BOAT</p>", "response": "y", "stimulus-type": "unrelated", "word": "BOAT", "color": "yellow", "correct_response": "y", "trial_id": "stroop-trial-1-unrelated-21", "trial_type": "html-keyboard-response", "trial_index": 131, "time_elapsed": 323685, "internal_node_id": "0.0-6.0-36.0"}}, {"uniqueid": "w38795424:a41771334", "current_trial": 132, "dateTime": 1664555633265, "trialdata": {"rt": 702, "stimulus": "<p id='stroop-text' class='stroop-blue'>BLUE</p>", "response": "g", "stimulus-type": "congruent", "word": "blue", "color": "blue", "correct_response": "b", "trial_id": "stroop-trial-1-congruent-9", "trial_type": "html-keyboard-response", "trial_index": 132, "time_elapsed": 324893, "internal_node_id": "0.0-6.0-37.0"}}, {"uniqueid": "w38795424:a41771334", "current_trial": 133, "dateTime": 1664555634661, "trialdata": {"rt": 886, "stimulus": "<p id='stroop-text' class='stroop-blue'>BLUE</p>", "response": "b", "stimulus-type": "congruent", "word": "blue", "color": "blue", "correct_response": "b", "trial_id": "stroop-trial-1-congruent-21", "trial_type": "html-keyboard-response", "trial_index": 133, "time_elapsed": 326288, "internal_node_id": "0.0-6.0-38.0"}}, {"uniqueid": "w38795424:a41771334", "current_trial": 134, "dateTime": 1664555635814, "trialdata": {"rt": 646, "stimulus": "<p id='stroop-text' class='stroop-yellow'>BRIDGE</p>", "response": "y", "stimulus-type": "unrelated", "word": "BRIDGE", "color": "yellow", "correct_response": "y", "trial_id": "stroop-trial-1-unrelated-3", "trial_type": "html-keyboard-response", "trial_index": 134, "time_elapsed": 327441, "internal_node_id": "0.0-6.0-39.0"}}, {"uniqueid": "w38795424:a41771334", "current_trial": 135, "dateTime": 1664555638852, "trialdata": {"rt": 2533, "stimulus": "<p id='stroop-text' class='stroop-blue'>YELLOW</p>", "response": "b", "stimulus-type": "incongruent", "word": "yellow", "color": "blue", "correct_response": "b", "trial_id": "stroop-trial-1-incongruent-23", "trial_type": "html-keyboard-response", "trial_index": 135, "time_elapsed": 330480, "internal_node_id": "0.0-6.0-40.0"}}, {"uniqueid": "w38795424:a41771334", "current_trial": 136, "dateTime": 1664555639780, "trialdata": {"rt": 422, "stimulus": "<p id='stroop-text' class='stroop-blue'>STONE</p>", "response": "b", "stimulus-type": "unrelated", "word": "STONE", "color": "blue", "correct_response": "b", "trial_id": "stroop-trial-1-unrelated-22", "trial_type": "html-keyboard-response", "trial_index": 136, "time_elapsed": 331407, "internal_node_id": "0.0-6.0-41.0"}}, {"uniqueid": "w38795424:a41771334", "current_trial": 137, "dateTime": 1664555641336, "trialdata": {"rt": 1053, "stimulus": "<p id='stroop-text' class='stroop-yellow'>DOG</p>", "response": "y", "stimulus-type": "unrelated", "word": "DOG", "color": "yellow", "correct_response": "y", "trial_id": "stroop-trial-1-unrelated-1", "trial_type": "html-keyboard-response", "trial_index": 137, "time_elapsed": 332963, "internal_node_id": "0.0-6.0-42.0"}}, {"uniqueid": "w38795424:a41771334", "current_trial": 138, "dateTime": 1664555642513, "trialdata": {"rt": 671, "stimulus": "<p id='stroop-text' class='stroop-blue'>STONE</p>", "response": "b", "stimulus-type": "unrelated", "word": "STONE", "color": "blue", "correct_response": "b", "trial_id": "stroop-trial-1-unrelated-26", "trial_type": "html-keyboard-response", "trial_index": 138, "time_elapsed": 334140, "internal_node_id": "0.0-6.0-43.0"}}, {"uniqueid": "w38795424:a41771334", "current_trial": 139, "dateTime": 1664555643684, "trialdata": {"rt": 665, "stimulus": "<p id='stroop-text' class='stroop-green'>CHAIR</p>", "response": "g", "stimulus-type": "unrelated", "word": "CHAIR", "color": "green", "correct_response": "g", "trial_id": "stroop-trial-1-unrelated-16", "trial_type": "html-keyboard-response", "trial_index": 139, "time_elapsed": 335312, "internal_node_id": "0.0-6.0-44.0"}}, {"uniqueid": "w38795424:a41771334", "current_trial": 140, "dateTime": 1664555644851, "trialdata": {"rt": 661, "stimulus": "<p id='stroop-text' class='stroop-green'>BRAIN</p>", "response": "g", "stimulus-type": "unrelated", "word": "BRAIN", "color": "green", "correct_response": "g", "trial_id": "stroop-trial-1-unrelated-24", "trial_type": "html-keyboard-response", "trial_index": 140, "time_elapsed": 336479, "internal_node_id": "0.0-6.0-45.0"}}, {"uniqueid": "w38795424:a41771334", "current_trial": 141, "dateTime": 1664555645813, "trialdata": {"rt": 456, "stimulus": "<p id='stroop-text' class='stroop-green'>YELLOW</p>", "response": "g", "stimulus-type": "incongruent", "word": "yellow", "color": "green", "correct_response": "g", "trial_id": "stroop-trial-1-incongruent-22", "trial_type": "html-keyboard-response", "trial_index": 141, "time_elapsed": 337441, "internal_node_id": "0.0-6.0-46.0"}}, {"uniqueid": "w38795424:a41771334", "current_trial": 142, "dateTime": 1664555646931, "trialdata": {"rt": 611, "stimulus": "<p id='stroop-text' class='stroop-red'>RED</p>", "response": "y", "stimulus-type": "congruent", "word": "red", "color": "red", "correct_response": "r", "trial_id": "stroop-trial-1-congruent-25", "trial_type": "html-keyboard-response", "trial_index": 142, "time_elapsed": 338558, "internal_node_id": "0.0-6.0-47.0"}}, {"uniqueid": "w38795424:a41771334", "current_trial": 143, "dateTime": 1664555648336, "trialdata": {"rt": 900, "stimulus": "<p id='stroop-text' class='stroop-blue'>BLUE</p>", "response": "b", "stimulus-type": "congruent", "word": "blue", "color": "blue", "correct_response": "b", "trial_id": "stroop-trial-1-congruent-11", "trial_type": "html-keyboard-response", "trial_index": 143, "time_elapsed": 339964, "internal_node_id": "0.0-6.0-48.0"}}, {"uniqueid": "w38795424:a41771334", "current_trial": 144, "dateTime": 1664555650540, "trialdata": {"rt": 1698, "stimulus": "<p id='stroop-text' class='stroop-green'>GREEN</p>", "response": "g", "stimulus-type": "congruent", "word": "green", "color": "green", "correct_response": "g", "trial_id": "stroop-trial-1-congruent-7", "trial_type": "html-keyboard-response", "trial_index": 144, "time_elapsed": 342168, "internal_node_id": "0.0-6.0-49.0"}}, {"uniqueid": "w38795424:a41771334", "current_trial": 145, "dateTime": 1664555654007, "trialdata": {"rt": 2960, "stimulus": "<p id='stroop-text' class='stroop-blue'>SHIP</p>", "response": "b", "stimulus-type": "unrelated", "word": "SHIP", "color": "blue", "correct_response": "b", "trial_id": "stroop-trial-1-unrelated-5", "trial_type": "html-keyboard-response", "trial_index": 145, "time_elapsed": 345635, "internal_node_id": "0.0-6.0-50.0"}}, {"uniqueid": "w38795424:a41771334", "current_trial": 146, "dateTime": 1664555656613, "trialdata": {"rt": 2101, "stimulus": "<p id='stroop-text' class='stroop-green'>YELLOW</p>", "response": "g", "stimulus-type": "incongruent", "word": "yellow", "color": "green", "correct_response": "g", "trial_id": "stroop-trial-1-incongruent-10", "trial_type": "html-keyboard-response", "trial_index": 146, "time_elapsed": 348241, "internal_node_id": "0.0-6.0-51.0"}}, {"uniqueid": "w38795424:a41771334", "current_trial": 147, "dateTime": 1664555658637, "trialdata": {"rt": 1518, "stimulus": "<p id='stroop-text' class='stroop-blue'>BLUE</p>", "response": "b", "stimulus-type": "congruent", "word": "blue", "color": "blue", "correct_response": "b", "trial_id": "stroop-trial-1-congruent-26", "trial_type": "html-keyboard-response", "trial_index": 147, "time_elapsed": 350264, "internal_node_id": "0.0-6.0-52.0"}}, {"uniqueid": "w38795424:a41771334", "current_trial": 148, "dateTime": 1664555659583, "trialdata": {"rt": 439, "stimulus": "<p id='stroop-text' class='stroop-blue'>BOAT</p>", "response": "b", "stimulus-type": "unrelated", "word": "BOAT", "color": "blue", "correct_response": "b", "trial_id": "stroop-trial-1-unrelated-23", "trial_type": "html-keyboard-response", "trial_index": 148, "time_elapsed": 351211, "internal_node_id": "0.0-6.0-53.0"}}, {"uniqueid": "w38795424:a41771334", "current_trial": 149, "dateTime": 1664555660439, "trialdata": {"rt": 350, "stimulus": "<p id='stroop-text' class='stroop-blue'>BLUE</p>", "response": "b", "stimulus-type": "congruent", "word": "blue", "color": "blue", "correct_response": "b", "trial_id": "stroop-trial-1-congruent-16", "trial_type": "html-keyboard-response", "trial_index": 149, "time_elapsed": 352067, "internal_node_id": "0.0-6.0-54.0"}}, {"uniqueid": "w38795424:a41771334", "current_trial": 150, "dateTime": 1664555661821, "trialdata": {"rt": 869, "stimulus": "<p id='stroop-text' class='stroop-green'>YELLOW</p>", "response": "g", "stimulus-type": "incongruent", "word": "yellow", "color": "green", "correct_response": "g", "trial_id": "stroop-trial-1-incongruent-27", "trial_type": "html-keyboard-response", "trial_index": 150, "time_elapsed": 353448, "internal_node_id": "0.0-6.0-55.0"}}, {"uniqueid": "w38795424:a41771334", "current_trial": 151, "dateTime": 1664555662928, "trialdata": {"rt": 604, "stimulus": "<p id='stroop-text' class='stroop-red'>RED</p>", "response": "r", "stimulus-type": "congruent", "word": "red", "color": "red", "correct_response": "r", "trial_id": "stroop-trial-1-congruent-15", "trial_type": "html-keyboard-response", "trial_index": 151, "time_elapsed": 354556, "internal_node_id": "0.0-6.0-56.0"}}, {"uniqueid": "w38795424:a41771334", "current_trial": 152, "dateTime": 1664555664100, "trialdata": {"rt": 664, "stimulus": "<p id='stroop-text' class='stroop-red'>RED</p>", "response": "r", "stimulus-type": "congruent", "word": "red", "color": "red", "correct_response": "r", "trial_id": "stroop-trial-1-congruent-10", "trial_type": "html-keyboard-response", "trial_index": 152, "time_elapsed": 355727, "internal_node_id": "0.0-6.0-57.0"}}, {"uniqueid": "w38795424:a41771334", "current_trial": 153, "dateTime": 1664555665361, "trialdata": {"rt": 755, "stimulus": "<p id='stroop-text' class='stroop-blue'>YELLOW</p>", "response": "b", "stimulus-type": "incongruent", "word": "yellow", "color": "blue", "correct_response": "b", "trial_id": "stroop-trial-1-incongruent-18", "trial_type": "html-keyboard-response", "trial_index": 153, "time_elapsed": 356988, "internal_node_id": "0.0-6.0-58.0"}}, {"uniqueid": "w38795424:a41771334", "current_trial": 154, "dateTime": 1664555667414, "trialdata": {"rt": 1547, "stimulus": "<p id='stroop-text' class='stroop-red'>BLUE</p>", "response": "r", "stimulus-type": "incongruent", "word": "blue", "color": "red", "correct_response": "r", "trial_id": "stroop-trial-1-incongruent-15", "trial_type": "html-keyboard-response", "trial_index": 154, "time_elapsed": 359042, "internal_node_id": "0.0-6.0-59.0"}}, {"uniqueid": "w38795424:a41771334", "current_trial": 155, "dateTime": 1664555668476, "trialdata": {"rt": 554, "stimulus": "<p id='stroop-text' class='stroop-red'>RED</p>", "response": "r", "stimulus-type": "congruent", "word": "red", "color": "red", "correct_response": "r", "trial_id": "stroop-trial-1-congruent-28", "trial_type": "html-keyboard-response", "trial_index": 155, "time_elapsed": 360103, "internal_node_id": "0.0-6.0-60.0"}}, {"uniqueid": "w38795424:a41771334", "current_trial": 156, "dateTime": 1664555670024, "trialdata": {"rt": 1043, "stimulus": "<p id='stroop-text' class='stroop-green'>SHIP</p>", "response": "g", "stimulus-type": "unrelated", "word": "SHIP", "color": "green", "correct_response": "g", "trial_id": "stroop-trial-1-unrelated-4", "trial_type": "html-keyboard-response", "trial_index": 156, "time_elapsed": 361652, "internal_node_id": "0.0-6.0-61.0"}}, {"uniqueid": "w38795424:a41771334", "current_trial": 157, "dateTime": 1664555671274, "trialdata": {"rt": 740, "stimulus": "<p id='stroop-text' class='stroop-blue'>BLUE</p>", "response": "b", "stimulus-type": "congruent", "word": "blue", "color": "blue", "correct_response": "b", "trial_id": "stroop-trial-1-congruent-14", "trial_type": "html-keyboard-response", "trial_index": 157, "time_elapsed": 362901, "internal_node_id": "0.0-6.0-62.0"}}, {"uniqueid": "w38795424:a41771334", "current_trial": 158, "dateTime": 1664555672282, "trialdata": {"rt": 502, "stimulus": "<p id='stroop-text' class='stroop-blue'>BRAIN</p>", "response": "b", "stimulus-type": "unrelated", "word": "BRAIN", "color": "blue", "correct_response": "b", "trial_id": "stroop-trial-1-unrelated-20", "trial_type": "html-keyboard-response", "trial_index": 158, "time_elapsed": 363909, "internal_node_id": "0.0-6.0-63.0"}}, {"uniqueid": "w38795424:a41771334", "current_trial": 159, "dateTime": 1664555673213, "trialdata": {"rt": 419, "stimulus": "<p id='stroop-text' class='stroop-green'>YELLOW</p>", "response": "g", "stimulus-type": "incongruent", "word": "yellow", "color": "green", "correct_response": "g", "trial_id": "stroop-trial-1-incongruent-17", "trial_type": "html-keyboard-response", "trial_index": 159, "time_elapsed": 364841, "internal_node_id": "0.0-6.0-64.0"}}, {"uniqueid": "w38795424:a41771334", "current_trial": 160, "dateTime": 1664555674418, "trialdata": {"rt": 698, "stimulus": "<p id='stroop-text' class='stroop-red'>RED</p>", "response": "r", "stimulus-type": "congruent", "word": "red", "color": "red", "correct_response": "r", "trial_id": "stroop-trial-1-congruent-8", "trial_type": "html-keyboard-response", "trial_index": 160, "time_elapsed": 366046, "internal_node_id": "0.0-6.0-65.0"}}, {"uniqueid": "w38795424:a41771334", "current_trial": 161, "dateTime": 1664555676147, "trialdata": {"rt": 1222, "stimulus": "<p id='stroop-text' class='stroop-blue'>BLUE</p>", "response": "b", "stimulus-type": "congruent", "word": "blue", "color": "blue", "correct_response": "b", "trial_id": "stroop-trial-1-congruent-19", "trial_type": "html-keyboard-response", "trial_index": 161, "time_elapsed": 367774, "internal_node_id": "0.0-6.0-66.0"}}, {"uniqueid": "w38795424:a41771334", "current_trial": 162, "dateTime": 1664555677344, "trialdata": {"rt": 692, "stimulus": "<p id='stroop-text' class='stroop-red'>RED</p>", "response": "r", "stimulus-type": "congruent", "word": "red", "color": "red", "correct_response": "r", "trial_id": "stroop-trial-1-congruent-20", "trial_type": "html-keyboard-response", "trial_index": 162, "time_elapsed": 368971, "internal_node_id": "0.0-6.0-67.0"}}, {"uniqueid": "w38795424:a41771334", "current_trial": 163, "dateTime": 1664555678947, "trialdata": {"rt": 1097, "stimulus": "<p id='stroop-text' class='stroop-green'>BOTTLE</p>", "response": "g", "stimulus-type": "unrelated", "word": "BOTTLE", "color": "green", "correct_response": "g", "trial_id": "stroop-trial-1-unrelated-2", "trial_type": "html-keyboard-response", "trial_index": 163, "time_elapsed": 370574, "internal_node_id": "0.0-6.0-68.0"}}, {"uniqueid": "w38795424:a41771334", "current_trial": 164, "dateTime": 1664555680123, "trialdata": {"rt": 661, "stimulus": "<p id='stroop-text' class='stroop-yellow'>YELLOW</p>", "response": "y", "stimulus-type": "congruent", "word": "yellow", "color": "yellow", "correct_response": "y", "trial_id": "stroop-trial-1-congruent-2", "trial_type": "html-keyboard-response", "trial_index": 164, "time_elapsed": 371750, "internal_node_id": "0.0-6.0-69.0"}}, {"uniqueid": "w38795424:a41771334", "current_trial": 165, "dateTime": 1664555681105, "trialdata": {"rt": 477, "stimulus": "<p id='stroop-text' class='stroop-yellow'>YELLOW</p>", "response": "y", "stimulus-type": "congruent", "word": "yellow", "color": "yellow", "correct_response": "y", "trial_id": "stroop-trial-1-congruent-24", "trial_type": "html-keyboard-response", "trial_index": 165, "time_elapsed": 372732, "internal_node_id": "0.0-6.0-70.0"}}, {"uniqueid": "w38795424:a41771334", "current_trial": 166, "dateTime": 1664555682567, "trialdata": {"rt": 956, "stimulus": "<p id='stroop-text' class='stroop-blue'>GREEN</p>", "response": "b", "stimulus-type": "incongruent", "word": "green", "color": "blue", "correct_response": "b", "trial_id": "stroop-trial-1-incongruent-9", "trial_type": "html-keyboard-response", "trial_index": 166, "time_elapsed": 374194, "internal_node_id": "0.0-6.0-71.0"}}, {"uniqueid": "w38795424:a41771334", "current_trial": 167, "dateTime": 1664555683747, "trialdata": {"rt": 675, "stimulus": "<p id='stroop-text' class='stroop-blue'>BLUE</p>", "response": "b", "stimulus-type": "congruent", "word": "blue", "color": "blue", "correct_response": "b", "trial_id": "stroop-trial-1-congruent-3", "trial_type": "html-keyboard-response", "trial_index": 167, "time_elapsed": 375375, "internal_node_id": "0.0-6.0-72.0"}}, {"uniqueid": "w38795424:a41771334", "current_trial": 168, "dateTime": 1664555685026, "trialdata": {"rt": 772, "stimulus": "<p id='stroop-text' class='stroop-yellow'>YELLOW</p>", "response": "y", "stimulus-type": "congruent", "word": "yellow", "color": "yellow", "correct_response": "y", "trial_id": "stroop-trial-1-congruent-17", "trial_type": "html-keyboard-response", "trial_index": 168, "time_elapsed": 376653, "internal_node_id": "0.0-6.0-73.0"}}, {"uniqueid": "w38795424:a41771334", "current_trial": 169, "dateTime": 1664555685946, "trialdata": {"rt": 413, "stimulus": "<p id='stroop-text' class='stroop-yellow'>GREEN</p>", "response": "y", "stimulus-type": "incongruent", "word": "green", "color": "yellow", "correct_response": "y", "trial_id": "stroop-trial-1-incongruent-8", "trial_type": "html-keyboard-response", "trial_index": 169, "time_elapsed": 377574, "internal_node_id": "0.0-6.0-74.0"}}, {"uniqueid": "w38795424:a41771334", "current_trial": 170, "dateTime": 1664555687222, "trialdata": {"rt": 772, "stimulus": "<p id='stroop-text' class='stroop-green'>YELLOW</p>", "response": "g", "stimulus-type": "incongruent", "word": "yellow", "color": "green", "correct_response": "g", "trial_id": "stroop-trial-1-incongruent-28", "trial_type": "html-keyboard-response", "trial_index": 170, "time_elapsed": 378850, "internal_node_id": "0.0-6.0-75.0"}}, {"uniqueid": "w38795424:a41771334", "current_trial": 171, "dateTime": 1664555689017, "trialdata": {"rt": 1289, "stimulus": "<p id='stroop-text' class='stroop-blue'>BLUE</p>", "response": "b", "stimulus-type": "congruent", "word": "blue", "color": "blue", "correct_response": "b", "trial_id": "stroop-trial-1-congruent-30", "trial_type": "html-keyboard-response", "trial_index": 171, "time_elapsed": 380645, "internal_node_id": "0.0-6.0-76.0"}}, {"uniqueid": "w38795424:a41771334", "current_trial": 172, "dateTime": 1664555690208, "trialdata": {"rt": 686, "stimulus": "<p id='stroop-text' class='stroop-red'>SHIP</p>", "response": "r", "stimulus-type": "unrelated", "word": "SHIP", "color": "red", "correct_response": "r", "trial_id": "stroop-trial-1-unrelated-29", "trial_type": "html-keyboard-response", "trial_index": 172, "time_elapsed": 381835, "internal_node_id": "0.0-6.0-77.0"}}, {"uniqueid": "w38795424:a41771334", "current_trial": 173, "dateTime": 1664555692676, "trialdata": {"rt": 1959, "stimulus": "<p id='stroop-text' class='stroop-yellow'>GREEN</p>", "response": "g", "stimulus-type": "incongruent", "word": "green", "color": "yellow", "correct_response": "y", "trial_id": "stroop-trial-1-incongruent-29", "trial_type": "html-keyboard-response", "trial_index": 173, "time_elapsed": 384303, "internal_node_id": "0.0-6.0-78.0"}}, {"uniqueid": "w38795424:a41771334", "current_trial": 174, "dateTime": 1664555694049, "trialdata": {"rt": 867, "stimulus": "<p id='stroop-text' class='stroop-blue'>RED</p>", "response": "b", "stimulus-type": "incongruent", "word": "red", "color": "blue", "correct_response": "b", "trial_id": "stroop-trial-1-incongruent-5", "trial_type": "html-keyboard-response", "trial_index": 174, "time_elapsed": 385677, "internal_node_id": "0.0-6.0-79.0"}}, {"uniqueid": "w38795424:a41771334", "current_trial": 175, "dateTime": 1664555696721, "trialdata": {"rt": 2164, "stimulus": "<p id='stroop-text' class='stroop-yellow'>GREEN</p>", "response": "y", "stimulus-type": "incongruent", "word": "green", "color": "yellow", "correct_response": "y", "trial_id": "stroop-trial-1-incongruent-24", "trial_type": "html-keyboard-response", "trial_index": 175, "time_elapsed": 388349, "internal_node_id": "0.0-6.0-80.0"}}, {"uniqueid": "w38795424:a41771334", "current_trial": 176, "dateTime": 1664555698005, "trialdata": {"rt": 779, "stimulus": "<p id='stroop-text' class='stroop-green'>GREEN</p>", "response": "g", "stimulus-type": "congruent", "word": "green", "color": "green", "correct_response": "g", "trial_id": "stroop-trial-1-congruent-23", "trial_type": "html-keyboard-response", "trial_index": 176, "time_elapsed": 389633, "internal_node_id": "0.0-6.0-81.0"}}, {"uniqueid": "w38795424:a41771334", "current_trial": 177, "dateTime": 1664555699099, "trialdata": {"rt": 589, "stimulus": "<p id='stroop-text' class='stroop-green'>GREEN</p>", "response": "g", "stimulus-type": "congruent", "word": "green", "color": "green", "correct_response": "g", "trial_id": "stroop-trial-1-congruent-12", "trial_type": "html-keyboard-response", "trial_index": 177, "time_elapsed": 390727, "internal_node_id": "0.0-6.0-82.0"}}, {"uniqueid": "w38795424:a41771334", "current_trial": 178, "dateTime": 1664555701133, "trialdata": {"rt": 1527, "stimulus": "<p id='stroop-text' class='stroop-red'>RED</p>", "response": "r", "stimulus-type": "congruent", "word": "red", "color": "red", "correct_response": "r", "trial_id": "stroop-trial-1-congruent-18", "trial_type": "html-keyboard-response", "trial_index": 178, "time_elapsed": 392761, "internal_node_id": "0.0-6.0-83.0"}}, {"uniqueid": "w38795424:a41771334", "current_trial": 179, "dateTime": 1664555702065, "trialdata": {"rt": 425, "stimulus": "<p id='stroop-text' class='stroop-red'>RED</p>", "response": "r", "stimulus-type": "congruent", "word": "red", "color": "red", "correct_response": "r", "trial_id": "stroop-trial-1-congruent-22", "trial_type": "html-keyboard-response", "trial_index": 179, "time_elapsed": 393692, "internal_node_id": "0.0-6.0-84.0"}}, {"uniqueid": "w38795424:a41771334", "current_trial": 180, "dateTime": 1664555703857, "trialdata": {"rt": 1283, "stimulus": "<p id='stroop-text' class='stroop-yellow'>BLUE</p>", "response": "y", "stimulus-type": "incongruent", "word": "blue", "color": "yellow", "correct_response": "y", "trial_id": "stroop-trial-1-incongruent-21", "trial_type": "html-keyboard-response", "trial_index": 180, "time_elapsed": 395484, "internal_node_id": "0.0-6.0-85.0"}}, {"uniqueid": "w38795424:a41771334", "current_trial": 181, "dateTime": 1664555705218, "trialdata": {"rt": 857, "stimulus": "<p id='stroop-text' class='stroop-red'>BLUE</p>", "response": "r", "stimulus-type": "incongruent", "word": "blue", "color": "red", "correct_response": "r", "trial_id": "stroop-trial-1-incongruent-11", "trial_type": "html-keyboard-response", "trial_index": 181, "time_elapsed": 396846, "internal_node_id": "0.0-6.0-86.0"}}, {"uniqueid": "w38795424:a41771334", "current_trial": 182, "dateTime": 1664555706496, "trialdata": {"rt": 758, "stimulus": "<p id='stroop-text' class='stroop-green'>BRAIN</p>", "response": "g", "stimulus-type": "unrelated", "word": "BRAIN", "color": "green", "correct_response": "g", "trial_id": "stroop-trial-1-unrelated-11", "trial_type": "html-keyboard-response", "trial_index": 182, "time_elapsed": 398123, "internal_node_id": "0.0-6.0-87.0"}}, {"uniqueid": "w38795424:a41771334", "current_trial": 183, "dateTime": 1664555708905, "trialdata": {"rt": 1902, "stimulus": "<p id='stroop-text' class='stroop-red'>YELLOW</p>", "response": "r", "stimulus-type": "incongruent", "word": "yellow", "color": "red", "correct_response": "r", "trial_id": "stroop-trial-1-incongruent-26", "trial_type": "html-keyboard-response", "trial_index": 183, "time_elapsed": 400532, "internal_node_id": "0.0-6.0-88.0"}}, {"uniqueid": "w38795424:a41771334", "current_trial": 184, "dateTime": 1664555710165, "trialdata": {"rt": 755, "stimulus": "<p id='stroop-text' class='stroop-yellow'>CHAIR</p>", "response": "b", "stimulus-type": "unrelated", "word": "CHAIR", "color": "yellow", "correct_response": "y", "trial_id": "stroop-trial-1-unrelated-6", "trial_type": "html-keyboard-response", "trial_index": 184, "time_elapsed": 401793, "internal_node_id": "0.0-6.0-89.0"}}, {"uniqueid": "w38795424:a41771334", "current_trial": 185, "dateTime": 1664555713025, "trialdata": {"rt": 2355, "stimulus": "  <h1> End of block! </h1>\n\n  You have reached the end of the block 2/5. If you need a short break, feel free to take one now before moving on.\n\n  <br><br>\n  In the next block, you will complete another 90 rounds of this game.\n\n  <br><br>\n  <div style='text-align: center;'>Press <code>space</code> to begin.</div>\n  <br><br>\n<div style='text-align: center;'>(If the experiment doesn't continue, try clicking on the text and then pressing <code>space</code>.)</div>", "response": " ", "trial_id": "stroop_1_ready_3", "trial_type": "html-keyboard-response", "trial_index": 185, "time_elapsed": 404653, "internal_node_id": "0.0-7.0"}}, {"uniqueid": "w38795424:a41771334", "current_trial": 186, "dateTime": 1664555714352, "trialdata": {"rt": 1321, "stimulus": "<p id='stroop-text' class='stroop-red'>GREEN</p>", "response": "r", "stimulus-type": "incongruent", "word": "green", "color": "red", "correct_response": "r", "trial_id": "stroop-trial-1-incongruent-8", "trial_type": "html-keyboard-response", "trial_index": 186, "time_elapsed": 405979, "internal_node_id": "0.0-8.0-0.0"}}, {"uniqueid": "w38795424:a41771334", "current_trial": 187, "dateTime": 1664555715965, "trialdata": {"rt": 1107, "stimulus": "<p id='stroop-text' class='stroop-green'>GREEN</p>", "response": "g", "stimulus-type": "congruent", "word": "green", "color": "green", "correct_response": "g", "trial_id": "stroop-trial-1-congruent-7", "trial_type": "html-keyboard-response", "trial_index": 187, "time_elapsed": 407592, "internal_node_id": "0.0-8.0-1.0"}}, {"uniqueid": "w38795424:a41771334", "current_trial": 188, "dateTime": 1664555717067, "trialdata": {"rt": 593, "stimulus": "<p id='stroop-text' class='stroop-green'>WINDOW</p>", "response": "g", "stimulus-type": "unrelated", "word": "WINDOW", "color": "green", "correct_response": "g", "trial_id": "stroop-trial-1-unrelated-1", "trial_type": "html-keyboard-response", "trial_index": 188, "time_elapsed": 408694, "internal_node_id": "0.0-8.0-2.0"}}, {"uniqueid": "w38795424:a41771334", "current_trial": 189, "dateTime": 1664555718203, "trialdata": {"rt": 630, "stimulus": "<p id='stroop-text' class='stroop-red'>FORK</p>", "response": "r", "stimulus-type": "unrelated", "word": "FORK", "color": "red", "correct_response": "r", "trial_id": "stroop-trial-1-unrelated-29", "trial_type": "html-keyboard-response", "trial_index": 189, "time_elapsed": 409831, "internal_node_id": "0.0-8.0-3.0"}}, {"uniqueid": "w38795424:a41771334", "current_trial": 190, "dateTime": 1664555719150, "trialdata": {"rt": 436, "stimulus": "<p id='stroop-text' class='stroop-green'>GREEN</p>", "response": "g", "stimulus-type": "congruent", "word": "green", "color": "green", "correct_response": "g", "trial_id": "stroop-trial-1-congruent-11", "trial_type": "html-keyboard-response", "trial_index": 190, "time_elapsed": 410778, "internal_node_id": "0.0-8.0-4.0"}}, {"uniqueid": "w38795424:a41771334", "current_trial": 191, "dateTime": 1664555720081, "trialdata": {"rt": 423, "stimulus": "<p id='stroop-text' class='stroop-red'>RED</p>", "response": "r", "stimulus-type": "congruent", "word": "red", "color": "red", "correct_response": "r", "trial_id": "stroop-trial-1-congruent-20", "trial_type": "html-keyboard-response", "trial_index": 191, "time_elapsed": 411708, "internal_node_id": "0.0-8.0-5.0"}}, {"uniqueid": "w38795424:a41771334", "current_trial": 192, "dateTime": 1664555722003, "trialdata": {"rt": 1416, "stimulus": "<p id='stroop-text' class='stroop-yellow'>BLUE</p>", "response": "y", "stimulus-type": "incongruent", "word": "blue", "color": "yellow", "correct_response": "y", "trial_id": "stroop-trial-1-incongruent-7", "trial_type": "html-keyboard-response", "trial_index": 192, "time_elapsed": 413631, "internal_node_id": "0.0-8.0-6.0"}}, {"uniqueid": "w38795424:a41771334", "current_trial": 193, "dateTime": 1664555723481, "trialdata": {"rt": 969, "stimulus": "<p id='stroop-text' class='stroop-green'>DOG</p>", "response": "g", "stimulus-type": "unrelated", "word": "DOG", "color": "green", "correct_response": "g", "trial_id": "stroop-trial-1-unrelated-11", "trial_type": "html-keyboard-response", "trial_index": 193, "time_elapsed": 415108, "internal_node_id": "0.0-8.0-7.0"}}, {"uniqueid": "w38795424:a41771334", "current_trial": 194, "dateTime": 1664555724547, "trialdata": {"rt": 559, "stimulus": "<p id='stroop-text' class='stroop-green'>GREEN</p>", "response": "g", "stimulus-type": "congruent", "word": "green", "color": "green", "correct_response": "g", "trial_id": "stroop-trial-1-congruent-15", "trial_type": "html-keyboard-response", "trial_index": 194, "time_elapsed": 416175, "internal_node_id": "0.0-8.0-8.0"}}, {"uniqueid": "w38795424:a41771334", "current_trial": 195, "dateTime": 1664555725779, "trialdata": {"rt": 723, "stimulus": "<p id='stroop-text' class='stroop-blue'>MONKEY</p>", "response": "b", "stimulus-type": "unrelated", "word": "MONKEY", "color": "blue", "correct_response": "b", "trial_id": "stroop-trial-1-unrelated-6", "trial_type": "html-keyboard-response", "trial_index": 195, "time_elapsed": 417406, "internal_node_id": "0.0-8.0-9.0"}}, {"uniqueid": "w38795424:a41771334", "current_trial": 196, "dateTime": 1664555727000, "trialdata": {"rt": 716, "stimulus": "<p id='stroop-text' class='stroop-green'>RED</p>", "response": "g", "stimulus-type": "incongruent", "word": "red", "color": "green", "correct_response": "g", "trial_id": "stroop-trial-1-incongruent-6", "trial_type": "html-keyboard-response", "trial_index": 196, "time_elapsed": 418627, "internal_node_id": "0.0-8.0-10.0"}}, {"uniqueid": "w38795424:a41771334", "current_trial": 197, "dateTime": 1664555727912, "trialdata": {"rt": 407, "stimulus": "<p id='stroop-text' class='stroop-blue'>BRIDGE</p>", "response": "b", "stimulus-type": "unrelated", "word": "BRIDGE", "color": "blue", "correct_response": "b", "trial_id": "stroop-trial-1-unrelated-20", "trial_type": "html-keyboard-response", "trial_index": 197, "time_elapsed": 419539, "internal_node_id": "0.0-8.0-11.0"}}, {"uniqueid": "w38795424:a41771334", "current_trial": 198, "dateTime": 1664555729208, "trialdata": {"rt": 788, "stimulus": "<p id='stroop-text' class='stroop-red'>MONKEY</p>", "response": "r", "stimulus-type": "unrelated", "word": "MONKEY", "color": "red", "correct_response": "r", "trial_id": "stroop-trial-1-unrelated-25", "trial_type": "html-keyboard-response", "trial_index": 198, "time_elapsed": 420836, "internal_node_id": "0.0-8.0-12.0"}}, {"uniqueid": "w38795424:a41771334", "current_trial": 199, "dateTime": 1664555730795, "trialdata": {"rt": 1074, "stimulus": "<p id='stroop-text' class='stroop-yellow'>CHAIR</p>", "response": "y", "stimulus-type": "unrelated", "word": "CHAIR", "color": "yellow", "correct_response": "y", "trial_id": "stroop-trial-1-unrelated-3", "trial_type": "html-keyboard-response", "trial_index": 199, "time_elapsed": 422423, "internal_node_id": "0.0-8.0-13.0"}}, {"uniqueid": "w38795424:a41771334", "current_trial": 200, "dateTime": 1664555733213, "trialdata": {"rt": 1905, "stimulus": "<p id='stroop-text' class='stroop-green'>BLUE</p>", "response": "g", "stimulus-type": "incongruent", "word": "blue", "color": "green", "correct_response": "g", "trial_id": "stroop-trial-1-incongruent-13", "trial_type": "html-keyboard-response", "trial_index": 200, "time_elapsed": 424840, "internal_node_id": "0.0-8.0-14.0"}}, {"uniqueid": "w38795424:a41771334", "current_trial": 201, "dateTime": 1664555734336, "trialdata": {"rt": 617, "stimulus": "<p id='stroop-text' class='stroop-red'>RED</p>", "response": "r", "stimulus-type": "congruent", "word": "red", "color": "red", "correct_response": "r", "trial_id": "stroop-trial-1-congruent-3", "trial_type": "html-keyboard-response", "trial_index": 201, "time_elapsed": 425964, "internal_node_id": "0.0-8.0-15.0"}}, {"uniqueid": "w38795424:a41771334", "current_trial": 202, "dateTime": 1664555735523, "trialdata": {"rt": 682, "stimulus": "<p id='stroop-text' class='stroop-yellow'>YELLOW</p>", "response": "y", "stimulus-type": "congruent", "word": "yellow", "color": "yellow", "correct_response": "y", "trial_id": "stroop-trial-1-congruent-27", "trial_type": "html-keyboard-response", "trial_index": 202, "time_elapsed": 427150, "internal_node_id": "0.0-8.0-16.0"}}, {"uniqueid": "w38795424:a41771334", "current_trial": 203, "dateTime": 1664555737365, "trialdata": {"rt": 1334, "stimulus": "<p id='stroop-text' class='stroop-green'>BLUE</p>", "response": "g", "stimulus-type": "incongruent", "word": "blue", "color": "green", "correct_response": "g", "trial_id": "stroop-trial-1-incongruent-1", "trial_type": "html-keyboard-response", "trial_index": 203, "time_elapsed": 428992, "internal_node_id": "0.0-8.0-17.0"}}, {"uniqueid": "w38795424:a41771334", "current_trial": 204, "dateTime": 1664555738446, "trialdata": {"rt": 574, "stimulus": "<p id='stroop-text' class='stroop-green'>CHAIR</p>", "response": "g", "stimulus-type": "unrelated", "word": "CHAIR", "color": "green", "correct_response": "g", "trial_id": "stroop-trial-1-unrelated-4", "trial_type": "html-keyboard-response", "trial_index": 204, "time_elapsed": 430074, "internal_node_id": "0.0-8.0-18.0"}}, {"uniqueid": "w38795424:a41771334", "current_trial": 205, "dateTime": 1664555739482, "trialdata": {"rt": 526, "stimulus": "<p id='stroop-text' class='stroop-red'>WINDOW</p>", "response": "r", "stimulus-type": "unrelated", "word": "WINDOW", "color": "red", "correct_response": "r", "trial_id": "stroop-trial-1-unrelated-12", "trial_type": "html-keyboard-response", "trial_index": 205, "time_elapsed": 431109, "internal_node_id": "0.0-8.0-19.0"}}, {"uniqueid": "w38795424:a41771334", "current_trial": 206, "dateTime": 1664555740544, "trialdata": {"rt": 557, "stimulus": "<p id='stroop-text' class='stroop-blue'>BLUE</p>", "response": "b", "stimulus-type": "congruent", "word": "blue", "color": "blue", "correct_response": "b", "trial_id": "stroop-trial-1-congruent-13", "trial_type": "html-keyboard-response", "trial_index": 206, "time_elapsed": 432172, "internal_node_id": "0.0-8.0-20.0"}}, {"uniqueid": "w38795424:a41771334", "current_trial": 207, "dateTime": 1664555741953, "trialdata": {"rt": 902, "stimulus": "<p id='stroop-text' class='stroop-green'>YELLOW</p>", "response": "g", "stimulus-type": "incongruent", "word": "yellow", "color": "green", "correct_response": "g", "trial_id": "stroop-trial-1-incongruent-16", "trial_type": "html-keyboard-response", "trial_index": 207, "time_elapsed": 433579, "internal_node_id": "0.0-8.0-21.0"}}, {"uniqueid": "w38795424:a41771334", "current_trial": 208, "dateTime": 1664555743308, "trialdata": {"rt": 849, "stimulus": "<p id='stroop-text' class='stroop-blue'>WINDOW</p>", "response": "b", "stimulus-type": "unrelated", "word": "WINDOW", "color": "blue", "correct_response": "b", "trial_id": "stroop-trial-1-unrelated-16", "trial_type": "html-keyboard-response", "trial_index": 208, "time_elapsed": 434935, "internal_node_id": "0.0-8.0-22.0"}}, {"uniqueid": "w38795424:a41771334", "current_trial": 209, "dateTime": 1664555745823, "trialdata": {"rt": 2008, "stimulus": "<p id='stroop-text' class='stroop-red'>GREEN</p>", "response": "r", "stimulus-type": "incongruent", "word": "green", "color": "red", "correct_response": "r", "trial_id": "stroop-trial-1-incongruent-9", "trial_type": "html-keyboard-response", "trial_index": 209, "time_elapsed": 437450, "internal_node_id": "0.0-8.0-23.0"}}, {"uniqueid": "w38795424:a41771334", "current_trial": 210, "dateTime": 1664555746859, "trialdata": {"rt": 529, "stimulus": "<p id='stroop-text' class='stroop-red'>RED</p>", "response": "r", "stimulus-type": "congruent", "word": "red", "color": "red", "correct_response": "r", "trial_id": "stroop-trial-1-congruent-18", "trial_type": "html-keyboard-response", "trial_index": 210, "time_elapsed": 438486, "internal_node_id": "0.0-8.0-24.0"}}, {"uniqueid": "w38795424:a41771334", "current_trial": 211, "dateTime": 1664555748010, "trialdata": {"rt": 646, "stimulus": "<p id='stroop-text' class='stroop-yellow'>GREEN</p>", "response": "y", "stimulus-type": "incongruent", "word": "green", "color": "yellow", "correct_response": "y", "trial_id": "stroop-trial-1-incongruent-5", "trial_type": "html-keyboard-response", "trial_index": 211, "time_elapsed": 439638, "internal_node_id": "0.0-8.0-25.0"}}, {"uniqueid": "w38795424:a41771334", "current_trial": 212, "dateTime": 1664555749643, "trialdata": {"rt": 1124, "stimulus": "<p id='stroop-text' class='stroop-red'>STONE</p>", "response": "r", "stimulus-type": "unrelated", "word": "STONE", "color": "red", "correct_response": "r", "trial_id": "stroop-trial-1-unrelated-24", "trial_type": "html-keyboard-response", "trial_index": 212, "time_elapsed": 441270, "internal_node_id": "0.0-8.0-26.0"}}, {"uniqueid": "w38795424:a41771334", "current_trial": 213, "dateTime": 1664555751400, "trialdata": {"rt": 1249, "stimulus": "<p id='stroop-text' class='stroop-green'>YELLOW</p>", "response": "g", "stimulus-type": "incongruent", "word": "yellow", "color": "green", "correct_response": "g", "trial_id": "stroop-trial-1-incongruent-26", "trial_type": "html-keyboard-response", "trial_index": 213, "time_elapsed": 443027, "internal_node_id": "0.0-8.0-27.0"}}, {"uniqueid": "w38795424:a41771334", "current_trial": 214, "dateTime": 1664555752650, "trialdata": {"rt": 745, "stimulus": "<p id='stroop-text' class='stroop-red'>BOTTLE</p>", "response": "r", "stimulus-type": "unrelated", "word": "BOTTLE", "color": "red", "correct_response": "r", "trial_id": "stroop-trial-1-unrelated-5", "trial_type": "html-keyboard-response", "trial_index": 214, "time_elapsed": 444278, "internal_node_id": "0.0-8.0-28.0"}}, {"uniqueid": "w38795424:a41771334", "current_trial": 215, "dateTime": 1664555753788, "trialdata": {"rt": 631, "stimulus": "<p id='stroop-text' class='stroop-blue'>SHIP</p>", "response": "b", "stimulus-type": "unrelated", "word": "SHIP", "color": "blue", "correct_response": "b", "trial_id": "stroop-trial-1-unrelated-21", "trial_type": "html-keyboard-response", "trial_index": 215, "time_elapsed": 445416, "internal_node_id": "0.0-8.0-29.0"}}, {"uniqueid": "w38795424:a41771334", "current_trial": 216, "dateTime": 1664555755065, "trialdata": {"rt": 769, "stimulus": "<p id='stroop-text' class='stroop-red'>WINDOW</p>", "response": "r", "stimulus-type": "unrelated", "word": "WINDOW", "color": "red", "correct_response": "r", "trial_id": "stroop-trial-1-unrelated-14", "trial_type": "html-keyboard-response", "trial_index": 216, "time_elapsed": 446692, "internal_node_id": "0.0-8.0-30.0"}}, {"uniqueid": "w38795424:a41771334", "current_trial": 217, "dateTime": 1664555756143, "trialdata": {"rt": 567, "stimulus": "<p id='stroop-text' class='stroop-blue'>BLUE</p>", "response": "g", "stimulus-type": "congruent", "word": "blue", "color": "blue", "correct_response": "b", "trial_id": "stroop-trial-1-congruent-16", "trial_type": "html-keyboard-response", "trial_index": 217, "time_elapsed": 447769, "internal_node_id": "0.0-8.0-31.0"}}, {"uniqueid": "w38795424:a41771334", "current_trial": 218, "dateTime": 1664555757413, "trialdata": {"rt": 762, "stimulus": "<p id='stroop-text' class='stroop-green'>WINDOW</p>", "response": "b", "stimulus-type": "unrelated", "word": "WINDOW", "color": "green", "correct_response": "g", "trial_id": "stroop-trial-1-unrelated-7", "trial_type": "html-keyboard-response", "trial_index": 218, "time_elapsed": 449040, "internal_node_id": "0.0-8.0-32.0"}}, {"uniqueid": "w38795424:a41771334", "current_trial": 219, "dateTime": 1664555758735, "trialdata": {"rt": 813, "stimulus": "<p id='stroop-text' class='stroop-red'>GREEN</p>", "response": "r", "stimulus-type": "incongruent", "word": "green", "color": "red", "correct_response": "r", "trial_id": "stroop-trial-1-incongruent-12", "trial_type": "html-keyboard-response", "trial_index": 219, "time_elapsed": 450362, "internal_node_id": "0.0-8.0-33.0"}}, {"uniqueid": "w38795424:a41771334", "current_trial": 220, "dateTime": 1664555759836, "trialdata": {"rt": 591, "stimulus": "<p id='stroop-text' class='stroop-red'>YELLOW</p>", "response": "r", "stimulus-type": "incongruent", "word": "yellow", "color": "red", "correct_response": "r", "trial_id": "stroop-trial-1-incongruent-30", "trial_type": "html-keyboard-response", "trial_index": 220, "time_elapsed": 451464, "internal_node_id": "0.0-8.0-34.0"}}, {"uniqueid": "w38795424:a41771334", "current_trial": 221, "dateTime": 1664555761743, "trialdata": {"rt": 1401, "stimulus": "<p id='stroop-text' class='stroop-blue'>GREEN</p>", "response": "b", "stimulus-type": "incongruent", "word": "green", "color": "blue", "correct_response": "b", "trial_id": "stroop-trial-1-incongruent-24", "trial_type": "html-keyboard-response", "trial_index": 221, "time_elapsed": 453371, "internal_node_id": "0.0-8.0-35.0"}}, {"uniqueid": "w38795424:a41771334", "current_trial": 222, "dateTime": 1664555763011, "trialdata": {"rt": 759, "stimulus": "<p id='stroop-text' class='stroop-red'>GREEN</p>", "response": "r", "stimulus-type": "incongruent", "word": "green", "color": "red", "correct_response": "r", "trial_id": "stroop-trial-1-incongruent-4", "trial_type": "htm