{"condition": 1, "counterbalance": 0, "assignmentId": "a63271289", "workerId": "w24155118", "hitId": "h33183533", "currenttrial": 29, "bonus": 0, "data": [{"uniqueid": "w24155118:a63271289", "current_trial": 0, "dateTime": 1664464014076, "trialdata": {"success": true, "trial_type": "fullscreen", "trial_index": 0, "time_elapsed": 2708, "internal_node_id": "0.0-0.0"}}, {"uniqueid": "w24155118:a63271289", "current_trial": 1, "dateTime": 1664464024629, "trialdata": {"view_history": [{"page_index": 0, "viewing_time": 10544}], "rt": 10545, "trial_id": "exp_instructions_no_distractor", "trial_type": "instructions", "trial_index": 1, "time_elapsed": 13262, "internal_node_id": "0.0-1.0"}}, {"uniqueid": "w24155118:a63271289", "current_trial": 2, "dateTime": 1664464029640, "trialdata": {"success": true, "trial_type": "fullscreen", "trial_index": 2, "time_elapsed": 18272, "internal_node_id": "0.0-2.0-0.0"}}, {"uniqueid": "w24155118:a63271289", "current_trial": 3, "dateTime": 1664464096397, "trialdata": {"view_history": [{"page_index": 0, "viewing_time": 28420}, {"page_index": 1, "viewing_time": 23385}, {"page_index": 2, "viewing_time": 4252}, {"page_index": 3, "viewing_time": 3653}, {"page_index": 4, "viewing_time": 7040}], "rt": 66750, "trial_id": "mouselab_instructions_1", "trial_type": "instructions", "trial_index": 3, "time_elapsed": 85030, "internal_node_id": "0.0-2.0-1.0"}}, {"uniqueid": "w24155118:a63271289", "current_trial": 4, "dateTime": 1664464111321, "trialdata": {"revealed_states": [], "num_clicks_accrued": [0, 0, 0, 0, 0, 0, 0, 0, 0, 0, 0, 0, 0], "stateRewards": ["", -10, 10, 10, -10, 10, -10, 10, -10, 10, 10, 10, 10], "withholdReward": false, "trial_id": "practice_1", "block": "test", "trialIndex": 0, "score": 11.25, "costs": -0.75, "simulationMode": [null, null, null], "rewards": [10, -10, 10], "path": ["0", "0", "5", "6", "7"], "rt": [6998, 990, 537], "actions": ["right", "right", "up"], "actionTimes": [8271, 9749, 10797], "queries": {"click": {"state": {"target": ["5", "9", "2"], "time": [4336, 6264, 7113]}, "edge": {"target": [], "time": []}}, "mouseover": {"state": {"target": ["5", "9", "1", "2"], "time": [4055, 5893, 6721, 6821]}, "edge": {"target": [], "time": []}}, "mouseout": {"state": {"target": ["0", "0", "5", "9", "1", "2"], "time": [742, 3838, 5138, 6672, 6754, 7307]}, "edge": {"target": [], "time": []}}}, "displayed_time": "11.31", "trialTime": 14591, "trial_type": "mouselab-mdp", "trial_index": 4, "time_elapsed": 99952, "internal_node_id": "0.0-2.0-2.0-0.0"}}, {"uniqueid": "w24155118:a63271289", "current_trial": 5, "dateTime": 1664464120627, "trialdata": {"revealed_states": [], "num_clicks_accrued": [0, 0, 0, 0, 0, 0, 0, 0, 0, 0, 0, 0, 0], "stateRewards": ["", -10, -10, 10, -10, 10, 10, -10, -10, 10, -10, 10, -10], "withholdReward": false, "trial_id": "practice_2", "block": "test", "trialIndex": 1, "score": -8, "costs": 0, "simulationMode": [null, null, null], "rewards": [-10, -10, 10], "path": ["0", "0", "1", "2", "3"], "rt": [1619, 291, 69], "actions": ["up", "up", "right"], "actionTimes": [5560, 6353, 6919], "queries": {"click": {"state": {"target": [], "time": []}, "edge": {"target": [], "time": []}}, "mouseover": {"state": {"target": [], "time": []}, "edge": {"target": [], "time": []}}, "mouseout": {"state": {"target": ["7", "5", "0"], "time": [3424, 3626, 8174]}, "edge": {"target": [], "time": []}}}, "displayed_time": "7.43", "trialTime": 9220, "trial_type": "mouselab-mdp", "trial_index": 5, "time_elapsed": 109260, "internal_node_id": "0.0-2.0-2.0-1.0"}}, {"uniqueid": "w24155118:a63271289", "current_trial": 6, "dateTime": 1664464143108, "trialdata": {"view_history": [{"page_index": 0, "viewing_time": 4964}, {"page_index": 1, "viewing_time": 4716}, {"page_index": 2, "viewing_time": 12786}], "rt": 22467, "trial_id": "mouselab_instructions_2_scarce", "trial_type": "instructions", "trial_index": 6, "time_elapsed": 131741, "internal_node_id": "0.0-2.0-3.0"}}, {"uniqueid": "w24155118:a63271289", "current_trial": 7, "dateTime": 1664464230061, "trialdata": {"rt": 86940, "response": {"Q0": "$-10 to $10", "Q1": "The cost for clicking on nodes varies between nodes.", "Q2": "I will receive a $1 bonus if I perform well, otherwise I will receive no bonus.", "Q3": "No, the amount of cash at each node of the web may be different each time.", "Q4": "The values of the nodes walked through from start to finish.", "Q5": "Yes."}, "question_order": [0, 1, 2, 3, 4, 5], "correct": {"Q0": "$-48 to $48", "Q1": "The cost is always $0.25.", "Q2": "The better I perform the higher my bonus will be.", "Q3": "No, the amount of cash at each node of the web may be different each time.", "Q4": "The values of the nodes walked through from start to finish.", "Q5": "No, the spider might forget to count the money on some rounds."}, "trial_id": "mouselab_quiz_scarce", "trial_type": "survey-multi-choice", "trial_index": 7, "time_elapsed": 218694, "internal_node_id": "0.0-2.0-4.0"}}, {"uniqueid": "w24155118:a63271289", "current_trial": 8, "dateTime": 1664464239246, "trialdata": {"success": true, "trial_type": "fullscreen", "trial_index": 8, "time_elapsed": 227878, "internal_node_id": "0.0-2.1-0.1"}}, {"uniqueid": "w24155118:a63271289", "current_trial": 9, "dateTime": 1664464303602, "trialdata": {"view_history": [{"page_index": 0, "viewing_time": 29757}, {"page_index": 1, "viewing_time": 11449}, {"page_index": 2, "viewing_time": 9581}, {"page_index": 3, "viewing_time": 5421}, {"page_index": 4, "viewing_time": 8142}], "rt": 64351, "trial_id": "mouselab_instructions_1", "trial_type": "instructions", "trial_index": 9, "time_elapsed": 292235, "internal_node_id": "0.0-2.1-1.1"}}, {"uniqueid": "w24155118:a63271289", "current_trial": 10, "dateTime": 1664464313066, "trialdata": {"revealed_states": [], "num_clicks_accrued": [0, 0, 0, 0, 0, 0, 0, 0, 0, 0, 0, 0, 0], "stateRewards": ["", -10, 10, 10, -10, 10, -10, 10, -10, 10, 10, 10, 10], "withholdReward": false, "trial_id": "practice_1", "block": "test", "trialIndex": 2, "score": 12, "costs": 0, "simulationMode": [null, null, null], "rewards": [10, -10, 10], "path": ["0", "0", "5", "6", "7"], "rt": [811, 315, 4064], "actions": ["right", "right", "up"], "actionTimes": [2146, 2955, 7539], "queries": {"click": {"state": {"target": [], "time": []}, "edge": {"target": [], "time": []}}, "mouseover": {"state": {"target": [], "time": []}, "edge": {"target": [], "time": []}}, "mouseout": {"state": {"target": ["5", "0", "5", "6"], "time": [712, 3808, 3838, 4354]}, "edge": {"target": [], "time": []}}}, "displayed_time": "8.04", "trialTime": 9364, "trial_type": "mouselab-mdp", "trial_index": 10, "time_elapsed": 301699, "internal_node_id": "0.0-2.1-2.1-0.1"}}, {"uniqueid": "w24155118:a63271289", "current_trial": 11, "dateTime": 1664464319410, "trialdata": {"revealed_states": [], "num_clicks_accrued": [0, 0, 0, 0, 0, 0, 0, 0, 0, 0, 0, 0, 0], "stateRewards": ["", -10, -10, 10, -10, 10, 10, -10, -10, 10, -10, 10, -10], "withholdReward": false, "trial_id": "practice_2", "block": "test", "trialIndex": 3, "score": -28, "costs": 0, "simulationMode": [null, null, null], "rewards": [-10, -10, -10], "path": ["0", "0", "1", "2", "4"], "rt": [1008, 239, 129], "actions": ["up", "up", "left"], "actionTimes": [2471, 3220, 3857], "queries": {"click": {"state": {"target": [], "time": []}, "edge": {"target": [], "time": []}}, "mouseover": {"state": {"target": [], "time": []}, "edge": {"target": [], "time": []}}, "mouseout": {"state": {"target": ["0"], "time": [5610]}, "edge": {"target": [], "time": []}}}, "displayed_time": "4.34", "trialTime": 6249, "trial_type": "mouselab-mdp", "trial_index": 11, "time_elapsed": 308043, "internal_node_id": "0.0-2.1-2.1-1.1"}}, {"uniqueid": "w24155118:a63271289", "current_trial": 12, "dateTime": 1664464349815, "trialdata": {"view_history": [{"page_index": 0, "viewing_time": 16046}, {"page_index": 1, "viewing_time": 12036}, {"page_index": 2, "viewing_time": 2320}], "rt": 30403, "trial_id": "mouselab_instructions_2_scarce", "trial_type": "instructions", "trial_index": 12, "time_elapsed": 338448, "internal_node_id": "0.0-2.1-3.1"}}, {"uniqueid": "w24155118:a63271289", "current_trial": 13, "dateTime": 1664464538200, "trialdata": {"rt": 188382, "response": {"Q0": "$-48 to $48", "Q1": "The cost is always $0.25.", "Q2": "The better I perform the higher my bonus will be.", "Q3": "No, the amount of cash at each node of the web may be different each time.", "Q4": "The values of the nodes walked through from start to finish.", "Q5": "Yes."}, "question_order": [0, 1, 2, 3, 4, 5], "correct": {"Q0": "$-48 to $48", "Q1": "The cost is always $0.25.", "Q2": "The better I perform the higher my bonus will be.", "Q3": "No, the amount of cash at each node of the web may be different each time.", "Q4": "The values of the nodes walked through from start to finish.", "Q5": "No, the spider might forget to count the money on some rounds."}, "trial_id": "mouselab_quiz_scarce", "trial_type": "survey-multi-choice", "trial_index": 13, "time_elapsed": 526833, "internal_node_id": "0.0-2.1-4.1"}}, {"uniqueid": "w24155118:a63271289", "current_trial": 14, "dateTime": 1664464548105, "trialdata": {"success": true, "trial_type": "fullscreen", "trial_index": 14, "time_elapsed": 536738, "internal_node_id": "0.0-2.2-0.2"}}, {"uniqueid": "w24155118:a63271289", "current_trial": 15, "dateTime": 1664464632221, "trialdata": {"view_history": [{"page_index": 0, "viewing_time": 25024}, {"page_index": 1, "viewing_time": 8499}, {"page_index": 2, "viewing_time": 12072}, {"page_index": 3, "viewing_time": 3271}, {"page_index": 4, "viewing_time": 35245}], "rt": 84112, "trial_id": "mouselab_instructions_1", "trial_type": "instructions", "trial_index": 15, "time_elapsed": 620854, "internal_node_id": "0.0-2.2-1.2"}}, {"uniqueid": "w24155118:a63271289", "current_trial": 16, "dateTime": 1664464644765, "trialdata": {"revealed_states": [], "num_clicks_accrued": [0, 0, 0, 0, 0, 0, 0, 0, 0, 0, 0, 0, 0], "stateRewards": ["", -10, 10, 10, -10, 10, -10, 10, -10, 10, 10, 10, 10], "withholdReward": false, "trial_id": "practice_1", "block": "test", "trialIndex": 4, "score": 12, "costs": 0, "simulationMode": [null, null, null, null], "rewards": [-10, 10, 10], "path": ["0", "0", "1", "2", "3"], "rt": [1735, 1299, 166, 123], "actions": ["right", "up", "up", "right"], "actionTimes": [null, 1300, 1962, 2603], "queries": {"click": {"state": {"target": [], "time": []}, "edge": {"target": [], "time": []}}, "mouseover": {"state": {"target": [], "time": []}, "edge": {"target": [], "time": []}}, "mouseout": {"state": {"target": ["0", "0", "1", "1", "0"], "time": [null, null, 529, 3533, 3546]}, "edge": {"target": [], "time": []}}}, "displayed_time": "3.11", "trialTime": 4328, "trial_type": "mouselab-mdp", "trial_index": 16, "time_elapsed": 633397, "internal_node_id": "0.0-2.2-2.2-0.2"}}, {"uniqueid": "w24155118:a63271289", "current_trial": 17, "dateTime": 1664464649693, "trialdata": {"revealed_states": [], "num_clicks_accrued": [0, 0, 0, 0, 0, 0, 0, 0, 0, 0, 0, 0, 0], "stateRewards": ["", -10, -10, 10, -10, 10, 10, -10, -10, 10, -10, 10, -10], "withholdReward": false, "trial_id": "practice_2", "block": "test", "trialIndex": 5, "score": -8, "costs": 0, "simulationMode": [null, null, null], "rewards": [-10, -10, 10], "path": ["0", "0", "1", "2", "3"], "rt": [505, 428, 7], "actions": ["up", "up", "right"], "actionTimes": [1838, 2762, 3287], "queries": {"click": {"state": {"target": [], "time": []}, "edge": {"target": [], "time": []}}, "mouseover": {"state": {"target": [], "time": []}, "edge": {"target": [], "time": []}}, "mouseout": {"state": {"target": ["0"], "time": [4418]}, "edge": {"target": [], "time": []}}}, "displayed_time": "3.81", "trialTime": 4842, "trial_type": "mouselab-mdp", "trial_index": 17, "time_elapsed": 638326, "internal_node_id": "0.0-2.2-2.2-1.2"}}, {"uniqueid": "w24155118:a63271289", "current_trial": 18, "dateTime": 1664464692013, "trialdata": {"view_history": [{"page_index": 0, "viewing_time": 37505}, {"page_index": 1, "viewing_time": 3252}, {"page_index": 2, "viewing_time": 1557}], "rt": 42315, "trial_id": "mouselab_instructions_2_scarce", "trial_type": "instructions", "trial_index": 18, "time_elapsed": 680646, "internal_node_id": "0.0-2.2-3.2"}}, {"uniqueid": "w24155118:a63271289", "current_trial": 19, "dateTime": 1664464741655, "trialdata": {"rt": 49634, "response": {"Q0": "$-48 to $48", "Q1": "The cost is always $0.25.", "Q2": "The better I perform the higher my bonus will be.", "Q3": "No, the amount of cash at each node of the web may be different each time.", "Q4": "The values of the nodes walked through from start to finish.", "Q5": "No, the score will only be displayed once at the end of the game."}, "question_order": [0, 1, 2, 3, 4, 5], "correct": {"Q0": "$-48 to $48", "Q1": "The cost is always $0.25.", "Q2": "The better I perform the higher my bonus will be.", "Q3": "No, the amount of cash at each node of the web may be different each time.", "Q4": "The values of the nodes walked through from start to finish.", "Q5": "No, the spider might forget to count the money on some rounds."}, "trial_id": "mouselab_quiz_scarce", "trial_type": "survey-multi-choice", "trial_index": 19, "time_elapsed": 730288, "internal_node_id": "0.0-2.2-4.2"}}, {"uniqueid": "w24155118:a63271289", "current_trial": 20, "dateTime": 1664464748688, "trialdata": {"success": true, "trial_type": "fullscreen", "trial_index": 20, "time_elapsed": 737321, "internal_node_id": "0.0-2.3-0.3"}}, {"uniqueid": "w24155118:a63271289", "current_trial": 21, "dateTime": 1664464759636, "trialdata": {"view_history": [{"page_index": 0, "viewing_time": 2973}, {"page_index": 1, "viewing_time": 760}, {"page_index": 2, "viewing_time": 3718}, {"page_index": 3, "viewing_time": 1731}, {"page_index": 4, "viewing_time": 1759}], "rt": 10942, "trial_id": "mouselab_instructions_1", "trial_type": "instructions", "trial_index": 21, "time_elapsed": 748269, "internal_node_id": "0.0-2.3-1.3"}}, {"uniqueid": "w24155118:a63271289", "current_trial": 22, "dateTime": 1664464766653, "trialdata": {"revealed_states": [], "num_clicks_accrued": [0, 0, 0, 0, 0, 0, 0, 0, 0, 0, 0, 0, 0], "stateRewards": ["", -10, 10, 10, -10, 10, -10, 10, -10, 10, 10, 10, 10], "withholdReward": false, "trial_id": "practice_1", "block": "test", "trialIndex": 6, "score": 12, "costs": 0, "simulationMode": [null, null, null], "rewards": [-10, 10, 10], "path": ["0", "0", "1", "2", "3"], "rt": [836, 158, 131], "actions": ["up", "up", "right"], "actionTimes": [2591, 3262, 3897], "queries": {"click": {"state": {"target": [], "time": []}, "edge": {"target": [], "time": []}}, "mouseover": {"state": {"target": [], "time": []}, "edge": {"target": [], "time": []}}, "mouseout": {"state": {"target": ["0", "1"], "time": [1215, 1431]}, "edge": {"target": [], "time": []}}}, "displayed_time": "4.41", "trialTime": 6935, "trial_type": "mouselab-mdp", "trial_index": 22, "time_elapsed": 755286, "internal_node_id": "0.0-2.3-2.3-0.3"}}, {"uniqueid": "w24155118:a63271289", "current_trial": 23, "dateTime": 1664464772725, "trialdata": {"revealed_states": [], "num_clicks_accrued": [0, 0, 0, 0, 0, 0, 0, 0, 0, 0, 0, 0, 0], "stateRewards": ["", -10, -10, 10, -10, 10, 10, -10, -10, 10, -10, 10, -10], "withholdReward": false, "trial_id": "practice_2", "block": "test", "trialIndex": 7, "score": -28, "costs": 0, "simulationMode": [null, null, null], "rewards": [-10, -10, -10], "path": ["0", "0", "1", "2", "4"], "rt": [659, 232, 311], "actions": ["up", "up", "left"], "actionTimes": [2951, 3675, 4486], "queries": {"click": {"state": {"target": [], "time": []}, "edge": {"target": [], "time": []}}, "mouseover": {"state": {"target": [], "time": []}, "edge": {"target": [], "time": []}}, "mouseout": {"state": {"target": ["0"], "time": [1996]}, "edge": {"target": [], "time": []}}}, "displayed_time": "4.99", "trialTime": 5982, "trial_type": "mouselab-mdp", "trial_index": 23, "time_elapsed": 761357, "internal_node_id": "0.0-2.3-2.3-1.3"}}, {"uniqueid": "w24155118:a63271289", "current_trial": 24, "dateTime": 1664464797961, "trialdata": {"view_history": [{"page_index": 0, "viewing_time": 21223}, {"page_index": 1, "viewing_time": 1901}, {"page_index": 2, "viewing_time": 2097}], "rt": 25222, "trial_id": "mouselab_instructions_2_scarce", "trial_type": "instructions", "trial_index": 24, "time_elapsed": 786594, "internal_node_id": "0.0-2.3-3.3"}}, {"uniqueid": "w24155118:a63271289", "current_trial": 25, "dateTime": 1664464866792, "trialdata": {"rt": 68822, "response": {"Q0": "$-10 to $10", "Q1": "The cost is always $0.25.", "Q2": "The better I perform the higher my bonus will be.", "Q3": "No, the amount of cash at each node of the web may be different each time.", "Q4": "The values of the nodes walked through from start to finish.", "Q5": "No, the score will only be displayed once at the end of the game."}, "question_order": [0, 1, 2, 3, 4, 5], "correct": {"Q0": "$-48 to $48", "Q1": "The cost is always $0.25.", "Q2": "The better I perform the higher my bonus will be.", "Q3": "No, the amount of cash at each node of the web may be different each time.", "Q4": "The values of the nodes walked through from start to finish.", "Q5": "No, the spider might forget to count the money on some rounds."}, "trial_id": "mouselab_quiz_scarce", "trial_type": "survey-multi-choice", "trial_index": 25, "time_elapsed": 855425, "internal_node_id": "0.0-2.3-4.3"}}, {"uniqueid": "w24155118:a63271289", "current_trial": 26, "dateTime": 1664464903548, "trialdata": {"rt": 36744, "response": {"Q0": "yeah to much information and details", "Q1": "27", "Q2": "female", "Q3": "no", "Q4": "no"}, "trial_id": "finish_fail_nodistractor", "trial_type": "survey-text", "trial_index": 26, "time_elapsed": 892181, "internal_node_id": "0.0-3.0-0.0"}}, {"uniqueid": "w24155118:a63271289", "current_trial": 27, "dateTime": 1664464905135, "trialdata": {"rt": 1581, "stimulus": "Press 'Finish HIT' in order to reach the completion code. Once the data has been saved, you will receive the code either in this window or in the original browser window where you started the experiment.\n", "response": 0, "trial_type": "html-button-response", "trial_index": 27, "time_elapsed": 893768, "internal_node_id": "0.0-6.0"}}, {"uniqueid": "w24155118:a63271289", "current_trial": 28, "dateTime": 1664464906138, "trialdata": {"success": true, "trial_type": "fullscreen", "trial_index": 28, "time_elapsed": 894770, "internal_node_id": "0.0-7.0"}}], "questiondata": {"params": {"CODE": "C6DMOQA6", "MIN_TIME": 7, "inspectCost": 0.25, "startTime": "Thu Sep 29 2022 16:06:50 GMT+0100 (Hora de ver\u00e3o da Europa Ocidental)", "bonusRate": 0.002, "variance": "2_4_24", "branching": "312"}, "final_score": 0}, "eventdata": [{"eventtype": "initialized", "value": null, "timestamp": 1664464010469, "interval": 0}, {"eventtype": "window_resize", "value": [1028, 758], "timestamp": 1664464010469, "interval": 0}, {"eventtype": "window_resize", "value": [1028, 758], "timestamp": 1664464010759, "interval": 290}, {"eventtype": "window_resize", "value": [1536, 864], "timestamp": 1664464013286, "interval": 2527}, {"eventtype": "focus", "value": "off", "timestamp": 1664464027033, "interval": 13747}, {"eventtype": "focus", "value": "on", "timestamp": 1664464028547, "interval": 1514}, {"eventtype": "focus", "value": "off", "timestamp": 1664464235631, "interval": 207084}, {"eventtype": "focus", "value": "on", "timestamp": 1664464235632, "interval": 1}, {"eventtype": "window_resize", "value": [1536, 772], "timestamp": 1664464235865, "interval": 233}, {"eventtype": "window_resize", "value": [1536, 864], "timestamp": 1664464238489, "interval": 2624}, {"eventtype": "focus", "value": "off", "timestamp": 1664464543556, "interval": 305067}, {"eventtype": "focus", "value": "on", "timestamp": 1664464543556, "interval": 0}, {"eventtype": "window_resize", "value": [1536, 772], "timestamp": 1664464543776, "interval": 220}, {"eventtype": "window_resize", "value": [1536, 864], "timestamp": 1664464547358, "interval": 3582}, {"eventtype": "focus", "value": "off", "timestamp": 1664464746133, "interval": 198775}, {"eventtype": "focus", "value": "on", "timestamp": 1664464746133, "interval": 0}, {"eventtype": "window_resize", "value": [1536, 772], "timestamp": 1664464746339, "interval": 206}, {"eventtype": "window_resize", "value": [1536, 864], "timestamp": 1664464747933, "interval": 1594}, {"eventtype": "window_resize", "value": [1536, 772], "timestamp": 1664464905366, "interval": 157433}], "useragent": "Mozilla/5.0 (Windows NT 10.0; Win64; x64) AppleWebKit/537.36 (KHTML, like Gecko) Chrome/105.0.0.0 Safari/537.36", "mode": "live", "id": "w24155118:a63271289", "status": "user data saved", "Beginhit": "2022-09-29 15:07:01.371608", "Beginexp": "2022-09-29 15:07:05.991028", "Endhit": "2022-09-29 15:21:58.471261", "psiturkStatus": 3, "browser": "<redacted>", "platform": "windows", "language": "pt-PT"}