{"condition": 0, "counterbalance": 0, "assignmentId": "a66406826", "workerId": "w51781759", "hitId": "h58895395", "currenttrial": 959, "bonus": 0, "data": [{"uniqueid": "w51781759:a66406826", "current_trial": 0, "dateTime": 1664472785663, "trialdata": {"success": true, "trial_type": "fullscreen", "trial_index": 0, "time_elapsed": 33491, "internal_node_id": "0.0-0.0"}}, {"uniqueid": "w51781759:a66406826", "current_trial": 1, "dateTime": 1664472797015, "trialdata": {"view_history": [{"page_index": 0, "viewing_time": 11346}], "rt": 11348, "trial_id": "exp_instructions_distractor", "trial_type": "instructions", "trial_index": 1, "time_elapsed": 44844, "internal_node_id": "0.0-1.0"}}, {"uniqueid": "w51781759:a66406826", "current_trial": 2, "dateTime": 1664472812474, "trialdata": {"view_history": [{"page_index": 0, "viewing_time": 15456}], "rt": 15457, "trial_id": "color_game_instructions", "trial_type": "instructions", "trial_index": 2, "time_elapsed": 60303, "internal_node_id": "0.0-2.0"}}, {"uniqueid": "w51781759:a66406826", "current_trial": 3, "dateTime": 1664472813970, "trialdata": {"rt": 1493, "stimulus": "<h1> Get ready to start the game! </h1>\n\nThank you for reading the instructions. Get ready start with the first of 5 block(s) of this game.\n<br><br>\nIn this first block, you will complete 90 rounds of this game before moving on.\n<br><br>\nRemember, the better you perform, the bigger your bonus will be!\n<br><br>\n<div style='text-align: center;'>Press <code>space</code> to begin.</div>", "response": " ", "trial_id": "stroop_1_ready_1", "trial_type": "html-keyboard-response", "trial_index": 3, "time_elapsed": 61798, "internal_node_id": "0.0-3.0"}}, {"uniqueid": "w51781759:a66406826", "current_trial": 4, "dateTime": 1664472814940, "trialdata": {"rt": 966, "stimulus": "<p id='stroop-text' class='stroop-yellow'>YELLOW</p>", "response": "y", "stimulus-type": "congruent", "word": "yellow", "color": "yellow", "correct_response": "y", "trial_id": "stroop-trial-1-congruent-16", "trial_type": "html-keyboard-response", "trial_index": 4, "time_elapsed": 62769, "internal_node_id": "0.0-4.0-0.0"}}, {"uniqueid": "w51781759:a66406826", "current_trial": 5, "dateTime": 1664472817159, "trialdata": {"rt": 1716, "stimulus": "<p id='stroop-text' class='stroop-green'>BRIDGE</p>", "response": "g", "stimulus-type": "unrelated", "word": "BRIDGE", "color": "green", "correct_response": "g", "trial_id": "stroop-trial-1-unrelated-16", "trial_type": "html-keyboard-response", "trial_index": 5, "time_elapsed": 64988, "internal_node_id": "0.0-4.0-1.0"}}, {"uniqueid": "w51781759:a66406826", "current_trial": 6, "dateTime": 1664472818425, "trialdata": {"rt": 763, "stimulus": "<p id='stroop-text' class='stroop-yellow'>WINDOW</p>", "response": "y", "stimulus-type": "unrelated", "word": "WINDOW", "color": "yellow", "correct_response": "y", "trial_id": "stroop-trial-1-unrelated-13", "trial_type": "html-keyboard-response", "trial_index": 6, "time_elapsed": 66254, "internal_node_id": "0.0-4.0-2.0"}}, {"uniqueid": "w51781759:a66406826", "current_trial": 7, "dateTime": 1664472820443, "trialdata": {"rt": 1515, "stimulus": "<p id='stroop-text' class='stroop-yellow'>BLUE</p>", "response": "y", "stimulus-type": "incongruent", "word": "blue", "color": "yellow", "correct_response": "y", "trial_id": "stroop-trial-1-incongruent-29", "trial_type": "html-keyboard-response", "trial_index": 7, "time_elapsed": 68271, "internal_node_id": "0.0-4.0-3.0"}}, {"uniqueid": "w51781759:a66406826", "current_trial": 8, "dateTime": 1664472821564, "trialdata": {"rt": 618, "stimulus": "<p id='stroop-text' class='stroop-yellow'>STONE</p>", "response": "y", "stimulus-type": "unrelated", "word": "STONE", "color": "yellow", "correct_response": "y", "trial_id": "stroop-trial-1-unrelated-14", "trial_type": "html-keyboard-response", "trial_index": 8, "time_elapsed": 69393, "internal_node_id": "0.0-4.0-4.0"}}, {"uniqueid": "w51781759:a66406826", "current_trial": 9, "dateTime": 1664472822947, "trialdata": {"rt": 880, "stimulus": "<p id='stroop-text' class='stroop-blue'>GREEN</p>", "response": "b", "stimulus-type": "incongruent", "word": "green", "color": "blue", "correct_response": "b", "trial_id": "stroop-trial-1-incongruent-18", "trial_type": "html-keyboard-response", "trial_index": 9, "time_elapsed": 70776, "internal_node_id": "0.0-4.0-5.0"}}, {"uniqueid": "w51781759:a66406826", "current_trial": 10, "dateTime": 1664472824204, "trialdata": {"rt": 754, "stimulus": "<p id='stroop-text' class='stroop-yellow'>BRIDGE</p>", "response": "y", "stimulus-type": "unrelated", "word": "BRIDGE", "color": "yellow", "correct_response": "y", "trial_id": "stroop-trial-1-unrelated-19", "trial_type": "html-keyboard-response", "trial_index": 10, "time_elapsed": 72033, "internal_node_id": "0.0-4.0-6.0"}}, {"uniqueid": "w51781759:a66406826", "current_trial": 11, "dateTime": 1664472825381, "trialdata": {"rt": 674, "stimulus": "<p id='stroop-text' class='stroop-yellow'>DOG</p>", "response": "y", "stimulus-type": "unrelated", "word": "DOG", "color": "yellow", "correct_response": "y", "trial_id": "stroop-trial-1-unrelated-7", "trial_type": "html-keyboard-response", "trial_index": 11, "time_elapsed": 73210, "internal_node_id": "0.0-4.0-7.0"}}, {"uniqueid": "w51781759:a66406826", "current_trial": 12, "dateTime": 1664472826318, "trialdata": {"rt": 434, "stimulus": "<p id='stroop-text' class='stroop-yellow'>GREEN</p>", "response": "y", "stimulus-type": "incongruent", "word": "green", "color": "yellow", "correct_response": "y", "trial_id": "stroop-trial-1-incongruent-28", "trial_type": "html-keyboard-response", "trial_index": 12, "time_elapsed": 74146, "internal_node_id": "0.0-4.0-8.0"}}, {"uniqueid": "w51781759:a66406826", "current_trial": 13, "dateTime": 1664472827260, "trialdata": {"rt": 439, "stimulus": "<p id='stroop-text' class='stroop-yellow'>YELLOW</p>", "response": "y", "stimulus-type": "congruent", "word": "yellow", "color": "yellow", "correct_response": "y", "trial_id": "stroop-trial-1-congruent-10", "trial_type": "html-keyboard-response", "trial_index": 13, "time_elapsed": 75088, "internal_node_id": "0.0-4.0-9.0"}}, {"uniqueid": "w51781759:a66406826", "current_trial": 14, "dateTime": 1664472828296, "trialdata": {"rt": 532, "stimulus": "<p id='stroop-text' class='stroop-blue'>BLUE</p>", "response": "b", "stimulus-type": "congruent", "word": "blue", "color": "blue", "correct_response": "b", "trial_id": "stroop-trial-1-congruent-7", "trial_type": "html-keyboard-response", "trial_index": 14, "time_elapsed": 76125, "internal_node_id": "0.0-4.0-10.0"}}, {"uniqueid": "w51781759:a66406826", "current_trial": 15, "dateTime": 1664472829448, "trialdata": {"rt": 647, "stimulus": "<p id='stroop-text' class='stroop-red'>FORK</p>", "response": "r", "stimulus-type": "unrelated", "word": "FORK", "color": "red", "correct_response": "r", "trial_id": "stroop-trial-1-unrelated-1", "trial_type": "html-keyboard-response", "trial_index": 15, "time_elapsed": 77277, "internal_node_id": "0.0-4.0-11.0"}}, {"uniqueid": "w51781759:a66406826", "current_trial": 16, "dateTime": 1664472830369, "trialdata": {"rt": 419, "stimulus": "<p id='stroop-text' class='stroop-red'>RED</p>", "response": "r", "stimulus-type": "congruent", "word": "red", "color": "red", "correct_response": "r", "trial_id": "stroop-trial-1-congruent-12", "trial_type": "html-keyboard-response", "trial_index": 16, "time_elapsed": 78198, "internal_node_id": "0.0-4.0-12.0"}}, {"uniqueid": "w51781759:a66406826", "current_trial": 17, "dateTime": 1664472831890, "trialdata": {"rt": 1018, "stimulus": "<p id='stroop-text' class='stroop-blue'>BLUE</p>", "response": "b", "stimulus-type": "congruent", "word": "blue", "color": "blue", "correct_response": "b", "trial_id": "stroop-trial-1-congruent-9", "trial_type": "html-keyboard-response", "trial_index": 17, "time_elapsed": 79719, "internal_node_id": "0.0-4.0-13.0"}}, {"uniqueid": "w51781759:a66406826", "current_trial": 18, "dateTime": 1664472832859, "trialdata": {"rt": 467, "stimulus": "<p id='stroop-text' class='stroop-red'>RED</p>", "response": "r", "stimulus-type": "congruent", "word": "red", "color": "red", "correct_response": "r", "trial_id": "stroop-trial-1-congruent-18", "trial_type": "html-keyboard-response", "trial_index": 18, "time_elapsed": 80688, "internal_node_id": "0.0-4.0-14.0"}}, {"uniqueid": "w51781759:a66406826", "current_trial": 19, "dateTime": 1664472833940, "trialdata": {"rt": 578, "stimulus": "<p id='stroop-text' class='stroop-green'>RED</p>", "response": "g", "stimulus-type": "incongruent", "word": "red", "color": "green", "correct_response": "g", "trial_id": "stroop-trial-1-incongruent-2", "trial_type": "html-keyboard-response", "trial_index": 19, "time_elapsed": 81769, "internal_node_id": "0.0-4.0-15.0"}}, {"uniqueid": "w51781759:a66406826", "current_trial": 20, "dateTime": 1664472835071, "trialdata": {"rt": 626, "stimulus": "<p id='stroop-text' class='stroop-red'>YELLOW</p>", "response": "r", "stimulus-type": "incongruent", "word": "yellow", "color": "red", "correct_response": "r", "trial_id": "stroop-trial-1-incongruent-26", "trial_type": "html-keyboard-response", "trial_index": 20, "time_elapsed": 82900, "internal_node_id": "0.0-4.0-16.0"}}, {"uniqueid": "w51781759:a66406826", "current_trial": 21, "dateTime": 1664472836523, "trialdata": {"rt": 949, "stimulus": "<p id='stroop-text' class='stroop-green'>RED</p>", "response": "g", "stimulus-type": "incongruent", "word": "red", "color": "green", "correct_response": "g", "trial_id": "stroop-trial-1-incongruent-9", "trial_type": "html-keyboard-response", "trial_index": 21, "time_elapsed": 84351, "internal_node_id": "0.0-4.0-17.0"}}, {"uniqueid": "w51781759:a66406826", "current_trial": 22, "dateTime": 1664472837564, "trialdata": {"rt": 538, "stimulus": "<p id='stroop-text' class='stroop-yellow'>YELLOW</p>", "response": "y", "stimulus-type": "congruent", "word": "yellow", "color": "yellow", "correct_response": "y", "trial_id": "stroop-trial-1-congruent-11", "trial_type": "html-keyboard-response", "trial_index": 22, "time_elapsed": 85393, "internal_node_id": "0.0-4.0-18.0"}}, {"uniqueid": "w51781759:a66406826", "current_trial": 23, "dateTime": 1664472838722, "trialdata": {"rt": 654, "stimulus": "<p id='stroop-text' class='stroop-yellow'>BLUE</p>", "response": "y", "stimulus-type": "incongruent", "word": "blue", "color": "yellow", "correct_response": "y", "trial_id": "stroop-trial-1-incongruent-17", "trial_type": "html-keyboard-response", "trial_index": 23, "time_elapsed": 86550, "internal_node_id": "0.0-4.0-19.0"}}, {"uniqueid": "w51781759:a66406826", "current_trial": 24, "dateTime": 1664472840309, "trialdata": {"rt": 1084, "stimulus": "<p id='stroop-text' class='stroop-green'>RED</p>", "response": "g", "stimulus-type": "incongruent", "word": "red", "color": "green", "correct_response": "g", "trial_id": "stroop-trial-1-incongruent-19", "trial_type": "html-keyboard-response", "trial_index": 24, "time_elapsed": 88137, "internal_node_id": "0.0-4.0-20.0"}}, {"uniqueid": "w51781759:a66406826", "current_trial": 25, "dateTime": 1664472841479, "trialdata": {"rt": 669, "stimulus": "<p id='stroop-text' class='stroop-red'>BLUE</p>", "response": "r", "stimulus-type": "incongruent", "word": "blue", "color": "red", "correct_response": "r", "trial_id": "stroop-trial-1-incongruent-8", "trial_type": "html-keyboard-response", "trial_index": 25, "time_elapsed": 89308, "internal_node_id": "0.0-4.0-21.0"}}, {"uniqueid": "w51781759:a66406826", "current_trial": 26, "dateTime": 1664472842672, "trialdata": {"rt": 690, "stimulus": "<p id='stroop-text' class='stroop-green'>GREEN</p>", "response": "g", "stimulus-type": "congruent", "word": "green", "color": "green", "correct_response": "g", "trial_id": "stroop-trial-1-congruent-19", "trial_type": "html-keyboard-response", "trial_index": 26, "time_elapsed": 90500, "internal_node_id": "0.0-4.0-22.0"}}, {"uniqueid": "w51781759:a66406826", "current_trial": 27, "dateTime": 1664472844135, "trialdata": {"rt": 960, "stimulus": "<p id='stroop-text' class='stroop-blue'>BLUE</p>", "response": "b", "stimulus-type": "congruent", "word": "blue", "color": "blue", "correct_response": "b", "trial_id": "stroop-trial-1-congruent-29", "trial_type": "html-keyboard-response", "trial_index": 27, "time_elapsed": 91963, "internal_node_id": "0.0-4.0-23.0"}}, {"uniqueid": "w51781759:a66406826", "current_trial": 28, "dateTime": 1664472845263, "trialdata": {"rt": 626, "stimulus": "<p id='stroop-text' class='stroop-blue'>BLUE</p>", "response": "b", "stimulus-type": "congruent", "word": "blue", "color": "blue", "correct_response": "b", "trial_id": "stroop-trial-1-congruent-6", "trial_type": "html-keyboard-response", "trial_index": 28, "time_elapsed": 93092, "internal_node_id": "0.0-4.0-24.0"}}, {"uniqueid": "w51781759:a66406826", "current_trial": 29, "dateTime": 1664472846508, "trialdata": {"rt": 742, "stimulus": "<p id='stroop-text' class='stroop-blue'>STONE</p>", "response": "b", "stimulus-type": "unrelated", "word": "STONE", "color": "blue", "correct_response": "b", "trial_id": "stroop-trial-1-unrelated-23", "trial_type": "html-keyboard-response", "trial_index": 29, "time_elapsed": 94337, "internal_node_id": "0.0-4.0-25.0"}}, {"uniqueid": "w51781759:a66406826", "current_trial": 30, "dateTime": 1664472847469, "trialdata": {"rt": 459, "stimulus": "<p id='stroop-text' class='stroop-red'>RED</p>", "response": "r", "stimulus-type": "congruent", "word": "red", "color": "red", "correct_response": "r", "trial_id": "stroop-trial-1-congruent-2", "trial_type": "html-keyboard-response", "trial_index": 30, "time_elapsed": 95298, "internal_node_id": "0.0-4.0-26.0"}}, {"uniqueid": "w51781759:a66406826", "current_trial": 31, "dateTime": 1664472848525, "trialdata": {"rt": 553, "stimulus": "<p id='stroop-text' class='stroop-yellow'>BLUE</p>", "response": "y", "stimulus-type": "incongruent", "word": "blue", "color": "yellow", "correct_response": "y", "trial_id": "stroop-trial-1-incongruent-23", "trial_type": "html-keyboard-response", "trial_index": 31, "time_elapsed": 96354, "internal_node_id": "0.0-4.0-27.0"}}, {"uniqueid": "w51781759:a66406826", "current_trial": 32, "dateTime": 1664472849702, "trialdata": {"rt": 674, "stimulus": "<p id='stroop-text' class='stroop-blue'>GREEN</p>", "response": "y", "stimulus-type": "incongruent", "word": "green", "color": "blue", "correct_response": "b", "trial_id": "stroop-trial-1-incongruent-12", "trial_type": "html-keyboard-response", "trial_index": 32, "time_elapsed": 97531, "internal_node_id": "0.0-4.0-28.0"}}, {"uniqueid": "w51781759:a66406826", "current_trial": 33, "dateTime": 1664472851691, "trialdata": {"rt": 1486, "stimulus": "<p id='stroop-text' class='stroop-red'>BLUE</p>", "response": "r", "stimulus-type": "incongruent", "word": "blue", "color": "red", "correct_response": "r", "trial_id": "stroop-trial-1-incongruent-30", "trial_type": "html-keyboard-response", "trial_index": 33, "time_elapsed": 99519, "internal_node_id": "0.0-4.0-29.0"}}, {"uniqueid": "w51781759:a66406826", "current_trial": 34, "dateTime": 1664472852925, "trialdata": {"rt": 731, "stimulus": "<p id='stroop-text' class='stroop-green'>GREEN</p>", "response": "g", "stimulus-type": "congruent", "word": "green", "color": "green", "correct_response": "g", "trial_id": "stroop-trial-1-congruent-30", "trial_type": "html-keyboard-response", "trial_index": 34, "time_elapsed": 100753, "internal_node_id": "0.0-4.0-30.0"}}, {"uniqueid": "w51781759:a66406826", "current_trial": 35, "dateTime": 1664472854898, "trialdata": {"rt": 1470, "stimulus": "<p id='stroop-text' class='stroop-blue'>BRAIN</p>", "response": "b", "stimulus-type": "unrelated", "word": "BRAIN", "color": "blue", "correct_response": "b", "trial_id": "stroop-trial-1-unrelated-9", "trial_type": "html-keyboard-response", "trial_index": 35, "time_elapsed": 102726, "internal_node_id": "0.0-4.0-31.0"}}, {"uniqueid": "w51781759:a66406826", "current_trial": 36, "dateTime": 1664472855914, "trialdata": {"rt": 513, "stimulus": "<p id='stroop-text' class='stroop-green'>GREEN</p>", "response": "g", "stimulus-type": "congruent", "word": "green", "color": "green", "correct_response": "g", "trial_id": "stroop-trial-1-congruent-4", "trial_type": "html-keyboard-response", "trial_index": 36, "time_elapsed": 103742, "internal_node_id": "0.0-4.0-32.0"}}, {"uniqueid": "w51781759:a66406826", "current_trial": 37, "dateTime": 1664472857149, "trialdata": {"rt": 733, "stimulus": "<p id='stroop-text' class='stroop-red'>RED</p>", "response": "r", "stimulus-type": "congruent", "word": "red", "color": "red", "correct_response": "r", "trial_id": "stroop-trial-1-congruent-14", "trial_type": "html-keyboard-response", "trial_index": 37, "time_elapsed": 104978, "internal_node_id": "0.0-4.0-33.0"}}, {"uniqueid": "w51781759:a66406826", "current_trial": 38, "dateTime": 1664472859284, "trialdata": {"rt": 1630, "stimulus": "<p id='stroop-text' class='stroop-blue'>BOTTLE</p>", "response": "b", "stimulus-type": "unrelated", "word": "BOTTLE", "color": "blue", "correct_response": "b", "trial_id": "stroop-trial-1-unrelated-8", "trial_type": "html-keyboard-response", "trial_index": 38, "time_elapsed": 107112, "internal_node_id": "0.0-4.0-34.0"}}, {"uniqueid": "w51781759:a66406826", "current_trial": 39, "dateTime": 1664472860599, "trialdata": {"rt": 813, "stimulus": "<p id='stroop-text' class='stroop-yellow'>SHIP</p>", "response": "y", "stimulus-type": "unrelated", "word": "SHIP", "color": "yellow", "correct_response": "y", "trial_id": "stroop-trial-1-unrelated-5", "trial_type": "html-keyboard-response", "trial_index": 39, "time_elapsed": 108428, "internal_node_id": "0.0-4.0-35.0"}}, {"uniqueid": "w51781759:a66406826", "current_trial": 40, "dateTime": 1664472861710, "trialdata": {"rt": 608, "stimulus": "<p id='stroop-text' class='stroop-red'>BRAIN</p>", "response": "r", "stimulus-type": "unrelated", "word": "BRAIN", "color": "red", "correct_response": "r", "trial_id": "stroop-trial-1-unrelated-12", "trial_type": "html-keyboard-response", "trial_index": 40, "time_elapsed": 109539, "internal_node_id": "0.0-4.0-36.0"}}, {"uniqueid": "w51781759:a66406826", "current_trial": 41, "dateTime": 1664472862712, "trialdata": {"rt": 499, "stimulus": "<p id='stroop-text' class='stroop-red'>RED</p>", "response": "r", "stimulus-type": "congruent", "word": "red", "color": "red", "correct_response": "r", "trial_id": "stroop-trial-1-congruent-13", "trial_type": "html-keyboard-response", "trial_index": 41, "time_elapsed": 110540, "internal_node_id": "0.0-4.0-37.0"}}, {"uniqueid": "w51781759:a66406826", "current_trial": 42, "dateTime": 1664472864699, "trialdata": {"rt": 1484, "stimulus": "<p id='stroop-text' class='stroop-blue'>GREEN</p>", "response": "b", "stimulus-type": "incongruent", "word": "green", "color": "blue", "correct_response": "b", "trial_id": "stroop-trial-1-incongruent-11", "trial_type": "html-keyboard-response", "trial_index": 42, "time_elapsed": 112528, "internal_node_id": "0.0-4.0-38.0"}}, {"uniqueid": "w51781759:a66406826", "current_trial": 43, "dateTime": 1664472865973, "trialdata": {"rt": 770, "stimulus": "<p id='stroop-text' class='stroop-yellow'>RED</p>", "response": "y", "stimulus-type": "incongruent", "word": "red", "color": "yellow", "correct_response": "y", "trial_id": "stroop-trial-1-incongruent-14", "trial_type": "html-keyboard-response", "trial_index": 43, "time_elapsed": 113801, "internal_node_id": "0.0-4.0-39.0"}}, {"uniqueid": "w51781759:a66406826", "current_trial": 44, "dateTime": 1664472866908, "trialdata": {"rt": 432, "stimulus": "<p id='stroop-text' class='stroop-yellow'>GREEN</p>", "response": "y", "stimulus-type": "incongruent", "word": "green", "color": "yellow", "correct_response": "y", "trial_id": "stroop-trial-1-incongruent-27", "trial_type": "html-keyboard-response", "trial_index": 44, "time_elapsed": 114736, "internal_node_id": "0.0-4.0-40.0"}}, {"uniqueid": "w51781759:a66406826", "current_trial": 45, "dateTime": 1664472868060, "trialdata": {"rt": 651, "stimulus": "<p id='stroop-text' class='stroop-blue'>SHIP</p>", "response": "b", "stimulus-type": "unrelated", "word": "SHIP", "color": "blue", "correct_response": "b", "trial_id": "stroop-trial-1-unrelated-27", "trial_type": "html-keyboard-response", "trial_index": 45, "time_elapsed": 115889, "internal_node_id": "0.0-4.0-41.0"}}, {"uniqueid": "w51781759:a66406826", "current_trial": 46, "dateTime": 1664472869252, "trialdata": {"rt": 689, "stimulus": "<p id='stroop-text' class='stroop-red'>BRIDGE</p>", "response": "r", "stimulus-type": "unrelated", "word": "BRIDGE", "color": "red", "correct_response": "r", "trial_id": "stroop-trial-1-unrelated-21", "trial_type": "html-keyboard-response", "trial_index": 46, "time_elapsed": 117081, "internal_node_id": "0.0-4.0-42.0"}}, {"uniqueid": "w51781759:a66406826", "current_trial": 47, "dateTime": 1664472870264, "trialdata": {"rt": 507, "stimulus": "<p id='stroop-text' class='stroop-blue'>BLUE</p>", "response": "b", "stimulus-type": "congruent", "word": "blue", "color": "blue", "correct_response": "b", "trial_id": "stroop-trial-1-congruent-25", "trial_type": "html-keyboard-response", "trial_index": 47, "time_elapsed": 118092, "internal_node_id": "0.0-4.0-43.0"}}, {"uniqueid": "w51781759:a66406826", "current_trial": 48, "dateTime": 1664472871295, "trialdata": {"rt": 528, "stimulus": "<p id='stroop-text' class='stroop-red'>BOTTLE</p>", "response": "r", "stimulus-type": "unrelated", "word": "BOTTLE", "color": "red", "correct_response": "r", "trial_id": "stroop-trial-1-unrelated-29", "trial_type": "html-keyboard-response", "trial_index": 48, "time_elapsed": 119124, "internal_node_id": "0.0-4.0-44.0"}}, {"uniqueid": "w51781759:a66406826", "current_trial": 49, "dateTime": 1664472872296, "trialdata": {"rt": 497, "stimulus": "<p id='stroop-text' class='stroop-red'>STONE</p>", "response": "r", "stimulus-type": "unrelated", "word": "STONE", "color": "red", "correct_response": "r", "trial_id": "stroop-trial-1-unrelated-3", "trial_type": "html-keyboard-response", "trial_index": 49, "time_elapsed": 120124, "internal_node_id": "0.0-4.0-45.0"}}, {"uniqueid": "w51781759:a66406826", "current_trial": 50, "dateTime": 1664472873338, "trialdata": {"rt": 539, "stimulus": "<p id='stroop-text' class='stroop-blue'>YELLOW</p>", "response": "y", "stimulus-type": "incongruent", "word": "yellow", "color": "blue", "correct_response": "b", "trial_id": "stroop-trial-1-incongruent-6", "trial_type": "html-keyboard-response", "trial_index": 50, "time_elapsed": 121167, "internal_node_id": "0.0-4.0-46.0"}}, {"uniqueid": "w51781759:a66406826", "current_trial": 51, "dateTime": 1664472874590, "trialdata": {"rt": 748, "stimulus": "<p id='stroop-text' class='stroop-blue'>BLUE</p>", "response": "b", "stimulus-type": "congruent", "word": "blue", "color": "blue", "correct_response": "b", "trial_id": "stroop-trial-1-congruent-22", "trial_type": "html-keyboard-response", "trial_index": 51, "time_elapsed": 122419, "internal_node_id": "0.0-4.0-47.0"}}, {"uniqueid": "w51781759:a66406826", "current_trial": 52, "dateTime": 1664472875793, "trialdata": {"rt": 699, "stimulus": "<p id='stroop-text' class='stroop-red'>BOTTLE</p>", "response": "r", "stimulus-type": "unrelated", "word": "BOTTLE", "color": "red", "correct_response": "r", "trial_id": "stroop-trial-1-unrelated-28", "trial_type": "html-keyboard-response", "trial_index": 52, "time_elapsed": 123622, "internal_node_id": "0.0-4.0-48.0"}}, {"uniqueid": "w51781759:a66406826", "current_trial": 53, "dateTime": 1664472876804, "trialdata": {"rt": 507, "stimulus": "<p id='stroop-text' class='stroop-blue'>FORK</p>", "response": "b", "stimulus-type": "unrelated", "word": "FORK", "color": "blue", "correct_response": "b", "trial_id": "stroop-trial-1-unrelated-4", "trial_type": "html-keyboard-response", "trial_index": 53, "time_elapsed": 124633, "internal_node_id": "0.0-4.0-49.0"}}, {"uniqueid": "w51781759:a66406826", "current_trial": 54, "dateTime": 1664472877865, "trialdata": {"rt": 559, "stimulus": "<p id='stroop-text' class='stroop-yellow'>GREEN</p>", "response": "y", "stimulus-type": "incongruent", "word": "green", "color": "yellow", "correct_response": "y", "trial_id": "stroop-trial-1-incongruent-21", "trial_type": "html-keyboard-response", "trial_index": 54, "time_elapsed": 125694, "internal_node_id": "0.0-4.0-50.0"}}, {"uniqueid": "w51781759:a66406826", "current_trial": 55, "dateTime": 1664472879080, "trialdata": {"rt": 712, "stimulus": "<p id='stroop-text' class='stroop-green'>BRIDGE</p>", "response": "g", "stimulus-type": "unrelated", "word": "BRIDGE", "color": "green", "correct_response": "g", "trial_id": "stroop-trial-1-unrelated-2", "trial_type": "html-keyboard-response", "trial_index": 55, "time_elapsed": 126909, "internal_node_id": "0.0-4.0-51.0"}}, {"uniqueid": "w51781759:a66406826", "current_trial": 56, "dateTime": 1664472880168, "trialdata": {"rt": 586, "stimulus": "<p id='stroop-text' class='stroop-blue'>BLUE</p>", "response": "b", "stimulus-type": "congruent", "word": "blue", "color": "blue", "correct_response": "b", "trial_id": "stroop-trial-1-congruent-1", "trial_type": "html-keyboard-response", "trial_index": 56, "time_elapsed": 127997, "internal_node_id": "0.0-4.0-52.0"}}, {"uniqueid": "w51781759:a66406826", "current_trial": 57, "dateTime": 1664472881115, "trialdata": {"rt": 444, "stimulus": "<p id='stroop-text' class='stroop-blue'>WINDOW</p>", "response": "b", "stimulus-type": "unrelated", "word": "WINDOW", "color": "blue", "correct_response": "b", "trial_id": "stroop-trial-1-unrelated-15", "trial_type": "html-keyboard-response", "trial_index": 57, "time_elapsed": 128944, "internal_node_id": "0.0-4.0-53.0"}}, {"uniqueid": "w51781759:a66406826", "current_trial": 58, "dateTime": 1664472882146, "trialdata": {"rt": 529, "stimulus": "<p id='stroop-text' class='stroop-yellow'>RED</p>", "response": "y", "stimulus-type": "incongruent", "word": "red", "color": "yellow", "correct_response": "y", "trial_id": "stroop-trial-1-incongruent-22", "trial_type": "html-keyboard-response", "trial_index": 58, "time_elapsed": 129974, "internal_node_id": "0.0-4.0-54.0"}}, {"uniqueid": "w51781759:a66406826", "current_trial": 59, "dateTime": 1664472883248, "trialdata": {"rt": 599, "stimulus": "<p id='stroop-text' class='stroop-green'>MONKEY</p>", "response": "g", "stimulus-type": "unrelated", "word": "MONKEY", "color": "green", "correct_response": "g", "trial_id": "stroop-trial-1-unrelated-18", "trial_type": "html-keyboard-response", "trial_index": 59, "time_elapsed": 131077, "internal_node_id": "0.0-4.0-55.0"}}, {"uniqueid": "w51781759:a66406826", "current_trial": 60, "dateTime": 1664472884345, "trialdata": {"rt": 594, "stimulus": "<p id='stroop-text' class='stroop-green'>GREEN</p>", "response": "g", "stimulus-type": "congruent", "word": "green", "color": "green", "correct_response": "g", "trial_id": "stroop-trial-1-congruent-17", "trial_type": "html-keyboard-response", "trial_index": 60, "time_elapsed": 132174, "internal_node_id": "0.0-4.0-56.0"}}, {"uniqueid": "w51781759:a66406826", "current_trial": 61, "dateTime": 1664472885336, "trialdata": {"rt": 488, "stimulus": "<p id='stroop-text' class='stroop-green'>GREEN</p>", "response": "g", "stimulus-type": "congruent", "word": "green", "color": "green", "correct_response": "g", "trial_id": "stroop-trial-1-congruent-5", "trial_type": "html-keyboard-response", "trial_index": 61, "time_elapsed": 133165, "internal_node_id": "0.0-4.0-57.0"}}, {"uniqueid": "w51781759:a66406826", "current_trial": 62, "dateTime": 1664472886443, "trialdata": {"rt": 605, "stimulus": "<p id='stroop-text' class='stroop-blue'>CHAIR</p>", "response": "b", "stimulus-type": "unrelated", "word": "CHAIR", "color": "blue", "correct_response": "b", "trial_id": "stroop-trial-1-unrelated-20", "trial_type": "html-keyboard-response", "trial_index": 62, "time_elapsed": 134272, "internal_node_id": "0.0-4.0-58.0"}}, {"uniqueid": "w51781759:a66406826", "current_trial": 63, "dateTime": 1664472887901, "trialdata": {"rt": 953, "stimulus": "<p id='stroop-text' class='stroop-red'>YELLOW</p>", "response": "y", "stimulus-type": "incongruent", "word": "yellow", "color": "red", "correct_response": "r", "trial_id": "stroop-trial-1-incongruent-5", "trial_type": "html-keyboard-response", "trial_index": 63, "time_elapsed": 135729, "internal_node_id": "0.0-4.0-59.0"}}, {"uniqueid": "w51781759:a66406826", "current_trial": 64, "dateTime": 1664472889247, "trialdata": {"rt": 843, "stimulus": "<p id='stroop-text' class='stroop-yellow'>BLUE</p>", "response": "y", "stimulus-type": "incongruent", "word": "blue", "color": "yellow", "correct_response": "y", "trial_id": "stroop-trial-1-incongruent-15", "trial_type": "html-keyboard-response", "trial_index": 64, "time_elapsed": 137076, "internal_node_id": "0.0-4.0-60.0"}}, {"uniqueid": "w51781759:a66406826", "current_trial": 65, "dateTime": 1664472890644, "trialdata": {"rt": 894, "stimulus": "<p id='stroop-text' class='stroop-green'>RED</p>", "response": "g", "stimulus-type": "incongruent", "word": "red", "color": "green", "correct_response": "g", "trial_id": "stroop-trial-1-incongruent-3", "trial_type": "html-keyboard-response", "trial_index": 65, "time_elapsed": 138473, "internal_node_id": "0.0-4.0-61.0"}}, {"uniqueid": "w51781759:a66406826", "current_trial": 66, "dateTime": 1664472892008, "trialdata": {"rt": 860, "stimulus": "<p id='stroop-text' class='stroop-blue'>YELLOW</p>", "response": "b", "stimulus-type": "incongruent", "word": "yellow", "color": "blue", "correct_response": "b", "trial_id": "stroop-trial-1-incongruent-24", "trial_type": "html-keyboard-response", "trial_index": 66, "time_elapsed": 139836, "internal_node_id": "0.0-4.0-62.0"}}, {"uniqueid": "w51781759:a66406826", "current_trial": 67, "dateTime": 1664472893573, "trialdata": {"rt": 1063, "stimulus": "<p id='stroop-text' class='stroop-red'>YELLOW</p>", "response": "y", "stimulus-type": "incongruent", "word": "yellow", "color": "red", "correct_response": "r", "trial_id": "stroop-trial-1-incongruent-10", "trial_type": "html-keyboard-response", "trial_index": 67, "time_elapsed": 141402, "internal_node_id": "0.0-4.0-63.0"}}, {"uniqueid": "w51781759:a66406826", "current_trial": 68, "dateTime": 1664472895106, "trialdata": {"rt": 1029, "stimulus": "<p id='stroop-text' class='stroop-blue'>BOTTLE</p>", "response": "b", "stimulus-type": "unrelated", "word": "BOTTLE", "color": "blue", "correct_response": "b", "trial_id": "stroop-trial-1-unrelated-30", "trial_type": "html-keyboard-response", "trial_index": 68, "time_elapsed": 142934, "internal_node_id": "0.0-4.0-64.0"}}, {"uniqueid": "w51781759:a66406826", "current_trial": 69, "dateTime": 1664472896329, "trialdata": {"rt": 719, "stimulus": "<p id='stroop-text' class='stroop-red'>RED</p>", "response": "r", "stimulus-type": "congruent", "word": "red", "color": "red", "correct_response": "r", "trial_id": "stroop-trial-1-congruent-8", "trial_type": "html-keyboard-response", "trial_index": 69, "time_elapsed": 144157, "internal_node_id": "0.0-4.0-65.0"}}, {"uniqueid": "w51781759:a66406826", "current_trial": 70, "dateTime": 1664472898131, "trialdata": {"rt": 1300, "stimulus": "<p id='stroop-text' class='stroop-blue'>GREEN</p>", "response": "b", "stimulus-type": "incongruent", "word": "green", "color": "blue", "correct_response": "b", "trial_id": "stroop-trial-1-incongruent-20", "trial_type": "html-keyboard-response", "trial_index": 70, "time_elapsed": 145960, "internal_node_id": "0.0-4.0-66.0"}}, {"uniqueid": "w51781759:a66406826", "current_trial": 71, "dateTime": 1664472899896, "trialdata": {"rt": 1261, "stimulus": "<p id='stroop-text' class='stroop-yellow'>CHAIR</p>", "response": "y", "stimulus-type": "unrelated", "word": "CHAIR", "color": "yellow", "correct_response": "y", "trial_id": "stroop-trial-1-unrelated-25", "trial_type": "html-keyboard-response", "trial_index": 71, "time_elapsed": 147725, "internal_node_id": "0.0-4.0-67.0"}}, {"uniqueid": "w51781759:a66406826", "current_trial": 72, "dateTime": 1664472900981, "trialdata": {"rt": 583, "stimulus": "<p id='stroop-text' class='stroop-yellow'>YELLOW</p>", "response": "y", "stimulus-type": "congruent", "word": "yellow", "color": "yellow", "correct_response": "y", "trial_id": "stroop-trial-1-congruent-28", "trial_type": "html-keyboard-response", "trial_index": 72, "time_elapsed": 148810, "internal_node_id": "0.0-4.0-68.0"}}, {"uniqueid": "w51781759:a66406826", "current_trial": 73, "dateTime": 1664472902257, "trialdata": {"rt": 772, "stimulus": "<p id='stroop-text' class='stroop-blue'>BLUE</p>", "response": "b", "stimulus-type": "congruent", "word": "blue", "color": "blue", "correct_response": "b", "trial_id": "stroop-trial-1-congruent-20", "trial_type": "html-keyboard-response", "trial_index": 73, "time_elapsed": 150086, "internal_node_id": "0.0-4.0-69.0"}}, {"uniqueid": "w51781759:a66406826", "current_trial": 74, "dateTime": 1664472903857, "trialdata": {"rt": 1098, "stimulus": "<p id='stroop-text' class='stroop-green'>RED</p>", "response": "r", "stimulus-type": "incongruent", "word": "red", "color": "green", "correct_response": "g", "trial_id": "stroop-trial-1-incongruent-7", "trial_type": "html-keyboard-response", "trial_index": 74, "time_elapsed": 151686, "internal_node_id": "0.0-4.0-70.0"}}, {"uniqueid": "w51781759:a66406826", "current_trial": 75, "dateTime": 1664472905798, "trialdata": {"rt": 1437, "stimulus": "<p id='stroop-text' class='stroop-yellow'>STONE</p>", "response": "y", "stimulus-type": "unrelated", "word": "STONE", "color": "yellow", "correct_response": "y", "trial_id": "stroop-trial-1-unrelated-22", "trial_type": "html-keyboard-response", "trial_index": 75, "time_elapsed": 153627, "internal_node_id": "0.0-4.0-71.0"}}, {"uniqueid": "w51781759:a66406826", "current_trial": 76, "dateTime": 1664472906823, "trialdata": {"rt": 521, "stimulus": "<p id='stroop-text' class='stroop-green'>CHAIR</p>", "response": "g", "stimulus-type": "unrelated", "word": "CHAIR", "color": "green", "correct_response": "g", "trial_id": "stroop-trial-1-unrelated-17", "trial_type": "html-keyboard-response", "trial_index": 76, "time_elapsed": 154652, "internal_node_id": "0.0-4.0-72.0"}}, {"uniqueid": "w51781759:a66406826", "current_trial": 77, "dateTime": 1664472908582, "trialdata": {"rt": 1257, "stimulus": "<p id='stroop-text' class='stroop-red'>BLUE</p>", "response": "r", "stimulus-type": "incongruent", "word": "blue", "color": "red", "correct_response": "r", "trial_id": "stroop-trial-1-incongruent-13", "trial_type": "html-keyboard-response", "trial_index": 77, "time_elapsed": 156411, "internal_node_id": "0.0-4.0-73.0"}}, {"uniqueid": "w51781759:a66406826", "current_trial": 78, "dateTime": 1664472909818, "trialdata": {"rt": 734, "stimulus": "<p id='stroop-text' class='stroop-yellow'>YELLOW</p>", "response": "y", "stimulus-type": "congruent", "word": "yellow", "color": "yellow", "correct_response": "y", "trial_id": "stroop-trial-1-congruent-23", "trial_type": "html-keyboard-response", "trial_index": 78, "time_elapsed": 157647, "internal_node_id": "0.0-4.0-74.0"}}, {"uniqueid": "w51781759:a66406826", "current_trial": 79, "dateTime": 1664472910815, "trialdata": {"rt": 494, "stimulus": "<p id='stroop-text' class='stroop-green'>GREEN</p>", "response": "g", "stimulus-type": "congruent", "word": "green", "color": "green", "correct_response": "g", "trial_id": "stroop-trial-1-congruent-27", "trial_type": "html-keyboard-response", "trial_index": 79, "time_elapsed": 158644, "internal_node_id": "0.0-4.0-75.0"}}, {"uniqueid": "w51781759:a66406826", "current_trial": 80, "dateTime": 1664472911951, "trialdata": {"rt": 633, "stimulus": "<p id='stroop-text' class='stroop-red'>RED</p>", "response": "r", "stimulus-type": "congruent", "word": "red", "color": "red", "correct_response": "r", "trial_id": "stroop-trial-1-congruent-21", "trial_type": "html-keyboard-response", "trial_index": 80, "time_elapsed": 159780, "internal_node_id": "0.0-4.0-76.0"}}, {"uniqueid": "w51781759:a66406826", "current_trial": 81, "dateTime": 1664472913039, "trialdata": {"rt": 584, "stimulus": "<p id='stroop-text' class='stroop-blue'>BLUE</p>", "response": "b", "stimulus-type": "congruent", "word": "blue", "color": "blue", "correct_response": "b", "trial_id": "stroop-trial-1-congruent-24", "trial_type": "html-keyboard-response", "trial_index": 81, "time_elapsed": 160868, "internal_node_id": "0.0-4.0-77.0"}}, {"uniqueid": "w51781759:a66406826", "current_trial": 82, "dateTime": 1664472914276, "trialdata": {"rt": 734, "stimulus": "<p id='stroop-text' class='stroop-red'>BOTTLE</p>", "response": "r", "stimulus-type": "unrelated", "word": "BOTTLE", "color": "red", "correct_response": "r", "trial_id": "stroop-trial-1-unrelated-10", "trial_type": "html-keyboard-response", "trial_index": 82, "time_elapsed": 162104, "internal_node_id": "0.0-4.0-78.0"}}, {"uniqueid": "w51781759:a66406826", "current_trial": 83, "dateTime": 1664472916092, "trialdata": {"rt": 1314, "stimulus": "<p id='stroop-text' class='stroop-green'>YELLOW</p>", "response": "g", "stimulus-type": "incongruent", "word": "yellow", "color": "green", "correct_response": "g", "trial_id": "stroop-trial-1-incongruent-1", "trial_type": "html-keyboard-response", "trial_index": 83, "time_elapsed": 163921, "internal_node_id": "0.0-4.0-79.0"}}, {"uniqueid": "w51781759:a66406826", "current_trial": 84, "dateTime": 1664472917315, "trialdata": {"rt": 720, "stimulus": "<p id='stroop-text' class='stroop-yellow'>YELLOW</p>", "response": "y", "stimulus-type": "congruent", "word": "yellow", "color": "yellow", "correct_response": "y", "trial_id": "stroop-trial-1-congruent-3", "trial_type": "html-keyboard-response", "trial_index": 84, "time_elapsed": 165144, "internal_node_id": "0.0-4.0-80.0"}}, {"uniqueid": "w51781759:a66406826", "current_trial": 85, "dateTime": 1664472918903, "trialdata": {"rt": 1071, "stimulus": "<p id='stroop-text' class='stroop-blue'>RED</p>", "response": "b", "stimulus-type": "incongruent", "word": "red", "color": "blue", "correct_response": "b", "trial_id": "stroop-trial-1-incongruent-16", "trial_type": "html-keyboard-response", "trial_index": 85, "time_elapsed": 166732, "internal_node_id": "0.0-4.0-81.0"}}, {"uniqueid": "w51781759:a66406826", "current_trial": 86, "dateTime": 1664472920090, "trialdata": {"rt": 684, "stimulus": "<p id='stroop-text' class='stroop-yellow'>YELLOW</p>", "response": "y", "stimulus-type": "congruent", "word": "yellow", "color": "yellow", "correct_response": "y", "trial_id": "stroop-trial-1-congruent-26", "trial_type": "html-keyboard-response", "trial_index": 86, "time_elapsed": 167919, "internal_node_id": "0.0-4.0-82.0"}}, {"uniqueid": "w51781759:a66406826", "current_trial": 87, "dateTime": 1664472921291, "trialdata": {"rt": 698, "stimulus": "<p id='stroop-text' class='stroop-green'>BOAT</p>", "response": "g", "stimulus-type": "unrelated", "word": "BOAT", "color": "green", "correct_response": "g", "trial_id": "stroop-trial-1-unrelated-24", "trial_type": "html-keyboard-response", "trial_index": 87, "time_elapsed": 169120, "internal_node_id": "0.0-4.0-83.0"}}, {"uniqueid": "w51781759:a66406826", "current_trial": 88, "dateTime": 1664472923000, "trialdata": {"rt": 1206, "stimulus": "<p id='stroop-text' class='stroop-blue'>GREEN</p>", "response": "b", "stimulus-type": "incongruent", "word": "green", "color": "blue", "correct_response": "b", "trial_id": "stroop-trial-1-incongruent-25", "trial_type": "html-keyboard-response", "trial_index": 88, "time_elapsed": 170828, "internal_node_id": "0.0-4.0-84.0"}}, {"uniqueid": "w51781759:a66406826", "current_trial": 89, "dateTime": 1664472924433, "trialdata": {"rt": 930, "stimulus": "<p id='stroop-text' class='stroop-yellow'>BRIDGE</p>", "response": "y", "stimulus-type": "unrelated", "word": "BRIDGE", "color": "yellow", "correct_response": "y", "trial_id": "stroop-trial-1-unrelated-11", "trial_type": "html-keyboard-response", "trial_index": 89, "time_elapsed": 172261, "internal_node_id": "0.0-4.0-85.0"}}, {"uniqueid": "w51781759:a66406826", "current_trial": 90, "dateTime": 1664472925558, "trialdata": {"rt": 620, "stimulus": "<p id='stroop-text' class='stroop-green'>CHAIR</p>", "response": "g", "stimulus-type": "unrelated", "word": "CHAIR", "color": "green", "correct_response": "g", "trial_id": "stroop-trial-1-unrelated-26", "trial_type": "html-keyboard-response", "trial_index": 90, "time_elapsed": 173387, "internal_node_id": "0.0-4.0-86.0"}}, {"uniqueid": "w51781759:a66406826", "current_trial": 91, "dateTime": 1664472926834, "trialdata": {"rt": 773, "stimulus": "<p id='stroop-text' class='stroop-blue'>BLUE</p>", "response": "b", "stimulus-type": "congruent", "word": "blue", "color": "blue", "correct_response": "b", "trial_id": "stroop-trial-1-congruent-15", "trial_type": "html-keyboard-response", "trial_index": 91, "time_elapsed": 174663, "internal_node_id": "0.0-4.0-87.0"}}, {"uniqueid": "w51781759:a66406826", "current_trial": 92, "dateTime": 1664472928008, "trialdata": {"rt": 671, "stimulus": "<p id='stroop-text' class='stroop-yellow'>RED</p>", "response": "y", "stimulus-type": "incongruent", "word": "red", "color": "yellow", "correct_response": "y", "trial_id": "stroop-trial-1-incongruent-4", "trial_type": "html-keyboard-response", "trial_index": 92, "time_elapsed": 175836, "internal_node_id": "0.0-4.0-88.0"}}, {"uniqueid": "w51781759:a66406826", "current_trial": 93, "dateTime": 1664472929590, "trialdata": {"rt": 1080, "stimulus": "<p id='stroop-text' class='stroop-green'>DOG</p>", "response": "g", "stimulus-type": "unrelated", "word": "DOG", "color": "green", "correct_response": "g", "trial_id": "stroop-trial-1-unrelated-6", "trial_type": "html-keyboard-response", "trial_index": 93, "time_elapsed": 177419, "internal_node_id": "0.0-4.0-89.0"}}, {"uniqueid": "w51781759:a66406826", "current_trial": 94, "dateTime": 1664472956430, "trialdata": {"rt": 26334, "stimulus": "  <h1> End of block! </h1>\n\n  You have reached the end of the block 1/5. If you need a short break, feel free to take one now before moving on.\n\n  <br><br>\n  In the next block, you will complete another 90 rounds of this game.\n\n  <br><br>\n  <div style='text-align: center;'>Press <code>space</code> to begin.</div>\n  <br><br>\n<div style='text-align: center;'>(If the experiment doesn't continue, try clicking on the text and then pressing <code>space</code>.)</div>", "response": " ", "trial_id": "stroop_1_ready_2", "trial_type": "html-keyboard-response", "trial_index": 94, "time_elapsed": 204258, "internal_node_id": "0.0-5.0"}}, {"uniqueid": "w51781759:a66406826", "current_trial": 95, "dateTime": 1664472957491, "trialdata": {"rt": 1059, "stimulus": "<p id='stroop-text' class='stroop-green'>BLUE</p>", "response": "g", "stimulus-type": "incongruent", "word": "blue", "color": "green", "correct_response": "g", "trial_id": "stroop-trial-1-incongruent-25", "trial_type": "html-keyboard-response", "trial_index": 95, "time_elapsed": 205320, "internal_node_id": "0.0-6.0-0.0"}}, {"uniqueid": "w51781759:a66406826", "current_trial": 96, "dateTime": 1664472958963, "trialdata": {"rt": 970, "stimulus": "<p id='stroop-text' class='stroop-red'>FORK</p>", "response": "r", "stimulus-type": "unrelated", "word": "FORK", "color": "red", "correct_response": "r", "trial_id": "stroop-trial-1-unrelated-21", "trial_type": "html-keyboard-response", "trial_index": 96, "time_elapsed": 206792, "internal_node_id": "0.0-6.0-1.0"}}, {"uniqueid": "w51781759:a66406826", "current_trial": 97, "dateTime": 1664472959895, "trialdata": {"rt": 430, "stimulus": "<p id='stroop-text' class='stroop-green'>CHAIR</p>", "response": "g", "stimulus-type": "unrelated", "word": "CHAIR", "color": "green", "correct_response": "g", "trial_id": "stroop-trial-1-unrelated-26", "trial_type": "html-keyboard-response", "trial_index": 97, "time_elapsed": 207724, "internal_node_id": "0.0-6.0-2.0"}}, {"uniqueid": "w51781759:a66406826", "current_trial": 98, "dateTime": 1664472960980, "trialdata": {"rt": 580, "stimulus": "<p id='stroop-text' class='stroop-yellow'>YELLOW</p>", "response": "y", "stimulus-type": "congruent", "word": "yellow", "color": "yellow", "correct_response": "y", "trial_id": "stroop-trial-1-congruent-27", "trial_type": "html-keyboard-response", "trial_index": 98, "time_elapsed": 208809, "internal_node_id": "0.0-6.0-3.0"}}, {"uniqueid": "w51781759:a66406826", "current_trial": 99, "dateTime": 1664472962359, "trialdata": {"rt": 876, "stimulus": "<p id='stroop-text' class='stroop-blue'>RED</p>", "response": "b", "stimulus-type": "incongruent", "word": "red", "color": "blue", "correct_response": "b", "trial_id": "stroop-trial-1-incongruent-13", "trial_type": "html-keyboard-response", "trial_index": 99, "time_elapsed": 210187, "internal_node_id": "0.0-6.0-4.0"}}, {"uniqueid": "w51781759:a66406826", "current_trial": 100, "dateTime": 1664472963324, "trialdata": {"rt": 461, "stimulus": "<p id='stroop-text' class='stroop-yellow'>CHAIR</p>", "response": "y", "stimulus-type": "unrelated", "word": "CHAIR", "color": "yellow", "correct_response": "y", "trial_id": "stroop-trial-1-unrelated-20", "trial_type": "html-keyboard-response", "trial_index": 100, "time_elapsed": 211153, "internal_node_id": "0.0-6.0-5.0"}}, {"uniqueid": "w51781759:a66406826", "current_trial": 101, "dateTime": 1664472964296, "trialdata": {"rt": 468, "stimulus": "<p id='stroop-text' class='stroop-yellow'>RED</p>", "response": "y", "stimulus-type": "incongruent", "word": "red", "color": "yellow", "correct_response": "y", "trial_id": "stroop-trial-1-incongruent-6", "trial_type": "html-keyboard-response", "trial_index": 101, "time_elapsed": 212124, "internal_node_id": "0.0-6.0-6.0"}}, {"uniqueid": "w51781759:a66406826", "current_trial": 102, "dateTime": 1664472965343, "trialdata": {"rt": 544, "stimulus": "<p id='stroop-text' class='stroop-green'>BOAT</p>", "response": "g", "stimulus-type": "unrelated", "word": "BOAT", "color": "green", "correct_response": "g", "trial_id": "stroop-trial-1-unrelated-10", "trial_type": "html-keyboard-response", "trial_index": 102, "time_elapsed": 213172, "internal_node_id": "0.0-6.0-7.0"}}, {"uniqueid": "w51781759:a66406826", "current_trial": 103, "dateTime": 1664472966525, "trialdata": {"rt": 680, "stimulus": "<p id='stroop-text' class='stroop-yellow'>BRIDGE</p>", "response": "y", "stimulus-type": "unrelated", "word": "BRIDGE", "color": "yellow", "correct_response": "y", "trial_id": "stroop-trial-1-unrelated-11", "trial_type": "html-keyboard-response", "trial_index": 103, "time_elapsed": 214353, "internal_node_id": "0.0-6.0-8.0"}}, {"uniqueid": "w51781759:a66406826", "current_trial": 104, "dateTime": 1664472967690, "trialdata": {"rt": 661, "stimulus": "<p id='stroop-text' class='stroop-green'>CHAIR</p>", "response": "g", "stimulus-type": "unrelated", "word": "CHAIR", "color": "green", "correct_response": "g", "trial_id": "stroop-trial-1-unrelated-3", "trial_type": "html-keyboard-response", "trial_index": 104, "time_elapsed": 215519, "internal_node_id": "0.0-6.0-9.0"}}, {"uniqueid": "w51781759:a66406826", "current_trial": 105, "dateTime": 1664472968697, "trialdata": {"rt": 505, "stimulus": "<p id='stroop-text' class='stroop-green'>YELLOW</p>", "response": "g", "stimulus-type": "incongruent", "word": "yellow", "color": "green", "correct_response": "g", "trial_id": "stroop-trial-1-incongruent-29", "trial_type": "html-keyboard-response", "trial_index": 105, "time_elapsed": 216526, "internal_node_id": "0.0-6.0-10.0"}}, {"uniqueid": "w51781759:a66406826", "current_trial": 106, "dateTime": 1664472969859, "trialdata": {"rt": 659, "stimulus": "<p id='stroop-text' class='stroop-red'>BRAIN</p>", "response": "r", "stimulus-type": "unrelated", "word": "BRAIN", "color": "red", "correct_response": "r", "trial_id": "stroop-trial-1-unrelated-28", "trial_type": "html-keyboard-response", "trial_index": 106, "time_elapsed": 217688, "internal_node_id": "0.0-6.0-11.0"}}, {"uniqueid": "w51781759:a66406826", "current_trial": 107, "dateTime": 1664472971135, "trialdata": {"rt": 772, "stimulus": "<p id='stroop-text' class='stroop-yellow'>BLUE</p>", "response": "y", "stimulus-type": "incongruent", "word": "blue", "color": "yellow", "correct_response": "y", "trial_id": "stroop-trial-1-incongruent-17", "trial_type": "html-keyboard-response", "trial_index": 107, "time_elapsed": 218964, "internal_node_id": "0.0-6.0-12.0"}}, {"uniqueid": "w51781759:a66406826", "current_trial": 108, "dateTime": 1664472972330, "trialdata": {"rt": 694, "stimulus": "<p id='stroop-text' class='stroop-blue'>GREEN</p>", "response": "b", "stimulus-type": "incongruent", "word": "green", "color": "blue", "correct_response": "b", "trial_id": "stroop-trial-1-incongruent-21", "trial_type": "html-keyboard-response", "trial_index": 108, "time_elapsed": 220159, "internal_node_id": "0.0-6.0-13.0"}}, {"uniqueid": "w51781759:a66406826", "current_trial": 109, "dateTime": 1664472973473, "trialdata": {"rt": 640, "stimulus": "<p id='stroop-text' class='stroop-blue'>YELLOW</p>", "response": "b", "stimulus-type": "incongruent", "word": "yellow", "color": "blue", "correct_response": "b", "trial_id": "stroop-trial-1-incongruent-30", "trial_type": "html-keyboard-response", "trial_index": 109, "time_elapsed": 221302, "internal_node_id": "0.0-6.0-14.0"}}, {"uniqueid": "w51781759:a66406826", "current_trial": 110, "dateTime": 1664472974525, "trialdata": {"rt": 547, "stimulus": "<p id='stroop-text' class='stroop-red'>RED</p>", "response": "r", "stimulus-type": "congruent", "word": "red", "color": "red", "correct_response": "r", "trial_id": "stroop-trial-1-congruent-9", "trial_type": "html-keyboard-response", "trial_index": 110, "time_elapsed": 222353, "internal_node_id": "0.0-6.0-15.0"}}, {"uniqueid": "w51781759:a66406826", "current_trial": 111, "dateTime": 1664472975591, "trialdata": {"rt": 564, "stimulus": "<p id='stroop-text' class='stroop-blue'>BLUE</p>", "response": "b", "stimulus-type": "congruent", "word": "blue", "color": "blue", "correct_response": "b", "trial_id": "stroop-trial-1-congruent-20", "trial_type": "html-keyboard-response", "trial_index": 111, "time_elapsed": 223420, "internal_node_id": "0.0-6.0-16.0"}}, {"uniqueid": "w51781759:a66406826", "current_trial": 112, "dateTime": 1664472976859, "trialdata": {"rt": 763, "stimulus": "<p id='stroop-text' class='stroop-red'>BOTTLE</p>", "response": "r", "stimulus-type": "unrelated", "word": "BOTTLE", "color": "red", "correct_response": "r", "trial_id": "stroop-trial-1-unrelated-4", "trial_type": "html-keyboard-response", "trial_index": 112, "time_elapsed": 224688, "internal_node_id": "0.0-6.0-17.0"}}, {"uniqueid": "w51781759:a66406826", "current_trial": 113, "dateTime": 1664472977963, "trialdata": {"rt": 602, "stimulus": "<p id='stroop-text' class='stroop-yellow'>GREEN</p>", "response": "y", "stimulus-type": "incongruent", "word": "green", "color": "yellow", "correct_response": "y", "trial_id": "stroop-trial-1-incongruent-15", "trial_type": "html-keyboard-response", "trial_index": 113, "time_elapsed": 225791, "internal_node_id": "0.0-6.0-18.0"}}, {"uniqueid": "w51781759:a66406826", "current_trial": 114, "dateTime": 1664472978975, "trialdata": {"rt": 509, "stimulus": "<p id='stroop-text' class='stroop-yellow'>RED</p>", "response": "y", "stimulus-type": "incongruent", "word": "red", "color": "yellow", "correct_response": "y", "trial_id": "stroop-trial-1-incongruent-12", "trial_type": "html-keyboard-response", "trial_index": 114, "time_elapsed": 226803, "internal_node_id": "0.0-6.0-19.0"}}, {"uniqueid": "w51781759:a66406826", "current_trial": 115, "dateTime": 1664472980093, "trialdata": {"rt": 608, "stimulus": "<p id='stroop-text' class='stroop-green'>WINDOW</p>", "response": "g", "stimulus-type": "unrelated", "word": "WINDOW", "color": "green", "correct_response": "g", "trial_id": "stroop-trial-1-unrelated-27", "trial_type": "html-keyboard-response", "trial_index": 115, "time_elapsed": 227921, "internal_node_id": "0.0-6.0-20.0"}}, {"uniqueid": "w51781759:a66406826", "current_trial": 116, "dateTime": 1664472981144, "trialdata": {"rt": 547, "stimulus": "<p id='stroop-text' class='stroop-green'>WINDOW</p>", "response": "g", "stimulus-type": "unrelated", "word": "WINDOW", "color": "green", "correct_response": "g", "trial_id": "stroop-trial-1-unrelated-6", "trial_type": "html-keyboard-response", "trial_index": 116, "time_elapsed": 228973, "internal_node_id": "0.0-6.0-21.0"}}, {"uniqueid": "w51781759:a66406826", "current_trial": 117, "dateTime": 1664472982368, "trialdata": {"rt": 718, "stimulus": "<p id='stroop-text' class='stroop-blue'>BLUE</p>", "response": "b", "stimulus-type": "congruent", "word": "blue", "color": "blue", "correct_response": "b", "trial_id": "stroop-trial-1-congruent-10", "trial_type": "html-keyboard-response", "trial_index": 117, "time_elapsed": 230196, "internal_node_id": "0.0-6.0-22.0"}}, {"uniqueid": "w51781759:a66406826", "current_trial": 118, "dateTime": 1664472983787, "trialdata": {"rt": 916, "stimulus": "<p id='stroop-text' class='stroop-green'>BLUE</p>", "response": "g", "stimulus-type": "incongruent", "word": "blue", "color": "green", "correct_response": "g", "trial_id": "stroop-trial-1-incongruent-14", "trial_type": "html-keyboard-response", "trial_index": 118, "time_elapsed": 231616, "internal_node_id": "0.0-6.0-23.0"}}, {"uniqueid": "w51781759:a66406826", "current_trial": 119, "dateTime": 1664472984971, "trialdata": {"rt": 680, "stimulus": "<p id='stroop-text' class='stroop-green'>MONKEY</p>", "response": "g", "stimulus-type": "unrelated", "word": "MONKEY", "color": "green", "correct_response": "g", "trial_id": "stroop-trial-1-unrelated-14", "trial_type": "html-keyboard-response", "trial_index": 119, "time_elapsed": 232799, "internal_node_id": "0.0-6.0-24.0"}}, {"uniqueid": "w51781759:a66406826", "current_trial": 120, "dateTime": 1664472986111, "trialdata": {"rt": 639, "stimulus": "<p id='stroop-text' class='stroop-red'>RED</p>", "response": "r", "stimulus-type": "congruent", "word": "red", "color": "red", "correct_response": "r", "trial_id": "stroop-trial-1-congruent-11", "trial_type": "html-keyboard-response", "trial_index": 120, "time_elapsed": 233940, "internal_node_id": "0.0-6.0-25.0"}}, {"uniqueid": "w51781759:a66406826", "current_trial": 121, "dateTime": 1664472987327, "trialdata": {"rt": 712, "stimulus": "<p id='stroop-text' class='stroop-green'>BLUE</p>", "response": "g", "stimulus-type": "incongruent", "word": "blue", "color": "green", "correct_response": "g", "trial_id": "stroop-trial-1-incongruent-7", "trial_type": "html-keyboard-response", "trial_index": 121, "time_elapsed": 235155, "internal_node_id": "0.0-6.0-26.0"}}, {"uniqueid": "w51781759:a66406826", "current_trial": 122, "dateTime": 1664472988363, "trialdata": {"rt": 533, "stimulus": "<p id='stroop-text' class='stroop-green'>RED</p>", "response": "g", "stimulus-type": "incongruent", "word": "red", "color": "green", "correct_response": "g", "trial_id": "stroop-trial-1-incongruent-5", "trial_type": "html-keyboard-response", "trial_index": 122, "time_elapsed": 236192, "internal_node_id": "0.0-6.0-27.0"}}, {"uniqueid": "w51781759:a66406826", "current_trial": 123, "dateTime": 1664472989565, "trialdata": {"rt": 699, "stimulus": "<p id='stroop-text' class='stroop-blue'>BLUE</p>", "response": "b", "stimulus-type": "congruent", "word": "blue", "color": "blue", "correct_response": "b", "trial_id": "stroop-trial-1-congruent-24", "trial_type": "html-keyboard-response", "trial_index": 123, "time_elapsed": 237393, "internal_node_id": "0.0-6.0-28.0"}}, {"uniqueid": "w51781759:a66406826", "current_trial": 124, "dateTime": 1664472990705, "trialdata": {"rt": 626, "stimulus": "<p id='stroop-text' class='stroop-yellow'>YELLOW</p>", "response": "y", "stimulus-type": "congruent", "word": "yellow", "color": "yellow", "correct_response": "y", "trial_id": "stroop-trial-1-congruent-13", "trial_type": "html-keyboard-response", "trial_index": 124, "time_elapsed": 238534, "internal_node_id": "0.0-6.0-29.0"}}, {"uniqueid": "w51781759:a66406826", "current_trial": 125, "dateTime": 1664472991638, "trialdata": {"rt": 429, "stimulus": "<p id='stroop-text' class='stroop-blue'>BLUE</p>", "response": "b", "stimulus-type": "congruent", "word": "blue", "color": "blue", "correct_response": "b", "trial_id": "stroop-trial-1-congruent-29", "trial_type": "html-keyboard-response", "trial_index": 125, "time_elapsed": 239467, "internal_node_id": "0.0-6.0-30.0"}}, {"uniqueid": "w51781759:a66406826", "current_trial": 126, "dateTime": 1664472992588, "trialdata": {"rt": 445, "stimulus": "<p id='stroop-text' class='stroop-yellow'>YELLOW</p>", "response": "y", "stimulus-type": "congruent", "word": "yellow", "color": "yellow", "correct_response": "y", "trial_id": "stroop-trial-1-congruent-1", "trial_type": "html-keyboard-response", "trial_index": 126, "time_elapsed": 240417, "internal_node_id": "0.0-6.0-31.0"}}, {"uniqueid": "w51781759:a66406826", "current_trial": 127, "dateTime": 1664472993555, "trialdata": {"rt": 462, "stimulus": "<p id='stroop-text' class='stroop-blue'>BLUE</p>", "response": "b", "stimulus-type": "congruent", "word": "blue", "color": "blue", "correct_response": "b", "trial_id": "stroop-trial-1-congruent-30", "trial_type": "html-keyboard-response", "trial_index": 127, "time_elapsed": 241384, "internal_node_id": "0.0-6.0-32.0"}}, {"uniqueid": "w51781759:a66406826", "current_trial": 128, "dateTime": 1664472994480, "trialdata": {"rt": 416, "stimulus": "<p id='stroop-text' class='stroop-yellow'>BRIDGE</p>", "response": "y", "stimulus-type": "unrelated", "word": "BRIDGE", "color": "yellow", "correct_response": "y", "trial_id": "stroop-trial-1-unrelated-12", "trial_type": "html-keyboard-response", "trial_index": 128, "time_elapsed": 242309, "internal_node_id": "0.0-6.0-33.0"}}, {"uniqueid": "w51781759:a66406826", "current_trial": 129, "dateTime": 1664472995462, "trialdata": {"rt": 479, "stimulus": "<p id='stroop-text' class='stroop-red'>RED</p>", "response": "r", "stimulus-type": "congruent", "word": "red", "color": "red", "correct_response": "r", "trial_id": "stroop-trial-1-congruent-18", "trial_type": "html-keyboard-response", "trial_index": 129, "time_elapsed": 243291, "internal_node_id": "0.0-6.0-34.0"}}, {"uniqueid": "w51781759:a66406826", "current_trial": 130, "dateTime": 1664472996780, "trialdata": {"rt": 814, "stimulus": "<p id='stroop-text' class='stroop-green'>BLUE</p>", "response": "g", "stimulus-type": "incongruent", "word": "blue", "color": "green", "correct_response": "g", "trial_id": "stroop-trial-1-incongruent-24", "trial_type": "html-keyboard-response", "trial_index": 130, "time_elapsed": 244608, "internal_node_id": "0.0-6.0-35.0"}}, {"uniqueid": "w51781759:a66406826", "current_trial": 131, "dateTime": 1664472998111, "trialdata": {"rt": 829, "stimulus": "<p id='stroop-text' class='stroop-yellow'>BOAT</p>", "response": "b", "stimulus-type": "unrelated", "word": "BOAT", "color": "yellow", "correct_response": "y", "trial_id": "stroop-trial-1-unrelated-7", "trial_type": "html-keyboard-response", "trial_index": 131, "time_elapsed": 245940, "internal_node_id": "0.0-6.0-36.0"}}, {"uniqueid": "w51781759:a66406826", "current_trial": 132, "dateTime": 1664472999184, "trialdata": {"rt": 569, "stimulus": "<p id='stroop-text' class='stroop-yellow'>RED</p>", "response": "r", "stimulus-type": "incongruent", "word": "red", "color": "yellow", "correct_response": "y", "trial_id": "stroop-trial-1-incongruent-28", "trial_type": "html-keyboard-response", "trial_index": 132, "time_elapsed": 247013, "internal_node_id": "0.0-6.0-37.0"}}, {"uniqueid": "w51781759:a66406826", "current_trial": 133, "dateTime": 1664473000109, "trialdata": {"rt": 421, "stimulus": "<p id='stroop-text' class='stroop-yellow'>RED</p>", "response": "r", "stimulus-type": "incongruent", "word": "red", "color": "yellow", "correct_response": "y", "trial_id": "stroop-trial-1-incongruent-1", "trial_type": "html-keyboard-response", "trial_index": 133, "time_elapsed": 247938, "internal_node_id": "0.0-6.0-38.0"}}, {"uniqueid": "w51781759:a66406826", "current_trial": 134, "dateTime": 1664473001530, "trialdata": {"rt": 918, "stimulus": "<p id='stroop-text' class='stroop-yellow'>BLUE</p>", "response": "y", "stimulus-type": "incongruent", "word": "blue", "color": "yellow", "correct_response": "y", "trial_id": "stroop-trial-1-incongruent-20", "trial_type": "html-keyboard-response", "trial_index": 134, "time_elapsed": 249359, "internal_node_id": "0.0-6.0-39.0"}}, {"uniqueid": "w51781759:a66406826", "current_trial": 135, "dateTime": 1664473002731, "trialdata": {"rt": 697, "stimulus": "<p id='stroop-text' class='stroop-blue'>FORK</p>", "response": "g", "stimulus-type": "unrelated", "word": "FORK", "color": "blue", "correct_response": "b", "trial_id": "stroop-trial-1-unrelated-13", "trial_type": "html-keyboard-response", "trial_index": 135, "time_elapsed": 250560, "internal_node_id": "0.0-6.0-40.0"}}, {"uniqueid": "w51781759:a66406826", "current_trial": 136, "dateTime": 1664473003884, "trialdata": {"rt": 651, "stimulus": "<p id='stroop-text' class='stroop-blue'>SHIP</p>", "response": "b", "stimulus-type": "unrelated", "word": "SHIP", "color": "blue", "correct_response": "b", "trial_id": "stroop-trial-1-unrelated-22", "trial_type": "html-keyboard-response", "trial_index": 136, "time_elapsed": 251713, "internal_node_id": "0.0-6.0-41.0"}}, {"uniqueid": "w51781759:a66406826", "current_trial": 137, "dateTime": 1664473004934, "trialdata": {"rt": 546, "stimulus": "<p id='stroop-text' class='stroop-yellow'>YELLOW</p>", "response": "y", "stimulus-type": "congruent", "word": "yellow", "color": "yellow", "correct_response": "y", "trial_id": "stroop-trial-1-congruent-14", "trial_type": "html-keyboard-response", "trial_index": 137, "time_elapsed": 252763, "internal_node_id": "0.0-6.0-42.0"}}, {"uniqueid": "w51781759:a66406826", "current_trial": 138, "dateTime": 1664473005942, "trialdata": {"rt": 505, "stimulus": "<p id='stroop-text' class='stroop-red'>BRAIN</p>", "response": "r", "stimulus-type": "unrelated", "word": "BRAIN", "color": "red", "correct_response": "r", "trial_id": "stroop-trial-1-unrelated-29", "trial_type": "html-keyboard-response", "trial_index": 138, "time_elapsed": 253770, "internal_node_id": "0.0-6.0-43.0"}}, {"uniqueid": "w51781759:a66406826", "current_trial": 139, "dateTime": 1664473007188, "trialdata": {"rt": 743, "stimulus": "<p id='stroop-text' class='stroop-yellow'>WINDOW</p>", "response": "y", "stimulus-type": "unrelated", "word": "WINDOW", "color": "yellow", "correct_response": "y", "trial_id": "stroop-trial-1-unrelated-15", "trial_type": "html-keyboard-response", "trial_index": 139, "time_elapsed": 255017, "internal_node_id": "0.0-6.0-44.0"}}, {"uniqueid": "w51781759:a66406826", "current_trial": 140, "dateTime": 1664473008369, "trialdata": {"rt": 676, "stimulus": "<p id='stroop-text' class='stroop-yellow'>BOAT</p>", "response": "y", "stimulus-type": "unrelated", "word": "BOAT", "color": "yellow", "correct_response": "y", "trial_id": "stroop-trial-1-unrelated-16", "trial_type": "html-keyboard-response", "trial_index": 140, "time_elapsed": 256198, "internal_node_id": "0.0-6.0-45.0"}}, {"uniqueid": "w51781759:a66406826", "current_trial": 141, "dateTime": 1664473009622, "trialdata": {"rt": 748, "stimulus": "<p id='stroop-text' class='stroop-blue'>WINDOW</p>", "response": "b", "stimulus-type": "unrelated", "word": "WINDOW", "color": "blue", "correct_response": "b", "trial_id": "stroop-trial-1-unrelated-24", "trial_type": "html-keyboard-response", "trial_index": 141, "time_elapsed": 257450, "internal_node_id": "0.0-6.0-46.0"}}, {"uniqueid": "w51781759:a66406826", "current_trial": 142, "dateTime": 1664473010727, "trialdata": {"rt": 602, "stimulus": "<p id='stroop-text' class='stroop-yellow'>YELLOW</p>", "response": "y", "stimulus-type": "congruent", "word": "yellow", "color": "yellow", "correct_response": "y", "trial_id": "stroop-trial-1-congruent-7", "trial_type": "html-keyboard-response", "trial_index": 142, "time_elapsed": 258556, "internal_node_id": "0.0-6.0-47.0"}}, {"uniqueid": "w51781759:a66406826", "current_trial": 143, "dateTime": 1664473011775, "trialdata": {"rt": 541, "stimulus": "<p id='stroop-text' class='stroop-yellow'>YELLOW</p>", "response": "y", "stimulus-type": "congruent", "word": "yellow", "color": "yellow", "correct_response": "y", "trial_id": "stroop-trial-1-congruent-12", "trial_type": "html-keyboard-response", "trial_index": 143, "time_elapsed": 259603, "internal_node_id": "0.0-6.0-48.0"}}, {"uniqueid": "w51781759:a66406826", "current_trial": 144, "dateTime": 1664473013315, "trialdata": {"rt": 1030, "stimulus": "<p id='stroop-text' class='stroop-red'>RED</p>", "response": "r", "stimulus-type": "congruent", "word": "red", "color": "red", "correct_response": "r", "trial_id": "stroop-trial-1-congruent-5", "trial_type": "html-keyboard-response", "trial_index": 144, "time_elapsed": 261144, "internal_node_id": "0.0-6.0-49.0"}}, {"uniqueid": "w51781759:a66406826", "current_trial": 145, "dateTime": 1664473014323, "trialdata": {"rt": 505, "stimulus": "<p id='stroop-text' class='stroop-red'>YELLOW</p>", "response": "r", "stimulus-type": "incongruent", "word": "yellow", "color": "red", "correct_response": "r", "trial_id": "stroop-trial-1-incongruent-19", "trial_type": "html-keyboard-response", "trial_index": 145, "time_elapsed": 262151, "internal_node_id": "0.0-6.0-50.0"}}, {"uniqueid": "w51781759:a66406826", "current_trial": 146, "dateTime": 1664473015372, "trialdata": {"rt": 546, "stimulus": "<p id='stroop-text' class='stroop-green'>GREEN</p>", "response": "g", "stimulus-type": "congruent", "word": "green", "color": "green", "correct_response": "g", "trial_id": "stroop-trial-1-congruent-21", "trial_type": "html-keyboard-response", "trial_index": 146, "time_elapsed": 263201, "internal_node_id": "0.0-6.0-51.0"}}, {"uniqueid": "w51781759:a66406826", "current_trial": 147, "dateTime": 1664473016741, "trialdata": {"rt": 865, "stimulus": "<p id='stroop-text' class='stroop-yellow'>BLUE</p>", "response": "y", "stimulus-type": "incongruent", "word": "blue", "color": "yellow", "correct_response": "y", "trial_id": "stroop-trial-1-incongruent-26", "trial_type": "html-keyboard-response", "trial_index": 147, "time_elapsed": 264570, "internal_node_id": "0.0-6.0-52.0"}}, {"uniqueid": "w51781759:a66406826", "current_trial": 148, "dateTime": 1664473017772, "trialdata": {"rt": 526, "stimulus": "<p id='stroop-text' class='stroop-red'>BLUE</p>", "response": "r", "stimulus-type": "incongruent", "word": "blue", "color": "red", "correct_response": "r", "trial_id": "stroop-trial-1-incongruent-18", "trial_type": "html-keyboard-response", "trial_index": 148, "time_elapsed": 265601, "internal_node_id": "0.0-6.0-53.0"}}, {"uniqueid": "w51781759:a66406826", "current_trial": 149, "dateTime": 1664473018728, "trialdata": {"rt": 451, "stimulus": "<p id='stroop-text' class='stroop-red'>BOTTLE</p>", "response": "r", "stimulus-type": "unrelated", "word": "BOTTLE", "color": "red", "correct_response": "r", "trial_id": "stroop-trial-1-unrelated-23", "trial_type": "html-keyboard-response", "trial_index": 149, "time_elapsed": 266557, "internal_node_id": "0.0-6.0-54.0"}}, {"uniqueid": "w51781759:a66406826", "current_trial": 150, "dateTime": 1664473019865, "trialdata": {"rt": 633, "stimulus": "<p id='stroop-text' class='stroop-blue'>BLUE</p>", "response": "b", "stimulus-type": "congruent", "word": "blue", "color": "blue", "correct_response": "b", "trial_id": "stroop-trial-1-congruent-8", "trial_type": "html-keyboard-response", "trial_index": 150, "time_elapsed": 267694, "internal_node_id": "0.0-6.0-55.0"}}, {"uniqueid": "w51781759:a66406826", "current_trial": 151, "dateTime": 1664473021041, "trialdata": {"rt": 672, "stimulus": "<p id='stroop-text' class='stroop-yellow'>BLUE</p>", "response": "y", "stimulus-type": "incongruent", "word": "blue", "color": "yellow", "correct_response": "y", "trial_id": "stroop-trial-1-incongruent-23", "trial_type": "html-keyboard-response", "trial_index": 151, "time_elapsed": 268870, "internal_node_id": "0.0-6.0-56.0"}}, {"uniqueid": "w51781759:a66406826", "current_trial": 152, "dateTime": 1664473022218, "trialdata": {"rt": 674, "stimulus": "<p id='stroop-text' class='stroop-green'>BLUE</p>", "response": "g", "stimulus-type": "incongruent", "word": "blue", "color": "green", "correct_response": "g", "trial_id": "stroop-trial-1-incongruent-22", "trial_type": "html-keyboard-response", "trial_index": 152, "time_elapsed": 270046, "internal_node_id": "0.0-6.0-57.0"}}, {"uniqueid": "w51781759:a66406826", "current_trial": 153, "dateTime": 1664473023215, "trialdata": {"rt": 491, "stimulus": "<p id='stroop-text' class='stroop-green'>GREEN</p>", "response": "g", "stimulus-type": "congruent", "word": "green", "color": "green", "correct_response": "g", "trial_id": "stroop-trial-1-congruent-22", "trial_type": "html-keyboard-response", "trial_index": 153, "time_elapsed": 271044, "internal_node_id": "0.0-6.0-58.0"}}, {"uniqueid": "w51781759:a66406826", "current_trial": 154, "dateTime": 1664473024405, "trialdata": {"rt": 687, "stimulus": "<p id='stroop-text' class='stroop-red'>YELLOW</p>", "response": "r", "stimulus-type": "incongruent", "word": "yellow", "color": "red", "correct_response": "r", "trial_id": "stroop-trial-1-incongruent-11", "trial_type": "html-keyboard-response", "trial_index": 154, "time_elapsed": 272234, "internal_node_id": "0.0-6.0-59.0"}}, {"uniqueid": "w51781759:a66406826", "current_trial": 155, "dateTime": 1664473025382, "trialdata": {"rt": 473, "stimulus": "<p id='stroop-text' class='stroop-yellow'>SHIP</p>", "response": "y", "stimulus-type": "unrelated", "word": "SHIP", "color": "yellow", "correct_response": "y", "trial_id": "stroop-trial-1-unrelated-30", "trial_type": "html-keyboard-response", "trial_index": 155, "time_elapsed": 273210, "internal_node_id": "0.0-6.0-60.0"}}, {"uniqueid": "w51781759:a66406826", "current_trial": 156, "dateTime": 1664473026682, "trialdata": {"rt": 797, "stimulus": "<p id='stroop-text' class='stroop-yellow'>GREEN</p>", "response": "y", "stimulus-type": "incongruent", "word": "green", "color": "yellow", "correct_response": "y", "trial_id": "stroop-trial-1-incongruent-9", "trial_type": "html-keyboard-response", "trial_index": 156, "time_elapsed": 274511, "internal_node_id": "0.0-6.0-61.0"}}, {"uniqueid": "w51781759:a66406826", "current_trial": 157, "dateTime": 1664473027585, "trialdata": {"rt": 400, "stimulus": "<p id='stroop-text' class='stroop-green'>YELLOW</p>", "response": "g", "stimulus-type": "incongruent", "word": "yellow", "color": "green", "correct_response": "g", "trial_id": "stroop-trial-1-incongruent-10", "trial_type": "html-keyboard-response", "trial_index": 157, "time_elapsed": 275414, "internal_node_id": "0.0-6.0-62.0"}}, {"uniqueid": "w51781759:a66406826", "current_trial": 158, "dateTime": 1664473028717, "trialdata": {"rt": 629, "stimulus": "<p id='stroop-text' class='stroop-blue'>BLUE</p>", "response": "b", "stimulus-type": "congruent", "word": "blue", "color": "blue", "correct_response": "b", "trial_id": "stroop-trial-1-congruent-4", "trial_type": "html-keyboard-response", "trial_index": 158, "time_elapsed": 276546, "internal_node_id": "0.0-6.0-63.0"}}, {"uniqueid": "w51781759:a66406826", "current_trial": 159, "dateTime": 1664473029769, "trialdata": {"rt": 547, "stimulus": "<p id='stroop-text' class='stroop-yellow'>CHAIR</p>", "response": "y", "stimulus-type": "unrelated", "word": "CHAIR", "color": "yellow", "correct_response": "y", "trial_id": "stroop-trial-1-unrelated-8", "trial_type": "html-keyboard-response", "trial_index": 159, "time_elapsed": 277597, "internal_node_id": "0.0-6.0-64.0"}}, {"uniqueid": "w51781759:a66406826", "current_trial": 160, "dateTime": 1664473030759, "trialdata": {"rt": 487, "stimulus": "<p id='stroop-text' class='stroop-red'>RED</p>", "response": "r", "stimulus-type": "congruent", "word": "red", "color": "red", "correct_response": "r", "trial_id": "stroop-trial-1-congruent-16", "trial_type": "html-keyboard-response", "trial_index": 160, "time_elapsed": 278588, "internal_node_id": "0.0-6.0-65.0"}}, {"uniqueid": "w51781759:a66406826", "current_trial": 161, "dateTime": 1664473032020, "trialdata": {"rt": 755, "stimulus": "<p id='stroop-text' class='stroop-yellow'>GREEN</p>", "response": "y", "stimulus-type": "incongruent", "word": "green", "color": "yellow", "correct_response": "y", "trial_id": "stroop-trial-1-incongruent-3", "trial_type": "html-keyboard-response", "trial_index": 161, "time_elapsed": 279849, "internal_node_id": "0.0-6.0-66.0"}}, {"uniqueid": "w51781759:a66406826", "current_trial": 162, "dateTime": 1664473033149, "trialdata": {"rt": 625, "stimulus": "<p id='stroop-text' class='stroop-red'>MONKEY</p>", "response": "r", "stimulus-type": "unrelated", "word": "MONKEY", "color": "red", "correct_response": "r", "trial_id": "stroop-trial-1-unrelated-9", "trial_type": "html-keyboard-response", "trial_index": 162, "time_elapsed": 280978, "internal_node_id": "0.0-6.0-67.0"}}, {"uniqueid": "w51781759:a66406826", "current_trial": 163, "dateTime": 1664473034054, "trialdata": {"rt": 402, "stimulus": "<p id='stroop-text' class='stroop-red'>RED</p>", "response": "r", "stimulus-type": "congruent", "word": "red", "color": "red", "correct_response": "r", "trial_id": "stroop-trial-1-congruent-17", "trial_type": "html-keyboard-response", "trial_index": 163, "time_elapsed": 281883, "internal_node_id": "0.0-6.0-68.0"}}, {"uniqueid": "w51781759:a66406826", "current_trial": 164, "dateTime": 1664473034980, "trialdata": {"rt": 419, "stimulus": "<p id='stroop-text' class='stroop-red'>YELLOW</p>", "response": "r", "stimulus-type": "incongruent", "word": "yellow", "color": "red", "correct_response": "r", "trial_id": "stroop-trial-1-incongruent-16", "trial_type": "html-keyboard-response", "trial_index": 164, "time_elapsed": 282809, "internal_node_id": "0.0-6.0-69.0"}}, {"uniqueid": "w51781759:a66406826", "current_trial": 165, "dateTime": 1664473036377, "trialdata": {"rt": 892, "stimulus": "<p id='stroop-text' class='stroop-green'>GREEN</p>", "response": "g", "stimulus-type": "congruent", "word": "green", "color": "green", "correct_response": "g", "trial_id": "stroop-trial-1-congruent-19", "trial_type": "html-keyboard-response", "trial_index": 165, "time_elapsed": 284206, "internal_node_id": "0.0-6.0-70.0"}}, {"uniqueid": "w51781759:a66406826", "current_trial": 166, "dateTime": 1664473037328, "trialdata": {"rt": 446, "stimulus": "<p id='stroop-text' class='stroop-green'>BRIDGE</p>", "response": "g", "stimulus-type": "unrelated", "word": "BRIDGE", "color": "green", "correct_response": "g", "trial_id": "stroop-trial-1-unrelated-2", "trial_type": "html-keyboard-response", "trial_index": 166, "time_elapsed": 285156, "internal_node_id": "0.0-6.0-71.0"}}, {"uniqueid": "w51781759:a66406826", "current_trial": 167, "dateTime": 1664473038295, "trialdata": {"rt": 463, "stimulus": "<p id='stroop-text' class='stroop-red'>YELLOW</p>", "response": "r", "stimulus-type": "incongruent", "word": "yellow", "color": "red", "correct_response": "r", "trial_id": "stroop-trial-1-incongruent-27", "trial_type": "html-keyboard-response", "trial_index": 167, "time_elapsed": 286124, "internal_node_id": "0.0-6.0-72.0"}}, {"uniqueid": "w51781759:a66406826", "current_trial": 168, "dateTime": 1664473039356, "trialdata": {"rt": 557, "stimulus": "<p id='stroop-text' class='stroop-red'>RED</p>", "response": "r", "stimulus-type": "congruent", "word": "red", "color": "red", "correct_response": "r", "trial_id": "stroop-trial-1-congruent-26", "trial_type": "html-keyboard-response", "trial_index": 168, "time_elapsed": 287185, "internal_node_id": "0.0-6.0-73.0"}}, {"uniqueid": "w51781759:a66406826", "current_trial": 169, "dateTime": 1664473040418, "trialdata": {"rt": 557, "stimulus": "<p id='stroop-text' class='stroop-yellow'>RED</p>", "response": "y", "stimulus-type": "incongruent", "word": "red", "color": "yellow", "correct_response": "y", "trial_id": "stroop-trial-1-incongruent-8", "trial_type": "html-keyboard-response", "trial_index": 169, "time_elapsed": 288247, "internal_node_id": "0.0-6.0-74.0"}}, {"uniqueid": "w51781759:a66406826", "current_trial": 170, "dateTime": 1664473041285, "trialdata": {"rt": 363, "stimulus": "<p id='stroop-text' class='stroop-yellow'>YELLOW</p>", "response": "y", "stimulus-type": "congruent", "word": "yellow", "color": "yellow", "correct_response": "y", "trial_id": "stroop-trial-1-congruent-28", "trial_type": "html-keyboard-response", "trial_index": 170, "time_elapsed": 289114, "internal_node_id": "0.0-6.0-75.0"}}, {"uniqueid": "w51781759:a66406826", "current_trial": 171, "dateTime": 1664473042212, "trialdata": {"rt": 423, "stimulus": "<p id='stroop-text' class='stroop-red'>RED</p>", "response": "r", "stimulus-type": "congruent", "word": "red", "color": "red", "correct_response": "r", "trial_id": "stroop-trial-1-congruent-25", "trial_type": "html-keyboard-response", "trial_index": 171, "time_elapsed": 290041, "internal_node_id": "0.0-6.0-76.0"}}, {"uniqueid": "w51781759:a66406826", "current_trial": 172, "dateTime": 1664473043252, "trialdata": {"rt": 535, "stimulus": "<p id='stroop-text' class='stroop-green'>YELLOW</p>", "response": "y", "stimulus-type": "incongruent", "word": "yellow", "color": "green", "correct_response": "g", "trial_id": "stroop-trial-1-incongruent-4", "trial_type": "html-keyboard-response", "trial_index": 172, "time_elapsed": 291080, "internal_node_id": "0.0-6.0-77.0"}}, {"uniqueid": "w51781759:a66406826", "current_trial": 173, "dateTime": 1664473044568, "trialdata": {"rt": 813, "stimulus": "<p id='stroop-text' class='stroop-yellow'>WINDOW</p>", "response": "y", "stimulus-type": "unrelated", "word": "WINDOW", "color": "yellow", "correct_response": "y", "trial_id": "stroop-trial-1-unrelated-17", "trial_type": "html-keyboard-response", "trial_index": 173, "time_elapsed": 292397, "internal_node_id": "0.0-6.0-78.0"}}, {"uniqueid": "w51781759:a66406826", "current_trial": 174, "dateTime": 1664473046197, "trialdata": {"rt": 1124, "stimulus": "<p id='stroop-text' class='stroop-blue'>CHAIR</p>", "response": "b", "stimulus-type": "unrelated", "word": "CHAIR", "color": "blue", "correct_response": "b", "trial_id": "stroop-trial-1-unrelated-25", "trial_type": "html-keyboard-response", "trial_index": 174, "time_elapsed": 294025, "internal_node_id": "0.0-6.0-79.0"}}, {"uniqueid": "w51781759:a66406826", "current_trial": 175, "dateTime": 1664473047159, "trialdata": {"rt": 458, "stimulus": "<p id='stroop-text' class='stroop-blue'>DOG</p>", "response": "b", "stimulus-type": "unrelated", "word": "DOG", "color": "blue", "correct_response": "b", "trial_id": "stroop-trial-1-unrelated-19", "trial_type": "html-keyboard-response", "trial_index": 175, "time_elapsed": 294987, "internal_node_id": "0.0-6.0-80.0"}}, {"uniqueid": "w51781759:a66406826", "current_trial": 176, "dateTime": 1664473048078, "trialdata": {"rt": 415, "stimulus": "<p id='stroop-text' class='stroop-red'>RED</p>", "response": "r", "stimulus-type": "congruent", "word": "red", "color": "red", "correct_response": "r", "trial_id": "stroop-trial-1-congruent-3", "trial_type": "html-keyboard-response", "trial_index": 176, "time_elapsed": 295907, "internal_node_id": "0.0-6.0-81.0"}}, {"uniqueid": "w51781759:a66406826", "current_trial": 177, "dateTime": 1664473049158, "trialdata": {"rt": 576, "stimulus": "<p id='stroop-text' class='stroop-yellow'>YELLOW</p>", "response": "y", "stimulus-type": "congruent", "word": "yellow", "color": "yellow", "correct_response": "y", "trial_id": "stroop-trial-1-congruent-23", "trial_type": "html-keyboard-response", "trial_index": 177, "time_elapsed": 296986, "internal_node_id": "0.0-6.0-82.0"}}, {"uniqueid": "w51781759:a66406826", "current_trial": 178, "dateTime": 1664473050089, "trialdata": {"rt": 428, "stimulus": "<p id='stroop-text' class='stroop-red'>BRAIN</p>", "response": "r", "stimulus-type": "unrelated", "word": "BRAIN", "color": "red", "correct_response": "r", "trial_id": "stroop-trial-1-unrelated-5", "trial_type": "html-keyboard-response", "trial_index": 178, "time_elapsed": 297918, "internal_node_id": "0.0-6.0-83.0"}}, {"uniqueid": "w51781759:a66406826", "current_trial": 179, "dateTime": 1664473051089, "trialdata": {"rt": 496, "stimulus": "<p id='stroop-text' class='stroop-red'>FORK</p>", "response": "r", "stimulus-type": "unrelated", "word": "FORK", "color": "red", "correct_response": "r", "trial_id": "stroop-trial-1-unrelated-1", "trial_type": "html-keyboard-response", "trial_index": 179, "time_elapsed": 298917, "internal_node_id": "0.0-6.0-84.0"}}, {"uniqueid": "w51781759:a66406826", "current_trial": 180, "dateTime": 1664473051972, "trialdata": {"rt": 379, "stimulus": "<p id='stroop-text' class='stroop-red'>RED</p>", "response": "r", "stimulus-type": "congruent", "word": "red", "color": "red", "correct_response": "r", "trial_id": "stroop-trial-1-congruent-6", "trial_type": "html-keyboard-response", "trial_index": 180, "time_elapsed": 299801, "internal_node_id": "0.0-6.0-85.0"}}, {"uniqueid": "w51781759:a66406826", "current_trial": 181, "dateTime": 1664473052899, "trialdata": {"rt": 425, "stimulus": "<p id='stroop-text' class='stroop-blue'>SHIP</p>", "response": "y", "stimulus-type": "unrelated", "word": "SHIP", "color": "blue", "correct_response": "b", "trial_id": "stroop-trial-1-unrelated-18", "trial_type": "html-keyboard-response", "trial_index": 181, "time_elapsed": 300728, "internal_node_id": "0.0-6.0-86.0"}}, {"uniqueid": "w51781759:a66406826", "current_trial": 182, "dateTime": 1664473053930, "trialdata": {"rt": 528, "stimulus": "<p id='stroop-text' class='stroop-red'>RED</p>", "response": "r", "stimulus-type": "congruent", "word": "red", "color": "red", "correct_response": "r", "trial_id": "stroop-trial-1-congruent-2", "trial_type": "html-keyboard-response", "trial_index": 182, "time_elapsed": 301759, "internal_node_id": "0.0-6.0-87.0"}}, {"uniqueid": "w51781759:a66406826", "current_trial": 183, "dateTime": 1664473055418, "trialdata": {"rt": 986, "stimulus": "<p id='stroop-text' class='stroop-green'>GREEN</p>", "response": "g", "stimulus-type": "congruent", "word": "green", "color": "green", "correct_response": "g", "trial_id": "stroop-trial-1-congruent-15", "trial_type": "html-keyboard-response", "trial_index": 183, "time_elapsed": 303247, "internal_node_id": "0.0-6.0-88.0"}}, {"uniqueid": "w51781759:a66406826", "current_trial": 184, "dateTime": 1664473056910, "trialdata": {"rt": 987, "stimulus": "<p id='stroop-text' class='stroop-blue'>RED</p>", "response": "b", "stimulus-type": "incongruent", "word": "red", "color": "blue", "correct_response": "b", "trial_id": "stroop-trial-1-incongruent-2", "trial_type": "html-keyboard-response", "trial_index": 184, "time_elapsed": 304739, "internal_node_id": "0.0-6.0-89.0"}}, {"uniqueid": "w51781759:a66406826", "current_trial": 185, "dateTime": 1664473216224, "trialdata": {"rt": 158809, "stimulus": "  <h1> End of block! </h1>\n\n  You have reached the end of the block 2/5. If you need a short break, feel free to take one now before moving on.\n\n  <br><br>\n  In the next block, you will complete another 90 rounds of this game.\n\n  <br><br>\n  <div style='text-align: center;'>Press <code>space</code> to begin.</div>\n  <br><br>\n<div style='text-align: center;'>(If the experiment doesn't continue, try clicking on the text and then pressing <code>space</code>.)</div>", "response": " ", "trial_id": "stroop_1_ready_3", "trial_type": "html-keyboard-response", "trial_index": 185, "time_elapsed": 464053, "internal_node_id": "0.0-7.0"}}, {"uniqueid": "w51781759:a66406826", "current_trial": 186, "dateTime": 1664473217246, "trialdata": {"rt": 1019, "stimulus": "<p id='stroop-text' class='stroop-red'>RED</p>", "response": "r", "stimulus-type": "congruent", "word": "red", "color": "red", "correct_response": "r", "trial_id": "stroop-trial-1-congruent-29", "trial_type": "html-keyboard-response", "trial_index": 186, "time_elapsed": 465074, "internal_node_id": "0.0-8.0-0.0"}}, {"uniqueid": "w51781759:a66406826", "current_trial": 187, "dateTime": 1664473218362, "trialdata": {"rt": 612, "stimulus": "<p id='stroop-text' class='stroop-green'>RED</p>", "response": "g", "stimulus-type": "incongruent", "word": "red", "color": "green", "correct_response": "g", "trial_id": "stroop-trial-1-incongruent-4", "trial_type": "html-keyboard-response", "trial_index": 187, "time_elapsed": 466190, "internal_node_id": "0.0-8.0-1.0"}}, {"uniqueid": "w51781759:a66406826", "current_trial": 188, "dateTime": 1664473219698, "trialdata": {"rt": 832, "stimulus": "<p id='stroop-text' class='stroop-yellow'>YELLOW</p>", "response": "y", "stimulus-type": "congruent", "word": "yellow", "color": "yellow", "correct_response": "y", "trial_id": "stroop-trial-1-congruent-20", "trial_type": "html-keyboard-response", "trial_index": 188, "time_elapsed": 467526, "internal_node_id": "0.0-8.0-2.0"}}, {"uniqueid": "w51781759:a66406826", "current_trial": 189, "dateTime": 1664473220600, "trialdata": {"rt": 397, "stimulus": "<p id='stroop-text' class='stroop-yellow'>YELLOW</p>", "response": "y", "stimulus-type": "congruent", "word": "yellow", "color": "yellow", "correct_response": "y", "trial_id": "stroop-trial-1-congruent-2", "trial_type": "html-keyboard-response", "trial_index": 189, "time_elapsed": 468428, "internal_node_id": "0.0-8.0-3.0"}}, {"uniqueid": "w51781759:a66406826", "current_trial": 190, "dateTime": 1664473221665, "trialdata": {"rt": 560, "stimulus": "<p id='stroop-text' class='stroop-green'>GREEN</p>", "response": "g", "stimulus-type": "congruent", "word": "green", "color": "green", "correct_response": "g", "trial_id": "stroop-trial-1-congruent-28", "trial_type": "html-keyboard-response", "trial_index": 190, "time_elapsed": 469494, "internal_node_id": "0.0-8.0-4.0"}}, {"uniqueid": "w51781759:a66406826", "current_trial": 191, "dateTime": 1664473222622, "trialdata": {"rt": 444, "stimulus": "<p id='stroop-text' class='stroop-red'>GREEN</p>", "response": "r", "stimulus-type": "incongruent", "word": "green", "color": "red", "correct_response": "r", "trial_id": "stroop-trial-1-incongruent-23", "trial_type": "html-keyboard-response", "trial_index": 191, "time_elapsed": 470451, "internal_node_id": "0.0-8.0-5.0"}}, {"uniqueid": "w51781759:a66406826", "current_trial": 192, "dateTime": 1664473223587, "trialdata": {"rt": 449, "stimulus": "<p id='stroop-text' class='stroop-green'>GREEN</p>", "response": "g", "stimulus-type": "congruent", "word": "green", "color": "green", "correct_response": "g", "trial_id": "stroop-trial-1-congruent-11", "trial_type": "html-keyboard-response", "trial_index": 192, "time_elapsed": 471416, "internal_node_id": "0.0-8.0-6.0"}}, {"uniqueid": "w51781759:a66406826", "current_trial": 193, "dateTime": 1664473224594, "trialdata": {"rt": 502, "stimulus": "<p id='stroop-text' class='stroop-yellow'>WINDOW</p>", "response": "y", "stimulus-type": "unrelated", "word": "WINDOW", "color": "yellow", "correct_response": "y", "trial_id": "stroop-trial-1-unrelated-9", "trial_type": "html-keyboard-response", "trial_index": 193, "time_elapsed": 472423, "internal_node_id": "0.0-8.0-7.0"}}, {"uniqueid": "w51781759:a66406826", "current_trial": 194, "dateTime": 1664473225675, "trialdata": {"rt": 571, "stimulus": "<p id='stroop-text' class='stroop-green'>YELLOW</p>", "response": "y", "stimulus-type": "incongruent", "word": "yellow", "color": "green", "correct_response": "g", "trial_id": "stroop-trial-1-incongruent-20", "trial_type": "html-keyboard-response", "trial_index": 194, "time_elapsed": 473504, "internal_node_id": "0.0-8.0-8.0"}}, {"uniqueid": "w51781759:a66406826", "current_trial": 195, "dateTime": 1664473226892, "trialdata": {"rt": 702, "stimulus": "<p id='stroop-text' class='stroop-green'>BLUE</p>", "response": "g", "stimulus-type": "incongruent", "word": "blue", "color": "green", "correct_response": "g", "trial_id": "stroop-trial-1-incongruent-12", "trial_type": "html-keyboard-response", "trial_index": 195, "time_elapsed": 474721, "internal_node_id": "0.0-8.0-9.0"}}, {"uniqueid": "w51781759:a66406826", "current_trial": 196, "dateTime": 1664473228396, "trialdata": {"rt": 999, "stimulus": "<p id='stroop-text' class='stroop-blue'>BLUE</p>", "response": "b", "stimulus-type": "congruent", "word": "blue", "color": "blue", "correct_response": "b", "trial_id": "stroop-trial-1-congruent-3", "trial_type": "html-keyboard-response", "trial_index": 196, "time_elapsed": 476224, "internal_node_id": "0.0-8.0-10.0"}}, {"uniqueid": "w51781759:a66406826", "current_trial": 197, "dateTime": 1664473229394, "trialdata": {"rt": 493, "stimulus": "<p id='stroop-text' class='stroop-red'>DOG</p>", "response": "r", "stimulus-type": "unrelated", "word": "DOG", "color": "red", "correct_response": "r", "trial_id": "stroop-trial-1-unrelated-24", "trial_type": "html-keyboard-response", "trial_index": 197, "time_elapsed": 477223, "internal_node_id": "0.0-8.0-11.0"}}, {"uniqueid": "w51781759:a66406826", "current_trial": 198, "dateTime": 1664473230602, "trialdata": {"rt": 703, "stimulus": "<p id='stroop-text' class='stroop-green'>GREEN</p>", "response": "g", "stimulus-type": "congruent", "word": "green", "color": "green", "correct_response": "g", "trial_id": "stroop-trial-1-congruent-24", "trial_type": "html-keyboard-response", "trial_index": 198, "time_elapsed": 478430, "internal_node_id": "0.0-8.0-12.0"}}, {"uniqueid": "w51781759:a66406826", "current_trial": 199, "dateTime": 1664473231928, "trialdata": {"rt": 822, "stimulus": "<p id='stroop-text' class='stroop-blue'>YELLOW</p>", "response": "b", "stimulus-type": "incongruent", "word": "yellow", "color": "blue", "correct_response": "b", "trial_id": "stroop-trial-1-incongruent-17", "trial_type": "html-keyboard-response", "trial_index": 199, "time_elapsed": 479757, "internal_node_id": "0.0-8.0-13.0"}}, {"uniqueid": "w51781759:a66406826", "current_trial": 200, "dateTime": 1664473233031, "trialdata": {"rt": 599, "stimulus": "<p id='stroop-text' class='stroop-green'>FORK</p>", "response": "y", "stimulus-type": "unrelated", "word": "FORK", "color": "green", "correct_response": "g", "trial_id": "stroop-trial-1-unrelated-18", "trial_type": "html-keyboard-response", "trial_index": 200, "time_elapsed": 480860, "internal_node_id": "0.0-8.0-14.0"}}, {"uniqueid": "w51781759:a66406826", "current_trial": 201, "dateTime": 1664473234001, "trialdata": {"rt": 464, "stimulus": "<p id='stroop-text' class='stroop-red'>RED</p>", "response": "r", "stimulus-type": "congruent", "word": "red", "color": "red", "correct_response": "r", "trial_id": "stroop-trial-1-congruent-5", "trial_type": "html-keyboard-response", "trial_index": 201, "time_elapsed": 481829, "internal_node_id": "0.0-8.0-15.0"}}, {"uniqueid": "w51781759:a66406826", "current_trial": 202, "dateTime": 1664473235403, "trialdata": {"rt": 898, "stimulus": "<p id='stroop-text' class='stroop-blue'>BOAT</p>", "response": "b", "stimulus-type": "unrelated", "word": "BOAT", "color": "blue", "correct_response": "b", "trial_id": "stroop-trial-1-unrelated-5", "trial_type": "html-keyboard-response", "trial_index": 202, "time_elapsed": 483232, "internal_node_id": "0.0-8.0-16.0"}}, {"uniqueid": "w51781759:a66406826", "current_trial": 203, "dateTime": 1664473236349, "trialdata": {"rt": 442, "stimulus": "<p id='stroop-text' class='stroop-blue'>BOAT</p>", "response": "b", "stimulus-type": "unrelated", "word": "BOAT", "color": "blue", "correct_response": "b", "trial_id": "stroop-trial-1-unrelated-6", "trial_type": "html-keyboard-response", "trial_index": 203, "time_elapsed": 484177, "internal_node_id": "0.0-8.0-17.0"}}, {"uniqueid": "w51781759:a66406826", "current_trial": 204, "dateTime": 1664473237306, "trialdata": {"rt": 451, "stimulus": "<p id='stroop-text' class='stroop-green'>GREEN</p>", "response": "g", "stimulus-type": "congruent", "word": "green", "color": "green", "correct_response": "g", "trial_id": "stroop-trial-1-congruent-10", "trial_type": "html-keyboard-response", "trial_index": 204, "time_elapsed": 485134, "internal_node_id": "0.0-8.0-18.0"}}, {"uniqueid": "w51781759:a66406826", "current_trial": 205, "dateTime": 1664473238376, "trialdata": {"rt": 560, "stimulus": "<p id='stroop-text' class='stroop-red'>YELLOW</p>", "response": "y", "stimulus-type": "incongruent", "word": "yellow", "color": "red", "correct_response": "r", "trial_id": "stroop-trial-1-incongruent-29", "trial_type": "html-keyboard-response", "trial_index": 205, "time_elapsed": 486205, "internal_node_id": "0.0-8.0-19.0"}}, {"uniqueid": "w51781759:a66406826", "current_trial": 206, "dateTime": 1664473239474, "trialdata": {"rt": 592, "stimulus": "<p id='stroop-text' class='stroop-yellow'>FORK</p>", "response": "y", "stimulus-type": "unrelated", "word": "FORK", "color": "yellow", "correct_response": "y", "trial_id": "stroop-trial-1-unrelated-7", "trial_type": "html-keyboard-response", "trial_index": 206, "time_elapsed": 487302, "internal_node_id": "0.0-8.0-20.0"}}, {"uniqueid": "w51781759:a66406826", "current_trial": 207, "dateTime": 1664473240465, "trialdata": {"rt": 488, "stimulus": "<p id='stroop-text' class='stroop-yellow'>DOG</p>", "response": "y", "stimulus-type": "unrelated", "word": "DOG", "color": "yellow", "correct_response": "y", "trial_id": "stroop-trial-1-unrelated-25", "trial_type": "html-keyboard-response", "trial_index": 207, "time_elapsed": 488294, "internal_node_id": "0.0-8.0-21.0"}}, {"uniqueid": "w51781759:a66406826", "current_trial": 208, "dateTime": 1664473241412, "trialdata": {"rt": 441, "stimulus": "<p id='stroop-text' class='stroop-yellow'>MONKEY</p>", "response": "y", "stimulus-type": "unrelated", "word": "MONKEY", "color": "yellow", "correct_response": "y", "trial_id": "stroop-trial-1-unrelated-28", "trial_type": "html-keyboard-response", "trial_index": 208, "time_elapsed": 489240, "internal_node_id": "0.0-8.0-22.0"}}, {"uniqueid": "w51781759:a66406826", "current_trial": 209, "dateTime": 1664473242347, "trialdata": {"rt": 431, "stimulus": "<p id='stroop-text' class='stroop-red'>MONKEY</p>", "response": "r", "stimulus-type": "unrelated", "word": "MONKEY", "color": "red", "correct_response": "r", "trial_id": "stroop-trial-1-unrelated-14", "trial_type": "html-keyboard-response", "trial_index": 209, "time_elapsed": 490175, "internal_node_id": "0.0-8.0-23.0"}}, {"uniqueid": "w51781759:a66406826", "current_trial": 210, "dateTime": 1664473243593, "trialdata": {"rt": 742, "stimulus": "<p id='stroop-text' class='stroop-blue'>BLUE</p>", "response": "b", "stimulus-type": "congruent", "word": "blue", "color": "blue", "correct_response": "b", "trial_id": "stroop-trial-1-congruent-27", "trial_type": "html-keyboard-response", "trial_index": 210, "time_elapsed": 491422, "internal_node_id": "0.0-8.0-24.0"}}, {"uniqueid": "w51781759:a66406826", "current_trial": 211, "dateTime": 1664473245115, "trialdata": {"rt": 1017, "stimulus": "<p id='stroop-text' class='stroop-red'>GREEN</p>", "response": "r", "stimulus-type": "incongruent", "word": "green", "color": "red", "correct_response": "r", "trial_id": "stroop-trial-1-incongruent-28", "trial_type": "html-keyboard-response", "trial_index": 211, "time_elapsed": 492944, "internal_node_id": "0.0-8.0-25.0"}}, {"uniqueid": "w51781759:a66406826", "current_trial": 212, "dateTime": 1664473246437, "trialdata": {"rt": 809, "stimulus": "<p id='stroop-text' class='stroop-blue'>RED</p>", "response": "b", "stimulus-type": "incongruent", "word": "red", "color": "blue", "correct_response": "b", "trial_id": "stroop-trial-1-incongruent-11", "trial_type": "html-keyboard-response", "trial_index": 212, "time_elapsed": 494266, "internal_node_id": "0.0-8.0-26.0"}}, {"uniqueid": "w51781759:a66406826", "current_trial": 213, "dateTime": 1664473247363, "trialdata": {"rt": 423, "stimulus": "<p id='stroop-text' class='stroop-red'>RED</p>", "response": "r", "stimulus-type": "congruent", "word": "red", "color": "red", "correct_response": "r", "trial_id": "stroop-trial-1-congruent-21", "trial_type": "html-keyboard-response", "trial_index": 213, "time_elapsed": 495192, "internal_node_id": "0.0-8.0-27.0"}}, {"uniqueid": "w51781759:a66406826", "current_trial": 214, "dateTime": 1664473248339, "trialdata": {"rt": 472, "stimulus": "<p id='stroop-text' class='stroop-blue'>BLUE</p>", "response": "g", "stimulus-type": "congruent", "word": "blue", "color": "blue", "correct_response": "b", "trial_id": "stroop-trial-1-congruent-30", "trial_type": "html-keyboard-response", "trial_index": 214, "time_elapsed": 496168, "internal_node_id": "0.0-8.0-28.0"}}, {"uniqueid": "w51781759:a66406826", "current_trial": 215, "dateTime": 1664473249278, "trialdata": {"rt": 433, "stimulus": "<p id='stroop-text' class='stroop-blue'>BLUE</p>", "response": "b", "stimulus-type": "congruent", "word": "blue", "color": "blue", "correct_response": "b", "trial_id": "stroop-trial-1-congruent-23", "trial_type": "html-keyboard-response", "trial_index": 215, "time_elapsed": 497106, "internal_node_id": "0.0-8.0-29.0"}}, {"uniqueid": "w51781759:a66406826", "current_trial": 216, "dateTime": 1664473250251, "trialdata": {"rt": 467, "stimulus": "<p id='stroop-text' class='stroop-yellow'>YELLOW</p>", "response": "y", "stimulus-type": "congruent", "word": "yellow", "color": "yellow", "correct_response": "y", "trial_id": "stroop-trial-1-congruent-17", "trial_type": "html-keyboard-response", "trial_index": 216, "time_elapsed": 498080, "internal_node_id": "0.0-8.0-30.0"}}, {"uniqueid": "w51781759:a66406826", "current_trial": 217, "dateTime": 1664473251455, "trialdata": {"rt": 700, "stimulus": "<p id='stroop-text' class='stroop-red'>WINDOW</p>", "response": "r", "stimulus-type": "unrelated", "word": "WINDOW", "color": "red", "correct_response": "r", "trial_id": "stroop-trial-1-unrelated-8", "trial_type": "html-keyboard-response", "trial_index": 217, "time_elapsed": 499283, "internal_node_id": "0.0-8.0-31.0"}}, {"uniqueid": "w51781759:a66406826", "current_trial": 218, "dateTime": 1664473252435, "trialdata": {"rt": 475, "stimulus": "<p id='stroop-text' class='stroop-red'>YELLOW</p>", "response": "r", "stimulus-type": "incongruent", "word": "yellow", "color": "red", "correct_response": "r", "trial_id": "stroop-trial-1-incongruent-2", "trial_type": "html-keyboard-response", "trial_index": 218, "time_elapsed": 500263, "internal_node_id": "0.0-8.0-32.0"}}, {"uniqueid": "w51781759:a66406826", "current_trial": 219, "dateTime": 1664473253742, "trialdata": {"rt": 803, "stimulus": "<p id='stroop-text' class='stroop-blue'>BLUE</p>", "response": "b", "stimulus-type": "congruent", "word": "blue", "color": "blue", "correct_response": "b", "trial_id": "stroop-trial-1-congruent-1", "trial_type": "html-keyboard-response", "trial_index": 219, "time_elapsed": 501570, "internal_node_id": "0.0-8.0-33.0"}}, {"uniqueid": "w51781759:a66406826", "current_trial": 220, "dateTime": 1664473254863, "trialdata": {"rt": 617, "stimulus": "<p id='stroop-text' class='stroop-blue'>STONE</p>", "response": "b", "stimulus-type": "unrelated", "word": "STONE", "color": "blue", "correct_response": "b", "trial_id": "stroop-trial-1-unrelated-2", "trial_type": "html-keyboard-response", "trial_index": 220, "time_elapsed": 502692, "internal_node_id": "0.0-8.0-34.0"}}, {"uniqueid": "w51781759:a66406826", "current_trial": 221, "dateTime": 1664473255919, "trialdata": {"rt": 550, "stimulus": "<p id='stroop-text' class='stroop-red'>RED</p>", "response": "r", "stimulus-type": "congruent", "word": "red", "color": "red", "correct_response": "r", "trial_id": "stroop-trial-1-congruent-25", "trial_type": "html-keyboard-response", "trial_index": 221, "time_elapsed": 503747, "internal_node_id": "0.0-8.0-35.0"}}, {"uniqueid": "w51781759:a66406826", "current_trial": 222, "dateTime": 1664473257135, "trialdata": {"rt": 713, "stimulus": "<p id='stroop-text' class='stroop-red'>GREEN</p>", "response": "r", "stimulus-type": "incongruent", "word": "green", "color": "red", "correct_response": "r", "trial_id": "stroop-trial-1-incongruent-3", "trial_type": "html-keyboard-response", "trial_index": 222, "time_elapsed": 504964, "inte