{"condition": 0, "counterbalance": 0, "assignmentId": "a97213304", "workerId": "w62487913", "hitId": "h16080363", "currenttrial": 965, "bonus": 0, "data": [{"uniqueid": "w62487913:a97213304", "current_trial": 0, "dateTime": 1664464112390, "trialdata": {"success": true, "trial_type": "fullscreen", "trial_index": 0, "time_elapsed": 5427, "internal_node_id": "0.0-0.0"}}, {"uniqueid": "w62487913:a97213304", "current_trial": 1, "dateTime": 1664464160317, "trialdata": {"view_history": [{"page_index": 0, "viewing_time": 47920}], "rt": 47921, "trial_id": "exp_instructions_distractor", "trial_type": "instructions", "trial_index": 1, "time_elapsed": 53355, "internal_node_id": "0.0-1.0"}}, {"uniqueid": "w62487913:a97213304", "current_trial": 2, "dateTime": 1664464322240, "trialdata": {"view_history": [{"page_index": 0, "viewing_time": 161919}], "rt": 161920, "trial_id": "color_game_instructions", "trial_type": "instructions", "trial_index": 2, "time_elapsed": 215278, "internal_node_id": "0.0-2.0"}}, {"uniqueid": "w62487913:a97213304", "current_trial": 3, "dateTime": 1664464336126, "trialdata": {"rt": 13883, "stimulus": "<h1> Get ready to start the game! </h1>\n\nThank you for reading the instructions. Get ready start with the first of 5 block(s) of this game.\n<br><br>\nIn this first block, you will complete 90 rounds of this game before moving on.\n<br><br>\nRemember, the better you perform, the bigger your bonus will be!\n<br><br>\n<div style='text-align: center;'>Press <code>space</code> to begin.</div>", "response": " ", "trial_id": "stroop_1_ready_1", "trial_type": "html-keyboard-response", "trial_index": 3, "time_elapsed": 229164, "internal_node_id": "0.0-3.0"}}, {"uniqueid": "w62487913:a97213304", "current_trial": 4, "dateTime": 1664464338424, "trialdata": {"rt": 2290, "stimulus": "<p id='stroop-text' class='stroop-red'>YELLOW</p>", "response": "r", "stimulus-type": "incongruent", "word": "yellow", "color": "red", "correct_response": "r", "trial_id": "stroop-trial-1-incongruent-29", "trial_type": "html-keyboard-response", "trial_index": 4, "time_elapsed": 231461, "internal_node_id": "0.0-4.0-0.0"}}, {"uniqueid": "w62487913:a97213304", "current_trial": 5, "dateTime": 1664464341297, "trialdata": {"rt": 2369, "stimulus": "<p id='stroop-text' class='stroop-red'>BLUE</p>", "response": "r", "stimulus-type": "incongruent", "word": "blue", "color": "red", "correct_response": "r", "trial_id": "stroop-trial-1-incongruent-15", "trial_type": "html-keyboard-response", "trial_index": 5, "time_elapsed": 234334, "internal_node_id": "0.0-4.0-1.0"}}, {"uniqueid": "w62487913:a97213304", "current_trial": 6, "dateTime": 1664464343096, "trialdata": {"rt": 1294, "stimulus": "<p id='stroop-text' class='stroop-red'>MONKEY</p>", "response": "r", "stimulus-type": "unrelated", "word": "MONKEY", "color": "red", "correct_response": "r", "trial_id": "stroop-trial-1-unrelated-25", "trial_type": "html-keyboard-response", "trial_index": 6, "time_elapsed": 236133, "internal_node_id": "0.0-4.0-2.0"}}, {"uniqueid": "w62487913:a97213304", "current_trial": 7, "dateTime": 1664464345241, "trialdata": {"rt": 1641, "stimulus": "<p id='stroop-text' class='stroop-red'>RED</p>", "response": "r", "stimulus-type": "congruent", "word": "red", "color": "red", "correct_response": "r", "trial_id": "stroop-trial-1-congruent-2", "trial_type": "html-keyboard-response", "trial_index": 7, "time_elapsed": 238278, "internal_node_id": "0.0-4.0-3.0"}}, {"uniqueid": "w62487913:a97213304", "current_trial": 8, "dateTime": 1664464346980, "trialdata": {"rt": 1236, "stimulus": "<p id='stroop-text' class='stroop-red'>BOAT</p>", "response": "r", "stimulus-type": "unrelated", "word": "BOAT", "color": "red", "correct_response": "r", "trial_id": "stroop-trial-1-unrelated-13", "trial_type": "html-keyboard-response", "trial_index": 8, "time_elapsed": 240017, "internal_node_id": "0.0-4.0-4.0"}}, {"uniqueid": "w62487913:a97213304", "current_trial": 9, "dateTime": 1664464349060, "trialdata": {"rt": 1575, "stimulus": "<p id='stroop-text' class='stroop-yellow'>WINDOW</p>", "response": "y", "stimulus-type": "unrelated", "word": "WINDOW", "color": "yellow", "correct_response": "y", "trial_id": "stroop-trial-1-unrelated-26", "trial_type": "html-keyboard-response", "trial_index": 9, "time_elapsed": 242098, "internal_node_id": "0.0-4.0-5.0"}}, {"uniqueid": "w62487913:a97213304", "current_trial": 10, "dateTime": 1664464351643, "trialdata": {"rt": 2079, "stimulus": "<p id='stroop-text' class='stroop-blue'>YELLOW</p>", "response": "b", "stimulus-type": "incongruent", "word": "yellow", "color": "blue", "correct_response": "b", "trial_id": "stroop-trial-1-incongruent-17", "trial_type": "html-keyboard-response", "trial_index": 10, "time_elapsed": 244681, "internal_node_id": "0.0-4.0-6.0"}}, {"uniqueid": "w62487913:a97213304", "current_trial": 11, "dateTime": 1664464353420, "trialdata": {"rt": 1272, "stimulus": "<p id='stroop-text' class='stroop-blue'>BLUE</p>", "response": "b", "stimulus-type": "congruent", "word": "blue", "color": "blue", "correct_response": "b", "trial_id": "stroop-trial-1-congruent-26", "trial_type": "html-keyboard-response", "trial_index": 11, "time_elapsed": 246457, "internal_node_id": "0.0-4.0-7.0"}}, {"uniqueid": "w62487913:a97213304", "current_trial": 12, "dateTime": 1664464355514, "trialdata": {"rt": 1591, "stimulus": "<p id='stroop-text' class='stroop-green'>BLUE</p>", "response": "g", "stimulus-type": "incongruent", "word": "blue", "color": "green", "correct_response": "g", "trial_id": "stroop-trial-1-incongruent-20", "trial_type": "html-keyboard-response", "trial_index": 12, "time_elapsed": 248552, "internal_node_id": "0.0-4.0-8.0"}}, {"uniqueid": "w62487913:a97213304", "current_trial": 13, "dateTime": 1664464357385, "trialdata": {"rt": 1366, "stimulus": "<p id='stroop-text' class='stroop-green'>SHIP</p>", "response": "g", "stimulus-type": "unrelated", "word": "SHIP", "color": "green", "correct_response": "g", "trial_id": "stroop-trial-1-unrelated-29", "trial_type": "html-keyboard-response", "trial_index": 13, "time_elapsed": 250423, "internal_node_id": "0.0-4.0-9.0"}}, {"uniqueid": "w62487913:a97213304", "current_trial": 14, "dateTime": 1664464359047, "trialdata": {"rt": 1158, "stimulus": "<p id='stroop-text' class='stroop-blue'>MONKEY</p>", "response": "b", "stimulus-type": "unrelated", "word": "MONKEY", "color": "blue", "correct_response": "b", "trial_id": "stroop-trial-1-unrelated-18", "trial_type": "html-keyboard-response", "trial_index": 14, "time_elapsed": 252085, "internal_node_id": "0.0-4.0-10.0"}}, {"uniqueid": "w62487913:a97213304", "current_trial": 15, "dateTime": 1664464360733, "trialdata": {"rt": 1182, "stimulus": "<p id='stroop-text' class='stroop-blue'>BLUE</p>", "response": "b", "stimulus-type": "congruent", "word": "blue", "color": "blue", "correct_response": "b", "trial_id": "stroop-trial-1-congruent-21", "trial_type": "html-keyboard-response", "trial_index": 15, "time_elapsed": 253770, "internal_node_id": "0.0-4.0-11.0"}}, {"uniqueid": "w62487913:a97213304", "current_trial": 16, "dateTime": 1664464362218, "trialdata": {"rt": 981, "stimulus": "<p id='stroop-text' class='stroop-yellow'>YELLOW</p>", "response": "y", "stimulus-type": "congruent", "word": "yellow", "color": "yellow", "correct_response": "y", "trial_id": "stroop-trial-1-congruent-20", "trial_type": "html-keyboard-response", "trial_index": 16, "time_elapsed": 255255, "internal_node_id": "0.0-4.0-12.0"}}, {"uniqueid": "w62487913:a97213304", "current_trial": 17, "dateTime": 1664464364435, "trialdata": {"rt": 1714, "stimulus": "<p id='stroop-text' class='stroop-red'>RED</p>", "response": "r", "stimulus-type": "congruent", "word": "red", "color": "red", "correct_response": "r", "trial_id": "stroop-trial-1-congruent-13", "trial_type": "html-keyboard-response", "trial_index": 17, "time_elapsed": 257473, "internal_node_id": "0.0-4.0-13.0"}}, {"uniqueid": "w62487913:a97213304", "current_trial": 18, "dateTime": 1664464365772, "trialdata": {"rt": 831, "stimulus": "<p id='stroop-text' class='stroop-red'>RED</p>", "response": "r", "stimulus-type": "congruent", "word": "red", "color": "red", "correct_response": "r", "trial_id": "stroop-trial-1-congruent-15", "trial_type": "html-keyboard-response", "trial_index": 18, "time_elapsed": 258809, "internal_node_id": "0.0-4.0-14.0"}}, {"uniqueid": "w62487913:a97213304", "current_trial": 19, "dateTime": 1664464368609, "trialdata": {"rt": 2334, "stimulus": "<p id='stroop-text' class='stroop-blue'>YELLOW</p>", "response": "b", "stimulus-type": "incongruent", "word": "yellow", "color": "blue", "correct_response": "b", "trial_id": "stroop-trial-1-incongruent-11", "trial_type": "html-keyboard-response", "trial_index": 19, "time_elapsed": 261647, "internal_node_id": "0.0-4.0-15.0"}}, {"uniqueid": "w62487913:a97213304", "current_trial": 20, "dateTime": 1664464371475, "trialdata": {"rt": 2362, "stimulus": "<p id='stroop-text' class='stroop-yellow'>RED</p>", "response": "y", "stimulus-type": "incongruent", "word": "red", "color": "yellow", "correct_response": "y", "trial_id": "stroop-trial-1-incongruent-9", "trial_type": "html-keyboard-response", "trial_index": 20, "time_elapsed": 264513, "internal_node_id": "0.0-4.0-16.0"}}, {"uniqueid": "w62487913:a97213304", "current_trial": 21, "dateTime": 1664464374114, "trialdata": {"rt": 2135, "stimulus": "<p id='stroop-text' class='stroop-blue'>GREEN</p>", "response": "b", "stimulus-type": "incongruent", "word": "green", "color": "blue", "correct_response": "b", "trial_id": "stroop-trial-1-incongruent-14", "trial_type": "html-keyboard-response", "trial_index": 21, "time_elapsed": 267152, "internal_node_id": "0.0-4.0-17.0"}}, {"uniqueid": "w62487913:a97213304", "current_trial": 22, "dateTime": 1664464377585, "trialdata": {"rt": 2967, "stimulus": "<p id='stroop-text' class='stroop-blue'>YELLOW</p>", "response": "b", "stimulus-type": "incongruent", "word": "yellow", "color": "blue", "correct_response": "b", "trial_id": "stroop-trial-1-incongruent-5", "trial_type": "html-keyboard-response", "trial_index": 22, "time_elapsed": 270622, "internal_node_id": "0.0-4.0-18.0"}}, {"uniqueid": "w62487913:a97213304", "current_trial": 23, "dateTime": 1664464379266, "trialdata": {"rt": 1177, "stimulus": "<p id='stroop-text' class='stroop-blue'>BLUE</p>", "response": "b", "stimulus-type": "congruent", "word": "blue", "color": "blue", "correct_response": "b", "trial_id": "stroop-trial-1-congruent-8", "trial_type": "html-keyboard-response", "trial_index": 23, "time_elapsed": 272303, "internal_node_id": "0.0-4.0-19.0"}}, {"uniqueid": "w62487913:a97213304", "current_trial": 24, "dateTime": 1664464381134, "trialdata": {"rt": 1365, "stimulus": "<p id='stroop-text' class='stroop-yellow'>BRAIN</p>", "response": "y", "stimulus-type": "unrelated", "word": "BRAIN", "color": "yellow", "correct_response": "y", "trial_id": "stroop-trial-1-unrelated-20", "trial_type": "html-keyboard-response", "trial_index": 24, "time_elapsed": 274172, "internal_node_id": "0.0-4.0-20.0"}}, {"uniqueid": "w62487913:a97213304", "current_trial": 25, "dateTime": 1664464382961, "trialdata": {"rt": 1323, "stimulus": "<p id='stroop-text' class='stroop-red'>MONKEY</p>", "response": "r", "stimulus-type": "unrelated", "word": "MONKEY", "color": "red", "correct_response": "r", "trial_id": "stroop-trial-1-unrelated-14", "trial_type": "html-keyboard-response", "trial_index": 25, "time_elapsed": 275998, "internal_node_id": "0.0-4.0-21.0"}}, {"uniqueid": "w62487913:a97213304", "current_trial": 26, "dateTime": 1664464384827, "trialdata": {"rt": 1362, "stimulus": "<p id='stroop-text' class='stroop-green'>BOTTLE</p>", "response": "g", "stimulus-type": "unrelated", "word": "BOTTLE", "color": "green", "correct_response": "g", "trial_id": "stroop-trial-1-unrelated-21", "trial_type": "html-keyboard-response", "trial_index": 26, "time_elapsed": 277864, "internal_node_id": "0.0-4.0-22.0"}}, {"uniqueid": "w62487913:a97213304", "current_trial": 27, "dateTime": 1664464386924, "trialdata": {"rt": 1593, "stimulus": "<p id='stroop-text' class='stroop-blue'>BLUE</p>", "response": "b", "stimulus-type": "congruent", "word": "blue", "color": "blue", "correct_response": "b", "trial_id": "stroop-trial-1-congruent-27", "trial_type": "html-keyboard-response", "trial_index": 27, "time_elapsed": 279962, "internal_node_id": "0.0-4.0-23.0"}}, {"uniqueid": "w62487913:a97213304", "current_trial": 28, "dateTime": 1664464388327, "trialdata": {"rt": 900, "stimulus": "<p id='stroop-text' class='stroop-blue'>BOAT</p>", "response": "b", "stimulus-type": "unrelated", "word": "BOAT", "color": "blue", "correct_response": "b", "trial_id": "stroop-trial-1-unrelated-24", "trial_type": "html-keyboard-response", "trial_index": 28, "time_elapsed": 281364, "internal_node_id": "0.0-4.0-24.0"}}, {"uniqueid": "w62487913:a97213304", "current_trial": 29, "dateTime": 1664464389624, "trialdata": {"rt": 794, "stimulus": "<p id='stroop-text' class='stroop-blue'>BLUE</p>", "response": "b", "stimulus-type": "congruent", "word": "blue", "color": "blue", "correct_response": "b", "trial_id": "stroop-trial-1-congruent-30", "trial_type": "html-keyboard-response", "trial_index": 29, "time_elapsed": 282661, "internal_node_id": "0.0-4.0-25.0"}}, {"uniqueid": "w62487913:a97213304", "current_trial": 30, "dateTime": 1664464392218, "trialdata": {"rt": 2091, "stimulus": "<p id='stroop-text' class='stroop-green'>GREEN</p>", "response": "g", "stimulus-type": "congruent", "word": "green", "color": "green", "correct_response": "g", "trial_id": "stroop-trial-1-congruent-7", "trial_type": "html-keyboard-response", "trial_index": 30, "time_elapsed": 285255, "internal_node_id": "0.0-4.0-26.0"}}, {"uniqueid": "w62487913:a97213304", "current_trial": 31, "dateTime": 1664464394025, "trialdata": {"rt": 1302, "stimulus": "<p id='stroop-text' class='stroop-red'>MONKEY</p>", "response": "r", "stimulus-type": "unrelated", "word": "MONKEY", "color": "red", "correct_response": "r", "trial_id": "stroop-trial-1-unrelated-15", "trial_type": "html-keyboard-response", "trial_index": 31, "time_elapsed": 287063, "internal_node_id": "0.0-4.0-27.0"}}, {"uniqueid": "w62487913:a97213304", "current_trial": 32, "dateTime": 1664464395831, "trialdata": {"rt": 1301, "stimulus": "<p id='stroop-text' class='stroop-yellow'>YELLOW</p>", "response": "y", "stimulus-type": "congruent", "word": "yellow", "color": "yellow", "correct_response": "y", "trial_id": "stroop-trial-1-congruent-19", "trial_type": "html-keyboard-response", "trial_index": 32, "time_elapsed": 288868, "internal_node_id": "0.0-4.0-28.0"}}, {"uniqueid": "w62487913:a97213304", "current_trial": 33, "dateTime": 1664464400172, "trialdata": {"rt": 3838, "stimulus": "<p id='stroop-text' class='stroop-blue'>RED</p>", "response": "b", "stimulus-type": "incongruent", "word": "red", "color": "blue", "correct_response": "b", "trial_id": "stroop-trial-1-incongruent-23", "trial_type": "html-keyboard-response", "trial_index": 33, "time_elapsed": 293209, "internal_node_id": "0.0-4.0-29.0"}}, {"uniqueid": "w62487913:a97213304", "current_trial": 34, "dateTime": 1664464402327, "trialdata": {"rt": 1652, "stimulus": "<p id='stroop-text' class='stroop-blue'>GREEN</p>", "response": "b", "stimulus-type": "incongruent", "word": "green", "color": "blue", "correct_response": "b", "trial_id": "stroop-trial-1-incongruent-1", "trial_type": "html-keyboard-response", "trial_index": 34, "time_elapsed": 295365, "internal_node_id": "0.0-4.0-30.0"}}, {"uniqueid": "w62487913:a97213304", "current_trial": 35, "dateTime": 1664464406535, "trialdata": {"rt": 3704, "stimulus": "<p id='stroop-text' class='stroop-blue'>BLUE</p>", "response": "b", "stimulus-type": "congruent", "word": "blue", "color": "blue", "correct_response": "b", "trial_id": "stroop-trial-1-congruent-12", "trial_type": "html-keyboard-response", "trial_index": 35, "time_elapsed": 299572, "internal_node_id": "0.0-4.0-31.0"}}, {"uniqueid": "w62487913:a97213304", "current_trial": 36, "dateTime": 1664464408091, "trialdata": {"rt": 1053, "stimulus": "<p id='stroop-text' class='stroop-yellow'>BRIDGE</p>", "response": "y", "stimulus-type": "unrelated", "word": "BRIDGE", "color": "yellow", "correct_response": "y", "trial_id": "stroop-trial-1-unrelated-11", "trial_type": "html-keyboard-response", "trial_index": 36, "time_elapsed": 301129, "internal_node_id": "0.0-4.0-32.0"}}, {"uniqueid": "w62487913:a97213304", "current_trial": 37, "dateTime": 1664464409937, "trialdata": {"rt": 1342, "stimulus": "<p id='stroop-text' class='stroop-green'>GREEN</p>", "response": "g", "stimulus-type": "congruent", "word": "green", "color": "green", "correct_response": "g", "trial_id": "stroop-trial-1-congruent-3", "trial_type": "html-keyboard-response", "trial_index": 37, "time_elapsed": 302974, "internal_node_id": "0.0-4.0-33.0"}}, {"uniqueid": "w62487913:a97213304", "current_trial": 38, "dateTime": 1664464412254, "trialdata": {"rt": 1813, "stimulus": "<p id='stroop-text' class='stroop-yellow'>GREEN</p>", "response": "y", "stimulus-type": "incongruent", "word": "green", "color": "yellow", "correct_response": "y", "trial_id": "stroop-trial-1-incongruent-28", "trial_type": "html-keyboard-response", "trial_index": 38, "time_elapsed": 305291, "internal_node_id": "0.0-4.0-34.0"}}, {"uniqueid": "w62487913:a97213304", "current_trial": 39, "dateTime": 1664464414828, "trialdata": {"rt": 2071, "stimulus": "<p id='stroop-text' class='stroop-yellow'>STONE</p>", "response": "y", "stimulus-type": "unrelated", "word": "STONE", "color": "yellow", "correct_response": "y", "trial_id": "stroop-trial-1-unrelated-2", "trial_type": "html-keyboard-response", "trial_index": 39, "time_elapsed": 307866, "internal_node_id": "0.0-4.0-35.0"}}, {"uniqueid": "w62487913:a97213304", "current_trial": 40, "dateTime": 1664464416217, "trialdata": {"rt": 885, "stimulus": "<p id='stroop-text' class='stroop-yellow'>FORK</p>", "response": "y", "stimulus-type": "unrelated", "word": "FORK", "color": "yellow", "correct_response": "y", "trial_id": "stroop-trial-1-unrelated-16", "trial_type": "html-keyboard-response", "trial_index": 40, "time_elapsed": 309254, "internal_node_id": "0.0-4.0-36.0"}}, {"uniqueid": "w62487913:a97213304", "current_trial": 41, "dateTime": 1664464417835, "trialdata": {"rt": 1115, "stimulus": "<p id='stroop-text' class='stroop-red'>BOAT</p>", "response": "r", "stimulus-type": "unrelated", "word": "BOAT", "color": "red", "correct_response": "r", "trial_id": "stroop-trial-1-unrelated-23", "trial_type": "html-keyboard-response", "trial_index": 41, "time_elapsed": 310873, "internal_node_id": "0.0-4.0-37.0"}}, {"uniqueid": "w62487913:a97213304", "current_trial": 42, "dateTime": 1664464420731, "trialdata": {"rt": 2392, "stimulus": "<p id='stroop-text' class='stroop-blue'>YELLOW</p>", "response": "b", "stimulus-type": "incongruent", "word": "yellow", "color": "blue", "correct_response": "b", "trial_id": "stroop-trial-1-incongruent-26", "trial_type": "html-keyboard-response", "trial_index": 42, "time_elapsed": 313769, "internal_node_id": "0.0-4.0-38.0"}}, {"uniqueid": "w62487913:a97213304", "current_trial": 43, "dateTime": 1664464422179, "trialdata": {"rt": 944, "stimulus": "<p id='stroop-text' class='stroop-blue'>WINDOW</p>", "response": "b", "stimulus-type": "unrelated", "word": "WINDOW", "color": "blue", "correct_response": "b", "trial_id": "stroop-trial-1-unrelated-28", "trial_type": "html-keyboard-response", "trial_index": 43, "time_elapsed": 315217, "internal_node_id": "0.0-4.0-39.0"}}, {"uniqueid": "w62487913:a97213304", "current_trial": 44, "dateTime": 1664464424066, "trialdata": {"rt": 1383, "stimulus": "<p id='stroop-text' class='stroop-yellow'>YELLOW</p>", "response": "y", "stimulus-type": "congruent", "word": "yellow", "color": "yellow", "correct_response": "y", "trial_id": "stroop-trial-1-congruent-9", "trial_type": "html-keyboard-response", "trial_index": 44, "time_elapsed": 317103, "internal_node_id": "0.0-4.0-40.0"}}, {"uniqueid": "w62487913:a97213304", "current_trial": 45, "dateTime": 1664464425657, "trialdata": {"rt": 1088, "stimulus": "<p id='stroop-text' class='stroop-red'>SHIP</p>", "response": "r", "stimulus-type": "unrelated", "word": "SHIP", "color": "red", "correct_response": "r", "trial_id": "stroop-trial-1-unrelated-9", "trial_type": "html-keyboard-response", "trial_index": 45, "time_elapsed": 318694, "internal_node_id": "0.0-4.0-41.0"}}, {"uniqueid": "w62487913:a97213304", "current_trial": 46, "dateTime": 1664464428779, "trialdata": {"rt": 2618, "stimulus": "<p id='stroop-text' class='stroop-blue'>YELLOW</p>", "response": "b", "stimulus-type": "incongruent", "word": "yellow", "color": "blue", "correct_response": "b", "trial_id": "stroop-trial-1-incongruent-3", "trial_type": "html-keyboard-response", "trial_index": 46, "time_elapsed": 321817, "internal_node_id": "0.0-4.0-42.0"}}, {"uniqueid": "w62487913:a97213304", "current_trial": 47, "dateTime": 1664464430668, "trialdata": {"rt": 1385, "stimulus": "<p id='stroop-text' class='stroop-red'>YELLOW</p>", "response": "r", "stimulus-type": "incongruent", "word": "yellow", "color": "red", "correct_response": "r", "trial_id": "stroop-trial-1-incongruent-18", "trial_type": "html-keyboard-response", "trial_index": 47, "time_elapsed": 323706, "internal_node_id": "0.0-4.0-43.0"}}, {"uniqueid": "w62487913:a97213304", "current_trial": 48, "dateTime": 1664464432599, "trialdata": {"rt": 1426, "stimulus": "<p id='stroop-text' class='stroop-green'>GREEN</p>", "response": "g", "stimulus-type": "congruent", "word": "green", "color": "green", "correct_response": "g", "trial_id": "stroop-trial-1-congruent-29", "trial_type": "html-keyboard-response", "trial_index": 48, "time_elapsed": 325636, "internal_node_id": "0.0-4.0-44.0"}}, {"uniqueid": "w62487913:a97213304", "current_trial": 49, "dateTime": 1664464434997, "trialdata": {"rt": 1894, "stimulus": "<p id='stroop-text' class='stroop-green'>YELLOW</p>", "response": "g", "stimulus-type": "incongruent", "word": "yellow", "color": "green", "correct_response": "g", "trial_id": "stroop-trial-1-incongruent-25", "trial_type": "html-keyboard-response", "trial_index": 49, "time_elapsed": 328034, "internal_node_id": "0.0-4.0-45.0"}}, {"uniqueid": "w62487913:a97213304", "current_trial": 50, "dateTime": 1664464437849, "trialdata": {"rt": 2347, "stimulus": "<p id='stroop-text' class='stroop-yellow'>GREEN</p>", "response": "y", "stimulus-type": "incongruent", "word": "green", "color": "yellow", "correct_response": "y", "trial_id": "stroop-trial-1-incongruent-10", "trial_type": "html-keyboard-response", "trial_index": 50, "time_elapsed": 330887, "internal_node_id": "0.0-4.0-46.0"}}, {"uniqueid": "w62487913:a97213304", "current_trial": 51, "dateTime": 1664464439133, "trialdata": {"rt": 779, "stimulus": "<p id='stroop-text' class='stroop-yellow'>MONKEY</p>", "response": "y", "stimulus-type": "unrelated", "word": "MONKEY", "color": "yellow", "correct_response": "y", "trial_id": "stroop-trial-1-unrelated-4", "trial_type": "html-keyboard-response", "trial_index": 51, "time_elapsed": 332170, "internal_node_id": "0.0-4.0-47.0"}}, {"uniqueid": "w62487913:a97213304", "current_trial": 52, "dateTime": 1664464441566, "trialdata": {"rt": 1930, "stimulus": "<p id='stroop-text' class='stroop-red'>GREEN</p>", "response": "r", "stimulus-type": "incongruent", "word": "green", "color": "red", "correct_response": "r", "trial_id": "stroop-trial-1-incongruent-24", "trial_type": "html-keyboard-response", "trial_index": 52, "time_elapsed": 334603, "internal_node_id": "0.0-4.0-48.0"}}, {"uniqueid": "w62487913:a97213304", "current_trial": 53, "dateTime": 1664464443265, "trialdata": {"rt": 1195, "stimulus": "<p id='stroop-text' class='stroop-blue'>YELLOW</p>", "response": "b", "stimulus-type": "incongruent", "word": "yellow", "color": "blue", "correct_response": "b", "trial_id": "stroop-trial-1-incongruent-30", "trial_type": "html-keyboard-response", "trial_index": 53, "time_elapsed": 336302, "internal_node_id": "0.0-4.0-49.0"}}, {"uniqueid": "w62487913:a97213304", "current_trial": 54, "dateTime": 1664464444905, "trialdata": {"rt": 1136, "stimulus": "<p id='stroop-text' class='stroop-yellow'>YELLOW</p>", "response": "y", "stimulus-type": "congruent", "word": "yellow", "color": "yellow", "correct_response": "y", "trial_id": "stroop-trial-1-congruent-25", "trial_type": "html-keyboard-response", "trial_index": 54, "time_elapsed": 337942, "internal_node_id": "0.0-4.0-50.0"}}, {"uniqueid": "w62487913:a97213304", "current_trial": 55, "dateTime": 1664464446647, "trialdata": {"rt": 1239, "stimulus": "<p id='stroop-text' class='stroop-green'>GREEN</p>", "response": "g", "stimulus-type": "congruent", "word": "green", "color": "green", "correct_response": "g", "trial_id": "stroop-trial-1-congruent-18", "trial_type": "html-keyboard-response", "trial_index": 55, "time_elapsed": 339684, "internal_node_id": "0.0-4.0-51.0"}}, {"uniqueid": "w62487913:a97213304", "current_trial": 56, "dateTime": 1664464448564, "trialdata": {"rt": 1412, "stimulus": "<p id='stroop-text' class='stroop-yellow'>YELLOW</p>", "response": "y", "stimulus-type": "congruent", "word": "yellow", "color": "yellow", "correct_response": "y", "trial_id": "stroop-trial-1-congruent-16", "trial_type": "html-keyboard-response", "trial_index": 56, "time_elapsed": 341602, "internal_node_id": "0.0-4.0-52.0"}}, {"uniqueid": "w62487913:a97213304", "current_trial": 57, "dateTime": 1664464450504, "trialdata": {"rt": 1435, "stimulus": "<p id='stroop-text' class='stroop-red'>GREEN</p>", "response": "r", "stimulus-type": "incongruent", "word": "green", "color": "red", "correct_response": "r", "trial_id": "stroop-trial-1-incongruent-21", "trial_type": "html-keyboard-response", "trial_index": 57, "time_elapsed": 343542, "internal_node_id": "0.0-4.0-53.0"}}, {"uniqueid": "w62487913:a97213304", "current_trial": 58, "dateTime": 1664464452705, "trialdata": {"rt": 1698, "stimulus": "<p id='stroop-text' class='stroop-yellow'>BRAIN</p>", "response": "y", "stimulus-type": "unrelated", "word": "BRAIN", "color": "yellow", "correct_response": "y", "trial_id": "stroop-trial-1-unrelated-27", "trial_type": "html-keyboard-response", "trial_index": 58, "time_elapsed": 345743, "internal_node_id": "0.0-4.0-54.0"}}, {"uniqueid": "w62487913:a97213304", "current_trial": 59, "dateTime": 1664464454932, "trialdata": {"rt": 1723, "stimulus": "<p id='stroop-text' class='stroop-blue'>BLUE</p>", "response": "b", "stimulus-type": "congruent", "word": "blue", "color": "blue", "correct_response": "b", "trial_id": "stroop-trial-1-congruent-6", "trial_type": "html-keyboard-response", "trial_index": 59, "time_elapsed": 347969, "internal_node_id": "0.0-4.0-55.0"}}, {"uniqueid": "w62487913:a97213304", "current_trial": 60, "dateTime": 1664464458303, "trialdata": {"rt": 2867, "stimulus": "<p id='stroop-text' class='stroop-yellow'>RED</p>", "response": "y", "stimulus-type": "incongruent", "word": "red", "color": "yellow", "correct_response": "y", "trial_id": "stroop-trial-1-incongruent-6", "trial_type": "html-keyboard-response", "trial_index": 60, "time_elapsed": 351340, "internal_node_id": "0.0-4.0-56.0"}}, {"uniqueid": "w62487913:a97213304", "current_trial": 61, "dateTime": 1664464460102, "trialdata": {"rt": 1293, "stimulus": "<p id='stroop-text' class='stroop-red'>RED</p>", "response": "r", "stimulus-type": "congruent", "word": "red", "color": "red", "correct_response": "r", "trial_id": "stroop-trial-1-congruent-28", "trial_type": "html-keyboard-response", "trial_index": 61, "time_elapsed": 353139, "internal_node_id": "0.0-4.0-57.0"}}, {"uniqueid": "w62487913:a97213304", "current_trial": 62, "dateTime": 1664464461425, "trialdata": {"rt": 819, "stimulus": "<p id='stroop-text' class='stroop-red'>BOTTLE</p>", "response": "r", "stimulus-type": "unrelated", "word": "BOTTLE", "color": "red", "correct_response": "r", "trial_id": "stroop-trial-1-unrelated-19", "trial_type": "html-keyboard-response", "trial_index": 62, "time_elapsed": 354462, "internal_node_id": "0.0-4.0-58.0"}}, {"uniqueid": "w62487913:a97213304", "current_trial": 63, "dateTime": 1664464462623, "trialdata": {"rt": 695, "stimulus": "<p id='stroop-text' class='stroop-red'>BRAIN</p>", "response": "r", "stimulus-type": "unrelated", "word": "BRAIN", "color": "red", "correct_response": "r", "trial_id": "stroop-trial-1-unrelated-1", "trial_type": "html-keyboard-response", "trial_index": 63, "time_elapsed": 355660, "internal_node_id": "0.0-4.0-59.0"}}, {"uniqueid": "w62487913:a97213304", "current_trial": 64, "dateTime": 1664464464324, "trialdata": {"rt": 1196, "stimulus": "<p id='stroop-text' class='stroop-yellow'>GREEN</p>", "response": "y", "stimulus-type": "incongruent", "word": "green", "color": "yellow", "correct_response": "y", "trial_id": "stroop-trial-1-incongruent-13", "trial_type": "html-keyboard-response", "trial_index": 64, "time_elapsed": 357361, "internal_node_id": "0.0-4.0-60.0"}}, {"uniqueid": "w62487913:a97213304", "current_trial": 65, "dateTime": 1664464465928, "trialdata": {"rt": 1100, "stimulus": "<p id='stroop-text' class='stroop-green'>RED</p>", "response": "g", "stimulus-type": "incongruent", "word": "red", "color": "green", "correct_response": "g", "trial_id": "stroop-trial-1-incongruent-12", "trial_type": "html-keyboard-response", "trial_index": 65, "time_elapsed": 358965, "internal_node_id": "0.0-4.0-61.0"}}, {"uniqueid": "w62487913:a97213304", "current_trial": 66, "dateTime": 1664464467566, "trialdata": {"rt": 1134, "stimulus": "<p id='stroop-text' class='stroop-blue'>BOAT</p>", "response": "b", "stimulus-type": "unrelated", "word": "BOAT", "color": "blue", "correct_response": "b", "trial_id": "stroop-trial-1-unrelated-12", "trial_type": "html-keyboard-response", "trial_index": 66, "time_elapsed": 360603, "internal_node_id": "0.0-4.0-62.0"}}, {"uniqueid": "w62487913:a97213304", "current_trial": 67, "dateTime": 1664464469141, "trialdata": {"rt": 1072, "stimulus": "<p id='stroop-text' class='stroop-green'>BRAIN</p>", "response": "g", "stimulus-type": "unrelated", "word": "BRAIN", "color": "green", "correct_response": "g", "trial_id": "stroop-trial-1-unrelated-22", "trial_type": "html-keyboard-response", "trial_index": 67, "time_elapsed": 362178, "internal_node_id": "0.0-4.0-63.0"}}, {"uniqueid": "w62487913:a97213304", "current_trial": 68, "dateTime": 1664464470788, "trialdata": {"rt": 1142, "stimulus": "<p id='stroop-text' class='stroop-green'>GREEN</p>", "response": "g", "stimulus-type": "congruent", "word": "green", "color": "green", "correct_response": "g", "trial_id": "stroop-trial-1-congruent-1", "trial_type": "html-keyboard-response", "trial_index": 68, "time_elapsed": 363825, "internal_node_id": "0.0-4.0-64.0"}}, {"uniqueid": "w62487913:a97213304", "current_trial": 69, "dateTime": 1664464472766, "trialdata": {"rt": 1473, "stimulus": "<p id='stroop-text' class='stroop-red'>GREEN</p>", "response": "r", "stimulus-type": "incongruent", "word": "green", "color": "red", "correct_response": "r", "trial_id": "stroop-trial-1-incongruent-4", "trial_type": "html-keyboard-response", "trial_index": 69, "time_elapsed": 365803, "internal_node_id": "0.0-4.0-65.0"}}, {"uniqueid": "w62487913:a97213304", "current_trial": 70, "dateTime": 1664464474591, "trialdata": {"rt": 1321, "stimulus": "<p id='stroop-text' class='stroop-green'>CHAIR</p>", "response": "g", "stimulus-type": "unrelated", "word": "CHAIR", "color": "green", "correct_response": "g", "trial_id": "stroop-trial-1-unrelated-7", "trial_type": "html-keyboard-response", "trial_index": 70, "time_elapsed": 367628, "internal_node_id": "0.0-4.0-66.0"}}, {"uniqueid": "w62487913:a97213304", "current_trial": 71, "dateTime": 1664464477172, "trialdata": {"rt": 2077, "stimulus": "<p id='stroop-text' class='stroop-blue'>RED</p>", "response": "b", "stimulus-type": "incongruent", "word": "red", "color": "blue", "correct_response": "b", "trial_id": "stroop-trial-1-incongruent-27", "trial_type": "html-keyboard-response", "trial_index": 71, "time_elapsed": 370210, "internal_node_id": "0.0-4.0-67.0"}}, {"uniqueid": "w62487913:a97213304", "current_trial": 72, "dateTime": 1664464479055, "trialdata": {"rt": 1378, "stimulus": "<p id='stroop-text' class='stroop-red'>BRIDGE</p>", "response": "r", "stimulus-type": "unrelated", "word": "BRIDGE", "color": "red", "correct_response": "r", "trial_id": "stroop-trial-1-unrelated-3", "trial_type": "html-keyboard-response", "trial_index": 72, "time_elapsed": 372092, "internal_node_id": "0.0-4.0-68.0"}}, {"uniqueid": "w62487913:a97213304", "current_trial": 73, "dateTime": 1664464480665, "trialdata": {"rt": 1107, "stimulus": "<p id='stroop-text' class='stroop-yellow'>FORK</p>", "response": "y", "stimulus-type": "unrelated", "word": "FORK", "color": "yellow", "correct_response": "y", "trial_id": "stroop-trial-1-unrelated-10", "trial_type": "html-keyboard-response", "trial_index": 73, "time_elapsed": 373703, "internal_node_id": "0.0-4.0-69.0"}}, {"uniqueid": "w62487913:a97213304", "current_trial": 74, "dateTime": 1664464483372, "trialdata": {"rt": 2202, "stimulus": "<p id='stroop-text' class='stroop-blue'>BLUE</p>", "response": "b", "stimulus-type": "congruent", "word": "blue", "color": "blue", "correct_response": "b", "trial_id": "stroop-trial-1-congruent-14", "trial_type": "html-keyboard-response", "trial_index": 74, "time_elapsed": 376409, "internal_node_id": "0.0-4.0-70.0"}}, {"uniqueid": "w62487913:a97213304", "current_trial": 75, "dateTime": 1664464485005, "trialdata": {"rt": 1129, "stimulus": "<p id='stroop-text' class='stroop-green'>GREEN</p>", "response": "g", "stimulus-type": "congruent", "word": "green", "color": "green", "correct_response": "g", "trial_id": "stroop-trial-1-congruent-11", "trial_type": "html-keyboard-response", "trial_index": 75, "time_elapsed": 378042, "internal_node_id": "0.0-4.0-71.0"}}, {"uniqueid": "w62487913:a97213304", "current_trial": 76, "dateTime": 1664464486593, "trialdata": {"rt": 1084, "stimulus": "<p id='stroop-text' class='stroop-green'>GREEN</p>", "response": "g", "stimulus-type": "congruent", "word": "green", "color": "green", "correct_response": "g", "trial_id": "stroop-trial-1-congruent-23", "trial_type": "html-keyboard-response", "trial_index": 76, "time_elapsed": 379630, "internal_node_id": "0.0-4.0-72.0"}}, {"uniqueid": "w62487913:a97213304", "current_trial": 77, "dateTime": 1664464488206, "trialdata": {"rt": 1110, "stimulus": "<p id='stroop-text' class='stroop-yellow'>WINDOW</p>", "response": "y", "stimulus-type": "unrelated", "word": "WINDOW", "color": "yellow", "correct_response": "y", "trial_id": "stroop-trial-1-unrelated-8", "trial_type": "html-keyboard-response", "trial_index": 77, "time_elapsed": 381243, "internal_node_id": "0.0-4.0-73.0"}}, {"uniqueid": "w62487913:a97213304", "current_trial": 78, "dateTime": 1664464490083, "trialdata": {"rt": 1373, "stimulus": "<p id='stroop-text' class='stroop-green'>YELLOW</p>", "response": "g", "stimulus-type": "incongruent", "word": "yellow", "color": "green", "correct_response": "g", "trial_id": "stroop-trial-1-incongruent-19", "trial_type": "html-keyboard-response", "trial_index": 78, "time_elapsed": 383120, "internal_node_id": "0.0-4.0-74.0"}}, {"uniqueid": "w62487913:a97213304", "current_trial": 79, "dateTime": 1664464491680, "trialdata": {"rt": 1093, "stimulus": "<p id='stroop-text' class='stroop-blue'>MONKEY</p>", "response": "b", "stimulus-type": "unrelated", "word": "MONKEY", "color": "blue", "correct_response": "b", "trial_id": "stroop-trial-1-unrelated-17", "trial_type": "html-keyboard-response", "trial_index": 79, "time_elapsed": 384718, "internal_node_id": "0.0-4.0-75.0"}}, {"uniqueid": "w62487913:a97213304", "current_trial": 80, "dateTime": 1664464493799, "trialdata": {"rt": 1614, "stimulus": "<p id='stroop-text' class='stroop-red'>DOG</p>", "response": "r", "stimulus-type": "unrelated", "word": "DOG", "color": "red", "correct_response": "r", "trial_id": "stroop-trial-1-unrelated-30", "trial_type": "html-keyboard-response", "trial_index": 80, "time_elapsed": 386836, "internal_node_id": "0.0-4.0-76.0"}}, {"uniqueid": "w62487913:a97213304", "current_trial": 81, "dateTime": 1664464495721, "trialdata": {"rt": 1418, "stimulus": "<p id='stroop-text' class='stroop-blue'>GREEN</p>", "response": "b", "stimulus-type": "incongruent", "word": "green", "color": "blue", "correct_response": "b", "trial_id": "stroop-trial-1-incongruent-16", "trial_type": "html-keyboard-response", "trial_index": 81, "time_elapsed": 388759, "internal_node_id": "0.0-4.0-77.0"}}, {"uniqueid": "w62487913:a97213304", "current_trial": 82, "dateTime": 1664464497933, "trialdata": {"rt": 1708, "stimulus": "<p id='stroop-text' class='stroop-green'>DOG</p>", "response": "g", "stimulus-type": "unrelated", "word": "DOG", "color": "green", "correct_response": "g", "trial_id": "stroop-trial-1-unrelated-5", "trial_type": "html-keyboard-response", "trial_index": 82, "time_elapsed": 390970, "internal_node_id": "0.0-4.0-78.0"}}, {"uniqueid": "w62487913:a97213304", "current_trial": 83, "dateTime": 1664464499435, "trialdata": {"rt": 998, "stimulus": "<p id='stroop-text' class='stroop-yellow'>YELLOW</p>", "response": "y", "stimulus-type": "congruent", "word": "yellow", "color": "yellow", "correct_response": "y", "trial_id": "stroop-trial-1-congruent-4", "trial_type": "html-keyboard-response", "trial_index": 83, "time_elapsed": 392472, "internal_node_id": "0.0-4.0-79.0"}}, {"uniqueid": "w62487913:a97213304", "current_trial": 84, "dateTime": 1664464500888, "trialdata": {"rt": 949, "stimulus": "<p id='stroop-text' class='stroop-yellow'>MONKEY</p>", "response": "y", "stimulus-type": "unrelated", "word": "MONKEY", "color": "yellow", "correct_response": "y", "trial_id": "stroop-trial-1-unrelated-6", "trial_type": "html-keyboard-response", "trial_index": 84, "time_elapsed": 393925, "internal_node_id": "0.0-4.0-80.0"}}, {"uniqueid": "w62487913:a97213304", "current_trial": 85, "dateTime": 1664464502261, "trialdata": {"rt": 869, "stimulus": "<p id='stroop-text' class='stroop-red'>BLUE</p>", "response": "r", "stimulus-type": "incongruent", "word": "blue", "color": "red", "correct_response": "r", "trial_id": "stroop-trial-1-incongruent-2", "trial_type": "html-keyboard-response", "trial_index": 85, "time_elapsed": 395298, "internal_node_id": "0.0-4.0-81.0"}}, {"uniqueid": "w62487913:a97213304", "current_trial": 86, "dateTime": 1664464504636, "trialdata": {"rt": 1870, "stimulus": "<p id='stroop-text' class='stroop-red'>RED</p>", "response": "r", "stimulus-type": "congruent", "word": "red", "color": "red", "correct_response": "r", "trial_id": "stroop-trial-1-congruent-17", "trial_type": "html-keyboard-response", "trial_index": 86, "time_elapsed": 397673, "internal_node_id": "0.0-4.0-82.0"}}, {"uniqueid": "w62487913:a97213304", "current_trial": 87, "dateTime": 1664464506283, "trialdata": {"rt": 1143, "stimulus": "<p id='stroop-text' class='stroop-yellow'>YELLOW</p>", "response": "y", "stimulus-type": "congruent", "word": "yellow", "color": "yellow", "correct_response": "y", "trial_id": "stroop-trial-1-congruent-10", "trial_type": "html-keyboard-response", "trial_index": 87, "time_elapsed": 399320, "internal_node_id": "0.0-4.0-83.0"}}, {"uniqueid": "w62487913:a97213304", "current_trial": 88, "dateTime": 1664464508582, "trialdata": {"rt": 1795, "stimulus": "<p id='stroop-text' class='stroop-green'>GREEN</p>", "response": "g", "stimulus-type": "congruent", "word": "green", "color": "green", "correct_response": "g", "trial_id": "stroop-trial-1-congruent-5", "trial_type": "html-keyboard-response", "trial_index": 88, "time_elapsed": 401620, "internal_node_id": "0.0-4.0-84.0"}}, {"uniqueid": "w62487913:a97213304", "current_trial": 89, "dateTime": 1664464510440, "trialdata": {"rt": 1354, "stimulus": "<p id='stroop-text' class='stroop-blue'>YELLOW</p>", "response": "b", "stimulus-type": "incongruent", "word": "yellow", "color": "blue", "correct_response": "b", "trial_id": "stroop-trial-1-incongruent-8", "trial_type": "html-keyboard-response", "trial_index": 89, "time_elapsed": 403478, "internal_node_id": "0.0-4.0-85.0"}}, {"uniqueid": "w62487913:a97213304", "current_trial": 90, "dateTime": 1664464512834, "trialdata": {"rt": 1890, "stimulus": "<p id='stroop-text' class='stroop-red'>YELLOW</p>", "response": "r", "stimulus-type": "incongruent", "word": "yellow", "color": "red", "correct_response": "r", "trial_id": "stroop-trial-1-incongruent-22", "trial_type": "html-keyboard-response", "trial_index": 90, "time_elapsed": 405871, "internal_node_id": "0.0-4.0-86.0"}}, {"uniqueid": "w62487913:a97213304", "current_trial": 91, "dateTime": 1664464514342, "trialdata": {"rt": 1004, "stimulus": "<p id='stroop-text' class='stroop-red'>RED</p>", "response": "r", "stimulus-type": "congruent", "word": "red", "color": "red", "correct_response": "r", "trial_id": "stroop-trial-1-congruent-24", "trial_type": "html-keyboard-response", "trial_index": 91, "time_elapsed": 407379, "internal_node_id": "0.0-4.0-87.0"}}, {"uniqueid": "w62487913:a97213304", "current_trial": 92, "dateTime": 1664464515632, "trialdata": {"rt": 786, "stimulus": "<p id='stroop-text' class='stroop-red'>RED</p>", "response": "r", "stimulus-type": "congruent", "word": "red", "color": "red", "correct_response": "r", "trial_id": "stroop-trial-1-congruent-22", "trial_type": "html-keyboard-response", "trial_index": 92, "time_elapsed": 408669, "internal_node_id": "0.0-4.0-88.0"}}, {"uniqueid": "w62487913:a97213304", "current_trial": 93, "dateTime": 1664464517610, "trialdata": {"rt": 1473, "stimulus": "<p id='stroop-text' class='stroop-green'>YELLOW</p>", "response": "g", "stimulus-type": "incongruent", "word": "yellow", "color": "green", "correct_response": "g", "trial_id": "stroop-trial-1-incongruent-7", "trial_type": "html-keyboard-response", "trial_index": 93, "time_elapsed": 410647, "internal_node_id": "0.0-4.0-89.0"}}, {"uniqueid": "w62487913:a97213304", "current_trial": 94, "dateTime": 1664464533790, "trialdata": {"rt": 15673, "stimulus": "  <h1> End of block! </h1>\n\n  You have reached the end of the block 1/5. If you need a short break, feel free to take one now before moving on.\n\n  <br><br>\n  In the next block, you will complete another 90 rounds of this game.\n\n  <br><br>\n  <div style='text-align: center;'>Press <code>space</code> to begin.</div>\n  <br><br>\n<div style='text-align: center;'>(If the experiment doesn't continue, try clicking on the text and then pressing <code>space</code>.)</div>", "response": " ", "trial_id": "stroop_1_ready_2", "trial_type": "html-keyboard-response", "trial_index": 94, "time_elapsed": 426828, "internal_node_id": "0.0-5.0"}}, {"uniqueid": "w62487913:a97213304", "current_trial": 95, "dateTime": 1664464535052, "trialdata": {"rt": 1258, "stimulus": "<p id='stroop-text' class='stroop-red'>RED</p>", "response": "r", "stimulus-type": "congruent", "word": "red", "color": "red", "correct_response": "r", "trial_id": "stroop-trial-1-congruent-30", "trial_type": "html-keyboard-response", "trial_index": 95, "time_elapsed": 428090, "internal_node_id": "0.0-6.0-0.0"}}, {"uniqueid": "w62487913:a97213304", "current_trial": 96, "dateTime": 1664464536582, "trialdata": {"rt": 1026, "stimulus": "<p id='stroop-text' class='stroop-blue'>BLUE</p>", "response": "b", "stimulus-type": "congruent", "word": "blue", "color": "blue", "correct_response": "b", "trial_id": "stroop-trial-1-congruent-6", "trial_type": "html-keyboard-response", "trial_index": 96, "time_elapsed": 429620, "internal_node_id": "0.0-6.0-1.0"}}, {"uniqueid": "w62487913:a97213304", "current_trial": 97, "dateTime": 1664464538136, "trialdata": {"rt": 1049, "stimulus": "<p id='stroop-text' class='stroop-green'>YELLOW</p>", "response": "g", "stimulus-type": "incongruent", "word": "yellow", "color": "green", "correct_response": "g", "trial_id": "stroop-trial-1-incongruent-9", "trial_type": "html-keyboard-response", "trial_index": 97, "time_elapsed": 431174, "internal_node_id": "0.0-6.0-2.0"}}, {"uniqueid": "w62487913:a97213304", "current_trial": 98, "dateTime": 1664464540097, "trialdata": {"rt": 1456, "stimulus": "<p id='stroop-text' class='stroop-blue'>BLUE</p>", "response": "b", "stimulus-type": "congruent", "word": "blue", "color": "blue", "correct_response": "b", "trial_id": "stroop-trial-1-congruent-21", "trial_type": "html-keyboard-response", "trial_index": 98, "time_elapsed": 433134, "internal_node_id": "0.0-6.0-3.0"}}, {"uniqueid": "w62487913:a97213304", "current_trial": 99, "dateTime": 1664464542361, "trialdata": {"rt": 1761, "stimulus": "<p id='stroop-text' class='stroop-green'>SHIP</p>", "response": "g", "stimulus-type": "unrelated", "word": "SHIP", "color": "green", "correct_response": "g", "trial_id": "stroop-trial-1-unrelated-24", "trial_type": "html-keyboard-response", "trial_index": 99, "time_elapsed": 435399, "internal_node_id": "0.0-6.0-4.0"}}, {"uniqueid": "w62487913:a97213304", "current_trial": 100, "dateTime": 1664464543792, "trialdata": {"rt": 927, "stimulus": "<p id='stroop-text' class='stroop-green'>DOG</p>", "response": "g", "stimulus-type": "unrelated", "word": "DOG", "color": "green", "correct_response": "g", "trial_id": "stroop-trial-1-unrelated-9", "trial_type": "html-keyboard-response", "trial_index": 100, "time_elapsed": 436830, "internal_node_id": "0.0-6.0-5.0"}}, {"uniqueid": "w62487913:a97213304", "current_trial": 101, "dateTime": 1664464545596, "trialdata": {"rt": 1300, "stimulus": "<p id='stroop-text' class='stroop-red'>GREEN</p>", "response": "r", "stimulus-type": "incongruent", "word": "green", "color": "red", "correct_response": "r", "trial_id": "stroop-trial-1-incongruent-1", "trial_type": "html-keyboard-response", "trial_index": 101, "time_elapsed": 438634, "internal_node_id": "0.0-6.0-6.0"}}, {"uniqueid": "w62487913:a97213304", "current_trial": 102, "dateTime": 1664464548033, "trialdata": {"rt": 1931, "stimulus": "<p id='stroop-text' class='stroop-yellow'>BOAT</p>", "response": "y", "stimulus-type": "unrelated", "word": "BOAT", "color": "yellow", "correct_response": "y", "trial_id": "stroop-trial-1-unrelated-8", "trial_type": "html-keyboard-response", "trial_index": 102, "time_elapsed": 441070, "internal_node_id": "0.0-6.0-7.0"}}, {"uniqueid": "w62487913:a97213304", "current_trial": 103, "dateTime": 1664464549298, "trialdata": {"rt": 761, "stimulus": "<p id='stroop-text' class='stroop-yellow'>CHAIR</p>", "response": "y", "stimulus-type": "unrelated", "word": "CHAIR", "color": "yellow", "correct_response": "y", "trial_id": "stroop-trial-1-unrelated-28", "trial_type": "html-keyboard-response", "trial_index": 103, "time_elapsed": 442335, "internal_node_id": "0.0-6.0-8.0"}}, {"uniqueid": "w62487913:a97213304", "current_trial": 104, "dateTime": 1664464550909, "trialdata": {"rt": 1107, "stimulus": "<p id='stroop-text' class='stroop-blue'>BLUE</p>", "response": "b", "stimulus-type": "congruent", "word": "blue", "color": "blue", "correct_response": "b", "trial_id": "stroop-trial-1-congruent-15", "trial_type": "html-keyboard-response", "trial_index": 104, "time_elapsed": 443946, "internal_node_id": "0.0-6.0-9.0"}}, {"uniqueid": "w62487913:a97213304", "current_trial": 105, "dateTime": 1664464552142, "trialdata": {"rt": 729, "stimulus": "<p id='stroop-text' class='stroop-yellow'>YELLOW</p>", "response": "y", "stimulus-type": "congruent", "word": "yellow", "color": "yellow", "correct_response": "y", "trial_id": "stroop-trial-1-congruent-8", "trial_type": "html-keyboard-response", "trial_index": 105, "time_elapsed": 445179, "internal_node_id": "0.0-6.0-10.0"}}, {"uniqueid": "w62487913:a97213304", "current_trial": 106, "dateTime": 1664464553645, "trialdata": {"rt": 997, "stimulus": "<p id='stroop-text' class='stroop-green'>GREEN</p>", "response": "g", "stimulus-type": "congruent", "word": "green", "color": "green", "correct_response": "g", "trial_id": "stroop-trial-1-congruent-1", "trial_type": "html-keyboard-response", "trial_index": 106, "time_elapsed": 446681, "internal_node_id": "0.0-6.0-11.0"}}, {"uniqueid": "w62487913:a97213304", "current_trial": 107, "dateTime": 1664464554894, "trialdata": {"rt": 745, "stimulus": "<p id='stroop-text' class='stroop-yellow'>YELLOW</p>", "response": "y", "stimulus-type": "congruent", "word": "yellow", "color": "yellow", "correct_response": "y", "trial_id": "stroop-trial-1-congruent-23", "trial_type": "html-keyboard-response", "trial_index": 107, "time_elapsed": 447931, "internal_node_id": "0.0-6.0-12.0"}}, {"uniqueid": "w62487913:a97213304", "current_trial": 108, "dateTime": 1664464556271, "trialdata": {"rt": 872, "stimulus": "<p id='stroop-text' class='stroop-yellow'>YELLOW</p>", "response": "y", "stimulus-type": "congruent", "word": "yellow", "color": "yellow", "correct_response": "y", "trial_id": "stroop-trial-1-congruent-20", "trial_type": "html-keyboard-response", "trial_index": 108, "time_elapsed": 449309, "internal_node_id": "0.0-6.0-13.0"}}, {"uniqueid": "w62487913:a97213304", "current_trial": 109, "dateTime": 1664464557720, "trialdata": {"rt": 943, "stimulus": "<p id='stroop-text' class='stroop-yellow'>DOG</p>", "response": "y", "stimulus-type": "unrelated", "word": "DOG", "color": "yellow", "correct_response": "y", "trial_id": "stroop-trial-1-unrelated-2", "trial_type": "html-keyboard-response", "trial_index": 109, "time_elapsed": 450757, "internal_node_id": "0.0-6.0-14.0"}}, {"uniqueid": "w62487913:a97213304", "current_trial": 110, "dateTime": 1664464559706, "trialdata": {"rt": 1482, "stimulus": "<p id='stroop-text' class='stroop-blue'>YELLOW</p>", "response": "b", "stimulus-type": "incongruent", "word": "yellow", "color": "blue", "correct_response": "b", "trial_id": "stroop-trial-1-incongruent-26", "trial_type": "html-keyboard-response", "trial_index": 110, "time_elapsed": 452743, "internal_node_id": "0.0-6.0-15.0"}}, {"uniqueid": "w62487913:a97213304", "current_trial": 111, "dateTime": 1664464561457, "trialdata": {"rt": 1248, "stimulus": "<p id='stroop-text' class='stroop-green'>GREEN</p>", "response": "g", "stimulus-type": "congruent", "word": "green", "color": "green", "correct_response": "g", "trial_id": "stroop-trial-1-congruent-29", "trial_type": "html-keyboard-response", "trial_index": 111, "time_elapsed": 454494, "internal_node_id": "0.0-6.0-16.0"}}, {"uniqueid": "w62487913:a97213304", "current_trial": 112, "dateTime": 1664464562857, "trialdata": {"rt": 896, "stimulus": "<p id='stroop-text' class='stroop-red'>BOTTLE</p>", "response": "r", "stimulus-type": "unrelated", "word": "BOTTLE", "color": "red", "correct_response": "r", "trial_id": "stroop-trial-1-unrelated-3", "trial_type": "html-keyboard-response", "trial_index": 112, "time_elapsed": 455894, "internal_node_id": "0.0-6.0-17.0"}}, {"uniqueid": "w62487913:a97213304", "current_trial": 113, "dateTime": 1664464563859, "trialdata": {"rt": 498, "stimulus": "<p id='stroop-text' class='stroop-red'>RED</p>", "response": "r", "stimulus-type": "congruent", "word": "red", "color": "red", "correct_response": "r", "trial_id": "stroop-trial-1-congruent-12", "trial_type": "html-keyboard-response", "trial_index": 113, "time_elapsed": 456896, "internal_node_id": "0.0-6.0-18.0"}}, {"uniqueid": "w62487913:a97213304", "current_trial": 114, "dateTime": 1664464565274, "trialdata": {"rt": 911, "stimulus": "<p id='stroop-text' class='stroop-blue'>BLUE</p>", "response": "b", "stimulus-type": "congruent", "word": "blue", "color": "blue", "correct_response": "b", "trial_id": "stroop-trial-1-congruent-3", "trial_type": "html-keyboard-response", "trial_index": 114, "time_elapsed": 458311, "internal_node_id": "0.0-6.0-19.0"}}, {"uniqueid": "w62487913:a97213304", "current_trial": 115, "dateTime": 1664464568418, "trialdata": {"rt": 2639, "stimulus": "<p id='stroop-text' class='stroop-green'>BLUE</p>", "response": "g", "stimulus-type": "incongruent", "word": "blue", "color": "green", "correct_response": "g", "trial_id": "stroop-trial-1-incongruent-4", "trial_type": "html-keyboard-response", "trial_index": 115, "time_elapsed": 461455, "internal_node_id": "0.0-6.0-20.0"}}, {"uniqueid": "w62487913:a97213304", "current_trial": 116, "dateTime": 1664464570403, "trialdata": {"rt": 1482, "stimulus": "<p id='stroop-text' class='stroop-blue'>BLUE</p>", "response": "b", "stimulus-type": "congruent", "word": "blue", "color": "blue", "correct_response": "b", "trial_id": "stroop-trial-1-congruent-26", "trial_type": "html-keyboard-response", "trial_index": 116, "time_elapsed": 463441, "internal_node_id": "0.0-6.0-21.0"}}, {"uniqueid": "w62487913:a97213304", "current_trial": 117, "dateTime": 1664464571915, "trialdata": {"rt": 1007, "stimulus": "<p id='stroop-text' class='stroop-yellow'>YELLOW</p>", "response": "y", "stimulus-type": "congruent", "word": "yellow", "color": "yellow", "correct_response": "y", "trial_id": "stroop-trial-1-congruent-11", "trial_type": "html-keyboard-response", "trial_index": 117, "time_elapsed": 464952, "internal_node_id": "0.0-6.0-22.0"}}, {"uniqueid": "w62487913:a97213304", "current_trial": 118, "dateTime": 1664464573155, "trialdata": {"rt": 736, "stimulus": "<p id='stroop-text' class='stroop-yellow'>GREEN</p>", "response": "y", "stimulus-type": "incongruent", "word": "green", "color": "yellow", "correct_response": "y", "trial_id": "stroop-trial-1-incongruent-2", "trial_type": "html-keyboard-response", "trial_index": 118, "time_elapsed": 466192, "internal_node_id": "0.0-6.0-23.0"}}, {"uniqueid": "w62487913:a97213304", "current_trial": 119, "dateTime": 1664464574869, "trialdata": {"rt": 1209, "stimulus": "<p id='stroop-text' class='stroop-yellow'>BRAIN</p>", "response": "y", "stimulus-type": "unrelated", "word": "BRAIN", "color": "yellow", "correct_response": "y", "trial_id": "stroop-trial-1-unrelated-5", "trial_type": "html-keyboard-response", "trial_index": 119, "time_elapsed": 467906, "internal_node_id": "0.0-6.0-24.0"}}, {"uniqueid": "w62487913:a97213304", "current_trial": 120, "dateTime": 1664464576173, "trialdata": {"rt": 799, "stimulus": "<p id='stroop-text' class='stroop-yellow'>BOTTLE</p>", "response": "y", "stimulus-type": "unrelated", "word": "BOTTLE", "color": "yellow", "correct_response": "y", "trial_id": "stroop-trial-1-unrelated-14", "trial_type": "html-keyboard-response", "trial_index": 120, "time_elapsed": 469210, "internal_node_id": "0.0-6.0-25.0"}}, {"uniqueid": "w62487913:a97213304", "current_trial": 121, "dateTime": 1664464577310, "trialdata": {"rt": 632, "stimulus": "<p id='stroop-text' class='stroop-red'>RED</p>", "response": "r", "stimulus-type": "congruent", "word": "red", "color": "red", "correct_response": "r", "trial_id": "stroop-trial-1-congruent-13", "trial_type": "html-keyboard-response", "trial_index": 121, "time_elapsed": 470348, "internal_node_id": "0.0-6.0-26.0"}}, {"uniqueid": "w62487913:a97213304", "current_trial": 122, "dateTime": 1664464579177, "trialdata": {"rt": 1360, "stimulus": "<p id='stroop-text' class='stroop-blue'>DOG</p>", "response": "b", "stimulus-type": "unrelated", "word": "DOG", "color": "blue", "correct_response": "b", "trial_id": "stroop-trial-1-unrelated-6", "trial_type": "html-keyboard-response", "trial_index": 122, "time_elapsed": 472213, "internal_node_id": "0.0-6.0-27.0"}}, {"uniqueid": "w62487913:a97213304", "current_trial": 123, "dateTime": 1664464580531, "trialdata": {"rt": 850, "stimulus": "<p id='stroop-text' class='stroop-yellow'>MONKEY</p>", "response": "y", "stimulus-type": "unrelated", "word": "MONKEY", "color": "yellow", "correct_response": "y", "trial_id": "stroop-trial-1-unrelated-21", "trial_type": "html-keyboard-response", "trial_index": 123, "time_elapsed": 473569, "internal_node_id": "0.0-6.0-28.0"}}, {"uniqueid": "w62487913:a97213304", "current_trial": 124, "dateTime": 1664464582945, "trialdata": {"rt": 1909, "stimulus": "<p id='stroop-text' class='stroop-yellow'>RED</p>", "response": "y", "stimulus-type": "incongruent", "word": "red", "color": "yellow", "correct_response": "y", "trial_id": "stroop-trial-1-incongruent-7", "trial_type": "html-keyboard-response", "trial_index": 124, "time_elapsed": 475982, "internal_node_id": "0.0-6.0-29.0"}}, {"uniqueid": "w62487913:a97213304", "current_trial": 125, "dateTime": 1664464584443, "trialdata": {"rt": 995, "stimulus": "<p id='stroop-text' class='stroop-red'>RED</p>", "response": "r", "stimulus-type": "congruent", "word": "red", "color": "red", "correct_response": "r", "trial_id": "stroop-trial-1-congruent-25", "trial_type": "html-keyboard-response", "trial_index": 125, "time_elapsed": 477481, "internal_node_id": "0.0-6.0-30.0"}}, {"uniqueid": "w62487913:a97213304", "current_trial": 126, "dateTime": 1664464585778, "trialdata": {"rt": 830, "stimulus": "<p id='stroop-text' class='stroop-yellow'>GREEN</p>", "response": "g", "stimulus-type": "incongruent", "word": "green", "color": "yellow", "correct_response": "y", "trial_id": "stroop-trial-1-incongruent-17", "trial_type": "html-keyboard-response", "trial_index": 126, "time_elapsed": 478816, "internal_node_id": "0.0-6.0-31.0"}}, {"uniqueid": "w62487913:a97213304", "current_trial": 127, "dateTime": 1664464588977, "trialdata": {"rt": 2696, "stimulus": "<p id='stroop-text' class='stroop-red'>GREEN</p>", "response": "r", "stimulus-type": "incongruent", "word": "green", "color": "red", "correct_response": "r", "trial_id": "stroop-trial-1-incongruent-20", "trial_type": "html-keyboard-response", "trial_index": 127, "time_elapsed": 482015, "internal_node_id": "0.0-6.0-32.0"}}, {"uniqueid": "w62487913:a97213304", "current_trial": 128, "dateTime": 1664464591481, "trialdata": {"rt": 2000, "stimulus": "<p id='stroop-text' class='stroop-blue'>WINDOW</p>", "response": "b", "stimulus-type": "unrelated", "word": "WINDOW", "color": "blue", "correct_response": "b", "trial_id": "stroop-trial-1-unrelated-18", "trial_type": "html-keyboard-response", "trial_index": 128, "time_elapsed": 484519, "internal_node_id": "0.0-6.0-33.0"}}, {"uniqueid": "w62487913:a97213304", "current_trial": 129, "dateTime": 1664464594263, "trialdata": {"rt": 2277, "stimulus": "<p id='stroop-text' class='stroop-red'>GREEN</p>", "response": "r", "stimulus-type": "incongruent", "word": "green", "color": "red", "correct_response": "r", "trial_id": "stroop-trial-1-incongruent-10", "trial_type": "html-keyboard-response", "trial_index": 129, "time_elapsed": 487300, "internal_node_id": "0.0-6.0-34.0"}}, {"uniqueid": "w62487913:a97213304", "current_trial": 130, "dateTime": 1664464595791, "trialdata": {"rt": 1023, "stimulus": "<p id='stroop-text' class='stroop-red'>GREEN</p>", "response": "r", "stimulus-type": "incongruent", "word": "green", "color": "red", "correct_response": "r", "trial_id": "stroop-trial-1-incongruent-19", "trial_type": "html-keyboard-response", "trial_index": 130, "time_elapsed": 488828, "internal_node_id": "0.0-6.0-35.0"}}, {"uniqueid": "w62487913:a97213304", "current_trial": 131, "dateTime": 1664464598376, "trialdata": {"rt": 2081, "stimulus": "<p id='stroop-text' class='stroop-green'>STONE</p>", "response": "g", "stimulus-type": "unrelated", "word": "STONE", "color": "green", "correct_response": "g", "trial_id": "stroop-trial-1-unrelated-4", "trial_type": "html-keyboard-response", "trial_index": 131, "time_elapsed": 491413, "internal_node_id": "0.0-6.0-36.0"}}, {"uniqueid": "w62487913:a97213304", "current_trial": 132, "dateTime": 1664464600054, "trialdata": {"rt": 1174, "stimulus": "<p id='stroop-text' class='stroop-green'>YELLOW</p>", "response": "g", "stimulus-type": "incongruent", "word": "yellow", "color": "green", "correct_response": "g", "trial_id": "stroop-trial-1-incongruent-3", "trial_type": "html-keyboard-response", "trial_index": 132, "time_elapsed": 493092, "internal_node_id": "0.0-6.0-37.0"}}, {"uniqueid": "w62487913:a97213304", "current_trial": 133, "dateTime": 1664464601619, "trialdata": {"rt": 1059, "stimulus": "<p id='stroop-text' class='stroop-blue'>BRIDGE</p>", "response": "b", "stimulus-type": "unrelated", "word": "BRIDGE", "color": "blue", "correct_response": "b", "trial_id": "stroop-trial-1-unrelated-30", "trial_type": "html-keyboard-response", "trial_index": 133, "time_elapsed": 494656, "internal_node_id": "0.0-6.0-38.0"}}, {"uniqueid": "w62487913:a97213304", "current_trial": 134, "dateTime": 1664464603282, "trialdata": {"rt": 1159, "stimulus": "<p id='stroop-text' class='stroop-yellow'>RED</p>", "response": "r", "stimulus-type": "incongruent", "word": "red", "color": "yellow", "correct_response": "y", "trial_id": "stroop-trial-1-incongruent-23", "trial_type": "html-keyboard-response", "trial_index": 134, "time_elapsed": 496319, "internal_node_id": "0.0-6.0-39.0"}}, {"uniqueid": "w62487913:a97213304", "current_trial": 135, "dateTime": 1664464607618, "trialdata": {"rt": 3832, "stimulus": "<p id='stroop-text' class='stroop-red'>RED</p>", "response": "r", "stimulus-type": "congruent", "word": "red", "color": "red", "correct_response": "r", "trial_id": "stroop-trial-1-congruent-27", "trial_type": "html-keyboard-response", "trial_index": 135, "time_elapsed": 500655, "internal_node_id": "0.0-6.0-40.0"}}, {"uniqueid": "w62487913:a97213304", "current_trial": 136, "dateTime": 1664464609272, "trialdata": {"rt": 1149, "stimulus": "<p id='stroop-text' class='stroop-yellow'>RED</p>", "response": "y", "stimulus-type": "incongruent", "word": "red", "color": "yellow", "correct_response": "y", "trial_id": "stroop-trial-1-incongruent-13", "trial_type": "html-keyboard-response", "trial_index": 136, "time_elapsed": 502309, "internal_node_id": "0.0-6.0-41.0"}}, {"uniqueid": "w62487913:a97213304", "current_trial": 137, "dateTime": 1664464611146, "trialdata": {"rt": 1369, "stimulus": "<p id='stroop-text' class='stroop-yellow'>RED</p>", "response": "y", "stimulus-type": "incongruent", "word": "red", "color": "yellow", "correct_response": "y", "trial_id": "stroop-trial-1-incongruent-29", "trial_type": "html-keyboard-response", "trial_index": 137, "time_elapsed": 504183, "internal_node_id": "0.0-6.0-42.0"}}, {"uniqueid": "w62487913:a97213304", "current_trial": 138, "dateTime": 1664464612744, "trialdata": {"rt": 1092, "stimulus": "<p id='stroop-text' class='stroop-green'>GREEN</p>", "response": "g", "stimulus-type": "congruent", "word": "green", "color": "green", "correct_response": "g", "trial_id": "stroop-trial-1-congruent-18", "trial_type": "html-keyboard-response", "trial_index": 138, "time_elapsed": 505781, "internal_node_id": "0.0-6.0-43.0"}}, {"uniqueid": "w62487913:a97213304", "current_trial": 139, "dateTime": 1664464614557, "trialdata": {"rt": 1309, "stimulus": "<p id='stroop-text' class='stroop-yellow'>RED</p>", "response": "y", "stimulus-type": "incongruent", "word": "red", "color": "yellow", "correct_response": "y", "trial_id": "stroop-trial-1-incongruent-25", "trial_type": "html-keyboard-response", "trial_index": 139, "time_elapsed": 507594, "internal_node_id": "0.0-6.0-44.0"}}, {"uniqueid": "w62487913:a97213304", "current_trial": 140, "dateTime": 1664464616124, "trialdata": {"rt": 1061, "stimulus": "<p id='stroop-text' class='stroop-yellow'>YELLOW</p>", "response": "y", "stimulus-type": "congruent", "word": "yellow", "color": "yellow", "correct_response": "y", "trial_id": "stroop-trial-1-congruent-22", "trial_type": "html-keyboard-response", "trial_index": 140, "time_elapsed": 509161, "internal_node_id": "0.0-6.0-45.0"}}, {"uniqueid": "w62487913:a97213304", "current_trial": 141, "dateTime": 1664464617599, "trialdata": {"rt": 971, "stimulus": "<p id='stroop-text' class='stroop-green'>GREEN</p>", "response": "g", "stimulus-type": "congruent", "word": "green", "color": "green", "correct_response": "g", "trial_id": "stroop-trial-1-congruent-28", "trial_type": "html-keyboard-response", "trial_index": 141, "time_elapsed": 510636, "internal_node_id": "0.0-6.0-46.0"}}, {"uniqueid": "w62487913:a97213304", "current_trial": 142, "dateTime": 1664464619234, "trialdata": {"rt": 1130, "stimulus": "<p id='stroop-text' class='stroop-blue'>STONE</p>", "response": "b", "stimulus-type": "unrelated", "word": "STONE", "color": "blue", "correct_response": "b", "trial_id": "stroop-trial-1-unrelated-10", "trial_type": "html-keyboard-response", "trial_index": 142, "time_elapsed": 512271, "internal_node_id": "0.0-6.0-47.0"}}, {"uniqueid": "w62487913:a97213304", "current_trial": 143, "dateTime": 1664464621671, "trialdata": {"rt": 1933, "stimulus": "<p id='stroop-text' class='stroop-blue'>GREEN</p>", "response": "b", "stimulus-type": "incongruent", "word": "green", "color": "blue", "correct_response": "b", "trial_id": "stroop-trial-1-incongruent-6", "trial_type": "html-keyboard-response", "trial_index": 143, "time_elapsed": 514709, "internal_node_id": "0.0-6.0-48.0"}}, {"uniqueid": "w62487913:a97213304", "current_trial": 144, "dateTime": 1664464623255, "trialdata": {"rt": 1080, "stimulus": "<p id='stroop-text' class='stroop-blue'>BRIDGE</p>", "response": "b", "stimulus-type": "unrelated", "word": "BRIDGE", "color": "blue", "correct_response": "b", "trial_id": "stroop-trial-1-unrelated-17", "trial_type": "html-keyboard-response", "trial_index": 144, "time_elapsed": 516292, "internal_node_id": "0.0-6.0-49.0"}}, {"uniqueid": "w62487913:a97213304", "current_trial": 145, "dateTime": 1664464624631, "trialdata": {"rt": 872, "stimulus": "<p id='stroop-text' class='stroop-red'>SHIP</p>", "response": "r", "stimulus-type": "unrelated", "word": "SHIP", "color": "red", "correct_response": "r", "trial_id": "stroop-trial-1-unrelated-20", "trial_type": "html-keyboard-response", "trial_index": 145, "time_elapsed": 517669, "internal_node_id": "0.0-6.0-50.0"}}, {"uniqueid": "w62487913:a97213304", "current_trial": 146, "dateTime": 1664464626251, "trialdata": {"rt": 1115, "stimulus": "<p id='stroop-text' class='stroop-yellow'>YELLOW</p>", "response": "y", "stimulus-type": "congruent", "word": "yellow", "color": "yellow", "correct_response": "y", "trial_id": "stroop-trial-1-congruent-10", "trial_type": "html-keyboard-response", "trial_index": 146, "time_elapsed": 519289, "internal_node_id": "0.0-6.0-51.0"}}, {"uniqueid": "w62487913:a97213304", "current_trial": 147, "dateTime": 1664464628331, "trialdata": {"rt": 1576, "stimulus": "<p id='stroop-text' class='stroop-blue'>YELLOW</p>", "response": "b", "stimulus-type": "incongruent", "word": "yellow", "color": "blue", "correct_response": "b", "trial_id": "stroop-trial-1-incongruent-5", "trial_type": "html-keyboard-response", "trial_index": 147, "time_elapsed": 521368, "internal_node_id": "0.0-6.0-52.0"}}, {"uniqueid": "w62487913:a97213304", "current_trial": 148, "dateTime": 1664464629709, "trialdata": {"rt": 874, "stimulus": "<p id='stroop-text' class='stroop-blue'>BLUE</p>", "response": "b", "stimulus-type": "congruent", "word": "blue", "color": "blue", "correct_response": "b", "trial_id": "stroop-trial-1-congruent-24", "trial_type": "html-keyboard-response", "trial_index": 148, "time_elapsed": 522746, "internal_node_id": "0.0-6.0-53.0"}}, {"uniqueid": "w62487913:a97213304", "current_trial": 149, "dateTime": 1664464631496, "trialdata": {"rt": 1282, "stimulus": "<p id='stroop-text' class='stroop-red'>YELLOW</p>", "response": "r", "stimulus-type": "incongruent", "word": "yellow", "color": "red", "correct_response": "r", "trial_id": "stroop-trial-1-incongruent-24", "trial_type": "html-keyboard-response", "trial_index": 149, "time_elapsed": 524533, "internal_node_id": "0.0-6.0-54.0"}}, {"uniqueid": "w62487913:a97213304", "current_trial": 150, "dateTime": 1664464634019, "trialdata": {"rt": 2019, "stimulus": "<p id='stroop-text' class='stroop-blue'>RED</p>", "response": "b", "stimulus-type": "incongruent", "word": "red", "color": "blue", "correct_response": "b", "trial_id": "stroop-trial-1-incongruent-28", "trial_type": "html-keyboard-response", "trial_index": 150, "time_elapsed": 527057, "internal_node_id": "0.0-6.0-55.0"}}, {"uniqueid": "w62487913:a97213304", "current_trial": 151, "dateTime": 1664464635651, "trialdata": {"rt": 1126, "stimulus": "<p id='stroop-text' class='stroop-red'>GREEN</p>", "response": "r", "stimulus-type": "incongruent", "word": "green", "color": "red", "correct_response": "r", "trial_id": "stroop-trial-1-incongruent-30", "trial_type": "html-keyboard-response", "trial_index": 151, "time_elapsed": 528688, "internal_node_id": "0.0-6.0-56.0"}}, {"uniqueid": "w62487913:a97213304", "current_trial": 152, "dateTime": 1664464637195, "trialdata": {"rt": 1039, "stimulus": "<p id='stroop-text' class='stroop-yellow'>YELLOW</p>", "response": "y", "stimulus-type": "congruent", "word": "yellow", "color": "yellow", "correct_response": "y", "trial_id": "stroop-trial-1-congruent-14", "trial_type": "html-keyboard-response", "trial_index": 152, "time_elapsed": 530233, "internal_node_id": "0.0-6.0-57.0"}}, {"uniqueid": "w62487913:a97213304", "current_trial": 153, "dateTime": 1664464638760, "trialdata": {"rt": 1061, "stimulus": "<p id='stroop-text' class='stroop-yellow'>SHIP</p>", "response": "y", "stimulus-type": "unrelated", "word": "SHIP", "color": "yellow", "correct_response": "y", "trial_id": "stroop-trial-1-unrelated-12", "trial_type": "html-keyboard-response", "trial_index": 153, "time_elapsed": 531798, "internal_node_id": "0.0-6.0-58.0"}}, {"uniqueid": "w62487913:a97213304", "current_trial": 154, "dateTime": 1664464640222, "trialdata": {"rt": 957, "stimulus": "<p id='stroop-text' class='stroop-blue'>BLUE</p>", "response": "b", "stimulus-type": "congruent", "word": "blue", "color": "blue", "correct_response": "b", "trial_id": "stroop-trial-1-congruent-7", "trial_type": "html-keyboard-response", "trial_index": 154, "time_elapsed": 533260, "internal_node_id": "0.0-6.0-59.0"}}, {"uniqueid": "w62487913:a97213304", "current_trial": 155, "dateTime": 1664464641719, "trialdata": {"rt": 992, "stimulus": "<p id='stroop-text' class='stroop-green'>GREEN</p>", "response": "g", "stimulus-type": "congruent", "word": "green", "color": "green", "correct_response": "g", "trial_id": "stroop-trial-1-congruent-4", "trial_type": "html-keyboard-response", "trial_index": 155, "time_elapsed": 534757, "internal_node_id": "0.0-6.0-60.0"}}, {"uniqueid": "w62487913:a97213304", "current_trial": 156, "dateTime": 1664464643095, "trialdata": {"rt": 871, "stimulus": "<p id='stroop-text' class='stroop-red'>DOG</p>", "response": "r", "stimulus-type": "unrelated", "word": "DOG", "color": "red", "correct_response": "r", "trial_id": "stroop-trial-1-unrelated-1", "trial_type": "html-keyboard-response", "trial_index": 156, "time_elapsed": 536133, "internal_node_id": "0.0-6.0-61.0"}}, {"uniqueid": "w62487913:a97213304", "current_trial": 157, "dateTime": 1664464644287, "trialdata": {"rt": 686, "stimulus": "<p id='stroop-text' class='stroop-red'>BRIDGE</p>", "response": "r", "stimulus-type": "unrelated", "word": "BRIDGE", "color": "red", "correct_response": "r", "trial_id": "stroop-trial-1-unrelated-25", "trial_type": "html-keyboard-response", "trial_index": 157, "time_elapsed": 537325, "internal_node_id": "0.0-6.0-62.0"}}, {"uniqueid": "w62487913:a97213304", "current_trial": 158, "dateTime": 1664464645917, "trialdata": {"rt": 1126, "stimulus": "<p id='stroop-text' class='stroop-green'>WINDOW</p>", "response": "g", "stimulus-type": "unrelated", "word": "WINDOW", "color": "green", "correct_response": "g", "trial_id": "stroop-trial-1-unrelated-29", "trial_type": "html-keyboard-response", "trial_index": 158, "time_elapsed": 538955, "internal_node_id": "0.0-6.0-63.0"}}, {"uniqueid": "w62487913:a97213304", "current_trial": 159, "dateTime": 1664464647407, "trialdata": {"rt": 986, "stimulus": "<p id='stroop-text' class='stroop-blue'>BLUE</p>", "response": "b", "stimulus-type": "congruent", "word": "blue", "color": "blue", "correct_response": "b", "trial_id": "stroop-trial-1-congruent-5", "trial_type": "html-keyboard-response", "trial_index": 159, "time_elapsed": 540445, "internal_node_id": "0.0-6.0-64.0"}}, {"uniqueid": "w62487913:a97213304", "current_trial": 160, "dateTime": 1664464649527, "trialdata": {"rt": 1615, "stimulus": "<p id='stroop-text' class='stroop-green'>GREEN</p>", "response": "g", "stimulus-type": "congruent", "word": "green", "color": "green", "correct_response": "g", "trial_id": "stroop-trial-1-congruent-2", "trial_type": "html-keyboard-response", "trial_index": 160, "time_elapsed": 542565, "internal_node_id": "0.0-6.0-65.0"}}, {"uniqueid": "w62487913:a97213304", "current_trial": 161, "dateTime": 1664464651452, "trialdata": {"rt": 1420, "stimulus": "<p id='stroop-text' class='stroop-red'>YELLOW</p>", "response": "r", "stimulus-type": "incongruent", "word": "yellow", "color": "red", "correct_response": "r", "trial_id": "stroop-trial-1-incongruent-14", "trial_type": "html-keyboard-response", "trial_index": 161, "time_elapsed": 544489, "internal_node_id": "0.0-6.0-66.0"}}, {"uniqueid": "w62487913:a97213304", "current_trial": 162, "dateTime": 1664464654756, "trialdata": {"rt": 2799, "stimulus": "<p id='stroop-text' class='stroop-green'>FORK</p>", "response": "g", "stimulus-type": "unrelated", "word": "FORK", "color": "green", "correct_response": "g", "trial_id": "stroop-trial-1-unrelated-19", "trial_type": "html-keyboard-response", "trial_index": 162, "time_elapsed": 547793, "internal_node_id": "0.0-6.0-67.0"}}, {"uniqueid": "w62487913:a97213304", "current_trial": 163, "dateTime": 1664464657671, "trialdata": {"rt": 2409, "stimulus": "<p id='stroop-text' class='stroop-yellow'>CHAIR</p>", "response": "y", "stimulus-type": "unrelated", "word": "CHAIR", "color": "yellow", "correct_response": "y", "trial_id": "stroop-trial-1-unrelated-27", "trial_type": "html-keyboard-response", "trial_index": 163, "time_elapsed": 550708, "internal_node_id": "0.0-6.0-68.0"}}, {"uniqueid": "w62487913:a97213304", "current_trial": 164, "dateTime": 1664464659812, "trialdata": {"rt": 1637, "stimulus": "<p id='stroop-text' class='stroop-blue'>RED</p>", "response": "b", "stimulus-type": "incongruent", "word": "red", "color": "blue", "correct_response": "b", "trial_id": "stroop-trial-1-incongruent-12", "trial_type": "html-keyboard-response", "trial_index": 164, "time_elapsed": 552850, "internal_node_id": "0.0-6.0-69.0"}}, {"uniqueid": "w62487913:a97213304", "current_trial": 165, "dateTime": 1664464661459, "trialdata": {"rt": 1143, "stimulus": "<p id='stroop-text' class='stroop-red'>GREEN</p>", "response": "r", "stimulus-type": "incongruent", "word": "green", "color": "red", "correct_response": "r", "trial_id": "stroop-trial-1-incongruent-21", "trial_type": "html-keyboard-response", "trial_index": 165, "time_elapsed": 554497, "internal_node_id": "0.0-6.0-70.0"}}, {"uniqueid": "w62487913:a97213304", "current_trial": 166, "dateTime": 1664464663375, "trialdata": {"rt": 1409, "stimulus": "<p id='stroop-text' class='stroop-blue'>YELLOW</p>", "response": "b", "stimulus-type": "incongruent", "word": "yellow", "color": "blue", "correct_response": "b", "trial_id": "stroop-trial-1-incongruent-11", "trial_type": "html-keyboard-response", "trial_index": 166, "time_elapsed": 556412, "internal_node_id": "0.0-6.0-71.0"}}, {"uniqueid": "w62487913:a97213304", "current_trial": 167, "dateTime": 1664464665574, "trialdata": {"rt": 1694, "stimulus": "<p id='stroop-text' class='stroop-green'>BLUE</p>", "response": "g", "stimulus-type": "incongruent", "word": "blue", "color": "green", "correct_response": "g", "trial_id": "stroop-trial-1-incongruent-16", "trial_type": "html-keyboard-response", "trial_index": 167, "time_elapsed": 558611, "internal_node_id": "0.0-6.0-72.0"}}, {"uniqueid": "w62487913:a97213304", "current_trial": 168, "dateTime": 1664464667565, "trialdata": {"rt": 1485, "stimulus": "<p id='stroop-text' class='stroop-blue'>MONKEY</p>", "response": "b", "stimulus-type": "unrelated", "word": "MONKEY", "color": "blue", "correct_response": "b", "trial_id": "stroop-trial-1-unrelated-7", "trial_type": "html-keyboard-response", "trial_index": 168, "time_elapsed": 560602, "internal_node_id": "0.0-6.0-73.0"}}, {"uniqueid": "w62487913:a97213304", "current_trial": 169, "dateTime": 1664464672104, "trialdata": {"rt": 4034, "stimulus": "<p id='stroop-text' class='stroop-green'>YELLOW</p>", "response": "g", "stimulus-type": "incongruent", "word": "yellow", "color": "green", "correct_response": "g", "trial_id": "stroop-trial-1-incongruent-18", "trial_type": "html-keyboard-response", "trial_index": 169, "time_elapsed": 565142, "internal_node_id": "0.0-6.0-74.0"}}, {"uniqueid": "w62487913:a97213304", "current_trial": 170, "dateTime": 1664464673380, "trialdata": {"rt": 771, "stimulus": "<p id='stroop-text' class='stroop-red'>RED</p>", "response": "r", "stimulus-type": "congruent", "word": "red", "color": "red", "correct_response": "r", "trial_id": "stroop-trial-1-congruent-9", "trial_type": "html-keyboard-response", "trial_index": 170, "time_elapsed": 566418, "internal_node_id": "0.0-6.0-75.0"}}, {"uniqueid": "w62487913:a97213304", "current_trial": 171, "dateTime": 1664464675522, "trialdata": {"rt": 1637, "stimulus": "<p id='stroop-text' class='stroop-blue'>YELLOW</p>", "response": "b", "stimulus-type": "incongruent", "word": "yellow", "color": "blue", "correct_response": "b", "trial_id": "stroop-trial-1-incongruent-15", "trial_type": "html-keyboard-response", "trial_index": 171, "time_elapsed": 568560, "internal_node_id": "0.0-6.0-76.0"}}, {"uniqueid": "w62487913:a97213304", "current_trial": 172, "dateTime": 1664464678350, "trialdata": {"rt": 2323, "stimulus": "<p id='stroop-text' class='stroop-yellow'>WINDOW</p>", "response": "y", "stimulus-type": "unrelated", "word": "WINDOW", "color": "yellow", "correct_response": "y", "trial_id": "stroop-trial-1-unrelated-16", "trial_type": "html-keyboard-response", "trial_index": 172, "time_elapsed": 571387, "internal_node_id": "0.0-6.0-77.0"}}, {"uniqueid": "w62487913:a97213304", "current_trial": 173, "dateTime": 1664464681594, "trialdata": {"rt": 2739, "stimulus": "<p id='stroop-text' class='stroop-blue'>BLUE</p>", "response": "b", "stimulus-type": "congruent", "word": "blue", "color": "blue", "correct_response": "b", "trial_id": "stroop-trial-1-congruent-16", "trial_type": "html-keyboard-response", "trial_index": 173, "time_elapsed": 574631, "internal_node_id": "0.0-6.0-78.0"}}, {"uniqueid": "w62487913:a97213304", "current_trial": 174, "dateTime": 1664464684312, "trialdata": {"rt": 2212, "stimulus": "<p id='stroop-text' class='stroop-green'>MONKEY</p>", "response": "g", "stimulus-type": "unrelated", "word": "MONKEY", "color": "green", "correct_response": "g", "trial_id": "stroop-trial-1-unrelated-22", "trial_type": "html-keyboard-response", "trial_index": 174, "time_elapsed": 577349, "internal_node_id": "0.0-6.0-79.0"}}, {"uniqueid": "w62487913:a97213304", "current_trial": 175, "dateTime": 1664464686140, "trialdata": {"rt": 1323, "stimulus": "<p id='stroop-text' class='stroop-red'>RED</p>", "response": "r", "stimulus-type": "congruent", "word": "red", "color": "red", "correct_response": "r", "trial_id": "stroop-trial-1-congruent-17", "trial_type": "html-keyboard-response", "trial_index": 175, "time_elapsed": 579177, "internal_node_id": "0.0-6.0-80.0"}}, {"uniqueid": "w62487913:a97213304", "current_trial": 176, "dateTime": 1664464687298, "trialdata": {"rt": 653, "stimulus": "<p id='stroop-text' class='stroop-red'>SHIP</p>", "response": "r", "stimulus-type": "unrelated", "word": "SHIP", "color": "red", "correct_response": "r", "trial_id": "stroop-trial-1-unrelated-13", "trial_type": "html-keyboard-response", "trial_index": 176, "time_elapsed": 580335, "internal_node_id": "0.0-6.0-81.0"}}, {"uniqueid": "w62487913:a97213304", "current_trial": 177, "dateTime": 1664464688626, "trialdata": {"rt": 824, "stimulus": "<p id='stroop-text' class='stroop-green'>GREEN</p>", "response": "g", "stimulus-type": "congruent", "word": "green", "color": "green", "correct_response": "g", "trial_id": "stroop-trial-1-congruent-19", "trial_type": "html-keyboard-response", "trial_index": 177, "time_elapsed": 581664, "internal_node_id": "0.0-6.0-82.0"}}, {"uniqueid": "w62487913:a97213304", "current_trial": 178, "dateTime": 1664464690274, "trialdata": {"rt": 1142, "stimulus": "<p id='stroop-text' class='stroop-blue'>WINDOW</p>", "response": "b", "stimulus-type": "unrelated", "word": "WINDOW", "color": "blue", "correct_response": "b", "trial_id": "stroop-trial-1-unrelated-26", "trial_type": "html-keyboard-response", "trial_index": 178, "time_elapsed": 583311, "internal_node_id": "0.0-6.0-83.0"}}, {"uniqueid": "w62487913:a97213304", "current_trial": 179, "dateTime": 1664464691729, "trialdata": {"rt": 950, "stimulus": "<p id='stroop-text' class='stroop-green'>BOAT</p>", "response": "g", "stimulus-type": "unrelated", "word": "BOAT", "color": "green", "correct_response": "g", "trial_id": "stroop-trial-1-unrelated-23", "trial_type": "html-keyboard-response", "trial_index": 179, "time_elapsed": 584766, "internal_node_id": "0.0-6.0-84.0"}}, {"uniqueid": "w62487913:a97213304", "current_trial": 180, "dateTime": 1664464693333, "trialdata": {"rt": 1101, "stimulus": "<p id='stroop-text' class='stroop-red'>GREEN</p>", "response": "r", "stimulus-type": "incongruent", "word": "green", "color": "red", "correct_response": "r", "trial_id": "stroop-trial-1-incongruent-22", "trial_type": "html-keyboard-response", "trial_index": 180, "time_elapsed": 586371, "internal_node_id": "0.0-6.0-85.0"}}, {"uniqueid": "w62487913:a97213304", "current_trial": 181, "dateTime": 1664464696201, "trialdata": {"rt": 2364, "stimulus": "<p id='stroop-text' class='stroop-blue'>CHAIR</p>", "response": "b", "stimulus-type": "unrelated", "word": "CHAIR", "color": "blue", "correct_response": "b", "trial_id": "stroop-trial-1-unrelated-11", "trial_type": "html-keyboard-response", "trial_index": 181, "time_elapsed": 589239, "internal_node_id": "0.0-6.0-86.0"}}, {"uniqueid": "w62487913:a97213304", "current_trial": 182, "dateTime": 1664464698060, "trialdata": {"rt": 1355, "stimulus": "<p id='stroop-text' class='stroop-blue'>RED</p>", "response": "b", "stimulus-type": "incongruent", "word": "red", "color": "blue", "correct_response": "b", "trial_id": "stroop-trial-1-incongruent-27", "trial_type": "html-keyboard-response", "trial_index": 182, "time_elapsed": 591098, "internal_node_id": "0.0-6.0-87.0"}}, {"uniqueid": "w62487913:a97213304", "current_trial": 183, "dateTime": 1664464699392, "trialdata": {"rt": 827, "stimulus": "<p id='stroop-text' class='stroop-blue'>YELLOW</p>", "response": "b", "stimulus-type": "incongruent", "word": "yellow", "color": "blue", "correct_response": "b", "trial_id": "stroop-trial-1-incongruent-8", "trial_type": "html-keyboard-response", "trial_index": 183, "time_elapsed": 592429, "internal_node_id": "0.0-6.0-88.0"}}, {"uniqueid": "w62487913:a97213304", "current_trial": 184, "dateTime": 1664464700827, "trialdata": {"rt": 930, "stimulus": "<p id='stroop-text' class='stroop-green'>BRAIN</p>", "response": "g", "stimulus-type": "unrelated", "word": "BRAIN", "color": "green", "correct_response": "g", "trial_id": "stroop-trial-1-unrelated-15", "trial_type": "html-keyboard-response", "trial_index": 184, "time_elapsed": 593864, "internal_node_id": "0.0-6.0-89.0"}}, {"uniqueid": "w62487913:a97213304", "current_trial": 185, "dateTime": 1664464715935, "trialdata": {"rt": 14603, "stimulus": "  <h1> End of block! </h1>\n\n  You have reached the end of the block 2/5. If you need a short break, feel free to take one now before moving on.\n\n  <br><br>\n  In the next block, you will complete another 90 rounds of this game.\n\n  <br><br>\n  <div style='text-align: center;'>Press <code>space</code> to begin.</div>\n  <br><br>\n<div style='text-align: center;'>(If the experiment doesn't continue, try clicking on the text and then pressing <code>space</code>.)</div>", "response": " ", "trial_id": "stroop_1_ready_3", "trial_type": "html-keyboard-response", "trial_index": 185, "time_elapsed": 608973, "internal_node_id": "0.0-7.0"}}, {"uniqueid": "w62487913:a97213304", "current_trial": 186, "dateTime": 1664464717679, "trialdata": {"rt": 1739, "stimulus": "<p id='stroop-text' class='stroop-blue'>YELLOW</p>", "response": "b", "stimulus-type": "incongruent", "word": "yellow", "color": "blue", "correct_response": "b", "trial_id": "stroop-trial-1-incongruent-22", "trial_type": "html-keyboard-response", "trial_index": 186, "time_elapsed": 610716, "internal_node_id": "0.0-8.0-0.0"}}, {"uniqueid": "w62487913:a97213304", "current_trial": 187, "dateTime": 1664464719235, "trialdata": {"rt": 1052, "stimulus": "<p id='stroop-text' class='stroop-red'>YELLOW</p>", "response": "r", "stimulus-type": "incongruent", "word": "yellow", "color": "red", "correct_response": "r", "trial_id": "stroop-trial-1-incongruent-16", "trial_type": "html-keyboard-response", "trial_index": 187, "time_elapsed": 612273, "internal_node_id": "0.0-8.0-1.0"}}, {"uniqueid": "w62487913:a97213304", "current_trial": 188, "dateTime": 1664464720722, "trialdata": {"rt": 982, "stimulus": "<p id='stroop-text' class='stroop-red'>BRAIN</p>", "response": "r", "stimulus-type": "unrelated", "word": "BRAIN", "color": "red", "correct_response": "r", "trial_id": "stroop-trial-1-unrelated-15", "trial_type": "html-keyboard-response", "trial_index": 188, "time_elapsed": 613760, "internal_node_id": "0.0-8.0-2.0"}}, {"uniqueid": "w62487913:a97213304", "current_trial": 189, "dateTime": 1664464721926, "trialdata": {"rt": 699, "stimulus": "<p id='stroop-text' class='stroop-red'>RED</p>", "response": "r", "stimulus-type": "congruent", "word": "red", "color": "red", "correct_response": "r", "trial_id": "stroop-trial-1-congruent-24", "trial_type": "html-keyboard-response", "trial_index": 189, "time_elapsed": 614963, "internal_node_id": "0.0-8.0-3.0"}}, {"uniqueid": "w62487913:a97213304", "current_trial": 190, "dateTime": 1664464723033, "trialdata": {"rt": 603, "stimulus": "<p id='stroop-text' class='stroop-red'>GREEN</p>", "response": "r", "stimulus-type": "incongruent", "word": "green", "color": "red", "correct_response": "r", "trial_id": "stroop-trial-1-incongruent-24", "trial_type": "html-keyboard-response", "trial_index": 190, "time_elapsed": 616071, "internal_node_id": "0.0-8.0-4.0"}}, {"uniqueid": "w62487913:a97213304", "current_trial": 191, "dateTime": 1664464724988, "trialdata": {"rt": 1450, "stimulus": "<p id='stroop-text' class='stroop-yellow'>YELLOW</p>", "response": "y", "stimulus-type": "congruent", "word": "yellow", "color": "yellow", "correct_response": "y", "trial_id": "stroop-trial-1-congruent-22", "trial_type": "html-keyboard-response", "trial_index": 191, "time_elapsed": 618026, "internal_node_id": "0.0-8.0-5.0"}}, {"uniqueid": "w62487913:a97213304", "current_trial": 192, "dateTime": 1664464727057, "trialdata": {"rt": 1565, "stimulus": "<p id='stroop-text' class='stroop-red'>YELLOW</p>", "response": "r", "stimulus-type": "incongruent", "word": "yellow", "color": "red", "correct_response": "r", "trial_id": "stroop-trial-1-incongruent-19", "trial_type": "html-keyboard-response", "trial_index": 192, "time_elapsed": 620094, "internal_node_id": "0.0-8.0-6.0"}}, {"uniqueid": "w62487913:a97213304", "current_trial": 193, "dateTime": 1664464728732, "trialdata": {"rt": 1170, "stimulus": "<p id='stroop-text' class='stroop-blue'>BLUE</p>", "response": "b", "stimulus-type": "congruent", "word": "blue", "color": "blue", "correct_response": "b", "trial_id": "stroop-trial-1-congruent-15", "trial_type": "html-keyboard-response", "trial_index": 193, "time_elapsed": 621769, "internal_node_id": "0.0-8.0-7.0"}}, {"uniqueid": "w62487913:a97213304", "current_trial": 194, "dateTime": 1664464730337, "trialdata": {"rt": 1099, "stimulus": "<p id='stroop-text' class='stroop-green'>GREEN</p>", "response": "g", "stimulus-type": "congruent", "word": "green", "color": "green", "correct_response": "g", "trial_id": "stroop-trial-1-congruent-21", "trial_type": "html-keyboard-response", "trial_index": 194, "time_elapsed": 623374, "internal_node_id": "0.0-8.0-8.0"}}, {"uniqueid": "w62487913:a97213304", "current_trial": 195, "dateTime": 1664464732698, "trialdata": {"rt": 1856, "stimulus": "<p id='stroop-text' class='stroop-yellow'>BLUE</p>", "response": "b", "stimulus-type": "incongruent", "word": "blue", "color": "yellow", "correct_response": "y", "trial_id": "stroop-trial-1-incongruent-27", "trial_type": "html-keyboard-response", "trial_index": 195, "time_elapsed": 625735, "internal_node_id": "0.0-8.0-9.0"}}, {"uniqueid": "w62487913:a97213304", "current_trial": 196, "dateTime": 1664464735368, "trialdata": {"rt": 2165, "stimulus": "<p id='stroop-text' class='stroop-red'>BRAIN</p>", "response": "r", "stimulus-type": "unrelated", "word": "BRAIN", "color": "red", "correct_response": "r", "trial_id": "stroop-trial-1-unrelated-10", "trial_type": "html-keyboard-response", "trial_index": 196, "time_elapsed": 628405, "internal_node_id": "0.0-8.0-10.0"}}, {"uniqueid": "w62487913:a97213304", "current_trial": 197, "dateTime": 1664464738204, "trialdata": {"rt": 2331, "stimulus": "<p id='stroop-text' class='stroop-yellow'>BLUE</p>", "response": "y", "stimulus-type": "incongruent", "word": "blue", "color": "yellow", "correct_response": "y", "trial_id": "stroop-trial-1-incongruent-5", "trial_type": "html-keyboard-response", "trial_index": 197, "time_elapsed": 631241, "internal_node_id": "0.0-8.0-11.0"}}, {"uniqueid": "w62487913:a97213304", "current_trial": 198, "dateTime": 1664464739611, "trialdata": {"rt": 902, "stimulus": "<p id='stroop-text' class='stroop-yellow'>STONE</p>", "response": "y", "stimulus-type": "unrelated", "word": "STONE", "color": "yellow", "correct_response": "y", "trial_id": "stroop-trial-1-unrelated-8", "trial_type": "html-keyboard-response", "trial_index": 198, "time_elapsed": 632649, "internal_node_id": "0.0-8.0-12.0"}}, {"uniqueid": "w62487913:a97213304", "current_trial": 199, "dateTime": 1664464741028, "trialdata": {"rt": 912, "stimulus": "<p id='stroop-text' class='stroop-red'>RED</p>", "response": "r", "stimulus-type": "congruent", "word": "red", "color": "red", "correct_response": "r", "trial_id": "stroop-trial-1-congruent-12", "trial_type": "html-keyboard-response", "trial_index": 199, "time_elapsed": 634065, "internal_node_id": "0.0-8.0-13.0"}}, {"uniqueid": "w62487913:a97213304", "current_trial": 200, "dateTime": 1664464743085, "trialdata": {"rt": 1551, "stimulus": "<p id='stroop-text' class='stroop-green'>BOTTLE</p>", "response": "g", "stimulus-type": "unrelated", "word": "BOTTLE", "color": "green", "correct_response": "g", "trial_id": "stroop-trial-1-unrelated-4", "trial_type": "html-keyboard-response", "trial_index": 200, "time_elapsed": 636122, "internal_node_id": "0.0-8.0-14.0"}}, {"uniqueid": "w62487913:a97213304", "current_trial": 201, "dateTime": 1664464744532, "trialdata": {"rt": 942, "stimulus": "<p id='stroop-text' class='stroop-yellow'>YELLOW</p>", "response": "y", "stimulus-type": "congruent", "word": "yellow", "color": "yellow", "correct_response": "y", "trial_id": "stroop-trial-1-congruent-10", "trial_type": "html-keyboard-response", "trial_index": 201, "time_elapsed": 637570, "internal_node_id": "0.0-8.0-15.0"}}, {"uniqueid": "w62487913:a97213304", "current_trial": 202, "dateTime": 1664464745753, "trialdata": {"rt": 715, "stimulus": "<p id='stroop-text' class='stroop-yellow'>YELLOW</p>", "response": "y", "stimulus-type": "congruent", "word": "yellow", "color": "yellow", "correct_response": "y", "trial_id": "stroop-trial-1-congruent-30", "trial_type": "html-keyboard-response", "trial_index": 202, "time_elapsed": 638790, "internal_node_id": "0.0-8.0-16.0"}}, {"uniqueid": "w62487913:a97213304", "current_trial": 203, "dateTime": 1664464746994, "trialdata": {"rt": 735, "stimulus": "<p id='stroop-text' class='stroop-yellow'>DOG</p>", "response": "y", "stimulus-type": "unrelated", "word": "DOG", "color": "yellow", "correct_response": "y", "trial_id": "stroop-trial-1-unrelated-26", "trial_type": "html-keyboard-response", "trial_index": 203, "time_elapsed": 640032, "internal_node_id": "0.0-8.0-17.0"}}, {"uniqueid": "w62487913:a97213304", "current_trial": 204, "dateTime": 1664464749455, "trialdata": {"rt": 1956, "stimulus": "<p id='stroop-text' class='stroop-blue'>GREEN</p>", "response": "b", "stimulus-type": "incongruent", "word": "green", "color": "blue", "correct_response": "b", "trial_id": "stroop-trial-1-incongruent-18", "trial_type": "html-keyboard-response", "trial_index": 204, "time_elapsed": 642492, "internal_node_id": "0.0-8.0-18.0"}}, {"uniqueid": "w62487913:a97213304", "current_trial": 205, "dateTime": 1664464751362, "trialdata": {"rt": 1402, "stimulus": "<p id='stroop-text' class='stroop-red'>BRIDGE</p>", "response": "r", "stimulus-type": "unrelated", "word": "BRIDGE", "color": "red", "correct_response": "r", "trial_id": "stroop-trial-1-unrelated-16", "trial_type": "html-keyboard-response", "trial_index": 205, "time_elapsed": 644399, "internal_node_id": "0.0-8.0-19.0"}}, {"uniqueid": "w62487913:a97213304", "current_trial": 206, "dateTime": 1664464752829, "trialdata": {"rt": 962, "stimulus": "<p id='stroop-text' class='stroop-yellow'>STONE</p>", "response": "y", "stimulus-type": "unrelated", "word": "STONE", "color": "yellow", "correct_response": "y", "trial_id": "stroop-trial-1-unrelated-24", "trial_type": "html-keyboard-response", "trial_index": 206, "time_elapsed": 645866, "internal_node_id": "0.0-8.0-20.0"}}, {"uniqueid": "w62487913:a97213304", "current_trial": 207, "dateTime": 1664464754781, "trialdata": {"rt": 1447, "stimulus": "<p id='stroop-text' class='stroop-green'>BLUE</p>", "response": "g", "stimulus-type": "incongruent", "word": "blue", "color": "green", "correct_response": "g", "trial_id": "stroop-trial-1-incongruent-15", "trial_type": "html-keyboard-response", "trial_index": 207, "time_elapsed": 647819, "internal_node_id": "0.0-8.0-21.0"}}, {"uniqueid": "w62487913:a97213304", "current_trial": 208, "dateTime": 1664464756504, "trialdata": {"rt": 1217, "stimulus": "<p id='stroop-text' class='stroop-blue'>BLUE</p>", "response": "b", "stimulus-type": "congruent", "word": "blue", "color": "blue", "correct_response": "b", "trial_id": "stroop-trial-1-congruent-23", "trial_type": "html-keyboard-response", "trial_index": 208, "time_elapsed": 649541, "internal_node_id": "0.0-8.0-22.0"}}, {"uniqueid": "w62487913:a97213304", "current_trial": 209, "dateTime": 1664464758016, "trialdata": {"rt": 1007, "stimulus": "<p id='stroop-text' class='stroop-green'>BRAIN</p>", "response": "g", "stimulus-type": "unrelated", "word": "BRAIN", "color": "green", "correct_response": "g", "trial_id": "stroop-trial-1-unrelated-19", "trial_type": "html-keyboard-response", "trial_index": 209, "time_elapsed": 651054, "internal_node_id": "0.0-8.0-23.0"}}, {"uniqueid": "w62487913:a97213304", "current_trial": 210, "dateTime": 1664464759694, "trialdata": {"rt": 1173, "stimulus": "<p id='stroop-text' class='stroop-yellow'>YELLOW</p>", "response": "y", "stimulus-type": "congruent", "word": "yellow", "color": "yellow", "correct_response": "y", "trial_id": "stroop-trial-1-congruent-14", "trial_type": "html-keyboard-response", "trial_index": 210, "time_elapsed": 652731, "internal_node_id": "0.0-8.0-24.0"}}, {"uniqueid": "w62487913:a97213304", "current_trial": 211, "dateTime": 1664464761296, "trialdata": {"rt": 1096, "stimulus": "<p id='stroop-text' class='stroop-yellow'>WINDOW</p>", "response": "y", "stimulus-type": "unrelated", "word": "WINDOW", "color": "yellow", "correct_response": "y", "trial_id": "stroop-trial-1-unrelated-2", "trial_type": "html-keyboard-response", "trial_index": 211, "time_elapsed": 654333, "internal_node_id": "0.0-8.0-25.0"}}, {"uniqueid": "w62487913:a97213304", "current_trial": 212, "dateTime": 1664464763109, "trialdata": {"rt": 1309, "stimulus": "<p id='stroop-text' class='stroop-blue'>YELLOW</p>", "response": "b", "stimulus-type": "incongruent", "word": "yellow", "color": "blue", "correct_response": "b", "trial_id": "stroop-trial-1-incongruent-12", "trial_type": "html-keyboard-response", "trial_index": 212, "time_elapsed": 656147, "internal_node_id": "0.0-8.0-26.0"}}, {"uniqueid": "w62487913:a97213304", "current_trial": 213, "dateTime": 1664464764740, "trialdata": {"rt": 1126, "stimulus": "<p id='stroop-text' class='stroop-blue'>FORK</p>", "response": "b", "stimulus-type": "unrelated", "word": "FORK", "color": "blue", "correct_response": "b", "trial_id": "stroop-trial-1-unrelated-17", "trial_type": "html-keyboard-response", "trial_index": 213, "time_elapsed": 657778, "internal_node_id": "0.0-8.0-27.0"}}, {"uniqueid": "w62487913:a97213304", "current_trial": 214, "dateTime": 1664464766636, "trialdata": {"rt": 1390, "stimulus": "<p id='stroop-text' class='stroop-green'>BLUE</p>", "response": "g", "stimulus-type": "incongruent", "word": "blue", "color": "green", "correct_response": "g", "trial_id": "stroop-trial-1-incongruent-23", "trial_type": "html-keyboard-response", "trial_index": 214, "time_elapsed": 659673, "internal_node_id": "0.0-8.0-28.0"}}, {"uniqueid": "w62487913:a97213304", "current_trial": 215, "dateTime": 1664464768377, "trialdata": {"rt": 1236, "stimulus": "<p id='stroop-text' class='stroop-yellow'>BRAIN</p>", "response": "y", "stimulus-type": "unrelated", "word": "BRAIN", "color": "yellow", "correct_response": "y", "trial_id": "stroop-trial-1-unrelated-20", "trial_type": "html-keyboard-response", "trial_index": 215, "time_elapsed": 661414, "internal_node_id": "0.0-8.0-29.0"}}, {"uniqueid": "w62487913:a97213304", "current_trial": 216, "dateTime": 1664464769780, "trialdata": {"rt": 898, "stimulus": "<p id='stroop-text' class='stroop-yellow'>BOAT</p>", "response": "y", "stimulus-type": "unrelated", "word": "BOAT", "color": "yellow", "correct_response": "y", "trial_id": "stroop-trial-1-unrelated-28", "trial_type": "html-keyboard-response", "trial_index": 216, "time_elapsed": 662817, "internal_node_id": "0.0-8.0-30.0"}}, {"uniqueid": "w62487913:a97213304", "current_trial": 217, "dateTime": 1664464771416, "trialdata": {"rt": 1130, "stimulus": "<p id='stroop-text' class='stroop-green'>DOG</p>", "response": "g", "stimulus-type": "unrelated", "word": "DOG", "color": "green", "correct_response": "g", "trial_id": "stroop-trial-1-unrelated-21", "trial_type": "html-keyboard-response", "trial_index": 217, "time_elapsed": 664453, "internal_node_id": "0.0-8.0-31.0"}}, {"uniqueid": "w62487913:a97213304", "current_trial": 218, "dateTime": 1664464773809, "trialdata": {"rt": 1889, "stimulus": "<p id='stroop-text' class='stroop-red'>BLUE</p>", "response": "r", "stimulus-type": "incongruent", "word": "blue", "color": "red", "correct_response": "r", "trial_id": "stroop-trial-1-incongruent-9", "trial_type": "html-keyboard-response", "trial_index": 218, "time_elapsed": 666847, "internal_node_id": "0.0-8.0-32.0"}}, {"uniqueid": "w62487913:a97213304", "current_trial": 219, "dateTime": 1664464775306, "trialdata": {"rt": 993, "stimulus": "<p id='stroop-text' class='stroop-red'>RED</p>", "response": "r", "stimulus-type": "congruent", "word": "red", "color": "red", "correct_response": "r", "trial_id": "stroop-trial-1-congruent-5", "trial_type": "html-keyboard-response", "trial_index": 219, "time_elapsed": 668343, "internal_node_id": "0.0-8.0-33.0"}}, {"uniqueid": "w62487913:a97213304", "current_trial": 220, "dateTime": 1664464776941, "trialdata": {"rt": 1130, "stimulus": "<p id='stroop-text' class='stroop-yellow'>YELLOW</p>", "response": "y", "stimulus-type": "congruent", "word": "yellow", "color": "yellow", "correct_response": "y", "trial_id": "stroop-trial-1-congruent-19", "trial_type": "html-keyboard-response", "trial_index": 220, "time_elapsed": 669978, "internal_node_id": "0.0-8.0-34.0"}}, {"uniqueid": "w62487913:a97213304", "current_trial": 221, "dateTime": 1664464778692, "trialdata": {"rt": 1246, "stimulus": "<p id='stroop-text' class='stroop-blue'>BLUE</p>", "response": "b", "stimulus-type": "congruent", "word": "blue", "color": "blue", "correct_response": "b", "trial_id": "stroop-trial-1-congruent-3", "trial_type": "html-keyboard-response", "trial_index": 221, "time_elapsed": 671730, "internal_node_id": "0.0-8.0-35.0"}}, {"uniqueid": "w62487913:a97213304", "current_trial": 222, "dateTime": 1664464780639, "trialdata": {"rt": 1442, "stimulus": "<p id='stroop-text' class='stroop-green'>YELLOW</p>"