{"condition": 0, "counterbalance": 0, "assignmentId": "a83590952", "workerId": "w84587138", "hitId": "h15883233", "currenttrial": 965, "bonus": 0, "data": [{"uniqueid": "w84587138:a83590952", "current_trial": 0, "dateTime": 1664367955909, "trialdata": {"success": true, "trial_type": "fullscreen", "trial_index": 0, "time_elapsed": 4395, "internal_node_id": "0.0-0.0"}}, {"uniqueid": "w84587138:a83590952", "current_trial": 1, "dateTime": 1664367979577, "trialdata": {"view_history": [{"page_index": 0, "viewing_time": 23658}], "rt": 23659, "trial_id": "exp_instructions_distractor", "trial_type": "instructions", "trial_index": 1, "time_elapsed": 28064, "internal_node_id": "0.0-1.0"}}, {"uniqueid": "w84587138:a83590952", "current_trial": 2, "dateTime": 1664367993912, "trialdata": {"view_history": [{"page_index": 0, "viewing_time": 14332}], "rt": 14333, "trial_id": "color_game_instructions", "trial_type": "instructions", "trial_index": 2, "time_elapsed": 42399, "internal_node_id": "0.0-2.0"}}, {"uniqueid": "w84587138:a83590952", "current_trial": 3, "dateTime": 1664367995226, "trialdata": {"rt": 1312, "stimulus": "<h1> Get ready to start the game! </h1>\n\nThank you for reading the instructions. Get ready start with the first of 5 block(s) of this game.\n<br><br>\nIn this first block, you will complete 90 rounds of this game before moving on.\n<br><br>\nRemember, the better you perform, the bigger your bonus will be!\n<br><br>\n<div style='text-align: center;'>Press <code>space</code> to begin.</div>", "response": " ", "trial_id": "stroop_1_ready_1", "trial_type": "html-keyboard-response", "trial_index": 3, "time_elapsed": 43713, "internal_node_id": "0.0-3.0"}}, {"uniqueid": "w84587138:a83590952", "current_trial": 4, "dateTime": 1664367997185, "trialdata": {"rt": 1946, "stimulus": "<p id='stroop-text' class='stroop-blue'>GREEN</p>", "response": "b", "stimulus-type": "incongruent", "word": "green", "color": "blue", "correct_response": "b", "trial_id": "stroop-trial-1-incongruent-21", "trial_type": "html-keyboard-response", "trial_index": 4, "time_elapsed": 45671, "internal_node_id": "0.0-4.0-0.0"}}, {"uniqueid": "w84587138:a83590952", "current_trial": 5, "dateTime": 1664367998632, "trialdata": {"rt": 944, "stimulus": "<p id='stroop-text' class='stroop-blue'>YELLOW</p>", "response": "y", "stimulus-type": "incongruent", "word": "yellow", "color": "blue", "correct_response": "b", "trial_id": "stroop-trial-1-incongruent-19", "trial_type": "html-keyboard-response", "trial_index": 5, "time_elapsed": 47119, "internal_node_id": "0.0-4.0-1.0"}}, {"uniqueid": "w84587138:a83590952", "current_trial": 6, "dateTime": 1664368000904, "trialdata": {"rt": 1769, "stimulus": "<p id='stroop-text' class='stroop-green'>BLUE</p>", "response": "g", "stimulus-type": "incongruent", "word": "blue", "color": "green", "correct_response": "g", "trial_id": "stroop-trial-1-incongruent-15", "trial_type": "html-keyboard-response", "trial_index": 6, "time_elapsed": 49391, "internal_node_id": "0.0-4.0-2.0"}}, {"uniqueid": "w84587138:a83590952", "current_trial": 7, "dateTime": 1664368002529, "trialdata": {"rt": 1121, "stimulus": "<p id='stroop-text' class='stroop-yellow'>YELLOW</p>", "response": "y", "stimulus-type": "congruent", "word": "yellow", "color": "yellow", "correct_response": "y", "trial_id": "stroop-trial-1-congruent-19", "trial_type": "html-keyboard-response", "trial_index": 7, "time_elapsed": 51015, "internal_node_id": "0.0-4.0-3.0"}}, {"uniqueid": "w84587138:a83590952", "current_trial": 8, "dateTime": 1664368004737, "trialdata": {"rt": 1704, "stimulus": "<p id='stroop-text' class='stroop-green'>CHAIR</p>", "response": "g", "stimulus-type": "unrelated", "word": "CHAIR", "color": "green", "correct_response": "g", "trial_id": "stroop-trial-1-unrelated-9", "trial_type": "html-keyboard-response", "trial_index": 8, "time_elapsed": 53223, "internal_node_id": "0.0-4.0-4.0"}}, {"uniqueid": "w84587138:a83590952", "current_trial": 9, "dateTime": 1664368006112, "trialdata": {"rt": 872, "stimulus": "<p id='stroop-text' class='stroop-blue'>BLUE</p>", "response": "b", "stimulus-type": "congruent", "word": "blue", "color": "blue", "correct_response": "b", "trial_id": "stroop-trial-1-congruent-8", "trial_type": "html-keyboard-response", "trial_index": 9, "time_elapsed": 54599, "internal_node_id": "0.0-4.0-5.0"}}, {"uniqueid": "w84587138:a83590952", "current_trial": 10, "dateTime": 1664368008256, "trialdata": {"rt": 1641, "stimulus": "<p id='stroop-text' class='stroop-green'>STONE</p>", "response": "g", "stimulus-type": "unrelated", "word": "STONE", "color": "green", "correct_response": "g", "trial_id": "stroop-trial-1-unrelated-25", "trial_type": "html-keyboard-response", "trial_index": 10, "time_elapsed": 56743, "internal_node_id": "0.0-4.0-6.0"}}, {"uniqueid": "w84587138:a83590952", "current_trial": 11, "dateTime": 1664368009496, "trialdata": {"rt": 737, "stimulus": "<p id='stroop-text' class='stroop-yellow'>RED</p>", "response": "y", "stimulus-type": "incongruent", "word": "red", "color": "yellow", "correct_response": "y", "trial_id": "stroop-trial-1-incongruent-5", "trial_type": "html-keyboard-response", "trial_index": 11, "time_elapsed": 57983, "internal_node_id": "0.0-4.0-7.0"}}, {"uniqueid": "w84587138:a83590952", "current_trial": 12, "dateTime": 1664368011384, "trialdata": {"rt": 1385, "stimulus": "<p id='stroop-text' class='stroop-yellow'>BLUE</p>", "response": "y", "stimulus-type": "incongruent", "word": "blue", "color": "yellow", "correct_response": "y", "trial_id": "stroop-trial-1-incongruent-2", "trial_type": "html-keyboard-response", "trial_index": 12, "time_elapsed": 59871, "internal_node_id": "0.0-4.0-8.0"}}, {"uniqueid": "w84587138:a83590952", "current_trial": 13, "dateTime": 1664368012992, "trialdata": {"rt": 1105, "stimulus": "<p id='stroop-text' class='stroop-red'>RED</p>", "response": "r", "stimulus-type": "congruent", "word": "red", "color": "red", "correct_response": "r", "trial_id": "stroop-trial-1-congruent-14", "trial_type": "html-keyboard-response", "trial_index": 13, "time_elapsed": 61479, "internal_node_id": "0.0-4.0-9.0"}}, {"uniqueid": "w84587138:a83590952", "current_trial": 14, "dateTime": 1664368014008, "trialdata": {"rt": 512, "stimulus": "<p id='stroop-text' class='stroop-red'>RED</p>", "response": "r", "stimulus-type": "congruent", "word": "red", "color": "red", "correct_response": "r", "trial_id": "stroop-trial-1-congruent-29", "trial_type": "html-keyboard-response", "trial_index": 14, "time_elapsed": 62495, "internal_node_id": "0.0-4.0-10.0"}}, {"uniqueid": "w84587138:a83590952", "current_trial": 15, "dateTime": 1664368015344, "trialdata": {"rt": 832, "stimulus": "<p id='stroop-text' class='stroop-green'>RED</p>", "response": "g", "stimulus-type": "incongruent", "word": "red", "color": "green", "correct_response": "g", "trial_id": "stroop-trial-1-incongruent-12", "trial_type": "html-keyboard-response", "trial_index": 15, "time_elapsed": 63831, "internal_node_id": "0.0-4.0-11.0"}}, {"uniqueid": "w84587138:a83590952", "current_trial": 16, "dateTime": 1664368016784, "trialdata": {"rt": 937, "stimulus": "<p id='stroop-text' class='stroop-green'>BLUE</p>", "response": "b", "stimulus-type": "incongruent", "word": "blue", "color": "green", "correct_response": "g", "trial_id": "stroop-trial-1-incongruent-11", "trial_type": "html-keyboard-response", "trial_index": 16, "time_elapsed": 65271, "internal_node_id": "0.0-4.0-12.0"}}, {"uniqueid": "w84587138:a83590952", "current_trial": 17, "dateTime": 1664368018384, "trialdata": {"rt": 1097, "stimulus": "<p id='stroop-text' class='stroop-red'>BLUE</p>", "response": "r", "stimulus-type": "incongruent", "word": "blue", "color": "red", "correct_response": "r", "trial_id": "stroop-trial-1-incongruent-4", "trial_type": "html-keyboard-response", "trial_index": 17, "time_elapsed": 66871, "internal_node_id": "0.0-4.0-13.0"}}, {"uniqueid": "w84587138:a83590952", "current_trial": 18, "dateTime": 1664368019816, "trialdata": {"rt": 928, "stimulus": "<p id='stroop-text' class='stroop-green'>STONE</p>", "response": "g", "stimulus-type": "unrelated", "word": "STONE", "color": "green", "correct_response": "g", "trial_id": "stroop-trial-1-unrelated-14", "trial_type": "html-keyboard-response", "trial_index": 18, "time_elapsed": 68303, "internal_node_id": "0.0-4.0-14.0"}}, {"uniqueid": "w84587138:a83590952", "current_trial": 19, "dateTime": 1664368021192, "trialdata": {"rt": 873, "stimulus": "<p id='stroop-text' class='stroop-red'>BOTTLE</p>", "response": "r", "stimulus-type": "unrelated", "word": "BOTTLE", "color": "red", "correct_response": "r", "trial_id": "stroop-trial-1-unrelated-11", "trial_type": "html-keyboard-response", "trial_index": 19, "time_elapsed": 69679, "internal_node_id": "0.0-4.0-15.0"}}, {"uniqueid": "w84587138:a83590952", "current_trial": 20, "dateTime": 1664368022480, "trialdata": {"rt": 784, "stimulus": "<p id='stroop-text' class='stroop-green'>GREEN</p>", "response": "g", "stimulus-type": "congruent", "word": "green", "color": "green", "correct_response": "g", "trial_id": "stroop-trial-1-congruent-2", "trial_type": "html-keyboard-response", "trial_index": 20, "time_elapsed": 70967, "internal_node_id": "0.0-4.0-16.0"}}, {"uniqueid": "w84587138:a83590952", "current_trial": 21, "dateTime": 1664368024032, "trialdata": {"rt": 1049, "stimulus": "<p id='stroop-text' class='stroop-green'>BRAIN</p>", "response": "g", "stimulus-type": "unrelated", "word": "BRAIN", "color": "green", "correct_response": "g", "trial_id": "stroop-trial-1-unrelated-4", "trial_type": "html-keyboard-response", "trial_index": 21, "time_elapsed": 72519, "internal_node_id": "0.0-4.0-17.0"}}, {"uniqueid": "w84587138:a83590952", "current_trial": 22, "dateTime": 1664368025376, "trialdata": {"rt": 841, "stimulus": "<p id='stroop-text' class='stroop-blue'>MONKEY</p>", "response": "b", "stimulus-type": "unrelated", "word": "MONKEY", "color": "blue", "correct_response": "b", "trial_id": "stroop-trial-1-unrelated-12", "trial_type": "html-keyboard-response", "trial_index": 22, "time_elapsed": 73863, "internal_node_id": "0.0-4.0-18.0"}}, {"uniqueid": "w84587138:a83590952", "current_trial": 23, "dateTime": 1664368027120, "trialdata": {"rt": 1241, "stimulus": "<p id='stroop-text' class='stroop-red'>DOG</p>", "response": "r", "stimulus-type": "unrelated", "word": "DOG", "color": "red", "correct_response": "r", "trial_id": "stroop-trial-1-unrelated-6", "trial_type": "html-keyboard-response", "trial_index": 23, "time_elapsed": 75607, "internal_node_id": "0.0-4.0-19.0"}}, {"uniqueid": "w84587138:a83590952", "current_trial": 24, "dateTime": 1664368028408, "trialdata": {"rt": 785, "stimulus": "<p id='stroop-text' class='stroop-green'>YELLOW</p>", "response": "y", "stimulus-type": "incongruent", "word": "yellow", "color": "green", "correct_response": "g", "trial_id": "stroop-trial-1-incongruent-29", "trial_type": "html-keyboard-response", "trial_index": 24, "time_elapsed": 76895, "internal_node_id": "0.0-4.0-20.0"}}, {"uniqueid": "w84587138:a83590952", "current_trial": 25, "dateTime": 1664368029680, "trialdata": {"rt": 768, "stimulus": "<p id='stroop-text' class='stroop-yellow'>FORK</p>", "response": "y", "stimulus-type": "unrelated", "word": "FORK", "color": "yellow", "correct_response": "y", "trial_id": "stroop-trial-1-unrelated-23", "trial_type": "html-keyboard-response", "trial_index": 25, "time_elapsed": 78166, "internal_node_id": "0.0-4.0-21.0"}}, {"uniqueid": "w84587138:a83590952", "current_trial": 26, "dateTime": 1664368031263, "trialdata": {"rt": 1081, "stimulus": "<p id='stroop-text' class='stroop-yellow'>YELLOW</p>", "response": "y", "stimulus-type": "congruent", "word": "yellow", "color": "yellow", "correct_response": "y", "trial_id": "stroop-trial-1-congruent-30", "trial_type": "html-keyboard-response", "trial_index": 26, "time_elapsed": 79750, "internal_node_id": "0.0-4.0-22.0"}}, {"uniqueid": "w84587138:a83590952", "current_trial": 27, "dateTime": 1664368032416, "trialdata": {"rt": 648, "stimulus": "<p id='stroop-text' class='stroop-red'>WINDOW</p>", "response": "r", "stimulus-type": "unrelated", "word": "WINDOW", "color": "red", "correct_response": "r", "trial_id": "stroop-trial-1-unrelated-27", "trial_type": "html-keyboard-response", "trial_index": 27, "time_elapsed": 80902, "internal_node_id": "0.0-4.0-23.0"}}, {"uniqueid": "w84587138:a83590952", "current_trial": 28, "dateTime": 1664368033712, "trialdata": {"rt": 793, "stimulus": "<p id='stroop-text' class='stroop-yellow'>YELLOW</p>", "response": "y", "stimulus-type": "congruent", "word": "yellow", "color": "yellow", "correct_response": "y", "trial_id": "stroop-trial-1-congruent-24", "trial_type": "html-keyboard-response", "trial_index": 28, "time_elapsed": 82198, "internal_node_id": "0.0-4.0-24.0"}}, {"uniqueid": "w84587138:a83590952", "current_trial": 29, "dateTime": 1664368034928, "trialdata": {"rt": 713, "stimulus": "<p id='stroop-text' class='stroop-red'>YELLOW</p>", "response": "r", "stimulus-type": "incongruent", "word": "yellow", "color": "red", "correct_response": "r", "trial_id": "stroop-trial-1-incongruent-1", "trial_type": "html-keyboard-response", "trial_index": 29, "time_elapsed": 83414, "internal_node_id": "0.0-4.0-25.0"}}, {"uniqueid": "w84587138:a83590952", "current_trial": 30, "dateTime": 1664368036064, "trialdata": {"rt": 633, "stimulus": "<p id='stroop-text' class='stroop-red'>BOAT</p>", "response": "r", "stimulus-type": "unrelated", "word": "BOAT", "color": "red", "correct_response": "r", "trial_id": "stroop-trial-1-unrelated-5", "trial_type": "html-keyboard-response", "trial_index": 30, "time_elapsed": 84551, "internal_node_id": "0.0-4.0-26.0"}}, {"uniqueid": "w84587138:a83590952", "current_trial": 31, "dateTime": 1664368037304, "trialdata": {"rt": 737, "stimulus": "<p id='stroop-text' class='stroop-yellow'>YELLOW</p>", "response": "y", "stimulus-type": "congruent", "word": "yellow", "color": "yellow", "correct_response": "y", "trial_id": "stroop-trial-1-congruent-28", "trial_type": "html-keyboard-response", "trial_index": 31, "time_elapsed": 85790, "internal_node_id": "0.0-4.0-27.0"}}, {"uniqueid": "w84587138:a83590952", "current_trial": 32, "dateTime": 1664368038769, "trialdata": {"rt": 960, "stimulus": "<p id='stroop-text' class='stroop-yellow'>GREEN</p>", "response": "r", "stimulus-type": "incongruent", "word": "green", "color": "yellow", "correct_response": "y", "trial_id": "stroop-trial-1-incongruent-10", "trial_type": "html-keyboard-response", "trial_index": 32, "time_elapsed": 87254, "internal_node_id": "0.0-4.0-28.0"}}, {"uniqueid": "w84587138:a83590952", "current_trial": 33, "dateTime": 1664368040304, "trialdata": {"rt": 1031, "stimulus": "<p id='stroop-text' class='stroop-green'>GREEN</p>", "response": "g", "stimulus-type": "congruent", "word": "green", "color": "green", "correct_response": "g", "trial_id": "stroop-trial-1-congruent-20", "trial_type": "html-keyboard-response", "trial_index": 33, "time_elapsed": 88790, "internal_node_id": "0.0-4.0-29.0"}}, {"uniqueid": "w84587138:a83590952", "current_trial": 34, "dateTime": 1664368041880, "trialdata": {"rt": 1073, "stimulus": "<p id='stroop-text' class='stroop-red'>BLUE</p>", "response": "r", "stimulus-type": "incongruent", "word": "blue", "color": "red", "correct_response": "r", "trial_id": "stroop-trial-1-incongruent-28", "trial_type": "html-keyboard-response", "trial_index": 34, "time_elapsed": 90366, "internal_node_id": "0.0-4.0-30.0"}}, {"uniqueid": "w84587138:a83590952", "current_trial": 35, "dateTime": 1664368043232, "trialdata": {"rt": 849, "stimulus": "<p id='stroop-text' class='stroop-yellow'>YELLOW</p>", "response": "y", "stimulus-type": "congruent", "word": "yellow", "color": "yellow", "correct_response": "y", "trial_id": "stroop-trial-1-congruent-16", "trial_type": "html-keyboard-response", "trial_index": 35, "time_elapsed": 91718, "internal_node_id": "0.0-4.0-31.0"}}, {"uniqueid": "w84587138:a83590952", "current_trial": 36, "dateTime": 1664368045152, "trialdata": {"rt": 1416, "stimulus": "<p id='stroop-text' class='stroop-yellow'>YELLOW</p>", "response": "y", "stimulus-type": "congruent", "word": "yellow", "color": "yellow", "correct_response": "y", "trial_id": "stroop-trial-1-congruent-1", "trial_type": "html-keyboard-response", "trial_index": 36, "time_elapsed": 93638, "internal_node_id": "0.0-4.0-32.0"}}, {"uniqueid": "w84587138:a83590952", "current_trial": 37, "dateTime": 1664368046792, "trialdata": {"rt": 1137, "stimulus": "<p id='stroop-text' class='stroop-yellow'>YELLOW</p>", "response": "y", "stimulus-type": "congruent", "word": "yellow", "color": "yellow", "correct_response": "y", "trial_id": "stroop-trial-1-congruent-5", "trial_type": "html-keyboard-response", "trial_index": 37, "time_elapsed": 95279, "internal_node_id": "0.0-4.0-33.0"}}, {"uniqueid": "w84587138:a83590952", "current_trial": 38, "dateTime": 1664368048655, "trialdata": {"rt": 1359, "stimulus": "<p id='stroop-text' class='stroop-green'>CHAIR</p>", "response": "y", "stimulus-type": "unrelated", "word": "CHAIR", "color": "green", "correct_response": "g", "trial_id": "stroop-trial-1-unrelated-21", "trial_type": "html-keyboard-response", "trial_index": 38, "time_elapsed": 97142, "internal_node_id": "0.0-4.0-34.0"}}, {"uniqueid": "w84587138:a83590952", "current_trial": 39, "dateTime": 1664368050295, "trialdata": {"rt": 1138, "stimulus": "<p id='stroop-text' class='stroop-blue'>BLUE</p>", "response": "b", "stimulus-type": "congruent", "word": "blue", "color": "blue", "correct_response": "b", "trial_id": "stroop-trial-1-congruent-23", "trial_type": "html-keyboard-response", "trial_index": 39, "time_elapsed": 98782, "internal_node_id": "0.0-4.0-35.0"}}, {"uniqueid": "w84587138:a83590952", "current_trial": 40, "dateTime": 1664368051743, "trialdata": {"rt": 946, "stimulus": "<p id='stroop-text' class='stroop-red'>STONE</p>", "response": "r", "stimulus-type": "unrelated", "word": "STONE", "color": "red", "correct_response": "r", "trial_id": "stroop-trial-1-unrelated-16", "trial_type": "html-keyboard-response", "trial_index": 40, "time_elapsed": 100230, "internal_node_id": "0.0-4.0-36.0"}}, {"uniqueid": "w84587138:a83590952", "current_trial": 41, "dateTime": 1664368053312, "trialdata": {"rt": 1065, "stimulus": "<p id='stroop-text' class='stroop-blue'>BLUE</p>", "response": "b", "stimulus-type": "congruent", "word": "blue", "color": "blue", "correct_response": "b", "trial_id": "stroop-trial-1-congruent-4", "trial_type": "html-keyboard-response", "trial_index": 41, "time_elapsed": 101799, "internal_node_id": "0.0-4.0-37.0"}}, {"uniqueid": "w84587138:a83590952", "current_trial": 42, "dateTime": 1664368054999, "trialdata": {"rt": 1184, "stimulus": "<p id='stroop-text' class='stroop-blue'>GREEN</p>", "response": "b", "stimulus-type": "incongruent", "word": "green", "color": "blue", "correct_response": "b", "trial_id": "stroop-trial-1-incongruent-26", "trial_type": "html-keyboard-response", "trial_index": 42, "time_elapsed": 103486, "internal_node_id": "0.0-4.0-38.0"}}, {"uniqueid": "w84587138:a83590952", "current_trial": 43, "dateTime": 1664368056360, "trialdata": {"rt": 857, "stimulus": "<p id='stroop-text' class='stroop-green'>GREEN</p>", "response": "g", "stimulus-type": "congruent", "word": "green", "color": "green", "correct_response": "g", "trial_id": "stroop-trial-1-congruent-10", "trial_type": "html-keyboard-response", "trial_index": 43, "time_elapsed": 104847, "internal_node_id": "0.0-4.0-39.0"}}, {"uniqueid": "w84587138:a83590952", "current_trial": 44, "dateTime": 1664368057624, "trialdata": {"rt": 760, "stimulus": "<p id='stroop-text' class='stroop-green'>CHAIR</p>", "response": "g", "stimulus-type": "unrelated", "word": "CHAIR", "color": "green", "correct_response": "g", "trial_id": "stroop-trial-1-unrelated-15", "trial_type": "html-keyboard-response", "trial_index": 44, "time_elapsed": 106111, "internal_node_id": "0.0-4.0-40.0"}}, {"uniqueid": "w84587138:a83590952", "current_trial": 45, "dateTime": 1664368058912, "trialdata": {"rt": 784, "stimulus": "<p id='stroop-text' class='stroop-yellow'>BLUE</p>", "response": "y", "stimulus-type": "incongruent", "word": "blue", "color": "yellow", "correct_response": "y", "trial_id": "stroop-trial-1-incongruent-23", "trial_type": "html-keyboard-response", "trial_index": 45, "time_elapsed": 107399, "internal_node_id": "0.0-4.0-41.0"}}, {"uniqueid": "w84587138:a83590952", "current_trial": 46, "dateTime": 1664368060313, "trialdata": {"rt": 896, "stimulus": "<p id='stroop-text' class='stroop-blue'>MONKEY</p>", "response": "b", "stimulus-type": "unrelated", "word": "MONKEY", "color": "blue", "correct_response": "b", "trial_id": "stroop-trial-1-unrelated-20", "trial_type": "html-keyboard-response", "trial_index": 46, "time_elapsed": 108799, "internal_node_id": "0.0-4.0-42.0"}}, {"uniqueid": "w84587138:a83590952", "current_trial": 47, "dateTime": 1664368061608, "trialdata": {"rt": 792, "stimulus": "<p id='stroop-text' class='stroop-red'>FORK</p>", "response": "r", "stimulus-type": "unrelated", "word": "FORK", "color": "red", "correct_response": "r", "trial_id": "stroop-trial-1-unrelated-8", "trial_type": "html-keyboard-response", "trial_index": 47, "time_elapsed": 110095, "internal_node_id": "0.0-4.0-43.0"}}, {"uniqueid": "w84587138:a83590952", "current_trial": 48, "dateTime": 1664368062832, "trialdata": {"rt": 720, "stimulus": "<p id='stroop-text' class='stroop-yellow'>YELLOW</p>", "response": "y", "stimulus-type": "congruent", "word": "yellow", "color": "yellow", "correct_response": "y", "trial_id": "stroop-trial-1-congruent-6", "trial_type": "html-keyboard-response", "trial_index": 48, "time_elapsed": 111319, "internal_node_id": "0.0-4.0-44.0"}}, {"uniqueid": "w84587138:a83590952", "current_trial": 49, "dateTime": 1664368064024, "trialdata": {"rt": 689, "stimulus": "<p id='stroop-text' class='stroop-red'>YELLOW</p>", "response": "r", "stimulus-type": "incongruent", "word": "yellow", "color": "red", "correct_response": "r", "trial_id": "stroop-trial-1-incongruent-17", "trial_type": "html-keyboard-response", "trial_index": 49, "time_elapsed": 112511, "internal_node_id": "0.0-4.0-45.0"}}, {"uniqueid": "w84587138:a83590952", "current_trial": 50, "dateTime": 1664368065472, "trialdata": {"rt": 945, "stimulus": "<p id='stroop-text' class='stroop-blue'>GREEN</p>", "response": "b", "stimulus-type": "incongruent", "word": "green", "color": "blue", "correct_response": "b", "trial_id": "stroop-trial-1-incongruent-16", "trial_type": "html-keyboard-response", "trial_index": 50, "time_elapsed": 113959, "internal_node_id": "0.0-4.0-46.0"}}, {"uniqueid": "w84587138:a83590952", "current_trial": 51, "dateTime": 1664368066904, "trialdata": {"rt": 929, "stimulus": "<p id='stroop-text' class='stroop-blue'>BLUE</p>", "response": "b", "stimulus-type": "congruent", "word": "blue", "color": "blue", "correct_response": "b", "trial_id": "stroop-trial-1-congruent-17", "trial_type": "html-keyboard-response", "trial_index": 51, "time_elapsed": 115390, "internal_node_id": "0.0-4.0-47.0"}}, {"uniqueid": "w84587138:a83590952", "current_trial": 52, "dateTime": 1664368068024, "trialdata": {"rt": 617, "stimulus": "<p id='stroop-text' class='stroop-yellow'>YELLOW</p>", "response": "y", "stimulus-type": "congruent", "word": "yellow", "color": "yellow", "correct_response": "y", "trial_id": "stroop-trial-1-congruent-13", "trial_type": "html-keyboard-response", "trial_index": 52, "time_elapsed": 116511, "internal_node_id": "0.0-4.0-48.0"}}, {"uniqueid": "w84587138:a83590952", "current_trial": 53, "dateTime": 1664368069896, "trialdata": {"rt": 1368, "stimulus": "<p id='stroop-text' class='stroop-blue'>STONE</p>", "response": "b", "stimulus-type": "unrelated", "word": "STONE", "color": "blue", "correct_response": "b", "trial_id": "stroop-trial-1-unrelated-28", "trial_type": "html-keyboard-response", "trial_index": 53, "time_elapsed": 118382, "internal_node_id": "0.0-4.0-49.0"}}, {"uniqueid": "w84587138:a83590952", "current_trial": 54, "dateTime": 1664368071024, "trialdata": {"rt": 623, "stimulus": "<p id='stroop-text' class='stroop-green'>RED</p>", "response": "r", "stimulus-type": "incongruent", "word": "red", "color": "green", "correct_response": "g", "trial_id": "stroop-trial-1-incongruent-25", "trial_type": "html-keyboard-response", "trial_index": 54, "time_elapsed": 119511, "internal_node_id": "0.0-4.0-50.0"}}, {"uniqueid": "w84587138:a83590952", "current_trial": 55, "dateTime": 1664368072216, "trialdata": {"rt": 688, "stimulus": "<p id='stroop-text' class='stroop-yellow'>YELLOW</p>", "response": "y", "stimulus-type": "congruent", "word": "yellow", "color": "yellow", "correct_response": "y", "trial_id": "stroop-trial-1-congruent-18", "trial_type": "html-keyboard-response", "trial_index": 55, "time_elapsed": 120703, "internal_node_id": "0.0-4.0-51.0"}}, {"uniqueid": "w84587138:a83590952", "current_trial": 56, "dateTime": 1664368073848, "trialdata": {"rt": 1128, "stimulus": "<p id='stroop-text' class='stroop-blue'>YELLOW</p>", "response": "b", "stimulus-type": "incongruent", "word": "yellow", "color": "blue", "correct_response": "b", "trial_id": "stroop-trial-1-incongruent-9", "trial_type": "html-keyboard-response", "trial_index": 56, "time_elapsed": 122334, "internal_node_id": "0.0-4.0-52.0"}}, {"uniqueid": "w84587138:a83590952", "current_trial": 57, "dateTime": 1664368075312, "trialdata": {"rt": 960, "stimulus": "<p id='stroop-text' class='stroop-red'>STONE</p>", "response": "r", "stimulus-type": "unrelated", "word": "STONE", "color": "red", "correct_response": "r", "trial_id": "stroop-trial-1-unrelated-24", "trial_type": "html-keyboard-response", "trial_index": 57, "time_elapsed": 123798, "internal_node_id": "0.0-4.0-53.0"}}, {"uniqueid": "w84587138:a83590952", "current_trial": 58, "dateTime": 1664368076856, "trialdata": {"rt": 1025, "stimulus": "<p id='stroop-text' class='stroop-blue'>RED</p>", "response": "b", "stimulus-type": "incongruent", "word": "red", "color": "blue", "correct_response": "b", "trial_id": "stroop-trial-1-incongruent-30", "trial_type": "html-keyboard-response", "trial_index": 58, "time_elapsed": 125343, "internal_node_id": "0.0-4.0-54.0"}}, {"uniqueid": "w84587138:a83590952", "current_trial": 59, "dateTime": 1664368078216, "trialdata": {"rt": 857, "stimulus": "<p id='stroop-text' class='stroop-green'>FORK</p>", "response": "g", "stimulus-type": "unrelated", "word": "FORK", "color": "green", "correct_response": "g", "trial_id": "stroop-trial-1-unrelated-19", "trial_type": "html-keyboard-response", "trial_index": 59, "time_elapsed": 126703, "internal_node_id": "0.0-4.0-55.0"}}, {"uniqueid": "w84587138:a83590952", "current_trial": 60, "dateTime": 1664368079936, "trialdata": {"rt": 1217, "stimulus": "<p id='stroop-text' class='stroop-blue'>YELLOW</p>", "response": "y", "stimulus-type": "incongruent", "word": "yellow", "color": "blue", "correct_response": "b", "trial_id": "stroop-trial-1-incongruent-20", "trial_type": "html-keyboard-response", "trial_index": 60, "time_elapsed": 128422, "internal_node_id": "0.0-4.0-56.0"}}, {"uniqueid": "w84587138:a83590952", "current_trial": 61, "dateTime": 1664368081520, "trialdata": {"rt": 1080, "stimulus": "<p id='stroop-text' class='stroop-blue'>YELLOW</p>", "response": "b", "stimulus-type": "incongruent", "word": "yellow", "color": "blue", "correct_response": "b", "trial_id": "stroop-trial-1-incongruent-24", "trial_type": "html-keyboard-response", "trial_index": 61, "time_elapsed": 130006, "internal_node_id": "0.0-4.0-57.0"}}, {"uniqueid": "w84587138:a83590952", "current_trial": 62, "dateTime": 1664368083496, "trialdata": {"rt": 1473, "stimulus": "<p id='stroop-text' class='stroop-green'>GREEN</p>", "response": "g", "stimulus-type": "congruent", "word": "green", "color": "green", "correct_response": "g", "trial_id": "stroop-trial-1-congruent-11", "trial_type": "html-keyboard-response", "trial_index": 62, "time_elapsed": 131982, "internal_node_id": "0.0-4.0-58.0"}}, {"uniqueid": "w84587138:a83590952", "current_trial": 63, "dateTime": 1664368084960, "trialdata": {"rt": 961, "stimulus": "<p id='stroop-text' class='stroop-green'>RED</p>", "response": "g", "stimulus-type": "incongruent", "word": "red", "color": "green", "correct_response": "g", "trial_id": "stroop-trial-1-incongruent-6", "trial_type": "html-keyboard-response", "trial_index": 63, "time_elapsed": 133446, "internal_node_id": "0.0-4.0-59.0"}}, {"uniqueid": "w84587138:a83590952", "current_trial": 64, "dateTime": 1664368086440, "trialdata": {"rt": 976, "stimulus": "<p id='stroop-text' class='stroop-red'>BLUE</p>", "response": "r", "stimulus-type": "incongruent", "word": "blue", "color": "red", "correct_response": "r", "trial_id": "stroop-trial-1-incongruent-22", "trial_type": "html-keyboard-response", "trial_index": 64, "time_elapsed": 134926, "internal_node_id": "0.0-4.0-60.0"}}, {"uniqueid": "w84587138:a83590952", "current_trial": 65, "dateTime": 1664368087496, "trialdata": {"rt": 552, "stimulus": "<p id='stroop-text' class='stroop-red'>RED</p>", "response": "r", "stimulus-type": "congruent", "word": "red", "color": "red", "correct_response": "r", "trial_id": "stroop-trial-1-congruent-26", "trial_type": "html-keyboard-response", "trial_index": 65, "time_elapsed": 135982, "internal_node_id": "0.0-4.0-61.0"}}, {"uniqueid": "w84587138:a83590952", "current_trial": 66, "dateTime": 1664368088520, "trialdata": {"rt": 520, "stimulus": "<p id='stroop-text' class='stroop-red'>RED</p>", "response": "r", "stimulus-type": "congruent", "word": "red", "color": "red", "correct_response": "r", "trial_id": "stroop-trial-1-congruent-15", "trial_type": "html-keyboard-response", "trial_index": 66, "time_elapsed": 137007, "internal_node_id": "0.0-4.0-62.0"}}, {"uniqueid": "w84587138:a83590952", "current_trial": 67, "dateTime": 1664368089904, "trialdata": {"rt": 880, "stimulus": "<p id='stroop-text' class='stroop-blue'>RED</p>", "response": "b", "stimulus-type": "incongruent", "word": "red", "color": "blue", "correct_response": "b", "trial_id": "stroop-trial-1-incongruent-14", "trial_type": "html-keyboard-response", "trial_index": 67, "time_elapsed": 138390, "internal_node_id": "0.0-4.0-63.0"}}, {"uniqueid": "w84587138:a83590952", "current_trial": 68, "dateTime": 1664368091344, "trialdata": {"rt": 936, "stimulus": "<p id='stroop-text' class='stroop-red'>BRAIN</p>", "response": "r", "stimulus-type": "unrelated", "word": "BRAIN", "color": "red", "correct_response": "r", "trial_id": "stroop-trial-1-unrelated-30", "trial_type": "html-keyboard-response", "trial_index": 68, "time_elapsed": 139830, "internal_node_id": "0.0-4.0-64.0"}}, {"uniqueid": "w84587138:a83590952", "current_trial": 69, "dateTime": 1664368092504, "trialdata": {"rt": 657, "stimulus": "<p id='stroop-text' class='stroop-green'>GREEN</p>", "response": "g", "stimulus-type": "congruent", "word": "green", "color": "green", "correct_response": "g", "trial_id": "stroop-trial-1-congruent-27", "trial_type": "html-keyboard-response", "trial_index": 69, "time_elapsed": 140990, "internal_node_id": "0.0-4.0-65.0"}}, {"uniqueid": "w84587138:a83590952", "current_trial": 70, "dateTime": 1664368093736, "trialdata": {"rt": 728, "stimulus": "<p id='stroop-text' class='stroop-green'>GREEN</p>", "response": "g", "stimulus-type": "congruent", "word": "green", "color": "green", "correct_response": "g", "trial_id": "stroop-trial-1-congruent-9", "trial_type": "html-keyboard-response", "trial_index": 70, "time_elapsed": 142222, "internal_node_id": "0.0-4.0-66.0"}}, {"uniqueid": "w84587138:a83590952", "current_trial": 71, "dateTime": 1664368094928, "trialdata": {"rt": 689, "stimulus": "<p id='stroop-text' class='stroop-red'>RED</p>", "response": "r", "stimulus-type": "congruent", "word": "red", "color": "red", "correct_response": "r", "trial_id": "stroop-trial-1-congruent-21", "trial_type": "html-keyboard-response", "trial_index": 71, "time_elapsed": 143414, "internal_node_id": "0.0-4.0-67.0"}}, {"uniqueid": "w84587138:a83590952", "current_trial": 72, "dateTime": 1664368096320, "trialdata": {"rt": 887, "stimulus": "<p id='stroop-text' class='stroop-red'>RED</p>", "response": "r", "stimulus-type": "congruent", "word": "red", "color": "red", "correct_response": "r", "trial_id": "stroop-trial-1-congruent-25", "trial_type": "html-keyboard-response", "trial_index": 72, "time_elapsed": 144806, "internal_node_id": "0.0-4.0-68.0"}}, {"uniqueid": "w84587138:a83590952", "current_trial": 73, "dateTime": 1664368097424, "trialdata": {"rt": 600, "stimulus": "<p id='stroop-text' class='stroop-red'>BOTTLE</p>", "response": "r", "stimulus-type": "unrelated", "word": "BOTTLE", "color": "red", "correct_response": "r", "trial_id": "stroop-trial-1-unrelated-13", "trial_type": "html-keyboard-response", "trial_index": 73, "time_elapsed": 145910, "internal_node_id": "0.0-4.0-69.0"}}, {"uniqueid": "w84587138:a83590952", "current_trial": 74, "dateTime": 1664368098552, "trialdata": {"rt": 625, "stimulus": "<p id='stroop-text' class='stroop-green'>GREEN</p>", "response": "g", "stimulus-type": "congruent", "word": "green", "color": "green", "correct_response": "g", "trial_id": "stroop-trial-1-congruent-3", "trial_type": "html-keyboard-response", "trial_index": 74, "time_elapsed": 147038, "internal_node_id": "0.0-4.0-70.0"}}, {"uniqueid": "w84587138:a83590952", "current_trial": 75, "dateTime": 1664368099768, "trialdata": {"rt": 712, "stimulus": "<p id='stroop-text' class='stroop-blue'>BOAT</p>", "response": "b", "stimulus-type": "unrelated", "word": "BOAT", "color": "blue", "correct_response": "b", "trial_id": "stroop-trial-1-unrelated-1", "trial_type": "html-keyboard-response", "trial_index": 75, "time_elapsed": 148254, "internal_node_id": "0.0-4.0-71.0"}}, {"uniqueid": "w84587138:a83590952", "current_trial": 76, "dateTime": 1664368101184, "trialdata": {"rt": 913, "stimulus": "<p id='stroop-text' class='stroop-red'>DOG</p>", "response": "r", "stimulus-type": "unrelated", "word": "DOG", "color": "red", "correct_response": "r", "trial_id": "stroop-trial-1-unrelated-10", "trial_type": "html-keyboard-response", "trial_index": 76, "time_elapsed": 149670, "internal_node_id": "0.0-4.0-72.0"}}, {"uniqueid": "w84587138:a83590952", "current_trial": 77, "dateTime": 1664368102352, "trialdata": {"rt": 664, "stimulus": "<p id='stroop-text' class='stroop-blue'>BLUE</p>", "response": "b", "stimulus-type": "congruent", "word": "blue", "color": "blue", "correct_response": "b", "trial_id": "stroop-trial-1-congruent-7", "trial_type": "html-keyboard-response", "trial_index": 77, "time_elapsed": 150838, "internal_node_id": "0.0-4.0-73.0"}}, {"uniqueid": "w84587138:a83590952", "current_trial": 78, "dateTime": 1664368103944, "trialdata": {"rt": 1088, "stimulus": "<p id='stroop-text' class='stroop-red'>BRAIN</p>", "response": "r", "stimulus-type": "unrelated", "word": "BRAIN", "color": "red", "correct_response": "r", "trial_id": "stroop-trial-1-unrelated-2", "trial_type": "html-keyboard-response", "trial_index": 78, "time_elapsed": 152430, "internal_node_id": "0.0-4.0-74.0"}}, {"uniqueid": "w84587138:a83590952", "current_trial": 79, "dateTime": 1664368105144, "trialdata": {"rt": 697, "stimulus": "<p id='stroop-text' class='stroop-yellow'>BLUE</p>", "response": "y", "stimulus-type": "incongruent", "word": "blue", "color": "yellow", "correct_response": "y", "trial_id": "stroop-trial-1-incongruent-3", "trial_type": "html-keyboard-response", "trial_index": 79, "time_elapsed": 153630, "internal_node_id": "0.0-4.0-75.0"}}, {"uniqueid": "w84587138:a83590952", "current_trial": 80, "dateTime": 1664368106408, "trialdata": {"rt": 761, "stimulus": "<p id='stroop-text' class='stroop-green'>FORK</p>", "response": "g", "stimulus-type": "unrelated", "word": "FORK", "color": "green", "correct_response": "g", "trial_id": "stroop-trial-1-unrelated-7", "trial_type": "html-keyboard-response", "trial_index": 80, "time_elapsed": 154894, "internal_node_id": "0.0-4.0-76.0"}}, {"uniqueid": "w84587138:a83590952", "current_trial": 81, "dateTime": 1664368108152, "trialdata": {"rt": 1240, "stimulus": "<p id='stroop-text' class='stroop-blue'>YELLOW</p>", "response": "b", "stimulus-type": "incongruent", "word": "yellow", "color": "blue", "correct_response": "b", "trial_id": "stroop-trial-1-incongruent-18", "trial_type": "html-keyboard-response", "trial_index": 81, "time_elapsed": 156638, "internal_node_id": "0.0-4.0-77.0"}}, {"uniqueid": "w84587138:a83590952", "current_trial": 82, "dateTime": 1664368109448, "trialdata": {"rt": 793, "stimulus": "<p id='stroop-text' class='stroop-yellow'>BRAIN</p>", "response": "y", "stimulus-type": "unrelated", "word": "BRAIN", "color": "yellow", "correct_response": "y", "trial_id": "stroop-trial-1-unrelated-18", "trial_type": "html-keyboard-response", "trial_index": 82, "time_elapsed": 157935, "internal_node_id": "0.0-4.0-78.0"}}, {"uniqueid": "w84587138:a83590952", "current_trial": 83, "dateTime": 1664368110576, "trialdata": {"rt": 624, "stimulus": "<p id='stroop-text' class='stroop-red'>RED</p>", "response": "r", "stimulus-type": "congruent", "word": "red", "color": "red", "correct_response": "r", "trial_id": "stroop-trial-1-congruent-12", "trial_type": "html-keyboard-response", "trial_index": 83, "time_elapsed": 159062, "internal_node_id": "0.0-4.0-79.0"}}, {"uniqueid": "w84587138:a83590952", "current_trial": 84, "dateTime": 1664368112296, "trialdata": {"rt": 1216, "stimulus": "<p id='stroop-text' class='stroop-yellow'>BOTTLE</p>", "response": "y", "stimulus-type": "unrelated", "word": "BOTTLE", "color": "yellow", "correct_response": "y", "trial_id": "stroop-trial-1-unrelated-22", "trial_type": "html-keyboard-response", "trial_index": 84, "time_elapsed": 160782, "internal_node_id": "0.0-4.0-80.0"}}, {"uniqueid": "w84587138:a83590952", "current_trial": 85, "dateTime": 1664368113824, "trialdata": {"rt": 1024, "stimulus": "<p id='stroop-text' class='stroop-blue'>CHAIR</p>", "response": "b", "stimulus-type": "unrelated", "word": "CHAIR", "color": "blue", "correct_response": "b", "trial_id": "stroop-trial-1-unrelated-3", "trial_type": "html-keyboard-response", "trial_index": 85, "time_elapsed": 162310, "internal_node_id": "0.0-4.0-81.0"}}, {"uniqueid": "w84587138:a83590952", "current_trial": 86, "dateTime": 1664368115096, "trialdata": {"rt": 768, "stimulus": "<p id='stroop-text' class='stroop-yellow'>MONKEY</p>", "response": "y", "stimulus-type": "unrelated", "word": "MONKEY", "color": "yellow", "correct_response": "y", "trial_id": "stroop-trial-1-unrelated-29", "trial_type": "html-keyboard-response", "trial_index": 86, "time_elapsed": 163582, "internal_node_id": "0.0-4.0-82.0"}}, {"uniqueid": "w84587138:a83590952", "current_trial": 87, "dateTime": 1664368116400, "trialdata": {"rt": 799, "stimulus": "<p id='stroop-text' class='stroop-green'>GREEN</p>", "response": "g", "stimulus-type": "congruent", "word": "green", "color": "green", "correct_response": "g", "trial_id": "stroop-trial-1-congruent-22", "trial_type": "html-keyboard-response", "trial_index": 87, "time_elapsed": 164886, "internal_node_id": "0.0-4.0-83.0"}}, {"uniqueid": "w84587138:a83590952", "current_trial": 88, "dateTime": 1664368117896, "trialdata": {"rt": 992, "stimulus": "<p id='stroop-text' class='stroop-blue'>MONKEY</p>", "response": "b", "stimulus-type": "unrelated", "word": "MONKEY", "color": "blue", "correct_response": "b", "trial_id": "stroop-trial-1-unrelated-26", "trial_type": "html-keyboard-response", "trial_index": 88, "time_elapsed": 166382, "internal_node_id": "0.0-4.0-84.0"}}, {"uniqueid": "w84587138:a83590952", "current_trial": 89, "dateTime": 1664368119320, "trialdata": {"rt": 921, "stimulus": "<p id='stroop-text' class='stroop-yellow'>RED</p>", "response": "y", "stimulus-type": "incongruent", "word": "red", "color": "yellow", "correct_response": "y", "trial_id": "stroop-trial-1-incongruent-13", "trial_type": "html-keyboard-response", "trial_index": 89, "time_elapsed": 167806, "internal_node_id": "0.0-4.0-85.0"}}, {"uniqueid": "w84587138:a83590952", "current_trial": 90, "dateTime": 1664368120960, "trialdata": {"rt": 1135, "stimulus": "<p id='stroop-text' class='stroop-yellow'>SHIP</p>", "response": "y", "stimulus-type": "unrelated", "word": "SHIP", "color": "yellow", "correct_response": "y", "trial_id": "stroop-trial-1-unrelated-17", "trial_type": "html-keyboard-response", "trial_index": 90, "time_elapsed": 169446, "internal_node_id": "0.0-4.0-86.0"}}, {"uniqueid": "w84587138:a83590952", "current_trial": 91, "dateTime": 1664368122112, "trialdata": {"rt": 648, "stimulus": "<p id='stroop-text' class='stroop-yellow'>GREEN</p>", "response": "y", "stimulus-type": "incongruent", "word": "green", "color": "yellow", "correct_response": "y", "trial_id": "stroop-trial-1-incongruent-8", "trial_type": "html-keyboard-response", "trial_index": 91, "time_elapsed": 170598, "internal_node_id": "0.0-4.0-87.0"}}, {"uniqueid": "w84587138:a83590952", "current_trial": 92, "dateTime": 1664368123488, "trialdata": {"rt": 872, "stimulus": "<p id='stroop-text' class='stroop-green'>YELLOW</p>", "response": "g", "stimulus-type": "incongruent", "word": "yellow", "color": "green", "correct_response": "g", "trial_id": "stroop-trial-1-incongruent-7", "trial_type": "html-keyboard-response", "trial_index": 92, "time_elapsed": 171974, "internal_node_id": "0.0-4.0-88.0"}}, {"uniqueid": "w84587138:a83590952", "current_trial": 93, "dateTime": 1664368124944, "trialdata": {"rt": 950, "stimulus": "<p id='stroop-text' class='stroop-green'>YELLOW</p>", "response": "g", "stimulus-type": "incongruent", "word": "yellow", "color": "green", "correct_response": "g", "trial_id": "stroop-trial-1-incongruent-27", "trial_type": "html-keyboard-response", "trial_index": 93, "time_elapsed": 173430, "internal_node_id": "0.0-4.0-89.0"}}, {"uniqueid": "w84587138:a83590952", "current_trial": 94, "dateTime": 1664368130111, "trialdata": {"rt": 4662, "stimulus": "  <h1> End of block! </h1>\n\n  You have reached the end of the block 1/5. If you need a short break, feel free to take one now before moving on.\n\n  <br><br>\n  In the next block, you will complete another 90 rounds of this game.\n\n  <br><br>\n  <div style='text-align: center;'>Press <code>space</code> to begin.</div>\n  <br><br>\n<div style='text-align: center;'>(If the experiment doesn't continue, try clicking on the text and then pressing <code>space</code>.)</div>", "response": " ", "trial_id": "stroop_1_ready_2", "trial_type": "html-keyboard-response", "trial_index": 94, "time_elapsed": 178598, "internal_node_id": "0.0-5.0"}}, {"uniqueid": "w84587138:a83590952", "current_trial": 95, "dateTime": 1664368131336, "trialdata": {"rt": 1220, "stimulus": "<p id='stroop-text' class='stroop-red'>GREEN</p>", "response": "r", "stimulus-type": "incongruent", "word": "green", "color": "red", "correct_response": "r", "trial_id": "stroop-trial-1-incongruent-1", "trial_type": "html-keyboard-response", "trial_index": 95, "time_elapsed": 179822, "internal_node_id": "0.0-6.0-0.0"}}, {"uniqueid": "w84587138:a83590952", "current_trial": 96, "dateTime": 1664368132496, "trialdata": {"rt": 656, "stimulus": "<p id='stroop-text' class='stroop-blue'>BRIDGE</p>", "response": "b", "stimulus-type": "unrelated", "word": "BRIDGE", "color": "blue", "correct_response": "b", "trial_id": "stroop-trial-1-unrelated-7", "trial_type": "html-keyboard-response", "trial_index": 96, "time_elapsed": 180982, "internal_node_id": "0.0-6.0-1.0"}}, {"uniqueid": "w84587138:a83590952", "current_trial": 97, "dateTime": 1664368133560, "trialdata": {"rt": 560, "stimulus": "<p id='stroop-text' class='stroop-blue'>BOAT</p>", "response": "b", "stimulus-type": "unrelated", "word": "BOAT", "color": "blue", "correct_response": "b", "trial_id": "stroop-trial-1-unrelated-15", "trial_type": "html-keyboard-response", "trial_index": 97, "time_elapsed": 182046, "internal_node_id": "0.0-6.0-2.0"}}, {"uniqueid": "w84587138:a83590952", "current_trial": 98, "dateTime": 1664368134879, "trialdata": {"rt": 813, "stimulus": "<p id='stroop-text' class='stroop-yellow'>DOG</p>", "response": "y", "stimulus-type": "unrelated", "word": "DOG", "color": "yellow", "correct_response": "y", "trial_id": "stroop-trial-1-unrelated-18", "trial_type": "html-keyboard-response", "trial_index": 98, "time_elapsed": 183366, "internal_node_id": "0.0-6.0-3.0"}}, {"uniqueid": "w84587138:a83590952", "current_trial": 99, "dateTime": 1664368136287, "trialdata": {"rt": 904, "stimulus": "<p id='stroop-text' class='stroop-blue'>MONKEY</p>", "response": "b", "stimulus-type": "unrelated", "word": "MONKEY", "color": "blue", "correct_response": "b", "trial_id": "stroop-trial-1-unrelated-25", "trial_type": "html-keyboard-response", "trial_index": 99, "time_elapsed": 184774, "internal_node_id": "0.0-6.0-4.0"}}, {"uniqueid": "w84587138:a83590952", "current_trial": 100, "dateTime": 1664368137544, "trialdata": {"rt": 751, "stimulus": "<p id='stroop-text' class='stroop-green'>GREEN</p>", "response": "g", "stimulus-type": "congruent", "word": "green", "color": "green", "correct_response": "g", "trial_id": "stroop-trial-1-congruent-30", "trial_type": "html-keyboard-response", "trial_index": 100, "time_elapsed": 186030, "internal_node_id": "0.0-6.0-5.0"}}, {"uniqueid": "w84587138:a83590952", "current_trial": 101, "dateTime": 1664368139111, "trialdata": {"rt": 1064, "stimulus": "<p id='stroop-text' class='stroop-red'>RED</p>", "response": "r", "stimulus-type": "congruent", "word": "red", "color": "red", "correct_response": "r", "trial_id": "stroop-trial-1-congruent-14", "trial_type": "html-keyboard-response", "trial_index": 101, "time_elapsed": 187598, "internal_node_id": "0.0-6.0-6.0"}}, {"uniqueid": "w84587138:a83590952", "current_trial": 102, "dateTime": 1664368140271, "trialdata": {"rt": 657, "stimulus": "<p id='stroop-text' class='stroop-blue'>BLUE</p>", "response": "b", "stimulus-type": "congruent", "word": "blue", "color": "blue", "correct_response": "b", "trial_id": "stroop-trial-1-congruent-21", "trial_type": "html-keyboard-response", "trial_index": 102, "time_elapsed": 188758, "internal_node_id": "0.0-6.0-7.0"}}, {"uniqueid": "w84587138:a83590952", "current_trial": 103, "dateTime": 1664368141632, "trialdata": {"rt": 856, "stimulus": "<p id='stroop-text' class='stroop-red'>STONE</p>", "response": "r", "stimulus-type": "unrelated", "word": "STONE", "color": "red", "correct_response": "r", "trial_id": "stroop-trial-1-unrelated-11", "trial_type": "html-keyboard-response", "trial_index": 103, "time_elapsed": 190118, "internal_node_id": "0.0-6.0-8.0"}}, {"uniqueid": "w84587138:a83590952", "current_trial": 104, "dateTime": 1664368143039, "trialdata": {"rt": 903, "stimulus": "<p id='stroop-text' class='stroop-yellow'>BRIDGE</p>", "response": "b", "stimulus-type": "unrelated", "word": "BRIDGE", "color": "yellow", "correct_response": "y", "trial_id": "stroop-trial-1-unrelated-1", "trial_type": "html-keyboard-response", "trial_index": 104, "time_elapsed": 191526, "internal_node_id": "0.0-6.0-9.0"}}, {"uniqueid": "w84587138:a83590952", "current_trial": 105, "dateTime": 1664368144591, "trialdata": {"rt": 1047, "stimulus": "<p id='stroop-text' class='stroop-green'>GREEN</p>", "response": "g", "stimulus-type": "congruent", "word": "green", "color": "green", "correct_response": "g", "trial_id": "stroop-trial-1-congruent-18", "trial_type": "html-keyboard-response", "trial_index": 105, "time_elapsed": 193078, "internal_node_id": "0.0-6.0-10.0"}}, {"uniqueid": "w84587138:a83590952", "current_trial": 106, "dateTime": 1664368146103, "trialdata": {"rt": 1008, "stimulus": "<p id='stroop-text' class='stroop-red'>RED</p>", "response": "r", "stimulus-type": "congruent", "word": "red", "color": "red", "correct_response": "r", "trial_id": "stroop-trial-1-congruent-11", "trial_type": "html-keyboard-response", "trial_index": 106, "time_elapsed": 194590, "internal_node_id": "0.0-6.0-11.0"}}, {"uniqueid": "w84587138:a83590952", "current_trial": 107, "dateTime": 1664368147167, "trialdata": {"rt": 560, "stimulus": "<p id='stroop-text' class='stroop-yellow'>RED</p>", "response": "r", "stimulus-type": "incongruent", "word": "red", "color": "yellow", "correct_response": "y", "trial_id": "stroop-trial-1-incongruent-30", "trial_type": "html-keyboard-response", "trial_index": 107, "time_elapsed": 195654, "internal_node_id": "0.0-6.0-12.0"}}, {"uniqueid": "w84587138:a83590952", "current_trial": 108, "dateTime": 1664368148967, "trialdata": {"rt": 1294, "stimulus": "<p id='stroop-text' class='stroop-blue'>YELLOW</p>", "response": "b", "stimulus-type": "incongruent", "word": "yellow", "color": "blue", "correct_response": "b", "trial_id": "stroop-trial-1-incongruent-3", "trial_type": "html-keyboard-response", "trial_index": 108, "time_elapsed": 197454, "internal_node_id": "0.0-6.0-13.0"}}, {"uniqueid": "w84587138:a83590952", "current_trial": 109, "dateTime": 1664368150223, "trialdata": {"rt": 753, "stimulus": "<p id='stroop-text' class='stroop-yellow'>YELLOW</p>", "response": "y", "stimulus-type": "congruent", "word": "yellow", "color": "yellow", "correct_response": "y", "trial_id": "stroop-trial-1-congruent-19", "trial_type": "html-keyboard-response", "trial_index": 109, "time_elapsed": 198710, "internal_node_id": "0.0-6.0-14.0"}}, {"uniqueid": "w84587138:a83590952", "current_trial": 110, "dateTime": 1664368152080, "trialdata": {"rt": 1351, "stimulus": "<p id='stroop-text' class='stroop-red'>BLUE</p>", "response": "r", "stimulus-type": "incongruent", "word": "blue", "color": "red", "correct_response": "r", "trial_id": "stroop-trial-1-incongruent-20", "trial_type": "html-keyboard-response", "trial_index": 110, "time_elapsed": 200566, "internal_node_id": "0.0-6.0-15.0"}}, {"uniqueid": "w84587138:a83590952", "current_trial": 111, "dateTime": 1664368153327, "trialdata": {"rt": 744, "stimulus": "<p id='stroop-text' class='stroop-blue'>DOG</p>", "response": "b", "stimulus-type": "unrelated", "word": "DOG", "color": "blue", "correct_response": "b", "trial_id": "stroop-trial-1-unrelated-26", "trial_type": "html-keyboard-response", "trial_index": 111, "time_elapsed": 201814, "internal_node_id": "0.0-6.0-16.0"}}, {"uniqueid": "w84587138:a83590952", "current_trial": 112, "dateTime": 1664368154487, "trialdata": {"rt": 656, "stimulus": "<p id='stroop-text' class='stroop-red'>RED</p>", "response": "r", "stimulus-type": "congruent", "word": "red", "color": "red", "correct_response": "r", "trial_id": "stroop-trial-1-congruent-15", "trial_type": "html-keyboard-response", "trial_index": 112, "time_elapsed": 202974, "internal_node_id": "0.0-6.0-17.0"}}, {"uniqueid": "w84587138:a83590952", "current_trial": 113, "dateTime": 1664368156175, "trialdata": {"rt": 1184, "stimulus": "<p id='stroop-text' class='stroop-blue'>GREEN</p>", "response": "b", "stimulus-type": "incongruent", "word": "green", "color": "blue", "correct_response": "b", "trial_id": "stroop-trial-1-incongruent-25", "trial_type": "html-keyboard-response", "trial_index": 113, "time_elapsed": 204662, "internal_node_id": "0.0-6.0-18.0"}}, {"uniqueid": "w84587138:a83590952", "current_trial": 114, "dateTime": 1664368157535, "trialdata": {"rt": 856, "stimulus": "<p id='stroop-text' class='stroop-green'>BLUE</p>", "response": "g", "stimulus-type": "incongruent", "word": "blue", "color": "green", "correct_response": "g", "trial_id": "stroop-trial-1-incongruent-7", "trial_type": "html-keyboard-response", "trial_index": 114, "time_elapsed": 206022, "internal_node_id": "0.0-6.0-19.0"}}, {"uniqueid": "w84587138:a83590952", "current_trial": 115, "dateTime": 1664368158743, "trialdata": {"rt": 703, "stimulus": "<p id='stroop-text' class='stroop-red'>RED</p>", "response": "r", "stimulus-type": "congruent", "word": "red", "color": "red", "correct_response": "r", "trial_id": "stroop-trial-1-congruent-12", "trial_type": "html-keyboard-response", "trial_index": 115, "time_elapsed": 207230, "internal_node_id": "0.0-6.0-20.0"}}, {"uniqueid": "w84587138:a83590952", "current_trial": 116, "dateTime": 1664368160055, "trialdata": {"rt": 808, "stimulus": "<p id='stroop-text' class='stroop-red'>MONKEY</p>", "response": "r", "stimulus-type": "unrelated", "word": "MONKEY", "color": "red", "correct_response": "r", "trial_id": "stroop-trial-1-unrelated-5", "trial_type": "html-keyboard-response", "trial_index": 116, "time_elapsed": 208542, "internal_node_id": "0.0-6.0-21.0"}}, {"uniqueid": "w84587138:a83590952", "current_trial": 117, "dateTime": 1664368161711, "trialdata": {"rt": 1151, "stimulus": "<p id='stroop-text' class='stroop-green'>DOG</p>", "response": "g", "stimulus-type": "unrelated", "word": "DOG", "color": "green", "correct_response": "g", "trial_id": "stroop-trial-1-unrelated-19", "trial_type": "html-keyboard-response", "trial_index": 117, "time_elapsed": 210198, "internal_node_id": "0.0-6.0-22.0"}}, {"uniqueid": "w84587138:a83590952", "current_trial": 118, "dateTime": 1664368163199, "trialdata": {"rt": 984, "stimulus": "<p id='stroop-text' class='stroop-yellow'>GREEN</p>", "response": "y", "stimulus-type": "incongruent", "word": "green", "color": "yellow", "correct_response": "y", "trial_id": "stroop-trial-1-incongruent-23", "trial_type": "html-keyboard-response", "trial_index": 118, "time_elapsed": 211686, "internal_node_id": "0.0-6.0-23.0"}}, {"uniqueid": "w84587138:a83590952", "current_trial": 119, "dateTime": 1664368164728, "trialdata": {"rt": 1024, "stimulus": "<p id='stroop-text' class='stroop-green'>BLUE</p>", "response": "g", "stimulus-type": "incongruent", "word": "blue", "color": "green", "correct_response": "g", "trial_id": "stroop-trial-1-incongruent-5", "trial_type": "html-keyboard-response", "trial_index": 119, "time_elapsed": 213214, "internal_node_id": "0.0-6.0-24.0"}}, {"uniqueid": "w84587138:a83590952", "current_trial": 120, "dateTime": 1664368166095, "trialdata": {"rt": 864, "stimulus": "<p id='stroop-text' class='stroop-blue'>DOG</p>", "response": "b", "stimulus-type": "unrelated", "word": "DOG", "color": "blue", "correct_response": "b", "trial_id": "stroop-trial-1-unrelated-30", "trial_type": "html-keyboard-response", "trial_index": 120, "time_elapsed": 214582, "internal_node_id": "0.0-6.0-25.0"}}, {"uniqueid": "w84587138:a83590952", "current_trial": 121, "dateTime": 1664368167879, "trialdata": {"rt": 1280, "stimulus": "<p id='stroop-text' class='stroop-green'>GREEN</p>", "response": "g", "stimulus-type": "congruent", "word": "green", "color": "green", "correct_response": "g", "trial_id": "stroop-trial-1-congruent-27", "trial_type": "html-keyboard-response", "trial_index": 121, "time_elapsed": 216366, "internal_node_id": "0.0-6.0-26.0"}}, {"uniqueid": "w84587138:a83590952", "current_trial": 122, "dateTime": 1664368169350, "trialdata": {"rt": 967, "stimulus": "<p id='stroop-text' class='stroop-yellow'>GREEN</p>", "response": "y", "stimulus-type": "incongruent", "word": "green", "color": "yellow", "correct_response": "y", "trial_id": "stroop-trial-1-incongruent-17", "trial_type": "html-keyboard-response", "trial_index": 122, "time_elapsed": 217837, "internal_node_id": "0.0-6.0-27.0"}}, {"uniqueid": "w84587138:a83590952", "current_trial": 123, "dateTime": 1664368170502, "trialdata": {"rt": 648, "stimulus": "<p id='stroop-text' class='stroop-yellow'>GREEN</p>", "response": "y", "stimulus-type": "incongruent", "word": "green", "color": "yellow", "correct_response": "y", "trial_id": "stroop-trial-1-incongruent-26", "trial_type": "html-keyboard-response", "trial_index": 123, "time_elapsed": 218989, "internal_node_id": "0.0-6.0-28.0"}}, {"uniqueid": "w84587138:a83590952", "current_trial": 124, "dateTime": 1664368171766, "trialdata": {"rt": 759, "stimulus": "<p id='stroop-text' class='stroop-blue'>BLUE</p>", "response": "b", "stimulus-type": "congruent", "word": "blue", "color": "blue", "correct_response": "b", "trial_id": "stroop-trial-1-congruent-17", "trial_type": "html-keyboard-response", "trial_index": 124, "time_elapsed": 220253, "internal_node_id": "0.0-6.0-29.0"}}, {"uniqueid": "w84587138:a83590952", "current_trial": 125, "dateTime": 1664368173374, "trialdata": {"rt": 1104, "stimulus": "<p id='stroop-text' class='stroop-red'>RED</p>", "response": "r", "stimulus-type": "congruent", "word": "red", "color": "red", "correct_response": "r", "trial_id": "stroop-trial-1-congruent-29", "trial_type": "html-keyboard-response", "trial_index": 125, "time_elapsed": 221861, "internal_node_id": "0.0-6.0-30.0"}}, {"uniqueid": "w84587138:a83590952", "current_trial": 126, "dateTime": 1664368174526, "trialdata": {"rt": 647, "stimulus": "<p id='stroop-text' class='stroop-blue'>BRAIN</p>", "response": "b", "stimulus-type": "unrelated", "word": "BRAIN", "color": "blue", "correct_response": "b", "trial_id": "stroop-trial-1-unrelated-12", "trial_type": "html-keyboard-response", "trial_index": 126, "time_elapsed": 223013, "internal_node_id": "0.0-6.0-31.0"}}, {"uniqueid": "w84587138:a83590952", "current_trial": 127, "dateTime": 1664368175854, "trialdata": {"rt": 824, "stimulus": "<p id='stroop-text' class='stroop-green'>DOG</p>", "response": "g", "stimulus-type": "unrelated", "word": "DOG", "color": "green", "correct_response": "g", "trial_id": "stroop-trial-1-unrelated-10", "trial_type": "html-keyboard-response", "trial_index": 127, "time_elapsed": 224341, "internal_node_id": "0.0-6.0-32.0"}}, {"uniqueid": "w84587138:a83590952", "current_trial": 128, "dateTime": 1664368177022, "trialdata": {"rt": 664, "stimulus": "<p id='stroop-text' class='stroop-red'>BLUE</p>", "response": "r", "stimulus-type": "incongruent", "word": "blue", "color": "red", "correct_response": "r", "trial_id": "stroop-trial-1-incongruent-29", "trial_type": "html-keyboard-response", "trial_index": 128, "time_elapsed": 225509, "internal_node_id": "0.0-6.0-33.0"}}, {"uniqueid": "w84587138:a83590952", "current_trial": 129, "dateTime": 1664368177974, "trialdata": {"rt": 447, "stimulus": "<p id='stroop-text' class='stroop-red'>BLUE</p>", "response": "r", "stimulus-type": "incongruent", "word": "blue", "color": "red", "correct_response": "r", "trial_id": "stroop-trial-1-incongruent-18", "trial_type": "html-keyboard-response", "trial_index": 129, "time_elapsed": 226461, "internal_node_id": "0.0-6.0-34.0"}}, {"uniqueid": "w84587138:a83590952", "current_trial": 130, "dateTime": 1664368179166, "trialdata": {"rt": 688, "stimulus": "<p id='stroop-text' class='stroop-yellow'>BLUE</p>", "response": "y", "stimulus-type": "incongruent", "word": "blue", "color": "yellow", "correct_response": "y", "trial_id": "stroop-trial-1-incongruent-9", "trial_type": "html-keyboard-response", "trial_index": 130, "time_elapsed": 227653, "internal_node_id": "0.0-6.0-35.0"}}, {"uniqueid": "w84587138:a83590952", "current_trial": 131, "dateTime": 1664368180310, "trialdata": {"rt": 638, "stimulus": "<p id='stroop-text' class='stroop-green'>GREEN</p>", "response": "g", "stimulus-type": "congruent", "word": "green", "color": "green", "correct_response": "g", "trial_id": "stroop-trial-1-congruent-13", "trial_type": "html-keyboard-response", "trial_index": 131, "time_elapsed": 228797, "internal_node_id": "0.0-6.0-36.0"}}, {"uniqueid": "w84587138:a83590952", "current_trial": 132, "dateTime": 1664368181326, "trialdata": {"rt": 512, "stimulus": "<p id='stroop-text' class='stroop-green'>GREEN</p>", "response": "g", "stimulus-type": "congruent", "word": "green", "color": "green", "correct_response": "g", "trial_id": "stroop-trial-1-congruent-10", "trial_type": "html-keyboard-response", "trial_index": 132, "time_elapsed": 229813, "internal_node_id": "0.0-6.0-37.0"}}, {"uniqueid": "w84587138:a83590952", "current_trial": 133, "dateTime": 1664368182606, "trialdata": {"rt": 776, "stimulus": "<p id='stroop-text' class='stroop-blue'>BLUE</p>", "response": "b", "stimulus-type": "congruent", "word": "blue", "color": "blue", "correct_response": "b", "trial_id": "stroop-trial-1-congruent-1", "trial_type": "html-keyboard-response", "trial_index": 133, "time_elapsed": 231093, "internal_node_id": "0.0-6.0-38.0"}}, {"uniqueid": "w84587138:a83590952", "current_trial": 134, "dateTime": 1664368184758, "trialdata": {"rt": 1648, "stimulus": "<p id='stroop-text' class='stroop-blue'>GREEN</p>", "response": "b", "stimulus-type": "incongruent", "word": "green", "color": "blue", "correct_response": "b", "trial_id": "stroop-trial-1-incongruent-10", "trial_type": "html-keyboard-response", "trial_index": 134, "time_elapsed": 233245, "internal_node_id": "0.0-6.0-39.0"}}, {"uniqueid": "w84587138:a83590952", "current_trial": 135, "dateTime": 1664368185926, "trialdata": {"rt": 663, "stimulus": "<p id='stroop-text' class='stroop-blue'>BOAT</p>", "response": "b", "stimulus-type": "unrelated", "word": "BOAT", "color": "blue", "correct_response": "b", "trial_id": "stroop-trial-1-unrelated-16", "trial_type": "html-keyboard-response", "trial_index": 135, "time_elapsed": 234413, "internal_node_id": "0.0-6.0-40.0"}}, {"uniqueid": "w84587138:a83590952", "current_trial": 136, "dateTime": 1664368187622, "trialdata": {"rt": 1193, "stimulus": "<p id='stroop-text' class='stroop-blue'>YELLOW</p>", "response": "b", "stimulus-type": "incongruent", "word": "yellow", "color": "blue", "correct_response": "b", "trial_id": "stroop-trial-1-incongruent-24", "trial_type": "html-keyboard-response", "trial_index": 136, "time_elapsed": 236109, "internal_node_id": "0.0-6.0-41.0"}}, {"uniqueid": "w84587138:a83590952", "current_trial": 137, "dateTime": 1664368189190, "trialdata": {"rt": 1064, "stimulus": "<p id='stroop-text' class='stroop-blue'>DOG</p>", "response": "b", "stimulus-type": "unrelated", "word": "DOG", "color": "blue", "correct_response": "b", "trial_id": "stroop-trial-1-unrelated-20", "trial_type": "html-keyboard-response", "trial_index": 137, "time_elapsed": 237677, "internal_node_id": "0.0-6.0-42.0"}}, {"uniqueid": "w84587138:a83590952", "current_trial": 138, "dateTime": 1664368190406, "trialdata": {"rt": 711, "stimulus": "<p id='stroop-text' class='stroop-green'>GREEN</p>", "response": "g", "stimulus-type": "congruent", "word": "green", "color": "green", "correct_response": "g", "trial_id": "stroop-trial-1-congruent-2", "trial_type": "html-keyboard-response", "trial_index": 138, "time_elapsed": 238893, "internal_node_id": "0.0-6.0-43.0"}}, {"uniqueid": "w84587138:a83590952", "current_trial": 139, "dateTime": 1664368191654, "trialdata": {"rt": 744, "stimulus": "<p id='stroop-text' class='stroop-blue'>BLUE</p>", "response": "b", "stimulus-type": "congruent", "word": "blue", "color": "blue", "correct_response": "b", "trial_id": "stroop-trial-1-congruent-28", "trial_type": "html-keyboard-response", "trial_index": 139, "time_elapsed": 240141, "internal_node_id": "0.0-6.0-44.0"}}, {"uniqueid": "w84587138:a83590952", "current_trial": 140, "dateTime": 1664368193310, "trialdata": {"rt": 1151, "stimulus": "<p id='stroop-text' class='stroop-green'>YELLOW</p>", "response": "g", "stimulus-type": "incongruent", "word": "yellow", "color": "green", "correct_response": "g", "trial_id": "stroop-trial-1-incongruent-22", "trial_type": "html-keyboard-response", "trial_index": 140, "time_elapsed": 241797, "internal_node_id": "0.0-6.0-45.0"}}, {"uniqueid": "w84587138:a83590952", "current_trial": 141, "dateTime": 1664368194510, "trialdata": {"rt": 695, "stimulus": "<p id='stroop-text' class='stroop-blue'>BRIDGE</p>", "response": "b", "stimulus-type": "unrelated", "word": "BRIDGE", "color": "blue", "correct_response": "b", "trial_id": "stroop-trial-1-unrelated-9", "trial_type": "html-keyboard-response", "trial_index": 141, "time_elapsed": 242997, "internal_node_id": "0.0-6.0-46.0"}}, {"uniqueid": "w84587138:a83590952", "current_trial": 142, "dateTime": 1664368195678, "trialdata": {"rt": 664, "stimulus": "<p id='stroop-text' class='stroop-red'>RED</p>", "response": "r", "stimulus-type": "congruent", "word": "red", "color": "red", "correct_response": "r", "trial_id": "stroop-trial-1-congruent-16", "trial_type": "html-keyboard-response", "trial_index": 142, "time_elapsed": 244165, "internal_node_id": "0.0-6.0-47.0"}}, {"uniqueid": "w84587138:a83590952", "current_trial": 143, "dateTime": 1664368196814, "trialdata": {"rt": 631, "stimulus": "<p id='stroop-text' class='stroop-green'>GREEN</p>", "response": "g", "stimulus-type": "congruent", "word": "green", "color": "green", "correct_response": "g", "trial_id": "stroop-trial-1-congruent-4", "trial_type": "html-keyboard-response", "trial_index": 143, "time_elapsed": 245301, "internal_node_id": "0.0-6.0-48.0"}}, {"uniqueid": "w84587138:a83590952", "current_trial": 144, "dateTime": 1664368198134, "trialdata": {"rt": 814, "stimulus": "<p id='stroop-text' class='stroop-green'>WINDOW</p>", "response": "g", "stimulus-type": "unrelated", "word": "WINDOW", "color": "green", "correct_response": "g", "trial_id": "stroop-trial-1-unrelated-17", "trial_type": "html-keyboard-response", "trial_index": 144, "time_elapsed": 246620, "internal_node_id": "0.0-6.0-49.0"}}, {"uniqueid": "w84587138:a83590952", "current_trial": 145, "dateTime": 1664368199070, "trialdata": {"rt": 432, "stimulus": "<p id='stroop-text' class='stroop-green'>SHIP</p>", "response": "g", "stimulus-type": "unrelated", "word": "SHIP", "color": "green", "correct_response": "g", "trial_id": "stroop-trial-1-unrelated-24", "trial_type": "html-keyboard-response", "trial_index": 145, "time_elapsed": 247557, "internal_node_id": "0.0-6.0-50.0"}}, {"uniqueid": "w84587138:a83590952", "current_trial": 146, "dateTime": 1664368200230, "trialdata": {"rt": 656, "stimulus": "<p id='stroop-text' class='stroop-blue'>SHIP</p>", "response": "b", "stimulus-type": "unrelated", "word": "SHIP", "color": "blue", "correct_response": "b", "trial_id": "stroop-trial-1-unrelated-14", "trial_type": "html-keyboard-response", "trial_index": 146, "time_elapsed": 248717, "internal_node_id": "0.0-6.0-51.0"}}, {"uniqueid": "w84587138:a83590952", "current_trial": 147, "dateTime": 1664368201430, "trialdata": {"rt": 694, "stimulus": "<p id='stroop-text' class='stroop-green'>GREEN</p>", "response": "g", "stimulus-type": "congruent", "word": "green", "color": "green", "correct_response": "g", "trial_id": "stroop-trial-1-congruent-22", "trial_type": "html-keyboard-response", "trial_index": 147, "time_elapsed": 249916, "internal_node_id": "0.0-6.0-52.0"}}, {"uniqueid": "w84587138:a83590952", "current_trial": 148, "dateTime": 1664368202566, "trialdata": {"rt": 632, "stimulus": "<p id='stroop-text' class='stroop-green'>GREEN</p>", "response": "g", "stimulus-type": "congruent", "word": "green", "color": "green", "correct_response": "g", "trial_id": "stroop-trial-1-congruent-9", "trial_type": "html-keyboard-response", "trial_index": 148, "time_elapsed": 251052, "internal_node_id": "0.0-6.0-53.0"}}, {"uniqueid": "w84587138:a83590952", "current_trial": 149, "dateTime": 1664368203646, "trialdata": {"rt": 576, "stimulus": "<p id='stroop-text' class='stroop-green'>BOTTLE</p>", "response": "b", "stimulus-type": "unrelated", "word": "BOTTLE", "color": "green", "correct_response": "g", "trial_id": "stroop-trial-1-unrelated-29", "trial_type": "html-keyboard-response", "trial_index": 149, "time_elapsed": 252133, "internal_node_id": "0.0-6.0-54.0"}}, {"uniqueid": "w84587138:a83590952", "current_trial": 150, "dateTime": 1664368205526, "trialdata": {"rt": 1375, "stimulus": "<p id='stroop-text' class='stroop-green'>SHIP</p>", "response": "g", "stimulus-type": "unrelated", "word": "SHIP", "color": "green", "correct_response": "g", "trial_id": "stroop-trial-1-unrelated-27", "trial_type": "html-keyboard-response", "trial_index": 150, "time_elapsed": 254012, "internal_node_id": "0.0-6.0-55.0"}}, {"uniqueid": "w84587138:a83590952", "current_trial": 151, "dateTime": 1664368206718, "trialdata": {"rt": 687, "stimulus": "<p id='stroop-text' class='stroop-red'>RED</p>", "response": "r", "stimulus-type": "congruent", "word": "red", "color": "red", "correct_response": "r", "trial_id": "stroop-trial-1-congruent-25", "trial_type": "html-keyboard-response", "trial_index": 151, "time_elapsed": 255205, "internal_node_id": "0.0-6.0-56.0"}}, {"uniqueid": "w84587138:a83590952", "current_trial": 152, "dateTime": 1664368207806, "trialdata": {"rt": 583, "stimulus": "<p id='stroop-text' class='stroop-yellow'>BLUE</p>", "response": "y", "stimulus-type": "incongruent", "word": "blue", "color": "yellow", "correct_response": "y", "trial_id": "stroop-trial-1-incongruent-16", "trial_type": "html-keyboard-response", "trial_index": 152, "time_elapsed": 256292, "internal_node_id": "0.0-6.0-57.0"}}, {"uniqueid": "w84587138:a83590952", "current_trial": 153, "dateTime": 1664368209086, "trialdata": {"rt": 775, "stimulus": "<p id='stroop-text' class='stroop-red'>GREEN</p>", "response": "r", "stimulus-type": "incongruent", "word": "green", "color": "red", "correct_response": "r", "trial_id": "stroop-trial-1-incongruent-28", "trial_type": "html-keyboard-response", "trial_index": 153, "time_elapsed": 257572, "internal_node_id": "0.0-6.0-58.0"}}, {"uniqueid": "w84587138:a83590952", "current_trial": 154, "dateTime": 1664368210182, "trialdata": {"rt": 592, "stimulus": "<p id='stroop-text' class='stroop-red'>RED</p>", "response": "r", "stimulus-type": "congruent", "word": "red", "color": "red", "correct_response": "r", "trial_id": "stroop-trial-1-congruent-23", "trial_type": "html-keyboard-response", "trial_index": 154, "time_elapsed": 258668, "internal_node_id": "0.0-6.0-59.0"}}, {"uniqueid": "w84587138:a83590952", "current_trial": 155, "dateTime": 1664368211446, "trialdata": {"rt": 760, "stimulus": "<p id='stroop-text' class='stroop-blue'>BRIDGE</p>", "response": "b", "stimulus-type": "unrelated", "word": "BRIDGE", "color": "blue", "correct_response": "b", "trial_id": "stroop-trial-1-unrelated-4", "trial_type": "html-keyboard-response", "trial_index": 155, "time_elapsed": 259932, "internal_node_id": "0.0-6.0-60.0"}}, {"uniqueid": "w84587138:a83590952", "current_trial": 156, "dateTime": 1664368212758, "trialdata": {"rt": 807, "stimulus": "<p id='stroop-text' class='stroop-green'>BLUE</p>", "response": "g", "stimulus-type": "incongruent", "word": "blue", "color": "green", "correct_response": "g", "trial_id": "stroop-trial-1-incongruent-4", "trial_type": "html-keyboard-response", "trial_index": 156, "time_elapsed": 261244, "internal_node_id": "0.0-6.0-61.0"}}, {"uniqueid": "w84587138:a83590952", "current_trial": 157, "dateTime": 1664368214686, "trialdata": {"rt": 1423, "stimulus": "<p id='stroop-text' class='stroop-red'>BLUE</p>", "response": "r", "stimulus-type": "incongruent", "word": "blue", "color": "red", "correct_response": "r", "trial_id": "stroop-trial-1-incongruent-14", "trial_type": "html-keyboard-response", "trial_index": 157, "time_elapsed": 263172, "internal_node_id": "0.0-6.0-62.0"}}, {"uniqueid": "w84587138:a83590952", "current_trial": 158, "dateTime": 1664368216134, "trialdata": {"rt": 944, "stimulus": "<p id='stroop-text' class='stroop-blue'>FORK</p>", "response": "b", "stimulus-type": "unrelated", "word": "FORK", "color": "blue", "correct_response": "b", "trial_id": "stroop-trial-1-unrelated-21", "trial_type": "html-keyboard-response", "trial_index": 158, "time_elapsed": 264620, "internal_node_id": "0.0-6.0-63.0"}}, {"uniqueid": "w84587138:a83590952", "current_trial": 159, "dateTime": 1664368217646, "trialdata": {"rt": 1008, "stimulus": "<p id='stroop-text' class='stroop-red'>GREEN</p>", "response": "r", "stimulus-type": "incongruent", "word": "green", "color": "red", "correct_response": "r", "trial_id": "stroop-trial-1-incongruent-6", "trial_type": "html-keyboard-response", "trial_index": 159, "time_elapsed": 266133, "internal_node_id": "0.0-6.0-64.0"}}, {"uniqueid": "w84587138:a83590952", "current_trial": 160, "dateTime": 1664368219582, "trialdata": {"rt": 1432, "stimulus": "<p id='stroop-text' class='stroop-blue'>YELLOW</p>", "response": "b", "stimulus-type": "incongruent", "word": "yellow", "color": "blue", "correct_response": "b", "trial_id": "stroop-trial-1-incongruent-12", "trial_type": "html-keyboard-response", "trial_index": 160, "time_elapsed": 268068, "internal_node_id": "0.0-6.0-65.0"}}, {"uniqueid": "w84587138:a83590952", "current_trial": 161, "dateTime": 1664368220990, "trialdata": {"rt": 904, "stimulus": "<p id='stroop-text' class='stroop-yellow'>GREEN</p>", "response": "y", "stimulus-type": "incongruent", "word": "green", "color": "yellow", "correct_response": "y", "trial_id": "stroop-trial-1-incongruent-15", "trial_type": "html-keyboard-response", "trial_index": 161, "time_elapsed": 269476, "internal_node_id": "0.0-6.0-66.0"}}, {"uniqueid": "w84587138:a83590952", "current_trial": 162, "dateTime": 1664368222126, "trialdata": {"rt": 631, "stimulus": "<p id='stroop-text' class='stroop-yellow'>BLUE</p>", "response": "y", "stimulus-type": "incongruent", "word": "blue", "color": "yellow", "correct_response": "y", "trial_id": "stroop-trial-1-incongruent-8", "trial_type": "html-keyboard-response", "trial_index": 162, "time_elapsed": 270612, "internal_node_id": "0.0-6.0-67.0"}}, {"uniqueid": "w84587138:a83590952", "current_trial": 163, "dateTime": 1664368223446, "trialdata": {"rt": 815, "stimulus": "<p id='stroop-text' class='stroop-green'>GREEN</p>", "response": "g", "stimulus-type": "congruent", "word": "green", "color": "green", "correct_response": "g", "trial_id": "stroop-trial-1-congruent-6", "trial_type": "html-keyboard-response", "trial_index": 163, "time_elapsed": 271932, "internal_node_id": "0.0-6.0-68.0"}}, {"uniqueid": "w84587138:a83590952", "current_trial": 164, "dateTime": 1664368224526, "trialdata": {"rt": 575, "stimulus": "<p id='stroop-text' class='stroop-red'>CHAIR</p>", "response": "r", "stimulus-type": "unrelated", "word": "CHAIR", "color": "red", "correct_response": "r", "trial_id": "stroop-trial-1-unrelated-6", "trial_type": "html-keyboard-response", "trial_index": 164, "time_elapsed": 273012, "internal_node_id": "0.0-6.0-69.0"}}, {"uniqueid": "w84587138:a83590952", "current_trial": 165, "dateTime": 1664368225998, "trialdata": {"rt": 968, "stimulus": "<p id='stroop-text' class='stroop-green'>YELLOW</p>", "response": "g", "stimulus-type": "incongruent", "word": "yellow", "color": "green", "correct_response": "g", "trial_id": "stroop-trial-1-incongruent-27", "trial_type": "html-keyboard-response", "trial_index": 165, "time_elapsed": 274484, "internal_node_id": "0.0-6.0-70.0"}}, {"uniqueid": "w84587138:a83590952", "current_trial": 166, "dateTime": 1664368227126, "trialdata": {"rt": 623, "stimulus": "<p id='stroop-text' class='stroop-green'>GREEN</p>", "response": "g", "stimulus-type": "congruent", "word": "green", "color": "green", "correct_response": "g", "trial_id": "stroop-trial-1-congruent-5", "trial_type": "html-keyboard-response", "trial_index": 166, "time_elapsed": 275612, "internal_node_id": "0.0-6.0-71.0"}}, {"uniqueid": "w84587138:a83590952", "current_trial": 167, "dateTime": 1664368228390, "trialdata": {"rt": 759, "stimulus": "<p id='stroop-text' class='stroop-blue'>BLUE</p>", "response": "b", "stimulus-type": "congruent", "word": "blue", "color": "blue", "correct_response": "b", "trial_id": "stroop-trial-1-congruent-24", "trial_type": "html-keyboard-response", "trial_index": 167, "time_elapsed": 276876, "internal_node_id": "0.0-6.0-72.0"}}, {"uniqueid": "w84587138:a83590952", "current_trial": 168, "dateTime": 1664368229542, "trialdata": {"rt": 646, "stimulus": "<p id='stroop-text' class='stroop-red'>RED</p>", "response": "r", "stimulus-type": "congruent", "word": "red", "color": "red", "correct_response": "r", "trial_id": "stroop-trial-1-congruent-20", "trial_type": "html-keyboard-response", "trial_index": 168, "time_elapsed": 278028, "internal_node_id": "0.0-6.0-73.0"}}, {"uniqueid": "w84587138:a83590952", "current_trial": 169, "dateTime": 1664368230726, "trialdata": {"rt": 680, "stimulus": "<p id='stroop-text' class='stroop-red'>WINDOW</p>", "response": "r", "stimulus-type": "unrelated", "word": "WINDOW", "color": "red", "correct_response": "r", "trial_id": "stroop-trial-1-unrelated-2", "trial_type": "html-keyboard-response", "trial_index": 169, "time_elapsed": 279212, "internal_node_id": "0.0-6.0-74.0"}}, {"uniqueid": "w84587138:a83590952", "current_trial": 170, "dateTime": 1664368231862, "trialdata": {"rt": 632, "stimulus": "<p id='stroop-text' class='stroop-green'>GREEN</p>", "response": "g", "stimulus-type": "congruent", "word": "green", "color": "green", "correct_response": "g", "trial_id": "stroop-trial-1-congruent-8", "trial_type": "html-keyboard-response", "trial_index": 170, "time_elapsed": 280348, "internal_node_id": "0.0-6.0-75.0"}}, {"uniqueid": "w84587138:a83590952", "current_trial": 171, "dateTime": 1664368233158, "trialdata": {"rt": 791, "stimulus": "<p id='stroop-text' class='stroop-green'>WINDOW</p>", "response": "g", "stimulus-type": "unrelated", "word": "WINDOW", "color": "green", "correct_response": "g", "trial_id": "stroop-trial-1-unrelated-13", "trial_type": "html-keyboard-response", "trial_index": 171, "time_elapsed": 281644, "internal_node_id": "0.0-6.0-76.0"}}, {"uniqueid": "w84587138:a83590952", "current_trial": 172, "dateTime": 1664368234470, "trialdata": {"rt": 796, "stimulus": "<p id='stroop-text' class='stroop-yellow'>RED</p>", "response": "y", "stimulus-type": "incongruent", "word": "red", "color": "yellow", "correct_response": "y", "trial_id": "stroop-trial-1-incongruent-13", "trial_type": "html-keyboard-response", "trial_index": 172, "time_elapsed": 282956, "internal_node_id": "0.0-6.0-77.0"}}, {"uniqueid": "w84587138:a83590952", "current_trial": 173, "dateTime": 1664368235590, "trialdata": {"rt": 614, "stimulus": "<p id='stroop-text' class='stroop-yellow'>YELLOW</p>", "response": "y", "stimulus-type": "congruent", "word": "yellow", "color": "yellow", "correct_response": "y", "trial_id": "stroop-trial-1-congruent-26", "trial_type": "html-keyboard-response", "trial_index": 173, "time_elapsed": 284076, "internal_node_id": "0.0-6.0-78.0"}}, {"uniqueid": "w84587138:a83590952", "current_trial": 174, "dateTime": 1664368236966, "trialdata": {"rt": 872, "stimulus": "<p id='stroop-text' class='stroop-blue'>BOTTLE</p>", "response": "b", "stimulus-type": "unrelated", "word": "BOTTLE", "color": "blue", "correct_response": "b", "trial_id": "stroop-trial-1-unrelated-22", "trial_type": "html-keyboard-response", "trial_index": 174, "time_elapsed": 285452, "internal_node_id": "0.0-6.0-79.0"}}, {"uniqueid": "w84587138:a83590952", "current_trial": 175, "dateTime": 1664368238094, "trialdata": {"rt": 624, "stimulus": "<p id='stroop-text' class='stroop-blue'>BRIDGE</p>", "response": "b", "stimulus-type": "unrelated", "word": "BRIDGE", "color": "blue", "correct_response": "b", "trial_id": "stroop-trial-1-unrelated-28", "trial_type": "html-keyboard-response", "trial_index": 175, "time_elapsed": 286580, "internal_node_id": "0.0-6.0-80.0"}}, {"uniqueid": "w84587138:a83590952", "current_trial": 176, "dateTime": 1664368239366, "trialdata": {"rt": 768, "stimulus": "<p id='stroop-text' class='stroop-red'>RED</p>", "response": "r", "stimulus-type": "congruent", "word": "red", "color": "red", "correct_response": "r", "trial_id": "stroop-trial-1-congruent-7", "trial_type": "html-keyboard-response", "trial_index": 176, "time_elapsed": 287852, "internal_node_id": "0.0-6.0-81.0"}}, {"uniqueid": "w84587138:a83590952", "current_trial": 177, "dateTime": 1664368240838, "trialdata": {"rt": 967, "stimulus": "<p id='stroop-text' class='stroop-green'>BLUE</p>", "response": "g", "stimulus-type": "incongruent", "word": "blue", "color": "green", "correct_response": "g", "trial_id": "stroop-trial-1-incongruent-21", "trial_type": "html-keyboard-response", "trial_index": 177, "time_elapsed": 289324, "internal_node_id": "0.0-6.0-82.0"}}, {"uniqueid": "w84587138:a83590952", "current_trial": 178, "dateTime": 1664368242245, "trialdata": {"rt": 902, "stimulus": "<p id='stroop-text' class='stroop-blue'>STONE</p>", "response": "b", "stimulus-type": "unrelated", "word": "STONE", "color": "blue", "correct_response": "b", "trial_id": "stroop-trial-1-unrelated-8", "trial_type": "html-keyboard-response", "trial_index": 178, "time_elapsed": 290732, "internal_node_id": "0.0-6.0-83.0"}}, {"uniqueid": "w84587138:a83590952", "current_trial": 179, "dateTime": 1664368243653, "trialdata": {"rt": 904, "stimulus": "<p id='stroop-text' class='stroop-yellow'>BLUE</p>", "response": "y", "stimulus-type": "incongruent", "word": "blue", "color": "yellow", "correct_response": "y", "trial_id": "stroop-trial-1-incongruent-19", "trial_type": "html-keyboard-response", "trial_index": 179, "time_elapsed": 292140, "internal_node_id": "0.0-6.0-84.0"}}, {"uniqueid": "w84587138:a83590952", "current_trial": 180, "dateTime": 1664368244877, "trialdata": {"rt": 719, "stimulus": "<p id='stroop-text' class='stroop-yellow'>BOAT</p>", "response": "y", "stimulus-type": "unrelated", "word": "BOAT", "color": "yellow", "correct_response": "y", "trial_id": "stroop-trial-1-unrelated-23", "trial_type": "html-keyboard-response", "trial_index": 180, "time_elapsed": 293364, "internal_node_id": "0.0-6.0-85.0"}}, {"uniqueid": "w84587138:a83590952", "current_trial": 181, "dateTime": 1664368246037, "trialdata": {"rt": 655, "stimulus": "<p id='stroop-text' class='stroop-blue'>RED</p>", "response": "r", "stimulus-type": "incongruent", "word": "red", "color": "blue", "correct_response": "b", "trial_id": "stroop-trial-1-incongruent-2", "trial_type": "html-keyboard-response", "trial_index": 181, "time_elapsed": 294524, "internal_node_id": "0.0-6.0-86.0"}}, {"uniqueid": "w84587138:a83590952", "current_trial": 182, "dateTime": 1664368247237, "trialdata": {"rt": 695, "stimulus": "<p id='stroop-text' class='stroop-red'>CHAIR</p>", "response": "r", "stimulus-type": "unrelated", "word": "CHAIR", "color": "red", "correct_response": "r", "trial_id": "stroop-trial-1-unrelated-3", "trial_type": "html-keyboard-response", "trial_index": 182, "time_elapsed": 295724, "internal_node_id": "0.0-6.0-87.0"}}, {"uniqueid": "w84587138:a83590952", "current_trial": 183, "dateTime": 1664368248549, "trialdata": {"rt": 805, "stimulus": "<p id='stroop-text' class='stroop-yellow'>RED</p>", "response": "y", "stimulus-type": "incongruent", "word": "red", "color": "yellow", "correct_response": "y", "trial_id": "stroop-trial-1-incongruent-11", "trial_type": "html-keyboard-response", "trial_index": 183, "time_elapsed": 297036, "internal_node_id": "0.0-6.0-88.0"}}, {"uniqueid": "w84587138:a83590952", "current_trial": 184, "dateTime": 1664368249734, "trialdata": {"rt": 680, "stimulus": "<p id='stroop-text' class='stroop-yellow'>YELLOW</p>", "response": "y", "stimulus-type": "congruent", "word": "yellow", "color": "yellow", "correct_response": "y", "trial_id": "stroop-trial-1-congruent-3", "trial_type": "html-keyboard-response", "trial_index": 184, "time_elapsed": 298220, "internal_node_id": "0.0-6.0-89.0"}}, {"uniqueid": "w84587138:a83590952", "current_trial": 185, "dateTime": 1664368256565, "trialdata": {"rt": 6326, "stimulus": "  <h1> End of block! </h1>\n\n  You have reached the end of the block 2/5. If you need a short break, feel free to take one now before moving on.\n\n  <br><br>\n  In the next block, you will complete another 90 rounds of this game.\n\n  <br><br>\n  <div style='text-align: center;'>Press <code>space</code> to begin.</div>\n  <br><br>\n<div style='text-align: center;'>(If the experiment doesn't continue, try clicking on the text and then pressing <code>space</code>.)</div>", "response": " ", "trial_id": "stroop_1_ready_3", "trial_type": "html-keyboard-response", "trial_index": 185, "time_elapsed": 305052, "internal_node_id": "0.0-7.0"}}, {"uniqueid": "w84587138:a83590952", "current_trial": 186, "dateTime": 1664368258525, "trialdata": {"rt": 1955, "stimulus": "<p id='stroop-text' class='stroop-green'>SHIP</p>", "response": "g", "stimulus-type": "unrelated", "word": "SHIP", "color": "green", "correct_response": "g", "trial_id": "stroop-trial-1-unrelated-18", "trial_type": "html-keyboard-response", "trial_index": 186, "time_elapsed": 307012, "internal_node_id": "0.0-8.0-0.0"}}, {"uniqueid": "w84587138:a83590952", "current_trial": 187, "dateTime": 1664368259605, "trialdata": {"rt": 576, "stimulus": "<p id='stroop-text' class='stroop-green'>YELLOW</p>", "response": "g", "stimulus-type": "incongruent", "word": "yellow", "color": "green", "correct_response": "g", "trial_id": "stroop-trial-1-incongruent-11", "trial_type": "html-keyboard-response", "trial_index": 187, "time_elapsed": 308092, "internal_node_id": "0.0-8.0-1.0"}}, {"uniqueid": "w84587138:a83590952", "current_trial": 188, "dateTime": 1664368260581, "trialdata": {"rt": 470, "stimulus": "<p id='stroop-text' class='stroop-yellow'>BLUE</p>", "response": "y", "stimulus-type": "incongruent", "word": "blue", "color": "yellow", "correct_response": "y", "trial_id": "stroop-trial-1-incongruent-22", "trial_type": "html-keyboard-response", "trial_index": 188, "time_elapsed": 309068, "internal_node_id": "0.0-8.0-2.0"}}, {"uniqueid": "w84587138:a83590952", "current_trial": 189, "dateTime": 1664368261821, "trialdata": {"rt": 735, "stimulus": "<p id='stroop-text' class='stroop-red'>GREEN</p>", "response": "r", "stimulus-type": "incongruent", "word": "green", "color": "red", "correct_response": "r", "trial_id": "stroop-trial-1-incongruent-21", "trial_type": "html-keyboard-response", "trial_index": 189, "time_elapsed": 310308, "internal_node_id": "0.0-8.0-3.0"}}, {"uniqueid": "w84587138:a83590952", "current_trial": 190, "dateTime": 1664368263373, "trialdata": {"rt": 1048, "stimulus": "<p id='stroop-text' class='stroop-blue'>RED</p>", "response": "b", "stimulus-type": "incongruent", "word": "red", "color": "blue", "correct_response": "b", "trial_id": "stroop-trial-1-incongruent-24", "trial_type": "html-keyboard-response", "trial_index": 190, "time_elapsed": 311860, "internal_node_id": "0.0-8.0-4.0"}}, {"uniqueid": "w84587138:a83590952", "current_trial": 191, "dateTime": 1664368264613, "trialdata": {"rt": 736, "stimulus": "<p id='stroop-text' class='stroop-red'>RED</p>", "response": "r", "stimulus-type": "congruent", "word": "red", "color": "red", "correct_response": "r", "trial_id": "stroop-trial-1-congruent-24", "trial_type": "html-keyboard-response", "trial_index": 191, "time_elapsed": 313100, "internal_node_id": "0.0-8.0-5.0"}}, {"uniqueid": "w84587138:a83590952", "current_trial": 192, "dateTime": 1664368266893, "trialdata": {"rt": 1775, "stimulus": "<p id='stroop-text' class='stroop-blue'>YELLOW</p>", "response": "b", "stimulus-type": "incongruent", "word": "yellow", "color": "blue", "correct_response": "b", "trial_id": "stroop-trial-1-incongruent-25", "trial_type": "html-keyboard-response", "trial_index": 192, "time_elapsed": 315380, "internal_node_id": "0.0-8.0-6.0"}}, {"uniqueid": "w84587138:a83590952", "current_trial": 193, "dateTime": 1664368268341, "trialdata": {"rt": 943, "stimulus": "<p id='stroop-text' class='stroop-red'>GREEN</p>", "response": "r", "stimulus-type": "incongruent", "word": "green", "color": "red", "correct_response": "r", "trial_id": "stroop-trial-1-incongruent-15", "trial_type": "html-keyboard-response", "trial_index": 193, "time_elapsed": 316828, "internal_node_id": "0.0-8.0-7.0"}}, {"uniqueid": "w84587138:a83590952", "current_trial": 194, "dateTime": 1664368273429, "trialdata": {"rt": 4573, "stimulus": "<p id='stroop-text' class='stroop-yellow'>BLUE</p>", "response": "y", "stimulus-type": "incongruent", "word": "blue", "color": "yellow", "correct_response": "y", "trial_id": "stroop-trial-1-incongruent-28", "trial_type": "html-keyboard-response", "trial_index": 194, "time_elapsed": 321916, "internal_node_id": "0.0-8.0-8.0"}}, {"uniqueid": "w84587138:a83590952", "current_trial": 195, "dateTime": 1664368274804, "trialdata": {"rt": 870, "stimulus": "<p id='stroop-text' class='stroop-green'>BLUE</p>", "response": "g", "stimulus-type": "incongruent", "word": "blue", "color": "green", "correct_response": "g", "trial_id": "stroop-trial-1-incongruent-5", "trial_type": "html-keyboard-response", "trial_index": 195, "time_elapsed": 323291, "internal_node_id": "0.0-8.0-9.0"}}, {"uniqueid": "w84587138:a83590952", "current_trial": 196, "dateTime": 1664368276172, "trialdata": {"rt": 864, "stimulus": "<p id='stroop-text' class='stroop-yellow'>YELLOW</p>", "response": "y", "stimulus-type": "congruent", "word": "yellow", "color": "yellow", "correct_response": "y", "trial_id": "stroop-trial-1-congruent-17", "trial_type": "html-keyboard-response", "trial_index": 196, "time_elapsed": 324659, "internal_node_id": "0.0-8.0-10.0"}}, {"uniqueid": "w84587138:a83590952", "current_trial": 197, "dateTime": 1664368277677, "trialdata": {"rt": 1002, "stimulus": "<p id='stroop-text' class='stroop-blue'>BLUE</p>", "response": "b", "stimulus-type": "congruent", "word": "blue", "color": "blue", "correct_response": "b", "trial_id": "stroop-trial-1-congruent-6", "trial_type": "html-keyboard-response", "trial_index": 197, "time_elapsed": 326164, "internal_node_id": "0.0-8.0-11.0"}}, {"uniqueid": "w84587138:a83590952", "current_trial": 198, "dateTime": 1664368279053, "trialdata": {"rt": 870, "stimulus": "<p id='stroop-text' class='stroop-red'>SHIP</p>", "response": "r", "stimulus-type": "unrelated", "word": "SHIP", "color": "red", "correct_response": "r", "trial_id": "stroop-trial-1-unrelated-5", "trial_type": "html-keyboard-response", "trial_index": 198, "time_elapsed": 327540, "internal_node_id": "0.0-8.0-12.0"}}, {"uniqueid": "w84587138:a83590952", "current_trial": 199, "dateTime": 1664368282245, "trialdata": {"rt": 2687, "stimulus": "<p id='stroop-text' class='stroop-blue'>GREEN</p>", "response": "b", "stimulus-type": "incongruent", "word": "green", "color": "blue", "correct_response": "b", "trial_id": "stroop-trial-1-incongruent-1", "trial_type": "html-keyboard-response", "trial_index": 199, "time_elapsed": 330732, "internal_node_id": "0.0-8.0-13.0"}}, {"uniqueid": "w84587138:a83590952", "current_trial": 200, "dateTime": 1664368283429, "trialdata": {"rt": 679, "stimulus": "<p id='stroop-text' class='stroop-green'>GREEN</p>", "response": "g", "stimulus-type": "congruent", "word": "green", "color": "green", "correct_response": "g", "trial_id": "stroop-trial-1-congruent-14", "trial_type": "html-keyboard-response", "trial_index": 200, "time_elapsed": 331916, "internal_node_id": "0.0-8.0-14.0"}}, {"uniqueid": "w84587138:a83590952", "current_trial": 201, "dateTime": 1664368284741, "trialdata": {"rt": 807, "stimulus": "<p id='stroop-text' class='stroop-red'>BRIDGE</p>", "response": "r", "stimulus-type": "unrelated", "word": "BRIDGE", "color": "red", "correct_response": "r", "trial_id": "stroop-trial-1-unrelated-2", "trial_type": "html-keyboard-response", "trial_index": 201, "time_elapsed": 333228, "internal_node_id": "0.0-8.0-15.0"}}, {"uniqueid": "w84587138:a83590952", "current_trial": 202, "dateTime": 1664368286021, "trialdata": {"rt": 775, "stimulus": "<p id='stroop-text' class='stroop-yellow'>YELLOW</p>", "response": "y", "stimulus-type": "congruent", "word": "yellow", "color": "yellow", "correct_response": "y", "trial_id": "stroop-trial-1-congruent-22", "trial_type": "html-keyboard-response", "trial_index": 202, "time_elapsed": 334508, "internal_node_id": "0.0-8.0-16.0"}}, {"uniqueid": "w84587138:a83590952", "current_trial": 203, "dateTime": 1664368287437, "trialdata": {"rt": 911, "stimulus": "<p id='stroop-text' class='stroop-blue'>BOAT</p>", "response": "b", "stimulus-type": "unrelated", "word": "BOAT", "color": "blue", "correct_response": "b", "trial_id": "stroop-trial-1-unrelated-19", "trial_type": "html-keyboard-response", "trial_index": 203, "time_elapsed": 335924, "internal_node_id": "0.0-8.0-17.0"}}, {"uniqueid": "w84587138:a83590952", "current_trial": 204, "dateTime": 1664368288901, "trialdata": {"rt": 958, "stimulus": "<p id='stroop-text' class='stroop-green'>SHIP</p>", "response": "g", "stimulus-type": "unrelated", "word": "SHIP", "color": "green", "correct_response": "g", "trial_id": "stroop-trial-1-unrelated-1", "trial_type": "html-keyboard-response", "trial_index": 204, "time_elapsed": 337387, "internal_node_id": "0.0-8.0-18.0"}}, {"uniqueid": "w84587138:a83590952", "current_trial": 205, "dateTime": 1664368290437, "trialdata": {"rt": 1031, "stimulus": "<p id='stroop-text' class='stroop-blue'>DOG</p>", "response": "b", "stimulus-type": "unrelated", "word": "DOG", "color": "blue", "correct_response": "b", "trial_id": "stroop-trial-1-unrelated-11", "trial_type": "html-keyboard-response", "trial_index": 205, "time_elapsed": 338924, "internal_node_id": "0.0-8.0-19.0"}}, {"uniqueid": "w84587138:a83590952", "current_trial": 206, "dateTime": 1664368291909, "trialdata": {"rt": 967, "stimulus": "<p id='stroop-text' class='stroop-green'>MONKEY</p>", "response": "g", "stimulus-type": "unrelated", "word": "MONKEY", "color": "green", "correct_response": "g", "trial_id": "stroop-trial-1-unrelated-24", "trial_type": "html-keyboard-response", "trial_index": 206, "time_elapsed": 340396, "internal_node_id": "0.0-8.0-20.0"}}, {"uniqueid": "w84587138:a83590952", "current_trial": 207, "dateTime": 1664368293653, "trialdata": {"rt": 1237, "stimulus": "<p id='stroop-text' class='stroop-red'>YELLOW</p>", "response": "r", "stimulus-type": "incongruent", "word": "yellow", "color": "red", "correct_response": "r", "trial_id": "stroop-trial-1-incongruent-14", "trial_type": "html-keyboard-response", "trial_index": 207, "time_elapsed": 342140, "internal_node_id": "0.0-8.0-21.0"}}, {"uniqueid": "w84587138:a83590952", "current_trial": 208, "dateTime": 1664368294861, "trialdata": {"rt": 703, "stimulus": "<p id='stroop-text' class='stroop-green'>GREEN</p>", "response": "g", "stimulus-type": "congruent", "word": "green", "color": "green", "correct_response": "g", "trial_id": "stroop-trial-1-congruent-7", "trial_type": "html-keyboard-response", "trial_index": 208, "time_elapsed": 343348, "internal_node_id": "0.0-8.0-22.0"}}, {"uniqueid": "w84587138:a83590952", "current_trial": 209, "dateTime": 1664368297293, "trialdata": {"rt": 1927, "stimulus": "<p id='stroop-text' class='stroop-red'>YELLOW</p>", "response": "r", "stimulus-type": "incongruent", "word": "yellow", "color": "red", "correct_response": "r", "trial_id": "stroop-trial-1-incongruent-18", "trial_type": "html-keyboard-response", "trial_index": 209, "time_elapsed": 345780, "internal_node_id": "0.0-8.0-23.0"}}, {"uniqueid": "w84587138:a83590952", "current_trial": 210, "dateTime": 1664368298341, "trialdata": {"rt": 543, "stimulus": "<p id='stroop-text' class='stroop-red'>RED</p>", "response": "r", "stimulus-type": "congruent", "word": "red", "color": "red", "correct_response": "r", "trial_id": "stroop-trial-1-congruent-21", "trial_type": "html-keyboard-response", "trial_index": 210, "time_elapsed": 346828, "internal_node_id": "0.0-8.0-24.0"}}, {"uniqueid": "w84587138:a83590952", "current_trial": 211, "dateTime": 1664368299349, "trialdata": {"rt": 503, "stimulus": "<p id='stroop-text' class='stroop-red'>GREEN</p>", "response": "r", "stimulus-type": "incongruent", "word": "green", "color": "red", "correct_response": "r", "trial_id": "stroop-trial-1-incongruent-26", "trial_type": "html-keyboard-response", "trial_index": 211, "time_elapsed": 347836, "internal_node_id": "0.0-8.0-25.0"}}, {"uniqueid": "w84587138:a83590952", "current_trial": 212, "dateTime": 1664368300525, "trialdata": {"rt": 671, "stimulus": "<p id='stroop-text' class='stroop-blue'>BLUE</p>", "response": "b", "stimulus-type": "congruent", "word": "blue", "color": "blue", "correct_response": "b", "trial_id": "stroop-trial-1-congruent-23", "trial_type": "html-keyboard-response", "trial_index": 212, "time_elapsed": 349012, "internal_node_id": "0.0-8.0-26.0"}}, {"uniqueid": "w84587138:a83590952", "current_trial": 213, "dateTime": 1664368302013, "trialdata": {"rt": 982, "stimulus": "<p id='stroop-text' class='stroop-green'>YELLOW</p>", "response": "g", "stimulus-type": "incongruent", "word": "yellow", "color": "green", "correct_response": "g", "trial_id": "stroop-trial-1-incongruent-30", "trial_type": "html-keyboard-response", "trial_index": 213, "time_elapsed": 350500, "internal_node_id": "0.0-8.0-27.0"}}, {"uniqueid": "w84587138:a83590952", "current_trial": 214, "dateTime": 1664368304245, "trialdata": {"rt": 1728, "stimulus": "<p id='stroop-text' class='stroop-blue'>WINDOW</p>", "response": "b", "stimulus-type": "unrelated", "word": "WINDOW", "color": "blue", "correct_response": "b", "trial_id": "stroop-trial-1-unrelated-23", "trial_type": "html-keyboard-response", "trial_index": 214, "time_elapsed": 352732, "internal_node_id": "0.0-8.0-28.0"}}, {"uniqueid": "w84587138:a83590952", "current_trial": 215, "dateTime": 1664368305461, "trialdata": {"rt": 711, "stimulus": "<p id='stroop-text' class='stroop-red'>RED</p>", "response": "r", "stimulus-type": "congruent", "word": "red", "color": "red", "correct_response": "r", "trial_id": "stroop-trial-1-congruent-29", "trial_type": "html-keyboard-response", "trial_index": 215, "time_elapsed": 353948, "internal_node_id": "0.0-8.0-29.0"}}, {"uniqueid": "w84587138:a83590952", "current_trial": 216, "dateTime": 1664368306893, "trialdata": {"rt": 927, "stimulus": "<p id='stroop-text' class='stroop-yellow'>SHIP</p>", "response": "y", "stimulus-type": "unrelated", "word": "SHIP", "color": "yellow", "correct_response": "y", "trial_id": "stroop-trial-1-unrelated-8", "trial_type": "html-keyboard-response", "trial_index": 216, "time_elapsed": 355380, "internal_node_id": "0.0-8.0-30.0"}}, {"uniqueid": "w84587138:a83590952", "current_trial": 217, "dateTime": 1664368308069, "trialdata": {"rt": 670, "stimulus": "<p id='stroop-text' class='stroop-green'>GREEN</p>", "response": "g", "stimulus-type": "congruent", "word": "green", "color": "green", "correct_response": "g", "trial_id": "stroop-trial-1-congruent-9", "trial_type": "html-keyboard-response", "trial_index": 217, "time_elapsed": 356556, "internal_node_id": "0.0-8.0-31.0"}}, {"uniqueid": "w84587138:a83590952", "current_trial": 218, "dateTime": 1664368309477, "trialdata": {"rt": 903, "stimulus": "<p id='stroop-text' class='stroop-blue'>SHIP</p>", "response": "b", "stimulus-type": "unrelated", "word": "SHIP", "color": "blue", "correct_response": "b", "trial_id": "stroop-trial-1-unrelated-7", "trial_type": "html-keyboard-response", "trial_index": 218, "time_elapsed": 357964, "internal_node_id": "0.0-8.0-32.0"}}, {"uniqueid": "w84587138:a83590952", "current_trial": 219, "dateTime": 1664368310765, "trialdata": {"rt": 782, "stimulus": "<p id='stroop-text' class='stroop-green'>GREEN</p>", "response": "g", "stimulus-type": "congruent", "word": "green", "color": "green", "correct_response": "g", "trial_id": "stroop-trial-1-congruent-1", "trial_type": "html-keyboard-response", "trial_index": 219, "time_elapsed": 359252, "internal_node_id": "0.0-8.0-33.0"}}, {"uniqueid": "w84587138:a83590952", "current_trial": 220, "dateTime": 1664368312053, "trialdata": {"rt": 783, "stimulus": "<p id='stroop-text' class='stroop-blue'>GREEN</p>", "response": "g", "stimulus-type": "incongruent", "word": "green", "color": "blue", "correct_response": "b", "trial_id": "stroop-trial-1-incongruent-13", "trial_type": "html-keyboard-response", "trial_index": 220, "time_elapsed": 360540, "internal_node_id": "0.0-8.0-34.0"}}, {"uniqueid": "w84587138:a83590952", "current_trial": 221, "dateTime": 1664368313157, "trialdata": {"rt": 598, "stimulus": "<p id='stroop-text' class='stroop-red'>RED</p>", "response": "r", "stimulus-type": "congruent", "word": "red", "color": "red", "correct_response": "r", "trial_id": "stroop-trial-1-congruent-2", "trial_type": "html-keyboard-response", "trial_index": 221, "time_elapsed": 361644, "internal_node_id": "0.0-8.0-35.0"}}, {"uniqueid": "w84587138:a83590952", "current_trial": 222, "dateTime": 1664368314573, "trialdata": {"rt": 911, "stimulus": "<p id='stroop-text' class='stroop-red'>CHAIR</p>", "response": "r", "stimulus-type": "unrelated", "word": "CHAIR", "color": "red", "correct_response": "r", "trial_id": "stroop-trial-1-unrelated-17", "trial_type": "html-keyboard-response", "trial_index": 222, "time_elapsed": 363060, "