{"condition": 1, "counterbalance": 0, "assignmentId": "a44509310", "workerId": "w57909645", "hitId": "h45109880", "currenttrial": 137, "bonus": 0, "data": [{"uniqueid": "w57909645:a44509310", "current_trial": 0, "dateTime": 1664555139477, "trialdata": {"success": true, "trial_type": "fullscreen", "trial_index": 0, "time_elapsed": 8759, "internal_node_id": "0.0-0.0"}}, {"uniqueid": "w57909645:a44509310", "current_trial": 1, "dateTime": 1664555159485, "trialdata": {"view_history": [{"page_index": 0, "viewing_time": 19995}], "rt": 19996, "trial_id": "exp_instructions_no_distractor", "trial_type": "instructions", "trial_index": 1, "time_elapsed": 28767, "internal_node_id": "0.0-1.0"}}, {"uniqueid": "w57909645:a44509310", "current_trial": 2, "dateTime": 1664555163098, "trialdata": {"success": true, "trial_type": "fullscreen", "trial_index": 2, "time_elapsed": 32381, "internal_node_id": "0.0-2.0-0.0"}}, {"uniqueid": "w57909645:a44509310", "current_trial": 3, "dateTime": 1664555243504, "trialdata": {"view_history": [{"page_index": 0, "viewing_time": 39123}, {"page_index": 1, "viewing_time": 24067}, {"page_index": 2, "viewing_time": 5930}, {"page_index": 3, "viewing_time": 5431}, {"page_index": 4, "viewing_time": 5852}], "rt": 80403, "trial_id": "mouselab_instructions_1", "trial_type": "instructions", "trial_index": 3, "time_elapsed": 112787, "internal_node_id": "0.0-2.0-1.0"}}, {"uniqueid": "w57909645:a44509310", "current_trial": 4, "dateTime": 1664555259882, "trialdata": {"revealed_states": [], "num_clicks_accrued": [0, 0, 0, 0, 0, 0, 0, 0, 0, 0, 0, 0, 0], "stateRewards": ["", -10, 10, -10, 10, 10, 10, -10, -10, -10, 10, 10, 10], "withholdReward": false, "trial_id": "practice_1", "block": "test", "trialIndex": 0, "score": 11.25, "costs": -0.75, "simulationMode": [null, null, null], "rewards": [10, 10, -10], "path": ["0", "0", "5", "6", "7"], "rt": [6895, 365, 73], "actions": ["right", "right", "up"], "actionTimes": [10273, 11128, 11704], "queries": {"click": {"state": {"target": ["1", "9", "5"], "time": [6754, 7582, 7959]}, "edge": {"target": [], "time": []}}, "mouseover": {"state": {"target": ["0", "8", "6", "1", "9", "0", "5", "6"], "time": [3464, 3571, 5274, 5356, 7340, 7728, 7795, 8128]}, "edge": {"target": [], "time": []}}, "mouseout": {"state": {"target": ["5", "8", "8", "0", "0", "8", "6", "1", "9", "0", "5", "6"], "time": [null, null, 1157, 1671, 3479, 4257, 5285, 7039, 7703, 7762, 8103, 8145]}, "edge": {"target": [], "time": []}}}, "displayed_time": "12.21", "trialTime": 15949, "trial_type": "mouselab-mdp", "trial_index": 4, "time_elapsed": 129163, "internal_node_id": "0.0-2.0-2.0-0.0"}}, {"uniqueid": "w57909645:a44509310", "current_trial": 5, "dateTime": 1664555268171, "trialdata": {"revealed_states": [], "num_clicks_accrued": [0, 0, 0, 0, 0, 0, 0, 0, 0, 0, 0, 0, 0], "stateRewards": ["", 10, 10, -10, 10, -10, -10, 10, -10, -10, 10, -10, -10], "withholdReward": false, "trial_id": "practice_2", "block": "test", "trialIndex": 1, "score": 31.25, "costs": -0.75, "simulationMode": [null, null, null], "rewards": [10, 10, 10], "path": ["0", "0", "1", "2", "4"], "rt": [2773, 89, 24], "actions": ["up", "up", "left"], "actionTimes": [4590, 5178, 5705], "queries": {"click": {"state": {"target": ["1", "9", "5"], "time": [2679, 3090, 3523]}, "edge": {"target": [], "time": []}}, "mouseover": {"state": {"target": ["5", "6", "5", "1", "9", "5", "6"], "time": [1937, 1978, 2154, 2346, 2920, 3388, 3670]}, "edge": {"target": [], "time": []}}, "mouseout": {"state": {"target": ["6", "5", "0", "5", "6", "5", "1", "9", "5", "6"], "time": [1330, 1488, 1912, 1962, 2138, 2179, 2853, 3203, 3645, 3720]}, "edge": {"target": [], "time": []}}}, "displayed_time": "6.21", "trialTime": 8213, "trial_type": "mouselab-mdp", "trial_index": 5, "time_elapsed": 137454, "internal_node_id": "0.0-2.0-2.0-1.0"}}, {"uniqueid": "w57909645:a44509310", "current_trial": 6, "dateTime": 1664555320624, "trialdata": {"view_history": [{"page_index": 0, "viewing_time": 30582}, {"page_index": 1, "viewing_time": 12310}, {"page_index": 2, "viewing_time": 9553}], "rt": 52445, "trial_id": "mouselab_instructions_2_scarce", "trial_type": "instructions", "trial_index": 6, "time_elapsed": 189907, "internal_node_id": "0.0-2.0-3.0"}}, {"uniqueid": "w57909645:a44509310", "current_trial": 7, "dateTime": 1664555356353, "trialdata": {"rt": 35725, "response": {"Q0": "$-48 to $48", "Q1": "The cost is always $0.25.", "Q2": "The better I perform the higher my bonus will be.", "Q3": "No, the amount of cash at each node of the web may be different each time.", "Q4": "The values of the nodes walked through from start to finish.", "Q5": "No, the spider might forget to count the money on some rounds."}, "question_order": [0, 1, 2, 3, 4, 5], "correct": {"Q0": "$-48 to $48", "Q1": "The cost is always $0.25.", "Q2": "The better I perform the higher my bonus will be.", "Q3": "No, the amount of cash at each node of the web may be different each time.", "Q4": "The values of the nodes walked through from start to finish.", "Q5": "No, the spider might forget to count the money on some rounds."}, "trial_id": "mouselab_quiz_scarce", "trial_type": "survey-multi-choice", "trial_index": 7, "time_elapsed": 225636, "internal_node_id": "0.0-2.0-4.0"}}, {"uniqueid": "w57909645:a44509310", "current_trial": 8, "dateTime": 1664555368942, "trialdata": {"rt": 12581, "stimulus": "\n<h1> Get ready to start the game! </h1>\n\nThank you for reading the instructions. Get ready start with the first of 4 block(s) of this game.\n<br><br>\nIn this first block, you will complete 30 rounds of this game before moving on.\n<br><br>\nRemember, the more money the spider gets, the bigger your bonus will be!\n<br><br>\n<div style='text-align: center;'>Press <code>space</code> to begin.</div>\n\n<br><br>\n(If, at any point, the <code>space</code> key does not take you to the next page, click once on the text and try again.)", "response": " ", "trial_id": "mdp_ready_1", "trial_type": "html-keyboard-response", "trial_index": 8, "time_elapsed": 238225, "internal_node_id": "0.0-4.0-0.0"}}, {"uniqueid": "w57909645:a44509310", "current_trial": 9, "dateTime": 1664555383854, "trialdata": {"revealed_states": [], "num_clicks_accrued": [0, 0, 0, 0, 0, 0, 0, 0, 0, 0, 0, 0, 0], "stateRewards": ["", -4, -4, -24, -24, -2, 4, 48, -24, -2, -4, -24, 48], "withholdReward": true, "trial_id": "mdp_855903341564", "block": "test1", "trialIndex": 2, "score": -18.5, "costs": -1.5, "simulationMode": [null, null, null], "rewards": [-2, 4, -24], "path": ["0", "0", "5", "6", "8"], "rt": [8440, 375, 449], "actions": ["right", "right", "down"], "actionTimes": [9535, 10410, 11358], "queries": {"click": {"state": {"target": ["5", "1", "9", "6", "2", "10"], "time": [2325, 3128, 3653, 6156, 7246, 7788]}, "edge": {"target": [], "time": []}}, "mouseover": {"state": {"target": ["5", "6", "6", "5", "5", "1", "9", "8", "6", "2", "10", "8"], "time": [1234, 1275, 1543, 1618, 2009, 2902, 3440, 5818, 5974, 6767, 7582, 8066]}, "edge": {"target": [], "time": []}}, "mouseout": {"state": {"target": ["0", "5", "6", "5", "0", "5", "6", "6", "5", "5", "1", "9", "8", "6", "5", "1", "2", "10", "9", "8"], "time": [400, 449, 683, 725, 1217, 1259, 1309, 1591, 1657, 2534, 3290, 3749, 5842, 6327, 6492, 6642, 7349, 7949, 7991, 8074]}, "edge": {"target": [], "time": []}}}, "displayed_time": "11.86", "trialTime": 14840, "trial_type": "mouselab-mdp", "trial_index": 9, "time_elapsed": 253136, "internal_node_id": "0.0-4.0-1.0-0.0"}}, {"uniqueid": "w57909645:a44509310", "current_trial": 10, "dateTime": 1664555396127, "trialdata": {"revealed_states": [], "num_clicks_accrued": [0, 0, 0, 0, 0, 0, 0, 0, 0, 0, 0, 0, 0], "stateRewards": ["", -2, -4, -48, -48, 4, -4, 48, 24, 4, 4, 48, 48], "withholdReward": true, "trial_id": "mdp_950960813932", "block": "test1", "trialIndex": 3, "score": 59.75, "costs": -1.25, "simulationMode": [null, null, null], "rewards": [4, 4, 48], "path": ["0", "0", "9", "10", "11"], "rt": [5146, 42, 29], "actions": ["left", "left", "up"], "actionTimes": [6577, 7120, 7648], "queries": {"click": {"state": {"target": ["9", "1", "5", "6", "10"], "time": [2173, 2770, 3258, 4937, 5560]}, "edge": {"target": [], "time": []}}, "mouseover": {"state": {"target": ["9", "9", "1", "5", "6", "0", "10"], "time": [1644, 2069, 2561, 3227, 4828, 5092, 5142]}, "edge": {"target": [], "time": []}}, "mouseout": {"state": {"target": ["5", "0", "9", "9", "1", "5", "6", "5", "0", "9", "10"], "time": [1143, 1619, 1710, 2291, 2969, 3400, 5059, 5084, 5100, 5133, 5659]}, "edge": {"target": [], "time": []}}}, "displayed_time": "9.43", "trialTime": 12213, "trial_type": "mouselab-mdp", "trial_index": 10, "time_elapsed": 265410, "internal_node_id": "0.0-4.0-1.0-1.0"}}, {"uniqueid": "w57909645:a44509310", "current_trial": 11, "dateTime": 1664555408343, "trialdata": {"revealed_states": [], "num_clicks_accrued": [0, 0, 0, 0, 0, 0, 0, 0, 0, 0, 0, 0, 0], "stateRewards": ["", -4, -4, 48, 24, -4, -4, -24, -48, -4, 4, 48, -24], "withholdReward": true, "trial_id": "mdp_896503755738", "block": "test1", "trialIndex": 4, "score": -20.25, "costs": -1.25, "simulationMode": [null, null, null], "rewards": [-4, 4, -24], "path": ["0", "0", "9", "10", "12"], "rt": [4871, 641, 313], "actions": ["left", "left", "down"], "actionTimes": [6581, 7721, 8541], "queries": {"click": {"state": {"target": ["9", "1", "5", "6", "10"], "time": [2276, 3014, 3617, 4347, 4944]}, "edge": {"target": [], "time": []}}, "mouseover": {"state": {"target": ["0", "9", "0", "0", "1", "5", "6", "10", "2", "2", "0"], "time": [1811, 2129, 2477, 2654, 2871, 3202, 4122, 4777, 5360, 5872, 5930]}, "edge": {"target": [], "time": []}}, "mouseout": {"state": {"target": ["0", "9", "0", "0", "1", "5", "6", "5", "9", "10", "2", "2", "1", "0"], "time": [1827, 2446, 2486, 2770, 3160, 3718, 4468, 4493, 4752, 5118, 5377, 5881, 5913, 5938]}, "edge": {"target": [], "time": []}}}, "displayed_time": "10.71", "trialTime": 12136, "trial_type": "mouselab-mdp", "trial_index": 11, "time_elapsed": 277626, "internal_node_id": "0.0-4.0-1.0-2.0"}}, {"uniqueid": "w57909645:a44509310", "current_trial": 12, "dateTime": 1664555419871, "trialdata": {"revealed_states": [], "num_clicks_accrued": [0, 0, 0, 0, 0, 0, 0, 0, 0, 0, 0, 0, 0], "stateRewards": ["", 2, 4, -48, -24, -4, 4, -24, 24, -2, -8, -24, 24], "withholdReward": true, "trial_id": "mdp_640720803523", "block": "test1", "trialIndex": 5, "score": -13.75, "costs": -0.75, "simulationMode": [null, null, null], "rewards": [2, 4, -24], "path": ["0", "0", "1", "2", "4"], "rt": [5496, 404, 45], "actions": ["up", "up", "left"], "actionTimes": [7235, 8135, 8674], "queries": {"click": {"state": {"target": ["9", "1", "5"], "time": [2776, 3975, 5904]}, "edge": {"target": [], "time": []}}, "mouseover": {"state": {"target": ["0", "9", "0", "1", "5", "6", "2", "2", "3", "7", "6", "5", "6"], "time": [2287, 2546, 3547, 3722, 4094, 4119, 4629, 5035, 5411, 5496, 5564, 5746, 6011]}, "edge": {"target": [], "time": []}}, "mouseout": {"state": {"target": ["0", "9", "0", "0", "9", "0", "1", "5", "6", "2", "2", "3", "7", "6", "5", "6"], "time": [1237, 1462, 1921, 2471, 2919, 3580, 4069, 4103, 4481, 4811, 5364, 5437, 5522, 5637, 5986, 6020]}, "edge": {"target": [], "time": []}}}, "displayed_time": "9.74", "trialTime": 11439, "trial_type": "mouselab-mdp", "trial_index": 12, "time_elapsed": 289154, "internal_node_id": "0.0-4.0-1.0-3.0"}}, {"uniqueid": "w57909645:a44509310", "current_trial": 13, "dateTime": 1664555432084, "trialdata": {"revealed_states": [], "num_clicks_accrued": [0, 0, 0, 0, 0, 0, 0, 0, 0, 0, 0, 0, 0], "stateRewards": ["", -2, 8, 48, 48, 2, 4, -48, 24, -4, -8, 48, 24], "withholdReward": true, "trial_id": "mdp_572910394648", "block": "test1", "trialIndex": 6, "score": -37.75, "costs": -0.75, "simulationMode": [null, null, null], "rewards": [2, 4, -48], "path": ["0", "0", "5", "6", "7"], "rt": [3811, 90, 45], "actions": ["right", "right", "up"], "actionTimes": [5770, 6362, 6909], "queries": {"click": {"state": {"target": ["1", "9", "5"], "time": [3030, 3626, 4168]}, "edge": {"target": [], "time": []}}, "mouseover": {"state": {"target": ["5", "6", "6", "5", "1", "9", "5", "8", "6"], "time": [2062, 2096, 2414, 2472, 2747, 3387, 4030, 4590, 4764]}, "edge": {"target": [], "time": []}}, "mouseout": {"state": {"target": ["7", "6", "5", "0", "5", "6", "6", "5", "1", "9", "5", "8", "6"], "time": [1504, 1622, 1722, 2037, 2079, 2121, 2438, 2563, 3154, 3721, 4305, 4632, 5182]}, "edge": {"target": [], "time": []}}}, "displayed_time": "10.96", "trialTime": 12134, "trial_type": "mouselab-mdp", "trial_index": 13, "time_elapsed": 301366, "internal_node_id": "0.0-4.0-1.0-4.0"}}, {"uniqueid": "w57909645:a44509310", "current_trial": 14, "dateTime": 1664555444388, "trialdata": {"revealed_states": [], "num_clicks_accrued": [0, 0, 0, 0, 0, 0, 0, 0, 0, 0, 0, 0, 0], "stateRewards": ["", -2, -8, 24, -48, -4, 8, -48, -24, 4, 8, -24, 24], "withholdReward": false, "trial_id": "mdp_940444641142", "block": "test1", "trialIndex": 7, "score": 40.75, "costs": -0.25, "simulationMode": [null, null, null], "rewards": [4, 8, 24], "path": ["0", "0", "9", "10", "12"], "rt": [2705, 47, 5], "actions": ["left", "left", "down"], "actionTimes": [4041, 4588, 5088], "queries": {"click": {"state": {"target": ["9"], "time": [1927]}, "edge": {"target": [], "time": []}}, "mouseover": {"state": {"target": ["9", "10", "1", "7"], "time": [1807, 2573, 3467, 3507]}, "edge": {"target": [], "time": []}}, "mouseout": {"state": {"target": ["8", "0", "9", "9", "10", "1", "7"], "time": [832, 1749, 2091, 2524, 2966, 3476, 3515]}, "edge": {"target": [], "time": []}}}, "displayed_time": "10.34", "trialTime": 12222, "trial_type": "mouselab-mdp", "trial_index": 14, "time_elapsed": 313671, "internal_node_id": "0.0-4.0-1.0-5.0"}}, {"uniqueid": "w57909645:a44509310", "current_trial": 15, "dateTime": 1664555458299, "trialdata": {"revealed_states": [], "num_clicks_accrued": [0, 0, 0, 0, 0, 0, 0, 0, 0, 0, 0, 0, 0], "stateRewards": ["", -4, -4, -24, 48, -4, -8, -24, 48, 2, 4, 48, 48], "withholdReward": true, "trial_id": "mdp_810954007398", "block": "test1", "trialIndex": 8, "score": 58.25, "costs": -0.75, "simulationMode": [null, null, null], "rewards": [2, 4, 48], "path": ["0", "0", "9", "10", "12"], "rt": [3422, 15, 127], "actions": ["left", "left", "down"], "actionTimes": [5709, 6220, 6849], "queries": {"click": {"state": {"target": ["9", "1", "5"], "time": [2928, 4142, 4773]}, "edge": {"target": [], "time": []}}, "mouseover": {"state": {"target": ["9", "0", "1", "5"], "time": [2847, 3590, 3940, 4490]}, "edge": {"target": [], "time": []}}, "mouseout": {"state": {"target": ["5", "0", "9", "0", "1", "5"], "time": [2014, 2379, 3072, 3807, 4254, 4879]}, "edge": {"target": [], "time": []}}}, "displayed_time": "11.29", "trialTime": 13836, "trial_type": "mouselab-mdp", "trial_index": 15, "time_elapsed": 327582, "internal_node_id": "0.0-4.0-1.0-6.0"}}, {"uniqueid": "w57909645:a44509310", "current_trial": 16, "dateTime": 1664555470285, "trialdata": {"revealed_states": [], "num_clicks_accrued": [0, 0, 0, 0, 0, 0, 0, 0, 0, 0, 0, 0, 0], "stateRewards": ["", -2, -4, -24, -48, -2, 8, -48, 24, 4, -4, -24, -24], "withholdReward": false, "trial_id": "mdp_915304165774", "block": "test1", "trialIndex": 9, "score": -19.25, "costs": -0.25, "simulationMode": [null, null, null], "rewards": [4, -4, -24], "path": ["0", "0", "9", "10", "11"], "rt": [1450, 21, 46], "actions": ["left", "left", "up"], "actionTimes": [2991, 3509, 4049], "queries": {"click": {"state": {"target": ["9"], "time": [2061]}, "edge": {"target": [], "time": []}}, "mouseover": {"state": {"target": ["9"], "time": [1962]}, "edge": {"target": [], "time": []}}, "mouseout": {"state": {"target": ["5", "0", "9"], "time": [1104, 1639, 2203]}, "edge": {"target": [], "time": []}}}, "displayed_time": "10.54", "trialTime": 11935, "trial_type": "mouselab-mdp", "trial_index": 16, "time_elapsed": 339567, "internal_node_id": "0.0-4.0-1.0-7.0"}}, {"uniqueid": "w57909645:a44509310", "current_trial": 17, "dateTime": 1664555482541, "trialdata": {"revealed_states": [], "num_clicks_accrued": [0, 0, 0, 0, 0, 0, 0, 0, 0, 0, 0, 0, 0], "stateRewards": ["", -4, 8, 24, 24, 2, 4, -48, 24, -2, -4, -24, -24], "withholdReward": false, "trial_id": "mdp_752328329546", "block": "test1", "trialIndex": 10, "score": 34.25, "costs": -0.75, "simulationMode": [null, null, null], "rewards": [2, 4, 24], "path": ["0", "0", "5", "6", "8"], "rt": [3169, 46, 329], "actions": ["right", "right", "down"], "actionTimes": [4337, 4880, 5705], "queries": {"click": {"state": {"target": ["9", "1", "5"], "time": [1695, 2267, 2810]}, "edge": {"target": [], "time": []}}, "mouseover": {"state": {"target": ["0", "9", "1", "5", "8", "6"], "time": [1294, 1567, 2059, 2644, 2983, 3460]}, "edge": {"target": [], "time": []}}, "mouseout": {"state": {"target": ["0", "0", "0", "9", "1", "5", "8", "6"], "time": [859, 943, 1319, 1875, 2375, 2924, 3310, 3717]}, "edge": {"target": [], "time": []}}}, "displayed_time": "10.17", "trialTime": 12178, "trial_type": "mouselab-mdp", "trial_index": 17, "time_elapsed": 351824, "internal_node_id": "0.0-4.0-1.0-8.0"}}, {"uniqueid": "w57909645:a44509310", "current_trial": 18, "dateTime": 1664555494604, "trialdata": {"revealed_states": [], "num_clicks_accrued": [0, 0, 0, 0, 0, 0, 0, 0, 0, 0, 0, 0, 0], "stateRewards": ["", 2, -4, -24, -48, -2, 8, -24, 48, -2, 8, 24, -48], "withholdReward": true, "trial_id": "mdp_566582551557", "block": "test1", "trialIndex": 11, "score": -14.25, "costs": -1.25, "simulationMode": [null, null, null], "rewards": [-2, 8, -24], "path": ["0", "0", "5", "6", "7"], "rt": [7019, 13, 62], "actions": ["right", "right", "up"], "actionTimes": [8233, 8740, 9305], "queries": {"click": {"state": {"target": ["9", "1", "4", "3", "6"], "time": [2614, 3519, 4704, 5265, 6605]}, "edge": {"target": [], "time": []}}, "mouseover": {"state": {"target": ["5", "8", "5", "9", "1", "6", "2", "4", "2", "3", "7", "2", "6"], "time": [1300, 1333, 1784, 2019, 3161, 3667, 4286, 4526, 4842, 5103, 5408, 6126, 6362]}, "edge": {"target": [], "time": []}}, "mouseout": {"state": {"target": ["0", "5", "8", "5", "9", "1", "6", "2", "4", "2", "3", "7", "2", "6", "6"], "time": [1291, 1308, 1341, 1834, 2733, 3617, 3943, 4401, 4817, 4883, 5384, 5926, 6253, 6750, 7134]}, "edge": {"target": [], "time": []}}}, "displayed_time": "9.80", "trialTime": 11981, "trial_type": "mouselab-mdp", "trial_index": 18, "time_elapsed": 363887, "internal_node_id": "0.0-4.0-1.0-9.0"}}, {"uniqueid": "w57909645:a44509310", "current_trial": 19, "dateTime": 1664555506859, "trialdata": {"revealed_states": [], "num_clicks_accrued": [0, 0, 0, 0, 0, 0, 0, 0, 0, 0, 0, 0, 0], "stateRewards": ["", 4, -8, 24, 48, 2, -4, 48, 48, 4, -8, 48, 48], "withholdReward": true, "trial_id": "mdp_962498334245", "block": "test1", "trialIndex": 12, "score": 48.25, "costs": -0.75, "simulationMode": [null, null, null], "rewards": [4, -8, 48], "path": ["0", "0", "1", "2", "4"], "rt": [6500, 48, 30], "actions": ["up", "up", "left"], "actionTimes": [8133, 8684, 9216], "queries": {"click": {"state": {"target": ["9", "1", "4"], "time": [4160, 4790, 6509]}, "edge": {"target": [], "time": []}}, "mouseover": {"state": {"target": ["0", "9", "4", "9", "1", "7", "7", "5", "2", "4", "2", "3"], "time": [2428, 3019, 3645, 3995, 4376, 4909, 5479, 5901, 6220, 6318, 6617, 6784]}, "edge": {"target": [], "time": []}}, "mouseout": {"state": {"target": ["6", "5", "0", "0", "9", "4", "9", "1", "7", "7", "5", "2", "4", "2", "3"], "time": [1235, 1376, 1745, 2443, 3172, 3678, 4292, 4876, 4917, 5512, 6128, 6261, 6600, 6634, 7428]}, "edge": {"target": [], "time": []}}}, "displayed_time": "10.63", "trialTime": 12169, "trial_type": "mouselab-mdp", "trial_index": 19, "time_elapsed": 376142, "internal_node_id": "0.0-4.0-1.0-10.0"}}, {"uniqueid": "w57909645:a44509310", "current_trial": 20, "dateTime": 1664555519928, "trialdata": {"revealed_states": [], "num_clicks_accrued": [0, 0, 0, 0, 0, 0, 0, 0, 0, 0, 0, 0, 0], "stateRewards": ["", -2, 8, -48, 48, -4, 8, -24, 24, 4, -4, 24, -48], "withholdReward": true, "trial_id": "mdp_904238083902", "block": "test1", "trialIndex": 13, "score": 28, "costs": -1, "simulationMode": [null, null, null], "rewards": [4, -4, 24], "path": ["0", "0", "9", "10", "11"], "rt": [5084, 22, 38], "actions": ["left", "left", "up"], "actionTimes": [8486, 9005, 9537], "queries": {"click": {"state": {"target": ["1", "9", "11", "12"], "time": [4833, 6014, 6922, 7558]}, "edge": {"target": [], "time": []}}, "mouseover": {"state": {"target": ["0", "0", "1", "2", "1", "0", "9", "0", "5", "0", "10", "11", "10", "12", "12"], "time": [3464, 3847, 4201, 4275, 4615, 5064, 5858, 6172, 6414, 6514, 6606, 6833, 7089, 7172, 7281]}, "edge": {"target": [], "time": []}}, "mouseout": {"state": {"target": ["0", "0", "1", "2", "1", "0", "9", "0", "5", "0", "9", "10", "11", "10", "12", "12"], "time": [3505, 3881, 4249, 4558, 4980, 5250, 6131, 6322, 6472, 6539, 6581, 6750, 7039, 7148, 7181, 7681]}, "edge": {"target": [], "time": []}}}, "displayed_time": "11.41", "trialTime": 12982, "trial_type": "mouselab-mdp", "trial_index": 20, "time_elapsed": 389210, "internal_node_id": "0.0-4.0-1.0-11.0"}}, {"uniqueid": "w57909645:a44509310", "current_trial": 21, "dateTime": 1664555531175, "trialdata": {"revealed_states": [], "num_clicks_accrued": [0, 0, 0, 0, 0, 0, 0, 0, 0, 0, 0, 0, 0], "stateRewards": ["", -4, -8, -24, 24, 2, 8, 24, 48, 2, 4, 24, -48], "withholdReward": false, "trial_id": "mdp_122352383932", "block": "test1", "trialIndex": 14, "score": 34.25, "costs": -0.75, "simulationMode": [null, null, null], "rewards": [2, 4, 24], "path": ["0", "0", "9", "10", "11"], "rt": [3495, 20, 71], "actions": ["left", "left", "up"], "actionTimes": [4831, 5354, 5931], "queries": {"click": {"state": {"target": ["9", "11", "12"], "time": [2101, 2782, 3925]}, "edge": {"target": [], "time": []}}, "mouseover": {"state": {"target": ["9", "11", "10", "12"], "time": [1807, 2583, 2923, 3115]}, "edge": {"target": [], "time": []}}, "mouseout": {"state": {"target": ["0", "9", "9", "11", "10", "12"], "time": [1435, 2240, 2524, 2898, 2990, 4023]}, "edge": {"target": [], "time": []}}}, "displayed_time": "9.34", "trialTime": 11171, "trial_type": "mouselab-mdp", "trial_index": 21, "time_elapsed": 400458, "internal_node_id": "0.0-4.0-1.0-12.0"}}, {"uniqueid": "w57909645:a44509310", "current_trial": 22, "dateTime": 1664555543240, "trialdata": {"revealed_states": [], "num_clicks_accrued": [0, 0, 0, 0, 0, 0, 0, 0, 0, 0, 0, 0, 0], "stateRewards": ["", -4, -8, -48, 48, -2, 8, 48, 48, -2, -4, -48, -48], "withholdReward": false, "trial_id": "mdp_752833580638", "block": "test1", "trialIndex": 15, "score": 57.5, "costs": -1.5, "simulationMode": [null, null, null], "rewards": [-2, 8, 48], "path": ["0", "0", "5", "6", "8"], "rt": [7440, 11, 67], "actions": ["right", "right", "down"], "actionTimes": [8672, 9183, 9756], "queries": {"click": {"state": {"target": ["9", "1", "5", "11", "12", "8"], "time": [2857, 3517, 4616, 5487, 5977, 6646]}, "edge": {"target": [], "time": []}}, "mouseover": {"state": {"target": ["0", "0", "9", "1", "6", "5", "10", "11", "10", "12", "8", "8", "6", "7"], "time": [1364, 1721, 2689, 3314, 4270, 4538, 5080, 5362, 5637, 5828, 6295, 6539, 6795, 7062]}, "edge": {"target": [], "time": []}}, "mouseout": {"state": {"target": ["0", "0", "0", "9", "1", "6", "5", "9", "10", "11", "10", "12", "8", "8", "6", "7"], "time": [1129, 1389, 2638, 3039, 3787, 4463, 4831, 5063, 5179, 5604, 5728, 6054, 6354, 6762, 6962, 7240]}, "edge": {"target": [], "time": []}}}, "displayed_time": "10.26", "trialTime": 11988, "trial_type": "mouselab-mdp", "trial_index": 22, "time_elapsed": 412522, "internal_node_id": "0.0-4.0-1.0-13.0"}}, {"uniqueid": "w57909645:a44509310", "current_trial": 23, "dateTime": 1664555554816, "trialdata": {"revealed_states": [], "num_clicks_accrued": [0, 0, 0, 0, 0, 0, 0, 0, 0, 0, 0, 0, 0], "stateRewards": ["", -4, 8, -24, -24, 2, 4, 48, 48, -2, 4, 24, -48], "withholdReward": true, "trial_id": "mdp_397308196941", "block": "test1", "trialIndex": 16, "score": 58, "costs": -1, "simulationMode": [null, null, null], "rewards": [2, 4, 48], "path": ["0", "0", "5", "6", "7"], "rt": [3922, 711, 129], "actions": ["right", "right", "up"], "actionTimes": [5013, 6225, 6853], "queries": {"click": {"state": {"target": ["9", "1", "5", "7"], "time": [1803, 2565, 3052, 3799]}, "edge": {"target": [], "time": []}}, "mouseover": {"state": {"target": ["9", "0", "1", "5", "6", "7", "6"], "time": [1423, 2264, 2322, 2740, 3564, 3672, 3963]}, "edge": {"target": [], "time": []}}, "mouseout": {"state": {"target": ["6", "5", "0", "9", "0", "1", "5", "6", "7", "6"], "time": [779, 814, 1357, 1939, 2280, 2690, 3171, 3597, 3913, 4124]}, "edge": {"target": [], "time": []}}}, "displayed_time": "10.09", "trialTime": 11505, "trial_type": "mouselab-mdp", "trial_index": 23, "time_elapsed": 424098, "internal_node_id": "0.0-4.0-1.0-14.0"}}, {"uniqueid": "w57909645:a44509310", "current_trial": 24, "dateTime": 1664555564924, "trialdata": {"revealed_states": [], "num_clicks_accrued": [0, 0, 0, 0, 0, 0, 0, 0, 0, 0, 0, 0, 0], "stateRewards": ["", 4, 4, 48, -48, -2, -8, -48, -24, 2, 4, -24, -48], "withholdReward": true, "trial_id": "mdp_239929662917", "block": "test1", "trialIndex": 17, "score": 59.5, "costs": -1.5, "simulationMode": [null, null, null], "rewards": [4, 4, 48], "path": ["0", "0", "1", "2", "3"], "rt": [5386, 531, 258], "actions": ["up", "up", "right"], "actionTimes": [6545, 7577, 8337], "queries": {"click": {"state": {"target": ["9", "11", "12", "1", "4", "3"], "time": [2019, 3010, 3369, 4464, 4970, 5483]}, "edge": {"target": [], "time": []}}, "mouseover": {"state": {"target": ["0", "0", "9", "1", "2", "4", "11", "10", "12", "1", "2", "1", "4", "2", "3", "7"], "time": [1227, 1612, 1960, 2604, 2652, 2718, 2793, 3160, 3210, 3886, 4129, 4329, 4893, 5118, 5302, 5760]}, "edge": {"target": [], "time": []}}, "mouseout": {"state": {"target": ["8", "5", "0", "0", "9", "1", "2", "4", "11", "10", "12", "9", "1", "2", "1", "4", "2", "3"], "time": [718, 751, 1234, 1629, 2220, 2636, 2702, 2752, 3135, 3185, 3637, 3752, 4054, 4304, 4785, 5085, 5160, 5577]}, "edge": {"target": [], "time": []}}}, "displayed_time": "8.84", "trialTime": 10033, "trial_type": "mouselab-mdp", "trial_index": 24, "time_elapsed": 434206, "internal_node_id": "0.0-4.0-1.0-15.0"}}, {"uniqueid": "w57909645:a44509310", "current_trial": 25, "dateTime": 1664555577263, "trialdata": {"revealed_states": [], "num_clicks_accrued": [0, 0, 0, 0, 0, 0, 0, 0, 0, 0, 0, 0, 0], "stateRewards": ["", 4, 4, 48, -48, 4, 4, -48, 24, 2, 8, 24, -48], "withholdReward": true, "trial_id": "mdp_291674656283", "block": "test1", "trialIndex": 18, "score": 60, "costs": -1, "simulationMode": [null, null, null], "rewards": [4, 4, 48], "path": ["0", "0", "1", "2", "3"], "rt": [4382, 100, 160], "actions": ["up", "up", "right"], "actionTimes": [6311, 6907, 7567], "queries": {"click": {"state": {"target": ["9", "1", "4", "3"], "time": [2492, 2975, 4811, 5316]}, "edge": {"target": [], "time": []}}, "mouseover": {"state": {"target": ["0", "9", "1", "5", "2", "2", "4", "2", "3", "7", "7"], "time": [2009, 2374, 2863, 3540, 4232, 4514, 4706, 4964, 5097, 5565, 5841]}, "edge": {"target": [], "time": []}}, "mouseout": {"state": {"target": ["7", "0", "0", "9", "1", "5", "2", "2", "4", "2", "3", "7"], "time": [1324, 1765, 2033, 2655, 3320, 3967, 4257, 4690, 4939, 5047, 5423, 5639]}, "edge": {"target": [], "time": []}}}, "displayed_time": "10.93", "trialTime": 12267, "trial_type": "mouselab-mdp", "trial_index": 25, "time_elapsed": 446546, "internal_node_id": "0.0-4.0-1.0-16.0"}}, {"uniqueid": "w57909645:a44509310", "current_trial": 26, "dateTime": 1664555590055, "trialdata": {"revealed_states": [], "num_clicks_accrued": [0, 0, 0, 0, 0, 0, 0, 0, 0, 0, 0, 0, 0], "stateRewards": ["", -4, 8, -24, 24, -2, -8, 24, -24, 4, -4, -48, 48], "withholdReward": false, "trial_id": "mdp_297684722007", "block": "test1", "trialIndex": 19, "score": 52, "costs": -1, "simulationMode": [null, null, null], "rewards": [4, -4, 48], "path": ["0", "0", "9", "10", "12"], "rt": [3737, 100, 31], "actions": ["left", "left", "down"], "actionTimes": [4989, 5585, 6116], "queries": {"click": {"state": {"target": ["9", "1", "11", "12"], "time": [1814, 2256, 3197, 3910]}, "edge": {"target": [], "time": []}}, "mouseover": {"state": {"target": ["9", "1", "11", "10", "12"], "time": [1692, 2092, 3066, 3399, 3708]}, "edge": {"target": [], "time": []}}, "mouseout": {"state": {"target": ["7", "0", "9", "1", "11", "10", "12"], "time": [550, 1634, 2000, 2692, 3333, 3608, 4016]}, "edge": {"target": [], "time": []}}}, "displayed_time": "10.25", "trialTime": 12701, "trial_type": "mouselab-mdp", "trial_index": 26, "time_elapsed": 459338, "internal_node_id": "0.0-4.0-1.0-17.0"}}, {"uniqueid": "w57909645:a44509310", "current_trial": 27, "dateTime": 1664555602551, "trialdata": {"revealed_states": [], "num_clicks_accrued": [0, 0, 0, 0, 0, 0, 0, 0, 0, 0, 0, 0, 0], "stateRewards": ["", 2, -4, 24, 24, 2, 4, 24, 24, -4, 8, 24, 48], "withholdReward": false, "trial_id": "mdp_268430387178", "block": "test1", "trialIndex": 20, "score": 56.5, "costs": -0.5, "simulationMode": [null, null, null], "rewards": [-4, 8, 48], "path": ["0", "0", "9", "10", "12"], "rt": [3554, 108, 178], "actions": ["left", "left", "down"], "actionTimes": [5379, 5983, 6662], "queries": {"click": {"state": {"target": ["11", "12"], "time": [2632, 3339]}, "edge": {"target": [], "time": []}}, "mouseover": {"state": {"target": ["0", "9", "11", "10", "12", "9", "2", "1", "9"], "time": [1952, 2276, 2533, 2884, 3101, 3524, 3624, 4377, 4591]}, "edge": {"target": [], "time": []}}, "mouseout": {"state": {"target": ["5", "0", "9", "11", "10", "12", "9", "2", "1"], "time": [1600, 2043, 2301, 2792, 3050, 3474, 3540, 4318, 4425]}, "edge": {"target": [], "time": []}}}, "displayed_time": "10.83", "trialTime": 12411, "trial_type": "mouselab-mdp", "trial_index": 27, "time_elapsed": 471834, "internal_node_id": "0.0-4.0-1.0-18.0"}}, {"uniqueid": "w57909645:a44509310", "current_trial": 28, "dateTime": 1664555613051, "trialdata": {"revealed_states": [], "num_clicks_accrued": [0, 0, 0, 0, 0, 0, 0, 0, 0, 0, 0, 0, 0], "stateRewards": ["", 4, -8, -48, 48, -2, 8, -48, 48, -2, -4, 24, -48], "withholdReward": false, "trial_id": "mdp_400558136089", "block": "test1", "trialIndex": 21, "score": 48.25, "costs": -0.75, "simulationMode": [null, null, null], "rewards": [4, -8, 48], "path": ["0", "0", "1", "2", "4"], "rt": [3061, 116, 98], "actions": ["up", "up", "left"], "actionTimes": [4132, 4748, 5347], "queries": {"click": {"state": {"target": ["12", "11", "4"], "time": [1656, 2229, 2749]}, "edge": {"target": [], "time": []}}, "mouseover": {"state": {"target": ["0", "12", "10", "11", "4", "2", "3"], "time": [1191, 1556, 1764, 2007, 2580, 2897, 3191]}, "edge": {"target": [], "time": []}}, "mouseout": {"state": {"target": ["9", "0", "12", "10", "11", "4", "2", "3"], "time": [732, 1225, 1739, 1797, 2372, 2856, 3047, 3216]}, "edge": {"target": [], "time": []}}}, "displayed_time": "9.07", "trialTime": 10416, "trial_type": "mouselab-mdp", "trial_index": 28, "time_elapsed": 482334, "internal_node_id": "0.0-4.0-1.0-19.0"}}, {"uniqueid": "w57909645:a44509310", "current_trial": 29, "dateTime": 1664555624764, "trialdata": {"revealed_states": [], "num_clicks_accrued": [0, 0, 0, 0, 0, 0, 0, 0, 0, 0, 0, 0, 0], "stateRewards": ["", 4, 4, 24, 24, 4, -4, 48, 48, 4, 4, 24, -48], "withholdReward": true, "trial_id": "mdp_454251689008", "block": "test1", "trialIndex": 22, "score": 51.75, "costs": -1.25, "simulationMode": [null, null, null], "rewards": [4, -4, 48], "path": ["0", "0", "5", "6", "7"], "rt": [3659, 19, 46], "actions": ["right", "right", "up"], "actionTimes": [4786, 5301, 5845], "queries": {"click": {"state": {"target": ["12", "11", "4", "3", "7"], "time": [1794, 2231, 2703, 3142, 3680]}, "edge": {"target": [], "time": []}}, "mouseover": {"state": {"target": ["9", "9", "10", "12", "10", "11", "4", "2", "3", "7", "8"], "time": [1273, 1323, 1423, 1681, 1972, 2114, 2589, 2814, 3026, 3347, 3997]}, "edge": {"target": [], "time": []}}, "mouseout": {"state": {"target": ["0", "9", "9", "10", "12", "10", "11", "4", "2", "3", "7", "8"], "time": [990, 1281, 1365, 1556, 1922, 2055, 2364, 2789, 2872, 3289, 3789, 4209]}, "edge": {"target": [], "time": []}}}, "displayed_time": "10.13", "trialTime": 11618, "trial_type": "mouselab-mdp", "trial_index": 29, "time_elapsed": 494046, "internal_node_id": "0.0-4.0-1.0-20.0"}}, {"uniqueid": "w57909645:a44509310", "current_trial": 30, "dateTime": 1664555635617, "trialdata": {"revealed_states": [], "num_clicks_accrued": [0, 0, 0, 0, 0, 0, 0, 0, 0, 0, 0, 0, 0], "stateRewards": ["", -4, -8, 24, -48, 2, 4, -48, -48, 2, -8, 24, 48], "withholdReward": true, "trial_id": "mdp_111262146724", "block": "test1", "trialIndex": 23, "score": 46.75, "costs": -0.25, "simulationMode": [null, null, null], "rewards": [2, -8, 48], "path": ["0", "0", "9", "10", "12"], "rt": [2290, 21, 33], "actions": ["left", "left", "down"], "actionTimes": [3266, 3789, 4317], "queries": {"click": {"state": {"target": ["12"], "time": [1614]}, "edge": {"target": [], "time": []}}, "mouseover": {"state": {"target": ["9", "10", "12", "10", "11"], "time": [1066, 1199, 1468, 1750, 1841]}, "edge": {"target": [], "time": []}}, "mouseout": {"state": {"target": ["5", "0", "9", "10", "12", "10", "11", "10", "12"], "time": [708, 1042, 1124, 1266, 1725, 1800, 2059, 5618, 9954]}, "edge": {"target": [], "time": []}}}, "displayed_time": "8.98", "trialTime": 10763, "trial_type": "mouselab-mdp", "trial_index": 30, "time_elapsed": 504899, "internal_node_id": "0.0-4.0-1.0-21.0"}}, {"uniqueid": "w57909645:a44509310", "current_trial": 31, "dateTime": 1664555646356, "trialdata": {"revealed_states": [], "num_clicks_accrued": [0, 0, 0, 0, 0, 0, 0, 0, 0, 0, 0, 0, 0], "stateRewards": ["", 2, -4, 48, 24, 2, 8, 24, 24, -2, 4, 24, 24], "withholdReward": true, "trial_id": "mdp_813974524300", "block": "test1", "trialIndex": 24, "score": 50, "costs": -1, "simulationMode": [null, null, null], "rewards": [2, -4, 48], "path": ["0", "0", "1", "2", "3"], "rt": [3098, 31, 123], "actions": ["up", "up", "right"], "actionTimes": [4437, 4964, 5589], "queries": {"click": {"state": {"target": ["12", "11", "4", "3"], "time": [2042, 2523, 2916, 3433]}, "edge": {"target": [], "time": []}}, "mouseover": {"state": {"target": ["9", "12", "11", "4", "2", "3"], "time": [1699, 1783, 2382, 2732, 3132, 3274]}, "edge": {"target": [], "time": []}}, "mouseout": {"state": {"target": ["0", "9", "12", "11", "4", "2", "3"], "time": [1668, 1724, 2165, 2657, 3049, 3224, 3540]}, "edge": {"target": [], "time": []}}}, "displayed_time": "9.34", "trialTime": 10649, "trial_type": "mouselab-mdp", "trial_index": 31, "time_elapsed": 515638, "internal_node_id": "0.0-4.0-1.0-22.0"}}, {"uniqueid": "w57909645:a44509310", "current_trial": 32, "dateTime": 1664555657020, "trialdata": {"revealed_states": [], "num_clicks_accrued": [0, 0, 0, 0, 0, 0, 0, 0, 0, 0, 0, 0, 0], "stateRewards": ["", -2, -8, 24, -24, 4, -8, 48, 48, -4, -8, -24, -48], "withholdReward": true, "trial_id": "mdp_286767261523", "block": "test1", "trialIndex": 25, "score": 47.75, "costs": -1.25, "simulationMode": [null, null, null], "rewards": [4, -8, 48], "path": ["0", "0", "5", "6", "7"], "rt": [3945, 52, 111], "actions": ["right", "right", "up"], "actionTimes": [5317, 5868, 6477], "queries": {"click": {"state": {"target": ["12", "11", "4", "3", "7"], "time": [1852, 2859, 3250, 3726, 4322]}, "edge": {"target": [], "time": []}}, "mouseover": {"state": {"target": ["9", "10", "12", "10", "11", "4", "2", "3", "7"], "time": [1567, 1649, 1682, 1997, 2461, 3166, 3398, 3589, 4249]}, "edge": {"target": [], "time": []}}, "mouseout": {"state": {"target": ["6", "5", "0", "9", "10", "12", "10", "11", "4", "2", "3", "7"], "time": [898, 973, 1534, 1615, 1657, 1972, 2039, 3007, 3364, 3498, 3798, 4431]}, "edge": {"target": [], "time": []}}}, "displayed_time": "9.37", "trialTime": 10577, "trial_type": "mouselab-mdp", "trial_index": 32, "time_elapsed": 526302, "internal_node_id": "0.0-4.0-1.0-23.0"}}, {"uniqueid": "w57909645:a44509310", "current_trial": 33, "dateTime": 1664555667664, "trialdata": {"revealed_states": [], "num_clicks_accrued": [0, 0, 0, 0, 0, 0, 0, 0, 0, 0, 0, 0, 0], "stateRewards": ["", -4, -8, 24, 48, 2, -4, -24, 24, -4, 8, 48, 48], "withholdReward": true, "trial_id": "mdp_496672670022", "block": "test1", "trialIndex": 26, "score": 56.75, "costs": -0.25, "simulationMode": [null, null, null], "rewards": [-4, 8, 48], "path": ["0", "0", "9", "10", "12"], "rt": [1625, 32, 491], "actions": ["left", "left", "down"], "actionTimes": [3032, 3559, 4559], "queries": {"click": {"state": {"target": ["12"], "time": [1899]}, "edge": {"target": [], "time": []}}, "mouseover": {"state": {"target": ["12", "11"], "time": [1742, 2301]}, "edge": {"target": [], "time": []}}, "mouseout": {"state": {"target": ["8", "0", "12"], "time": [911, 1584, 1975]}, "edge": {"target": [], "time": []}}}, "displayed_time": "9.41", "trialTime": 10564, "trial_type": "mouselab-mdp", "trial_index": 33, "time_elapsed": 536946, "internal_node_id": "0.0-4.0-1.0-24.0"}}, {"uniqueid": "w57909645:a44509310", "current_trial": 34, "dateTime": 1664555678804, "trialdata": {"revealed_states": [], "num_clicks_accrued": [0, 0, 0, 0, 0, 0, 0, 0, 0, 0, 0, 0, 0], "stateRewards": ["", -4, -8, 48, -48, 2, -4, 48, -24, 2, -8, -48, -48], "withholdReward": true, "trial_id": "mdp_624553692913", "block": "test1", "trialIndex": 27, "score": 40, "costs": -1, "simulationMode": [null, null, null], "rewards": [-4, -8, 48], "path": ["0", "0", "1", "2", "3"], "rt": [2694, 5, 29], "actions": ["up", "up", "right"], "actionTimes": [4316, 4819, 5359], "queries": {"click": {"state": {"target": ["12", "11", "4", "3"], "time": [2038, 2467, 2867, 3397]}, "edge": {"target": [], "time": []}}, "mouseover": {"state": {"target": ["12", "10", "11", "4", "2", "3"], "time": [1865, 2196, 2279, 2746, 2979, 3254]}, "edge": {"target": [], "time": []}}, "mouseout": {"state": {"target": ["11", "0", "12", "10", "11", "4", "2", "3"], "time": [781, 1758, 2163, 2238, 2571, 2954, 3029, 3504]}, "edge": {"target": [], "time": []}}}, "displayed_time": "10.62", "trialTime": 11056, "trial_type": "mouselab-mdp", "trial_index": 34, "time_elapsed": 548087, "internal_node_id": "0.0-4.0-1.0-25.0"}}, {"uniqueid": "w57909645:a44509310", "current_trial": 35, "dateTime": 1664555690353, "trialdata": {"revealed_states": [], "num_clicks_accrued": [0, 0, 0, 0, 0, 0, 0, 0, 0, 0, 0, 0, 0], "stateRewards": ["", 2, -8, 24, -48, 2, 4, 48, -48, -2, -8, -48, 48], "withholdReward": true, "trial_id": "mdp_629420544881", "block": "test1", "trialIndex": 28, "score": 42.75, "costs": -0.25, "simulationMode": [null, null, null], "rewards": [-2, -8, 48], "path": ["0", "0", "9", "10", "12"], "rt": [1659, 407, 99], "actions": ["left", "left", "down"], "actionTimes": [2596, 3504, 4105], "queries": {"click": {"state": {"target": ["12"], "time": [1561]}, "edge": {"target": [], "time": []}}, "mouseover": {"state": {"target": ["9", "12", "10", "11"], "time": [1055, 1429, 1713, 1813]}, "edge": {"target": [], "time": []}}, "mouseout": {"state": {"target": ["9", "0", "9", "12", "10", "11", "10"], "time": [279, 1030, 1071, 1688, 1755, 9875, 9892]}, "edge": {"target": [], "time": []}}}, "displayed_time": "9.94", "trialTime": 11462, "trial_type": "mouselab-mdp", "trial_index": 35, "time_elapsed": 559635, "internal_node_id": "0.0-4.0-1.0-26.0"}}, {"uniqueid": "w57909645:a44509310", "current_trial": 36, "dateTime": 1664555701299, "trialdata": {"revealed_states": [], "num_clicks_accrued": [0, 0, 0, 0, 0, 0, 0, 0, 0, 0, 0, 0, 0], "stateRewards": ["", 2, -8, 24, -24, -2, 8, -48, -48, 2, -8, -24, -48], "withholdReward": true, "trial_id": "mdp_744278669205", "block": "test1", "trialIndex": 29, "score": 21.5, "costs": -1.5, "simulationMode": [null, null, null], "rewards": [2, -8, 24], "path": ["0", "0", "1", "2", "3"], "rt": [5627, 411, 63], "actions": ["up", "up", "right"], "actionTimes": [6296, 7208, 7768], "queries": {"click": {"state": {"target": ["12", "11", "4", "3", "7", "8"], "time": [1617, 2021, 2558, 3077, 3804, 4304]}, "edge": {"target": [], "time": []}}, "mouseover": {"state": {"target": ["12", "10", "11", "4", "2", "3", "7", "8"], "time": [1514, 1779, 1838, 2436, 2686, 3003, 3681, 4204]}, "edge": {"target": [], "time": []}}, "mouseout": {"state": {"target": ["0", "12", "10", "11", "4", "2", "3", "7", "8"], "time": [872, 1754, 1813, 2128, 2661, 2770, 3203, 3920, 4614]}, "edge": {"target": [], "time": []}}}, "displayed_time": "9.67", "trialTime": 10864, "trial_type": "mouselab-mdp", "trial_index": 36, "time_elapsed": 570582, "internal_node_id": "0.0-4.0-1.0-27.0"}}, {"uniqueid": "w57909645:a44509310", "current_trial": 37, "dateTime": 1664555712923, "trialdata": {"revealed_states": [], "num_clicks_accrued": [0, 0, 0, 0, 0, 0, 0, 0, 0, 0, 0, 0, 0], "stateRewards": ["", 2, 4, 48, 48, -2, 4, 48, -24, -4, 8, -48, 48], "withholdReward": true, "trial_id": "mdp_407586865939", "block": "test1", "trialIndex": 30, "score": 56.75, "costs": -0.25, "simulationMode": [null, null, null], "rewards": [-4, 8, 48], "path": ["0", "0", "9", "10", "12"], "rt": [1308, 8, 317], "actions": ["left", "left", "down"], "actionTimes": [2654, 3165, 3990], "queries": {"click": {"state": {"target": ["12"], "time": [1744]}, "edge": {"target": [], "time": []}}, "mouseover": {"state": {"target": ["12", "10"], "time": [1596, 2038]}, "edge": {"target": [], "time": []}}, "mouseout": {"state": {"target": ["6", "0", "12"], "time": [980, 1438, 1974]}, "edge": {"target": [], "time": []}}}, "displayed_time": "10.35", "trialTime": 11537, "trial_type": "mouselab-mdp", "trial_index": 37, "time_elapsed": 582206, "internal_node_id": "0.0-4.0-1.0-28.0"}}, {"uniqueid": "w57909645:a44509310", "current_trial": 38, "dateTime": 1664555727136, "trialdata": {"revealed_states": [], "num_clicks_accrued": [0, 0, 0, 0, 0, 0, 0, 0, 0, 0, 0, 0, 0], "stateRewards": ["", -2, 4, -24, 24, -4, -8, 24, -48, -4, -4, -48, -24], "withholdReward": true, "trial_id": "mdp_753137520419", "block": "test1", "trialIndex": 31, "score": 28.5, "costs": -2.5, "simulationMode": [null, null, null], "rewards": [-2, 4, 24], "path": ["0", "0", "1", "2", "4"], "rt": [8800, 51, 351], "actions": ["up", "up", "left"], "actionTimes": [11612, 12163, 13012], "queries": {"click": {"state": {"target": ["12", "11", "4", "3", "7", "8", "1", "5", "2", "6"], "time": [4036, 4482, 4937, 5368, 5832, 6317, 8109, 8451, 9286, 10802]}, "edge": {"target": [], "time": []}}, "mouseover": {"state": {"target": ["5", "0", "9", "10", "12", "10", "11", "4", "2", "3", "7", "6", "8", "6", "1", "5", "6", "2", "6", "6"], "time": [2950, 3518, 3668, 3776, 3934, 4194, 4402, 4742, 5059, 5134, 5742, 6010, 6209, 7719, 7936, 8243, 8568, 9177, 9660, 10678]}, "edge": {"target": [], "time": []}}, "mouseout": {"state": {"target": ["10", "9", "0", "0", "5", "0", "9", "10", "12", "10", "11", "4", "2", "3", "7", "6", "8", "6", "1", "5", "6", "7", "1", "2", "6", "6"], "time": [2382, 2426, 2459, 2934, 2967, 3626, 3727, 3801, 4152, 4318, 4642, 5034, 5092, 5509, 5968, 6143, 6443, 7752, 8210, 8552, 8626, 8910, 9035, 9418, 10296, 10902]}, "edge": {"target": [], "time": []}}}, "displayed_time": "13.51", "trialTime": 14152, "trial_type": "mouselab-mdp", "trial_index": 38, "time_elapsed": 596418, "internal_node_id": "0.0-4.0-1.0-29.0"}}, {"uniqueid": "w57909645:a44509310", "current_trial": 39, "dateTime": 1664555736629, "trialdata": {"rt": 9485, "stimulus": "<h1> End of block! </h1>\n\nYou have reached the end of the block 1/4. If you need a short break, feel free to take one now before moving on.\n\n<br><br>\nIn the next block, you will complete another 30 rounds of this game.\n\n<br><br>\n<div style='text-align: center;'>Press <code>space</code> to begin.</div>\n<br><br>\n<div style='text-align: center;'>(If the experiment doesn't continue, try clicking on the text and then pressing <code>space</code>.)</div>", "response": " ", "trial_id": "mdp_ready_2", "trial_type": "html-keyboard-response", "trial_index": 39, "time_elapsed": 605912, "internal_node_id": "0.0-4.0-2.0"}}, {"uniqueid": "w57909645:a44509310", "current_trial": 40, "dateTime": 1664555748003, "trialdata": {"revealed_states": [], "num_clicks_accrued": [0, 0, 0, 0, 0, 0, 0, 0, 0, 0, 0, 0, 0], "stateRewards": ["", -2, -4, -24, -48, -2, 8, -48, 24, 4, -4, -24, -24], "withholdReward": true, "trial_id": "mdp_915304165774", "block": "test2", "trialIndex": 32, "score": 33.5, "costs": -1.5, "simulationMode": [null, null, null], "rewards": [-2, 8, 24], "path": ["0", "0", "5", "6", "8"], "rt": [4764, 383, 68], "actions": ["right", "right", "down"], "actionTimes": [6339, 7218, 7787], "queries": {"click": {"state": {"target": ["12", "11", "4", "3", "7", "8"], "time": [2615, 3115, 3521, 3996, 4376, 4869]}, "edge": {"target": [], "time": []}}, "mouseover": {"state": {"target": ["0", "5", "8", "0", "9", "10", "12", "10", "11", "4", "2", "3", "7", "6", "8"], "time": [1634, 1659, 1742, 2052, 2268, 2384, 2492, 2800, 2934, 3484, 3667, 3776, 4259, 4659, 4726]}, "edge": {"target": [], "time": []}}, "mouseout": {"state": {"target": ["5", "0", "0", "5", "8", "0", "9", "10", "12", "10", "11", "4", "2", "3", "7", "6", "8"], "time": [1209, 1418, 1642, 1667, 1936, 2228, 2335, 2417, 2759, 2842, 3226, 3642, 3726, 4092, 4492, 4676, 4968]}, "edge": {"target": [], "time": []}}}, "displayed_time": "10.58", "trialTime": 11283, "trial_type": "mouselab-mdp", "trial_index": 40, "time_elapsed": 617286, "internal_node_id": "0.0-4.0-3.0-0.0"}}, {"uniqueid": "w57909645:a44509310", "current_trial": 41, "dateTime": 1664555758671, "trialdata": {"revealed_states": [], "num_clicks_accrued": [0, 0, 0, 0, 0, 0, 0, 0, 0, 0, 0, 0, 0], "stateRewards": ["", -2, 8, 48, 48, 4, -8, -48, 48, 2, -4, -48, 48], "withholdReward": true, "trial_id": "mdp_132958048709", "block": "test2", "trialIndex": 33, "score": 50.75, "costs": -0.25, "simulationMode": [null, null, null], "rewards": [2, -4, 48], "path": ["0", "0", "9", "10", "12"], "rt": [1785, 22, 58], "actions": ["left", "left", "down"], "actionTimes": [2638, 3161, 3714], "queries": {"click": {"state": {"target": ["12"], "time": [1528]}, "edge": {"target": [], "time": []}}, "mouseover": {"state": {"target": ["12", "12", "10", "11"], "time": [1105, 1404, 1671, 1746]}, "edge": {"target": [], "time": []}}, "mouseout": {"state": {"target": ["5", "0", "12", "12", "10"], "time": [556, 1006, 1138, 1637, 1713]}, "edge": {"target": [], "time": []}}}, "displayed_time": "9.85", "trialTime": 10578, "trial_type": "mouselab-mdp", "trial_index": 41, "time_elapsed": 627954, "internal_node_id": "0.0-4.0-3.0-1.0"}}, {"uniqueid": "w57909645:a44509310", "current_trial": 42, "dateTime": 1664555769888, "trialdata": {"revealed_states": [], "num_clicks_accrued": [0, 0, 0, 0, 0, 0, 0, 0, 0, 0, 0, 0, 0], "stateRewards": ["", -4, 4, -24, 48, 2, 4, -48, 24, 4, -8, -24, 24], "withholdReward": false, "trial_id": "mdp_740130150937", "block": "test2", "trialIndex": 34, "score": 52.25, "costs": -0.75, "simulationMode": [null, null, null], "rewards": [-4, 4, 48], "path": ["0", "0", "1", "2", "4"], "rt": [2540, 112, 104], "actions": ["up", "up", "left"], "actionTimes": [3293, 3900, 4501], "queries": {"click": {"state": {"target": ["12", "11", "4"], "time": [1217, 1784, 2178]}, "edge": {"target": [], "time": []}}, "mouseover": {"state": {"target": ["12", "10", "11", "4", "2"], "time": [1122, 1439, 1681, 2087, 2295]}, "edge": {"target": [], "time": []}}, "mouseout": {"state": {"target": ["11", "10", "0", "12", "10", "11", "4", "2"], "time": [305, 348, 905, 1397, 1612, 1912, 2270, 2328]}, "edge": {"target": [], "time": []}}}, "displayed_time": "9.75", "trialTime": 11133, "trial_type": "mouselab-mdp", "trial_index": 42, "time_elapsed": 639170, "internal_node_id": "0.0-4.0-3.0-2.0"}}, {"uniqueid": "w57909645:a44509310", "current_trial": 43, "dateTime": 1664555780235, "trialdata": {"revealed_states": [], "num_clicks_accrued": [0, 0, 0, 0, 0, 0, 0, 0, 0, 0, 0, 0, 0], "stateRewards": ["", 2, -8, 48, -24, -4, -8, -24, 48, -2, 4, 24, -48], "withholdReward": true, "trial_id": "mdp_186932504904", "block": "test2", "trialIndex": 35, "score": 46, "costs": -1, "simulationMode": [null, null, null], "rewards": [2, -8, 48], "path": ["0", "0", "1", "2", "3"], "rt": [2904, 44, 111], "actions": ["up", "up", "right"], "actionTimes": [4416, 4955, 5563], "queries": {"click": {"state": {"target": ["12", "11", "4", "3"], "time": [1971, 2479, 3014, 3432]}, "edge": {"target": [], "time": []}}, "mouseover": {"state": {"target": ["0", "12", "10", "11", "4", "2", "3"], "time": [1579, 1878, 2151, 2242, 2927, 3151, 3359]}, "edge": {"target": [], "time": []}}, "mouseout": {"state": {"target": ["3", "3", "1", "0", "12", "10", "11", "4", "2", "3"], "time": [928, 1160, 1217, 1669, 2117, 2192, 2584, 3118, 3326, 3560]}, "edge": {"target": [], "time": []}}}, "displayed_time": "9.51", "trialTime": 10260, "trial_type": "mouselab-mdp", "trial_index": 43, "time_elapsed": 649518, "internal_node_id": "0.0-4.0-3.0-3.0"}}, {"uniqueid": "w57909645:a44509310", "current_trial": 44, "dateTime": 1664555790847, "trialdata": {"revealed_states": [], "num_clicks_accrued": [0, 0, 0, 0, 0, 0, 0, 0, 0, 0, 0, 0, 0], "stateRewards": ["", -4, 8, 24, 24, -2, 8, -48, 48, 4, -8, 48, -48], "withholdReward": false, "trial_id": "mdp_295249220524", "block": "test2", "trialIndex": 36, "score": 48.5, "costs": -0.5, "simulationMode": [null, null, null], "rewards": [4, -8, 48], "path": ["0", "0", "9", "10", "11"], "rt": [2135, 65, 41], "actions": ["left", "left", "up"], "actionTimes": [3438, 4002, 4545], "queries": {"click": {"state": {"target": ["12", "11"], "time": [2138, 2526]}, "edge": {"target": [], "time": []}}, "mouseover": {"state": {"target": ["0", "12", "12", "10", "11"], "time": [1388, 1637, 2020, 2294, 2377]}, "edge": {"target": [], "time": []}}, "mouseout": {"state": {"target": ["7", "5", "0", "12", "12", "10", "11", "10", "12"], "time": [769, 861, 1436, 1677, 2260, 2335, 2615, 9964, 9979]}, "edge": {"target": [], "time": []}}}, "displayed_time": "9.30", "trialTime": 10530, "trial_type": "mouselab-mdp", "trial_index": 44, "time_elapsed": 660130, "internal_node_id": "0.0-4.0-3.0-4.0"}}, {"uniqueid": "w57909645:a44509310", "current_trial": 45, "dateTime": 1664555800423, "trialdata": {"revealed_states": [], "num_clicks_accrued": [0, 0, 0, 0, 0, 0, 0, 0, 0, 0, 0, 0, 0], "stateRewards": ["", -4, 8, -48, -48, -4, 4, -24, -48, 2, -4, -24, 24], "withholdReward": true, "trial_id": "mdp_183773275291", "block": "test2", "trialIndex": 37, "score": 25.5, "costs": -1.5, "simulationMode": [null, null, null], "rewards": [2, -4, 24], "path": ["0", "0", "9", "10", "12"], "rt": [4352, 401, 65], "actions": ["left", "left", "down"], "actionTimes": [4963, 5859, 6422], "queries": {"click": {"state": {"target": ["11", "12", "4", "3", "7", "8"], "time": [1615, 2148, 2742, 3101, 3538, 3923]}, "edge": {"target": [], "time": []}}, "mouseover": {"state": {"target": ["9", "9", "11", "10", "12", "9", "4", "2", "3", "7", "6", "8"], "time": [789, 1115, 1440, 1789, 2015, 2289, 2640, 2847, 2889, 3323, 3706, 3856]}, "edge": {"target": [], "time": []}}, "mouseout": {"state": {"target": ["0", "9", "9", "11", "10", "12", "9", "4", "2", "3", "7", "6", "8"], "time": [689, 1007, 1348, 1756, 1958, 2264, 2314, 2831, 2872, 3231, 3664, 3823, 4048]}, "edge": {"target": [], "time": []}}}, "displayed_time": "8.61", "trialTime": 9483, "trial_type": "mouselab-mdp", "trial_index": 45, "time_elapsed": 669706, "internal_node_id": "0.0-4.0-3.0-5.0"}}, {"uniqueid": "w57909645:a44509310", "current_trial": 46, "dateTime": 1664555810907, "trialdata": {"revealed_states": [], "num_clicks_accrued": [0, 0, 0, 0, 0, 0, 0, 0, 0, 0, 0, 0, 0], "stateRewards": ["", -4, -8, -24, 24, 2, 8, 24, 48, 2, 4, 24, -48], "withholdReward": false, "trial_id": "mdp_122352383932", "block": "test2", "trialIndex": 38, "score": 61.5, "costs": -1.5, "simulationMode": [null, null, null], "rewards": [2, 8, 48], "path": ["0", "0", "5", "6", "8"], "rt": [4334, 32, 72], "actions": ["right", "right", "down"], "actionTimes": [5164, 5697, 6278], "queries": {"click": {"state": {"target": ["12", "11", "4", "3", "7", "8"], "time": [1668, 2200, 2755, 3150, 3602, 4059]}, "edge": {"target": [], "time": []}}, "mouseover": {"state": {"target": ["12", "10", "11", "4", "2", "3", "7", "8"], "time": [1586, 1956, 2106, 2648, 2855, 2905, 3514, 3973]}, "edge": {"target": [], "time": []}}, "mouseout": {"state": {"target": ["0", "12", "10", "11", "4", "2", "3", "7", "8"], "time": [1007, 1906, 2031, 2372, 2839, 2880, 3289, 3722, 4205]}, "edge": {"target": [], "time": []}}}, "displayed_time": "8.83", "trialTime": 10406, "trial_type": "mouselab-mdp", "trial_index": 46, "time_elapsed": 680190, "internal_node_id": "0.0-4.0-3.0-6.0"}}, {"uniqueid": "w57909645:a44509310", "current_trial": 47, "dateTime": 1664555820263, "trialdata": {"revealed_states": [], "num_clicks_accrued": [0, 0, 0, 0, 0, 0, 0, 0, 0, 0, 0, 0, 0], "stateRewards": ["", 2, 8, -48, 24, -4, 8, 48, -24, 2, 8, 24, 24], "withholdReward": true, "trial_id": "mdp_175372499314", "block": "test2", "trialIndex": 39, "score": 55.75, "costs": -1.25, "simulationMode": [null, null, null], "rewards": [-4, 8, 48], "path": ["0", "0", "5", "6", "7"], "rt": [3171, 481, 66], "actions": ["right", "right", "up"], "actionTimes": [3809, 4788, 5349], "queries": {"click": {"state": {"target": ["12", "11", "4", "3", "7"], "time": [1101, 1519, 1955, 2336, 2718]}, "edge": {"target": [], "time": []}}, "mouseover": {"state": {"target": ["12", "10", "11", "4", "3", "7", "6", "8"], "time": [974, 1306, 1398, 1931, 2223, 2573, 2856, 3006]}, "edge": {"target": [], "time": []}}, "mouseout": {"state": {"target": ["0", "12", "10", "11", "4", "3", "7", "6"], "time": [825, 1264, 1348, 1664, 2089, 2423, 2814, 2939]}, "edge": {"target": [], "time": []}}}, "displayed_time": "8.64", "trialTime": 9253, "trial_type": "mouselab-mdp", "trial_index": 47, "time_elapsed": 689546, "internal_node_id": "0.0-4.0-3.0-7.0"}}, {"uniqueid": "w57909645:a44509310", "current_trial": 48, "dateTime": 1664555832232, "trialdata": {"revealed_states": [], "num_clicks_accrued": [0, 0, 0, 0, 0, 0, 0, 0, 0, 0, 0, 0, 0], "stateRewards": ["", -2, 4, -24, 24, -4, -8, 24, -48, -4, -4, -48, -24], "withholdReward": true, "trial_id": "mdp_753137520419", "block": "test2", "trialIndex": 40, "score": 28.75, "costs": -2.25, "simulationMode": [null, null, null], "rewards": [-2, 4, 24], "path": ["0", "0", "1", "2", "4"], "rt": [8952, 4, 40], "actions": ["up", "up", "left"], "actionTimes": [9732, 10231, 10775], "queries": {"click": {"state": {"target": ["12", "11", "4", "3", "7", "8", "6", "1", "2"], "time": [1685, 2064, 2427, 2946, 3316, 4128, 6647, 7188, 8100]}, "edge": {"target": [], "time": []}}, "mouseover": {"state": {"target": ["9", "12", "10", "11", "4", "2", "3", "7", "8", "8", "6", "6", "5", "1", "2", "5"], "time": [1417, 1533, 1824, 1941, 2300, 2566, 2641, 3141, 3566, 3959, 5484, 6451, 6917, 7059, 8010, 8653]}, "edge": {"target": [], "time": []}}, "mouseout": {"state": {"target": ["8", "0", "9", "12", "10", "11", "4", "2", "3", "7", "8", "8", "6", "6", "5", "1", "1", "2"], "time": [32, 1093, 1475, 1799, 1883, 2224, 2533, 2608, 3041, 3400, 3650, 4200, 5674, 6809, 6934, 7392, 7977, 8284]}, "edge": {"target": [], "time": []}}}, "displayed_time": "11.28", "trialTime": 11889, "trial_type": "mouselab-mdp", "trial_index": 48, "time_elapsed": 701515, "internal_node_id": "0.0-4.0-3.0-8.0"}}, {"uniqueid": "w57909645:a44509310", "current_trial": 49, "dateTime": 1664555843372, "trialdata": {"revealed_states": [], "num_clicks_accrued": [0, 0, 0, 0, 0, 0, 0, 0, 0, 0, 0, 0, 0], "stateRewards": ["", -2, 8, 24, -48, -2, -4, 24, 48, 2, 8, -48, -48], "withholdReward": false, "trial_id": "mdp_562228697607", "block": "test2", "trialIndex": 41, "score": 45.5, "costs": -1.5, "simulationMode": [null, null, null], "rewards": [-2, -4, 48], "path": ["0", "0", "5", "6", "8"], "rt": [4252, 323, 78], "actions": ["right", "right", "down"], "actionTimes": [6094, 6913, 7485], "queries": {"click": {"state": {"target": ["12", "11", "4", "3", "7", "8"], "time": [2268, 2580, 3000, 3861, 4262, 5002]}, "edge": {"target": [], "time": []}}, "mouseover": {"state": {"target": ["0", "12", "10", "11", "4", "2", "3", "3", "7", "7", "8", "8"], "time": [1899, 2189, 2397, 2463, 2922, 3155, 3255, 3764, 4072, 4175, 4630, 4906]}, "edge": {"target": [], "time": []}}, "mouseout": {"state": {"target": ["5", "7", "0", "12", "10", "11", "4", "2", "3", "3", "7", "7", "8", "8", "8"], "time": [790, 1130, 1981, 2372, 2430, 2797, 3105, 3222, 3364, 3980, 4105, 4380, 4655, 5081, 10692]}, "edge": {"target": [], "time": []}}}, "displayed_time": "9.84", "trialTime": 11065, "trial_type": "mouselab-mdp", "trial_index": 49, "time_elapsed": 712655, "internal_node_id": "0.0-4.0-3.0-9.0"}}, {"uniqueid": "w57909645:a44509310", "current_trial": 50, "dateTime": 1664555853774, "trialdata": {"revealed_states": [], "num_clicks_accrued": [0, 0, 0, 0, 0, 0, 0, 0, 0, 0, 0, 0, 0], "stateRewards": ["", -4, -8, 48, 48, -4, 4, 48, -24, 4, 8, -24, -48], "withholdReward": true, "trial_id": "mdp_142906093415", "block": "test2", "trialIndex": 42, "score": 40.25, "costs": -0.75, "simulationMode": [null, null, null], "rewards": [-4, -8, 48], "path": ["0", "0", "1", "2", "4"], "rt": [2758, 107, 78], "actions": ["up", "up", "left"], "actionTimes": [3715, 4321, 4899], "queries": {"click": {"state": {"target": ["12", "11", "4"], "time": [1931, 2280, 2712]}, "edge": {"target": [], "time": []}}, "mouseover": {"state": {"target": ["5", "6", "5", "0", "9", "10", "12", "10", "11", "4", "2", "3"], "time": [1095, 1153, 1356, 1404, 1445, 1487, 1837, 2078, 2137, 2620, 2829, 2878]}, "edge": {"target": [], "time": []}}, "mouseout": {"state": {"target": ["0", "5", "6", "5", "0", "9", "10", "12", "10", "11", "4", "2", "3"], "time": [828, 1128, 1323, 1387, 1412, 1470, 1520, 2053, 2103, 2395, 2812, 2853, 10252]}, "edge": {"target": [], "time": []}}}, "displayed_time": "9.96", "trialTime": 10305, "trial_type": "mouselab-mdp", "trial_index": 50, "time_elapsed": 723056, "internal_node_id": "0.0-4.0-3.0-10.0"}}, {"uniqueid": "w57909645:a44509310", "current_trial": 51, "dateTime": 1664555863607, "trialdata": {"revealed_states": [], "num_clicks_accrued": [0, 0, 0, 0, 0, 0, 0, 0, 0, 0, 0, 0, 0], "stateRewards": ["", -2, -8, 48, -24, 2, -4, -48, -24, -2, -4, -48, 48], "withholdReward": true, "trial_id": "mdp_143798438087", "block": "test2", "trialIndex": 43, "score": 46.75, "costs": -0.25, "simulationMode": [null, null, null], "rewards": [-2, -4, 48], "path": ["0", "0", "9", "10", "12"], "rt": [1937, 86, 115], "actions": ["left", "left", "down"], "actionTimes": [2493, 3081, 3693], "queries": {"click": {"state": {"target": ["12"], "time": [1421]}, "edge": {"target": [], "time": []}}, "mouseover": {"state": {"target": ["5", "1", "10", "12", "10"], "time": [610, 961, 1195, 1397, 1711]}, "edge": {"target": [], "time": []}}, "mouseout": {"state": {"target": ["0", "5", "1", "10", "12", "10"], "time": [375, 627, 1011, 1237, 1679, 1752]}, "edge": {"target": [], "time": []}}}, "displayed_time": "9.56", "trialTime": 9760, "trial_type": "mouselab-mdp", "trial_index": 51, "time_elapsed": 732889, "internal_node_id": "0.0-4.0-3.0-11.0"}}, {"uniqueid": "w57909645:a44509310", "current_trial": 52, "dateTime": 1664555874147, "trialdata": {"revealed_states": [], "num_clicks_accrued": [0, 0, 0, 0, 0, 0, 0, 0, 0, 0, 0, 0, 0], "stateRewards": ["", 4, 4, 24, 24, 4, -4, 48, 48, 4, 4, 24, -48], "withholdReward": true, "trial_id": "mdp_454251689008", "block": "test2", "trialIndex": 44, "score": 51.75, "costs": -1.25, "simulationMode": [null, null, null], "rewards": [4, -4, 48], "path": ["0", "0", "5", "6", "7"], "rt": [3962, 73, 66], "actions": ["right", "right", "up"], "actionTimes": [4940, 5512, 6080], "queries": {"click": {"state": {"target": ["12", "11", "4", "3", "7"], "time": [1738, 2126, 2545, 3038, 3920]}, "edge": {"target": [], "time": []}}, "mouseover": {"state": {"target": ["9", "12", "12", "10", "11", "4", "2", "3", "7", "7"], "time": [1280, 1317, 1646, 1929, 2046, 2462, 2637, 2938, 3478, 3822]}, "edge": {"target": [], "time": []}}, "mouseout": {"state": {"target": ["9", "0", "9", "12", "12", "10", "11", "4", "2", "3", "7", "7"], "time": [695, 1265, 1293, 1471, 1896, 1996, 2287, 2609, 2662, 3138, 3613, 4046]}, "edge": {"target": [], "time": []}}}, "displayed_time": "9.98", "trialTime": 10460, "trial_type": "mouselab-mdp", "trial_index": 52, "time_elapsed": 743430, "internal_node_id": "0.0-4.0-3.0-12.0"}}, {"uniqueid": "w57909645:a44509310", "current_trial": 53, "dateTime": 1664555884107, "trialdata": {"revealed_states": [], "num_clicks_accrued": [0, 0, 0, 0, 0, 0, 0, 0, 0, 0, 0, 0, 0], "stateRewards": ["", 2, -4, 48, 24, 2, 8, 24, 24, -2, 4, 24, 24], "withholdReward": false, "trial_id": "mdp_813974524300", "block": "test2", "trialIndex": 45, "score": 50, "costs": -1, "simulationMode": [null, null, null], "rewards": [2, -4, 48], "path": ["0", "0", "1", "2", "3"], "rt": [2952, 46, 29], "actions": ["up", "up", "right"], "actionTimes": [4293, 4836, 5360], "queries": {"click": {"state": {"target": ["12", "11", "4", "3"], "time": [2060, 2533, 2922, 3266]}, "edge": {"target": [], "time": []}}, "mouseover": {"state": {"target": ["12", "10", "11", "4", "2", "3", "7"], "time": [1955, 2213, 2497, 2880, 3055, 3138, 3680]}, "edge": {"target": [], "time": []}}, "mouseout": {"state": {"target": ["5", "0", "9", "0", "12", "10", "11", "4", "2", "3", "7"], "time": [889, 914, 1126, 1455, 2188, 2230, 2655, 3030, 3089, 3405, 9842]}, "edge": {"target": [], "time": []}}}, "displayed_time": "9.34", "trialTime": 9860, "trial_type": "mouselab-mdp", "trial_index": 53, "time_elapsed": 753390, "internal_node_id": "0.0-4.0-3.0-13.0"}}, {"uniqueid": "w57909645:a44509310", "current_trial": 54, "dateTime": 1664555893544, "trialdata": {"revealed_states": [], "num_clicks_accrued": [0, 0, 0, 0, 0, 0, 0, 0, 0, 0, 0, 0, 0], "stateRewards": ["", -2, 4, -48, 24, -4, 8, 48, 24, -2, 4, -48, -24], "withholdReward": true, "trial_id": "mdp_740882974347", "block": "test2", "trialIndex": 46, "score": 55.75, "costs": -1.25, "simulationMode": [null, null, null], "rewards": [-4, 8, 48], "path": ["0", "0", "5", "6", "7"], "rt": [3492, 71, 109], "actions": ["right", "right", "up"], "actionTimes": [4196, 4764, 5368], "queries": {"click": {"state": {"target": ["12", "11", "4", "3", "7"], "time": [1397, 1822, 2162, 2630, 3107]}, "edge": {"target": [], "time": []}}, "mouseover": {"state": {"target": ["12", "10", "11", "4", "2", "3", "7", "6", "8"], "time": [1350, 1624, 1733, 2108, 2316, 2516, 3016, 3258, 3341]}, "edge": {"target": [], "time": []}}, "mouseout": {"state": {"target": ["0", "12", "10", "11", "4", "2", "3", "7", "6", "8", "8"], "time": [883, 1599, 1674, 1966, 2266, 2399, 2749, 3216, 3299, 3667, 7484]}, "edge": {"target": [], "time": []}}}, "displayed_time": "8.71", "trialTime": 9348, "trial_type": "mouselab-mdp", "trial_index": 54, "time_elapsed": 762826, "internal_node_id": "0.0-4.0-3.0-14.0"}}, {"uniqueid": "w57909645:a44509310", "current_trial": 55, "dateTime": 1664555903976, "trialdata": {"revealed_states": [], "num_clicks_accrued": [0, 0, 0, 0, 0, 0, 0, 0, 0, 0, 0, 0, 0], "stateRewards": ["", 4, 4, 48, -48, -2, -8, -48, -24, 2, 4, -24, -48], "withholdReward": false, "trial_id": "mdp_239929662917", "block": "test2", "trialIndex": 47, "score": 60, "costs": -1, "simulationMode": [null, null, null], "rewards": [4, 4, 48], "path": ["0", "0", "1", "2", "3"], "rt": [2721, 43, 28], "actions": ["up", "up", "right"], "actionTimes": [3306, 3849, 4377], "queries": {"click": {"state": {"target": ["12", "11", "4", "3"], "time": [1052, 1511, 1867, 2247]}, "edge": {"target": [], "time": []}}, "mouseover": {"state": {"target": ["12", "10", "11", "4", "2", "3", "7"], "time": [955, 1204, 1288, 1754, 2004, 2121, 2555]}, "edge": {"target": [], "time": []}}, "mouseout": {"state": {"target": ["0", "12", "10", "11", "4", "2", "3", "7", "1", "11", "12"], "time": [764, 1179, 1238, 1688, 1980, 2079, 2363, 6208, 6248, 6298, 9920]}, "edge": {"target": [], "time": []}}}, "displayed_time": "9.59", "trialTime": 10342, "trial_type": "mouselab-mdp", "trial_index": 55, "time_elapsed": 773258, "internal_node_id": "0.0-4.0-3.0-15.0"}}, {"uniqueid": "w57909645:a44509310", "current_trial": 56, "dateTime": 1664555914687, "trialdata": {"revealed_states": [], "num_clicks_accrued": [0, 0, 0, 0, 0, 0, 0, 0, 0, 0, 0, 0, 0], "stateRewards": ["", 4, -8, 48, -24, 4, -4, -48, -48, 4, -4, 24, 24], "withholdReward": true, "trial_id": "mdp_221562928904", "block": "test2", "trialIndex": 48, "score": 48, "costs": -1, "simulationMode": [null, null, null], "rewards": [4, -8, 48], "path": ["0", "0", "1", "2", "3"], "rt": [2920, 458, 59], "actions": ["up", "up", "right"], "actionTimes": [3571, 4531, 5094], "queries": {"click": {"state": {"target": ["12", "11", "4", "3"], "time": [1087, 1635, 1997, 2452]}, "edge": {"target": [], "time": []}}, "mouseover": {"state": {"target": ["9", "12", "10", "11", "4", "2", "3", "7"], "time": [822, 1022, 1297, 1547, 1971, 2188, 2363, 2722]}, "edge": {"target": [], "time": []}}, "mouseout": {"state": {"target": ["0", "9", "12", "10", "11", "4", "2", "3", "7"], "time": [771, 889, 1247, 1356, 1780, 2121, 2296, 2663, 2755]}, "edge": {"target": [], "time": []}}}, "displayed_time": "9.65", "trialTime": 10611, "trial_type": "mouselab-mdp", "trial_index": 56, "time_elapsed": 783970, "internal_node_id": "0.0-4.0-3.0-16.0"}}, {"uniqueid": "w57909645:a44509310", "current_trial": 57, "dateTime": 1664555928168, "trialdata": {"revealed_states": [], "num_clicks_accrued": [0, 0, 0, 0, 0, 0, 0, 0, 0, 0, 0, 0, 0], "stateRewards": ["", -2, -4, -24, 24, -2, 4, -24, -24, -4, 4, 24, -24], "withholdReward": true, "trial_id": "mdp_999419261719", "block": "test2", "trialIndex": 49, "score": 27, "costs": -2, "simulationMode": [null, null, null], "rewards": [-4, 4, 24], "path": ["0", "0", "9", "10", "11"], "rt": [6428, 20, 300], "actions": ["left", "left", "up"], "actionTimes": [7833, 8352, 9149], "queries": {"click": {"state": {"target": ["12", "11", "4", "3", "7", "8", "10", "1"], "time": [2151, 2569, 2990, 3541, 3983, 4416, 6008, 6716]}, "edge": {"target": [], "time": []}}, "mouseover": {"state": {"target": ["12", "10", "11", "4", "2", "3", "7", "6", "8", "0", "9", "10", "1"], "time": [2056, 2313, 2447, 2797, 3122, 3390, 3863, 4155, 4297, 5108, 5648, 5697, 6639]}, "edge": {"target": [], "time": []}}, "mouseout": {"state": {"target": ["7", "3", "5", "0", "0", "12", "10", "11", "4", "2", "3", "7", "6", "8", "0", "9", "10", "1", "10"], "time": [211, 405, 714, 880, 1828, 2288, 2338, 2713, 3097, 3172, 3639, 4114, 4239, 4622, 5264, 5665, 6199, 6906, 10391]}, "edge": {"target": [], "time": []}}}, "displayed_time": "10.40", "trialTime": 13382, "trial_type": "mouselab-mdp", "trial_index": 57, "time_elapsed": 797451, "internal_node_id": "0.0-4.0-3.0-17.0"}}, {"uniqueid": "w57909645:a44509310", "current_trial": 58, "dateTime": 1664555939268, "trialdata": {"revealed_states": [], "num_clicks_accrued": [0, 0, 0, 0, 0, 0, 0, 0, 0, 0, 0, 0, 0], "stateRewards": ["", 2, -4, 24, 24, 4, -4, -24, 24, -4, -4, 48, 48], "withholdReward": true, "trial_id": "mdp_566306223773", "block": "test2", "trialIndex": 50, "score": 44.75, "costs": -0.25, "simulationMode": [null, null, null], "rewards": [-4, -4, 48], "path": ["0", "0", "9", "10", "12"], "rt": [1503, 174, 184], "actions": ["left", "left", "down"], "actionTimes": [2661, 3333, 4017], "queries": {"click": {"state": {"target": ["12"], "time": [1593]}, "edge": {"target": [], "time": []}}, "mouseover": {"state": {"target": ["12", "10", "11"], "time": [1466, 1798, 1898]}, "edge": {"target": [], "time": []}}, "mouseout": {"state": {"target": ["9", "0", "12", "10", "11", "0"], "time": [832, 1282, 1756, 1856, 9717, 9966]}, "edge": {"target": [], "time": []}}}, "displayed_time": "9.16", "trialTime": 11006, "trial_type": "mouselab-mdp", "trial_index": 58, "time_elapsed": 808551, "internal_node_id": "0.0-4.0-3.0-18.0"}}, {"uniqueid": "w57909645:a44509310", "current_trial": 59, "dateTime": 1664555952876, "trialdata": {"revealed_states": [], "num_clicks_accrued": [0, 0, 0, 0, 0, 0, 0, 0, 0, 0, 0, 0, 0], "stateRewards": ["", 2, -4, -48, 24, -4, 4, 24, 24, 2, -8, -24, -48], "withholdReward": true, "trial_id": "mdp_807654778305", "block": "test2", "trialIndex": 51, "score": 26.5, "costs": -2.5, "simulationMode": [null, null, null], "rewards": [-4, 4, 24], "path": ["0", "0", "5", "6", "7"], "rt": [9411, 175, 76], "actions": ["right", "right", "up"], "actionTimes": [10293, 10964, 11540], "queries": {"click": {"state": {"target": ["12", "11", "4", "3", "7", "8", "2", "6", "5", "1"], "time": [1822, 2568, 2989, 3548, 3960, 4435, 6657, 7205, 8157, 8701]}, "edge": {"target": [], "time": []}}, "mouseover": {"state": {"target": ["12", "12", "10", "11", "4", "2", "3", "7", "6", "8", "5", "1", "2", "1", "5", "6", "5", "5", "1"], "time": [1662, 1798, 2126, 2512, 2886, 3228, 3403, 3911, 4170, 4378, 5138, 5421, 6521, 6828, 6937, 7128, 7379, 8058, 8629]}, "edge": {"target": [], "time": []}}, "mouseout": {"state": {"target": ["0", "12", "12", "10", "11", "4", "2", "3", "7", "6", "8", "8", "5", "1", "2", "1", "5", "6", "5", "5", "1"], "time": [1019, 1695, 2112, 2162, 2744, 3169, 3311, 3686, 4120, 4270, 4678, 5104, 5171, 6380, 6795, 6837, 6987, 7353, 7437, 8579, 8837]}, "edge": {"target": [], "time": []}}}, "displayed_time": "12.04", "trialTime": 13516, "trial_type": "mouselab-mdp", "trial_index": 59, "time_elapsed": 822159, "internal_node_id": "0.0-4.0-3.0-19.0"}}, {"uniqueid": "w57909645:a44509310", "current_trial": 60, "dateTime": 1664555964972, "trialdata": {"revealed_states": [], "num_clicks_accrued": [0, 0, 0, 0, 0, 0, 0, 0, 0, 0, 0, 0, 0], "stateRewards": ["", 4, -8, -24, 48, -4, 8, -24, -48, -4, -4, 24, 48], "withholdReward": false, "trial_id": "mdp_282352776624", "block": "test2", "trialIndex": 52, "score": 44.75, "costs": -0.25, "simulationMode": [null, null, null], "rewards": [-4, -4, 48], "path": ["0", "0", "9", "10", "12"], "rt": [1592, 429, 248], "actions": ["left", "left", "down"], "actionTimes": [2918, 3845, 4590], "queries": {"click": {"state": {"target": ["12"], "time": [1750]}, "edge": {"target": [], "time": []}}, "mouseover": {"state": {"target": ["12", "10", "11"], "time": [1656, 1940, 2123]}, "edge": {"target": [], "time": []}}, "mouseout": {"state": {"target": ["5", "0", "12", "10"], "time": [990, 1456, 1914, 2006]}, "edge": {"target": [], "time": []}}}, "displayed_time": "10.33", "trialTime": 12005, "trial_type": "mouselab-mdp", "trial_index": 60, "time_elapsed": 834255, "internal_node_id": "0.0-4.0-3.0-20.0"}}, {"uniqueid": "w57909645:a44509310", "current_trial": 61, "dateTime": 1664555976216, "trialdata": {"revealed_states": [], "num_clicks_accrued": [0, 0, 0, 0, 0, 0, 0, 0, 0, 0, 0, 0, 0], "stateRewards": ["", 2, -8, -48, 24, 4, 8, 48, -48, 2, -4, 24, 24], "withholdReward": false, "trial_id": "mdp_130475327289", "block": "test2", "trialIndex": 53, "score": 63.75, "costs": -1.25, "simulationMode": [null, null, null], "rewards": [4, 8, 48], "path": ["0", "0", "5", "6", "7"], "rt": [3645, 127, 98], "actions": ["right", "right", "up"], "actionTimes": [4617, 5245, 5841], "queries": {"click": {"state": {"target": ["12", "11", "4", "3", "7"], "time": [1438, 1871, 2241, 2675, 3494]}, "edge": {"target": [], "time": []}}, "mouseover": {"state": {"target": ["12", "10", "11", "4", "2", "3", "7", "7", "6"], "time": [1333, 1600, 1766, 2192, 2416, 2533, 2900, 3384, 3692]}, "edge": {"target": [], "time": []}}, "mouseout": {"state": {"target": ["11", "9", "0", "12", "10", "11", "4", "2", "3", "7", "7", "6"], "time": [525, 583, 1152, 1550, 1675, 2000, 2375, 2483, 2800, 3017, 3633, 3700]}, "edge": {"target": [], "time": []}}}, "displayed_time": "9.97", "trialTime": 11149, "trial_type": "mouselab-mdp", "trial_index": 61, "time_elapsed": 845499, "internal_node_id": "0.0-4.0-3.0-21.0"}}, {"uniqueid": "w57909645:a44509310", "current_trial": 62, "dateTime": 1664555986816, "trialdata": {"revealed_states": [], "num_clicks_accrued": [0, 0, 0, 0, 0, 0, 0, 0, 0, 0, 0, 0, 0], "stateRewards": ["", -4, -4, 24, -48, -2, 8, -24, -48, -4, 4, 24, -48], "withholdReward": true, "trial_id": "mdp_934626330092", "block": "test2", "trialIndex": 54, "score": 27, "costs": -2, "simulationMode": [null, null, null], "rewards": [-4, 4, 24], "path": ["0", "0", "9", "10", "11"], "rt": [6205, 2, 28], "actions": ["left", "left", "up"], "actionTimes": [7158, 7659, 8193], "queries": {"click": {"state": {"target": ["12", "11", "4", "3", "7", "8", "10", "2"], "time": [1396, 1824, 2298, 2804, 3201, 3690, 5282, 6098]}, "edge": {"target": [], "time": []}}, "mouseover": {"state": {"target": ["12", "10", "11", "4", "2", "3", "7", "8", "1", "10", "2", "1"], "time": [1280, 1538, 1771, 2172, 2430, 2733, 3113, 3588, 4431, 5122, 5991, 6306]}, "edge": {"target": [], "time": []}}, "mouseout": {"state": {"target": ["8", "5", "0", "12", "10", "11", "4", "2", "3", "7", "8", "8", "1", "10", "2"], "time": [572, 696, 1063, 1513, 1604, 1963, 2413, 2471, 2996, 3405, 3805, 4164, 4918, 5389, 6264]}, "edge": {"target": [], "time": []}}}, "displayed_time": "8.95", "trialTime": 10502, "trial_type": "mouselab-mdp", "trial_index": 62, "time_elapsed": 856099, "internal_node_id": "0.0-4.0-3.0-22.0"}}, {"uniqueid": "w57909645:a44509310", "current_trial": 63, "dateTime": 1664555996644, "trialdata": {"revealed_states": [], "num_clicks_accrued": [0, 0, 0, 0, 0, 0, 0, 0, 0, 0, 0, 0, 0], "stateRewards": ["", 4, 4, -48, -48, 4, 4, -24, -24, -4, 8, -48, 24], "withholdReward": true, "trial_id": "mdp_669785455541", "block": "test2", "trialIndex": 55, "score": 31.5, "costs": -1.5, "simulationMode": [null, null, null], "rewards": [-4, 8, 24], "path": ["0", "0", "9", "10", "12"], "rt": [4264, 45, 35], "actions": ["left", "left", "down"], "actionTimes": [5231, 5770, 6302], "queries": {"click": {"state": {"target": ["12", "11", "4", "3", "7", "8"], "time": [1390, 1761, 2130, 2633, 2945, 3695]}, "edge": {"target": [], "time": []}}, "mouseover": {"state": {"target": ["12", "10", "11", "4", "2", "3", "7", "6", "8"], "time": [1349, 1574, 1640, 1990, 2249, 2407, 2865, 3157, 3612]}, "edge": {"target": [], "time": []}}, "mouseout": {"state": {"target": ["1", "0", "12", "10", "11", "4", "2", "3", "7", "6", "8"], "time": [670, 1057, 1540, 1599, 1915, 2215, 2332, 2732, 3082, 3216, 3935]}, "edge": {"target": [], "time": []}}}, "displayed_time": "8.97", "trialTime": 9740, "trial_type": "mouselab-mdp", "trial_index": 63, "time_elapsed": 865927, "internal_node_id": "0.0-4.0-3.0-23.0"}}, {"uniqueid": "w57909645:a44509310", "current_trial": 64, "dateTime": 1664556011120, "trialdata": {"revealed_states": [], "num_clicks_accrued": [0, 0, 0, 0, 0, 0, 0, 0, 0, 0, 0, 0, 0], "stateRewards": ["", -2, -8, -24, 24, -2, -8, -48, 24, -2, -8, 24, 24], "withholdReward": true, "trial_id": "mdp_336617436097", "block": "test2", "trialIndex": 56, "score": 16, "costs": -3, "simulationMode": [null, null, null], "rewards": [-2, -8, 24], "path": ["0", "0", "9", "10", "11"], "rt": [10176, 461, 57], "actions": ["left", "left", "up"], "actionTimes": [11169, 12125, 12680], "queries": {"click": {"state": {"target": ["12", "11", "4", "3", "7", "8", "9", "1", "2", "10", "6", "5"], "time": [1713, 2116, 2774, 3171, 3591, 4098, 5576, 6029, 6359, 6871, 8081, 8674]}, "edge": {"target": [], "time": []}}, "mouseover": {"state": {"target": ["0", "12", "12", "10", "11", "4", "2", "3", "7", "8", "9", "1", "2", "10", "6", "5"], "time": [1165, 1364, 1595, 1862, 1937, 2697, 2887, 3054, 3405, 3887, 4956, 5804, 6238, 6771, 7995, 8589]}, "edge": {"target": [], "time": []}}, "mouseout": {"state": {"target": ["0", "0", "12", "12", "10", "11", "4", "2", "3", "7", "8", "9", "1", "2", "1", "9", "10", "6", "6", "5"], "time": [753, 1286, 1396, 1829, 1904, 2229, 2860, 2920, 3304, 3671, 4221, 5696, 6163, 6588, 6638, 6721, 7173, 8188, 8572, 8830]}, "edge": {"target": [], "time": []}}}, "displayed_time": "13.18", "trialTime": 14385, "trial_type": "mouselab-mdp", "trial_index": 64, "time_elapsed": 880403, "internal_node_id": "0.0-4.0-3.0-24.0"}}, {"uniqueid": "w57909645:a44509310", "current_trial": 65, "dateTime": 1664556021820, "trialdata": {"revealed_states": [], "num_clicks_accrued": [0, 0, 0, 0, 0, 0, 0, 0, 0, 0, 0, 0, 0], "stateRewards": ["", -4, -4, 24, -24, 4, 4, 24, 48, 4, -4, 48, -48], "withholdReward": true, "trial_id": "mdp_522385334882", "block": "test2", "trialIndex": 57, "score": 52.25, "costs": -0.75, "simulationMode": [null, null, null], "rewards": [4, -4, 48], "path": ["0", "0", "9", "10", "11"], "rt": [2097, 46, 401], "actions": ["left", "left", "up"], "actionTimes": [3206, 3749, 4647], "queries": {"click": {"state": {"target": ["12", "11", "4"], "time": [1465, 1848, 2233]}, "edge": {"target": [], "time": []}}, "mouseover": {"state": {"target": ["12", "10", "11", "4"], "time": [1395, 1619, 1769, 2077]}, "edge": {"target": [], "time": []}}, "mouseout": {"state": {"target": ["10", "9", "0", "12", "10", "11", "4"], "time": [736, 852, 1278, 1593, 1677, 2027, 2614]}, "edge": {"target": [], "time": []}}}, "displayed_time": "10.11", "trialTime": 10607, "trial_type": "mouselab-mdp", "trial_index": 65, "time_elapsed": 891103, "internal_node_id": "0.0-4.0-3.0-25.0"}}, {"uniqueid": "w57909645:a44509310", "current_trial": 66, "dateTime": 1664556032413, "trialdata": {"revealed_states": [], "num_clicks_accrued": [0, 0, 0, 0, 0, 0, 0, 0, 0, 0, 0, 0, 0], "stateRewards": ["", 2, 4, -48, -24, -4, 4, -24, 24, -2, -8, -24, 24], "withholdReward": true, "trial_id": "mdp_640720803523", "block": "test2", "trialIndex": 58, "score": 27, "costs": -2, "simulationMode": [null, null, null], "rewards": [-4, 4, 24], "path": ["0", "0", "5", "6", "8"], "rt": [6059, 18, 34], "actions": ["right", "right", "down"], "actionTimes": [7414, 7931, 8462], "queries": {"click": {"state": {"target": ["12", "11", "4", "3", "7", "8", "10", "6"], "time": [2070, 2483, 2926, 3345, 3824, 4603, 5889, 6350]}, "edge": {"target": [], "time": []}}, "mouseover": {"state": {"target": ["0", "12", "10", "11", "4", "2", "3", "7", "8", "10", "6"], "time": [1457, 1992, 2234, 2367, 2843, 3134, 3267, 3667, 4359, 5792, 6293]}, "edge": {"target": [], "time": []}}, "mouseout": {"state": {"target": ["1", "5", "0", "0", "0", "12", "10", "11", "4", "2", "3", "7", "8", "10", "6"], "time": [717, 883, 950, 1276, 1509, 2200, 2284, 2718, 3101, 3234, 3534, 3934, 4718, 5984, 6518]}, "edge": {"target": [], "time": []}}}, "displayed_time": "9.36", "trialTime": 10504, "trial_type": "mouselab-mdp", "trial_index": 66, "time_elapsed": 901695, "internal_node_id": "0.0-4.0-3.0-26.0"}}, {"uniqueid": "w57909645:a44509310", "current_trial": 67, "dateTime": 1664556043211, "trialdata": {"revealed_states": [], "num_clicks_accrued": [0, 0, 0, 0, 0, 0, 0, 0, 0, 0, 0, 0, 0], "stateRewards": ["", 2, -4, 48, -48, 2, 4, -24, 24, -4, -8, 24, -48], "withholdReward": true, "trial_id": "mdp_238810765895", "block": "test2", "trialIndex": 59, "score": 50, "costs": -1, "simulationMode": [null, null, null], "rewards": [2, -4, 48], "path": ["0", "0", "1", "2", "3"], "rt": [3831, 37, 445], "actions": ["up", "up", "right"], "actionTimes": [4950, 5482, 6423], "queries": {"click": {"state": {"target": ["12", "11", "4", "3"], "time": [1805, 2414, 3602, 3935]}, "edge": {"target": [], "time": []}}, "mouseover": {"state": {"target": ["9", "12", "11", "4", "2", "4", "4", "2", "3"], "time": [1401, 1696, 2268, 2991, 3110, 3326, 3527, 3760, 3801]}, "edge": {"target": [], "time": []}}, "mouseout": {"state": {"target": ["5", "10", "9", "0", "9", "12", "11", "4", "2", "4", "4", "2", "3", "1", "0"], "time": [463, 718, 776, 1369, 1451, 1909, 2509, 3068, 3311, 3336, 3743, 3785, 4035, 9878, 9903]}, "edge": {"target": [], "time": []}}}, "displayed_time": "9.12", "trialTime": 10701, "trial_type": "mouselab-mdp", "trial_index": 67, "time_elapsed": 912494, "internal_node_id": "0.0-4.0-3.0-27.0"}}, {"uniqueid": "w57909645:a44509310", "current_trial": 68, "dateTime": 1664556053639, "trialdata": {"revealed_states": [], "num_clicks_accrued": [0, 0, 0, 0, 0, 0, 0, 0, 0, 0, 0, 0, 0], "stateRewards": ["", 2, -4, -48, -48, -2, -4, -24, -48, -2, 8, 24, 24], "withholdReward": true, "trial_id": "mdp_656069446729", "block": "test2", "trialIndex": 60, "score": 33.25, "costs": -1.75, "simulationMode": [null, null, null], "rewards": [-2, 8, 24], "path": ["0", "0", "9", "10", "11"], "rt": [4910, 6, 334], "actions": ["left", "left", "up"], "actionTimes": [5791, 6297, 7134], "queries": {"click": {"state": {"target": ["12", "11", "4", "3", "7", "8", "10"], "time": [1261, 1702, 2079, 2443, 2828, 3202, 4860]}, "edge": {"target": [], "time": []}}, "mouseover": {"state": {"target": ["12", "10", "11", "4", "2", "3", "7", "6", "8", "10"], "time": [1158, 1465, 1582, 1940, 2207, 2249, 2757, 3082, 3155, 4741]}, "edge": {"target": [], "time": []}}, "mouseout": {"state": {"target": ["0", "12", "10", "11", "4", "2", "3", "7", "6", "8", "10"], "time": [1080, 1423, 1523, 1882, 2182, 2232, 2574, 2941, 3099, 3390, 4991]}, "edge": {"target": [], "time": []}}}, "displayed_time": "8.88", "trialTime": 10334, "trial_type": "mouselab-mdp", "trial_index": 68, "time_elapsed": 922922, "internal_node_id": "0.0-4.0-3.0-28.0"}}, {"uniqueid": "w57909645:a44509310", "current_trial": 69, "dateTime": 1664556063187, "trialdata": {"revealed_states": [], "num_clicks_accrued": [0, 0, 0, 0, 0, 0, 0, 0, 0, 0, 0, 0, 0], "stateRewards": ["", 2, 8, 48, -48, -2, -4, -24, 24, 4, -4, 48, -48], "withholdReward": true, "trial_id": "mdp_105734044587", "block": "test2", "trialIndex": 61, "score": 52.5, "costs": -0.5, "simulationMode": [null, null, null], "rewards": [4, -4, 48], "path": ["0", "0", "9", "10", "11"], "rt": [2294, 345, 61], "actions": ["left", "left", "up"], "actionTimes": [3291, 4139, 4695], "queries": {"click": {"state": {"target": ["12", "11"], "time": [1417, 2152]}, "edge": {"target": [], "time": []}}, "mouseover": {"state": {"target": ["12", "10", "11", "4"], "time": [1350, 1641, 2057, 2316]}, "edge": {"target": [], "time": []}}, "mouseout": {"state": {"target": ["0", "12", "10", "11"], "time": [1250, 1599, 1716, 2266]}, "edge": {"target": [], "time": []}}}, "displayed_time": "9.00", "trialTime": 9431, "trial_type": "mouselab-mdp", "trial_index": 69, "time_elapsed": 932469, "internal_node_id": "0.0-4.0-3.0-29.0"}}, {"uniqueid": "w57909645:a44509310", "current_trial": 70, "dateTime": 1664556065101, "trialdata": {"rt": 1904, "stimulus": "<h1> End of block! </h1>\n\nYou have reached the end of the block 2/4. If you need a short break, feel free to take one now before moving on.\n\n<br><br>\nIn the next block, you will complete another 30 rounds of this game.\n\n<br><br>\n<div style='text-align: center;'>Press <code>space</code> to begin.</div>\n<br><br>\n<div style='text-align: center;'>(If the experiment doesn't continue, try clicking on the text and then pressing <code>space</code>.)</div>", "response": " ", "trial_id": "mdp_ready_3", "trial_type": "html-keyboard-response", "trial_index": 70, "time_elapsed": 934384, "internal_node_id": "0.0-4.0-4.0"}}, {"uniqueid": "w57909645:a44509310", "current_trial": 71, "dateTime": 1664556076284, "trialdata": {"revealed_states": [], "num_clicks_accrued": [0, 0, 0, 0, 0, 0, 0, 0, 0, 0, 0, 0, 0], "stateRewards": ["", 4, -8, 48, 48, 2, 4, 48, -48, 4, -4, -48, 48], "withholdReward": true, "trial_id": "mdp_519605841135", "block": "test3", "trialIndex": 62, "score": 52.75, "costs": -0.25, "simulationMode": [null, null, null], "rewards": [4, -4, 48], "path": ["0", "0", "9", "10", "12"], "rt": [1724, 76, 52], "actions": ["left", "left", "down"], "actionTimes": [2888, 3460, 4012], "queries": {"click": {"state": {"target": ["12"], "time": [1619]}, "edge": {"target": [], "time": []}}, "mouseover": {"state": {"target": ["12", "10", "11"], "time": [1475, 1850, 2085]}, "edge": {"target": [], "time": []}}, "mouseout": {"state": {"target": ["4", "2", "1", "0", "12", "10"], "time": [647, 676, 833, 1233, 1825, 1925]}, "edge": {"target": [], "time": []}}}, "displayed_time": "10.17", "trialTime": 11084, "trial_type": "mouselab-mdp", "trial_index": 71, "time_elapsed": 945566, "internal_node_id": "0.0-4.0-5.0-0.0"}}, {"uniqueid": "w57909645:a44509310", "current_trial": 72, "dateTime": 1664556087143, "trialdata": {"revealed_states": [], "num_clicks_accrued": [0, 0, 0, 0, 0, 0, 0, 0, 0, 0, 0, 0, 0], "stateRewards": ["", -2, -8, 24, -48, -4, 8, -48, -24, 4, 8, -24, 24], "withholdReward": true, "trial_id": "mdp_940444641142", "block": "test3", "trialIndex": 63, "score": 39, "costs": -2, "simulationMode": [null, null, null], "rewards": [4, 8, 24], "path": ["0", "0", "9", "10", "12"], "rt": [6391, 433, 26], "actions": ["left", "left", "down"], "actionTimes": [7440, 8373, 8899], "queries": {"click": {"state": {"target": ["12", "11", "4", "3", "7", "8", "2", "10"], "time": [1683, 2287, 2672, 3116, 3547, 4011, 5679, 6233]}, "edge": {"target": [], "time": []}}, "mouseover": {"state": {"target": ["0", "12", "10", "11", "4", "2", "3", "7", "8", "5", "1", "2", "1", "9", "10", "9"], "time": [1130, 1613, 1855, 2022, 2530, 2838, 2946, 3338, 3897, 4955, 5222, 5523, 5839, 6030, 6105, 6347]}, "edge": {"target": [], "time": []}}, "mouseout": {"state": {"target": ["11", "9", "0", "12", "10", "11", "4", "2", "3", "7", "8", "8", "5", "1", "2", "1", "9", "10", "9"], "time": [710, 772, 1263, 1829, 1913, 2413, 2796, 2913, 3238, 3663, 4138, 4889, 4989, 5355, 5797, 5847, 6047, 6330, 6355]}, "edge": {"target": [], "time": []}}}, "displayed_time": "9.41", "trialTime": 10773, "trial_type": "mouselab-mdp", "trial_index": 72, "time_elapsed": 956426, "internal_node_id": "0.0-4.0-5.0-1.0"}}, {"uniqueid": "w57909645:a44509310", "current_trial": 73, "dateTime": 1664556098364, "trialdata": {"revealed_states": [], "num_clicks_accrued": [0, 0, 0, 0, 0, 0, 0, 0, 0, 0, 0, 0, 0], "stateRewards": ["", 2, 8, 24, -48, 4, 8, 24, 48, 2, -8, -24, 24], "withholdReward": false, "trial_id": "mdp_939899431582", "block": "test3", "trialIndex": 64, "score": 63.5, "costs": -1.5, "simulationMode": [null, null, null], "rewards": [4, 8, 48], "path": ["0", "0", "5", "6", "8"], "rt": [4363, 38, 117], "actions": ["right", "right", "down"], "actionTimes": [5574, 6109, 6730], "queries": {"click": {"state": {"target": ["12", "11", "4", "3", "7", "8"], "time": [1940, 2415, 2969, 3583, 4021, 4490]}, "edge": {"target": [], "time": []}}, "mouseover": {"state": {"target": ["0", "12", "10", "11", "2", "4", "2", "3", "3", "7", "6", "8"], "time": [1311, 1862, 2094, 2136, 2653, 2878, 3078, 3103, 3521, 3820, 4220, 4353]}, "edge": {"target": [], "time": []}}, "mouseout": {"state": {"target": ["0", "0", "12", "10", "11", "2", "4", "2", "3", "3", "7", "6", "8"], "time": [1019, 1402, 2069, 2119, 2545, 2795, 3053, 3095, 3128, 3711, 4170, 4295, 4740]}, "edge": {"target": [], "time": []}}}, "displayed_time": "10.21", "trialTime": 11131, "trial_type": "mouselab-mdp", "trial_index": 73, "time_elapsed": 967646, "internal_node_id": "0.0-4.0-5.0-2.0"}}, {"uniqueid": "w57909645:a44509310", "current_trial": 74, "dateTime": 1664556109120, "trialdata": {"revealed_states": [], "num_clicks_accrued": [0, 0, 0, 0, 0, 0, 0, 0, 0, 0, 0, 0, 0], "stateRewards": ["", 4, -4, 48, -48, -2, -8, -24, 48, -2, 4, 24, -24], "withholdReward": true, "trial_id": "mdp_507290896735", "block": "test3", "trialIndex": 65, "score": 52, "costs": -1, "simulationMode": [null, null, null], "rewards": [4, -4, 48], "path": ["0", "0", "1", "2", "3"], "rt": [3350, 90, 71], "actions": ["up", "up", "right"], "actionTimes": [4600, 5188, 5760], "queries": {"click": {"state": {"target": ["12", "11", "4", "3"], "time": [1721, 2112, 2654, 3318]}, "edge": {"target": [], "time": []}}, "mouseover": {"state": {"target": ["0", "12", "10", "11", "4", "2", "3", "7"], "time": [1415, 1612, 1946, 2004, 2429, 2770, 3195, 3620]}, "edge": {"target": [], "time": []}}, "mouseout": {"state": {"target": ["8", "0", "0", "12", "10", "11", "4", "2", "3"], "time": [799, 1153, 1454, 1915, 1988, 2300, 2745, 2937, 3470]}, "edge": {"target": [], "time": []}}}, "displayed_time": "10.25", "trialTime": 10636, "trial_type": "mouselab-mdp", "trial_index": 74, "time_elapsed": 978402, "internal_node_id": "0.0-4.0-5.0-3.0"}}, {"uniqueid": "w57909645:a44509310", "current_trial": 75, "dateTime": 1664556119768, "trialdata": {"revealed_states": [], "num_clicks_accrued": [0, 0, 0, 0, 0, 0, 0, 0, 0, 0, 0, 0, 0], "stateRewards": ["", 4, -8, 24, 48, 2, -4, 48, 48, 4, -8, 48, 48], "withholdReward": true, "trial_id": "mdp_962498334245", "block": "test3", "trialIndex": 66, "score": 48.75, "costs": -0.25, "simulationMode": [null, null, null], "rewards": [4, -8, 48], "path": ["0", "0", "9", "10", "12"], "rt": [1728, 48, 54], "actions": ["left", "left", "down"], "actionTimes": [1788, 2335, 2883], "queries": {"click": {"state": {"target": ["12"], "time": [473]}, "edge": {"target": [], "time": []}}, "mouseover": {"state": {"target": ["12", "10"], "time": [328, 770]}, "edge": {"target": [], "time": []}}, "mouseout": {"state": {"target": ["7", "5", "0", "12", "10"], "time": [null, null, 228, 696, 787]}, "edge": {"target": [], "time": []}}}, "displayed_time": "9.06", "trialTime": 9548, "trial_type": "mouselab-mdp", "trial_index": 75, "time_elapsed": 989050, "internal_node_id": "0.0-4.0-5.0-4.0"}}, {"uniqueid": "w57909645:a44509310", "current_trial": 76, "dateTime": 1664556130612, "trialdata": {"revealed_states": [], "num_clicks_accrued": [0, 0, 0, 0, 0, 0, 0, 0, 0, 0, 0, 0, 0], "stateRewards": ["", 2, -8, -48, 24, 4, 8, 48, -48, 2, -4, 24, 24], "withholdReward": true, "trial_id": "mdp_130475327289", "block": "test3", "trialIndex": 67, "score": 63.75, "costs": -1.25, "simulationMode": [null, null, null], "rewards": [4, 8, 48], "path": ["0", "0", "5", "6", "7"], "rt": [4156, 41, 360], "actions": ["right", "right", "up"], "actionTimes": [5265, 5801, 6661], "queries": {"click": {"state": {"target": ["12", "11", "4", "3", "7"], "time": [1715, 2187, 2581, 2980, 3513]}, "edge": {"target": [], "time": []}}, "mouseover": {"state": {"target": ["12", "10", "11", "4", "2", "3", "7", "6"], "time": [1650, 1926, 2117, 2516, 2783, 2900, 3225, 4068]}, "edge": {"target": [], "time": []}}, "mouseout": {"state": {"target": ["9", "0", "12", "10", "11", "4", "2", "3", "7"], "time": [749, 1256, 1886, 2041, 2375, 2733, 2858, 3158, 3641]}, "edge": {"target": [], "time": []}}}, "displayed_time": "10.11", "trialTime": 10745, "trial_type": "mouselab-mdp", "trial_index": 76, "time_elapsed": 999895, "internal_node_id": "0.0-4.0-5.0-5.0"}}, {"uniqueid": "w57909645:a44509310", "current_trial": 77, "dateTime": 1664556141604, "trialdata": {"revealed_states": [], "num_clicks_accrued": [0, 0, 0, 0, 0, 0, 0, 0, 0, 0, 0, 0, 0], "stateRewards": ["", -4, -8, 48, 48, -4, 4, 48, -24, 4, 8, -24, -48], "withholdReward": true, "trial_id": "mdp_142906093415", "block": "test3", "trialIndex": 68, "score": 40.25, "costs": -0.75, "simulationMode": [null, null, null], "rewards": [-4, -8, 48], "path": ["0", "0", "1", "2", "4"], "rt": [2633, 66, 103], "actions": ["up", "up", "left"], "actionTimes": [3649, 4213, 4817], "queries": {"click": {"state": {"target": ["12", "11", "4"], "time": [1373, 1722, 2393]}, "edge": {"target": [], "time": []}}, "mouseover": {"state": {"target": ["12", "10", "11", "4", "2", "3"], "time": [1279, 1545, 1604, 2279, 2504, 2554]}, "edge": {"target": [], "time": []}}, "mouseout": {"state": {"target": ["6", "5", "0", "12", "10", "11", "4", "2"], "time": [546, 787, 1121, 1520, 1579, 1895, 2476, 2537]}, "edge": {"target": [], "time": []}}}, "displayed_time": "10.02", "trialTime": 10881, "trial_type": "mouselab-mdp", "trial_index": 77, "time_elapsed": 1010886, "internal_node_id": "0.0-4.0-5.0-6.0"}}, {"uniqueid": "w57909645:a44509310", "current_trial": 78, "dateTime": 1664556153004, "trialdata": {"revealed_states": [], "num_clicks_accrued": [0, 0, 0, 0, 0, 0, 0, 0, 0, 0, 0, 0, 0], "stateRewards": ["", 2, -4, -24, 24, 2, 8, 48, 48, 2, -8, 48, -24], "withholdReward": true, "trial_id": "mdp_330392242530", "block": "test3", "trialIndex": 69, "score": 46.5, "costs": -0.5, "simulationMode": [null, null, null], "rewards": [2, -8, 48], "path": ["0", "0", "9", "10", "11"], "rt": [2123, 12, 476], "actions": ["left", "left", "up"], "actionTimes": [3168, 3687, 4664], "queries": {"click": {"state": {"target": ["12", "11"], "time": [1497, 1960]}, "edge": {"target": [], "time": []}}, "mouseover": {"state": {"target": ["12", "10", "11", "4"], "time": [1396, 1696, 1888, 2295]}, "edge": {"target": [], "time": []}}, "mouseout": {"state": {"target": ["3", "5", "0", "12", "10", "11"], "time": [671, 779, 1309, 1662, 1830, 2137]}, "edge": {"target": [], "time": []}}}, "displayed_time": "10.04", "trialTime": 11296, "trial_type": "mouselab-mdp", "trial_index": 78, "time_elapsed": 1022286, "internal_node_id": "0.0-4.0-5.0-7.0"}}, {"uniqueid": "w57909645:a44509310", "current_trial": 79, "dateTime": 1664556163348, "trialdata": {"revealed_states": [], "num_clicks_accrued": [0, 0, 0, 0, 0, 0, 0, 0, 0, 0, 0, 0, 0], "stateRewards": ["", -4, 8, 24, -24, -2, 4, -24, 48, -2, 8, -48, -24], "withholdReward": true, "trial_id": "mdp_799359103169", "block": "test3", "trialIndex": 70, "score": 53.5, "costs": -1.5, "simulationMode": [null, null, null], "rewards": [-2, 4, 48], "path": ["0", "0", "5", "6", "8"], "rt": [4348, 67, 51], "actions": ["right", "right", "down"], "actionTimes": [5355, 5919, 6470], "queries": {"click": {"state": {"target": ["12", "11", "4", "3", "7", "8"], "time": [1669, 1998, 2805, 3298, 3719, 4141]}, "edge": {"target": [], "time": []}}, "mouseover": {"state": {"target": ["12", "10", "11", "4", "4", "2", "3", "7", "8"], "time": [1573, 1800, 1850, 2276, 2702, 3000, 3150, 3542, 4017]}, "edge": {"target": [], "time": []}}, "mouseout": {"state": {"target": ["4", "1", "0", "0", "12", "10", "11", "4", "4", "2", "3", "7"], "time": [634, 676, 842, 1297, 1775, 1825, 2201, 2317, 2942, 3034, 3450, 3884]}, "edge": {"target": [], "time": []}}}, "displayed_time": "9.01", "trialTime": 10243, "trial_type": "mouselab-mdp", "trial_index": 79, "time_elapsed": 1032630, "internal_node_id": "0.0-4.0-5.0-8.0"}}, {"uniqueid": "w57909645:a44509310", "current_trial": 80, "dateTime": 1664556174116, "trialdata": {"revealed_states": [], "num_clicks_accrued": [0, 0, 0, 0, 0, 0, 0, 0, 0, 0, 0, 0, 0], "stateRewards": ["", 2, -8, 48, -24, 2, -4, 24, 48, 4, -4, 48, -24], "withholdReward": true, "trial_id": "mdp_656500928756", "block": "test3", "trialIndex": 71, "score": 52.5, "costs": -0.5, "simulationMode": [null, null, null], "rewards": [4, -4, 48], "path": ["0", "0", "9", "10", "11"], "rt": [2714, 61, 131], "actions": ["left", "left", "up"], "actionTimes": [3915, 4470, 5099], "queries": {"click": {"state": {"target": ["12", "11"], "time": [2226, 2583]}, "edge": {"target": [], "time": []}}, "mouseover": {"state": {"target": ["12", "10", "11"], "time": [1892, 2400, 2483]}, "edge": {"target": [], "time": []}}, "mouseout": {"state": {"target": ["8", "0", "12", "10", "11"], "time": [847, 1347, 2383, 2450, 2847]}, "edge": {"target": [], "time": []}}}, "displayed_time": "10.21", "trialTime": 10667, "trial_type": "mouselab-mdp", "trial_index": 80, "time_elapsed": 1043398, "internal_node_id": "0.0-4.0-5.0-9.0"}}, {"uniqueid": "w57909645:a44509310", "current_trial": 81, "dateTime": 1664556184900, "trialdata": {"revealed_states": [], "num_clicks_accrued": [0, 0, 0, 0, 0, 0, 0, 0, 0, 0, 0, 0, 0], "stateRewards": ["", -2, -4, 48, -24, 2, -4, -24, -48, 2, 8, -48, -24], "withholdReward": true, "trial_id": "mdp_238243948191", "block": "test3", "trialIndex": 72, "score": 46, "costs": -1, "simulationMode": [null, null, null], "rewards": [-2, -4, 48], "path": ["0", "0", "1", "2", "3"], "rt": [3147, 134, 123], "actions": ["up", "up", "right"], "actionTimes": [4377, 5013, 5637], "queries": {"click": {"state": {"target": ["12", "11", "4", "3"], "time": [1754, 2121, 2541, 2962]}, "edge": {"target": [], "time": []}}, "mouseover": {"state": {"target": ["0", "12", "10", "11", "4", "2", "3", "7"], "time": [1337, 1699, 1927, 2019, 2486, 2786, 2844, 3194]}, "edge": {"target": [], "time": []}}, "mouseout": {"state": {"target": ["9", "0", "0", "12", "10", "11", "4", "2", "3"], "time": [852, 1153, 1394, 1902, 1977, 2352, 2752, 2819, 3136]}, "edge": {"target": [], "time": []}}}, "displayed_time": "9.23", "trialTime": 10677, "trial_type": "mouselab-mdp", "trial_index": 81, "time_elapsed": 1054183, "internal_node_id": "0.0-4.0-5.0-10.0"}}, {"uniqueid": "w57909645:a44509310", "current_trial": 82, "dateTime": 1664556198004, "trialdata": {"revealed_states": [], "num_clicks_accrued": [0, 0, 0, 0, 0, 0, 0, 0, 0, 0, 0, 0, 0], "stateRewards": ["", 4, 4, 48, -48, -2, 4, 48, -48, -4, 4, -24, -24], "withholdReward": false, "trial_id": "mdp_753324812898", "block": "test3", "trialIndex": 73, "score": 60, "costs": -1, "simulationMode": [null, null, null], "rewards": [4, 4, 48], "path": ["0", "0", "1", "2", "3"], "rt": [2952, 56, 9], "actions": ["up", "up", "right"], "actionTimes": [4209, 4764, 5300], "queries": {"click": {"state": {"target": ["12", "11", "4", "3"], "time": [1724, 2100, 2513, 3008]}, "edge": {"target": [], "time": []}}, "mouseover": {"state": {"target": ["12", "10", "11", "4", "2", "3", "7"], "time": [1591, 1949, 2007, 2391, 2666, 2790, 3357]}, "edge": {"target": [], "time": []}}, "mouseout": {"state": {"target": ["7", "5", "0", "12", "10", "11", "4", "2", "3"], "time": [784, 848, 1471, 1932, 1982, 2335, 2640, 2707, 3174]}, "edge": {"target": [], "time": []}}}, "displayed_time": "10.26", "trialTime": 13009, "trial_type": "mouselab-mdp", "trial_index": 82, "time_elapsed": 1067286, "internal_node_id": "0.0-4.0-5.0-11.0"}}, {"uniqueid": "w57909645:a44509310", "current_trial": 83, "dateTime": 1664556208052, "trialdata": {"revealed_states": [], "num_clicks_accrued": [0, 0, 0, 0, 0, 0, 0, 0, 0, 0, 0, 0, 0], "stateRewards": ["", 2, 8, -48, 24, -2, 4, 48, 48, -2, -8, 48, 24], "withholdReward": false, "trial_id": "mdp_157355418411", "block": "test3", "trialIndex": 74, "score": 42.5, "costs": -0.5, "simulationMode": [null, null, null], "rewards": [-2, -8, 48], "path": ["0", "0", "9", "10", "11"], "rt": [2660, 24, 508], "actions": ["left", "left", "up"], "actionTimes": [3722, 4245, 5262], "queries": {"click": {"state": {"target": ["12", "11"], "time": [2137, 2686]}, "edge": {"target": [], "time": []}}, "mouseover": {"state": {"target": ["12", "10", "12", "10", "11", "4"], "time": [1811, 1877, 2022, 2286, 2402, 2953]}, "edge": {"target": [], "time": []}}, "mouseout": {"state": {"target": ["7", "5", "0", "12", "10", "12", "10", "11"], "time": [544, 794, 1169, 1827, 1981, 2252, 2336, 2811]}, "edge": {"target": [], "time": []}}}, "displayed_time": "9.06", "trialTime": 9942, "trial_type": "mouselab-mdp", "trial_index": 83, "time_elapsed": 1077334, "internal_node_id": "0.0-4.0-5.0-12.0"}}, {"uniqueid": "w57909645:a44509310", "current_trial": 84, "dateTime": 1664556217992, "trialdata": {"revealed_states": [], "num_clicks_accrued": [0, 0, 0, 0, 0, 0, 0, 0, 0, 0, 0, 0, 0], "stateRewards": ["", -2, -8, 48, 24, 4, -8, 24, 48, 4, -4, 24, -48], "withholdReward": true, "trial_id": "mdp_871576155740", "block": "test3", "trialIndex": 75, "score": 42, "costs": -1, "simulationMode": [null, null, null], "rewards": [-2, -8, 48], "path": ["0", "0", "1", "2", "3"], "rt": [3465, 60, 415], "actions": ["up", "up", "right"], "actionTimes": [4538, 5097, 6018], "queries": {"click": {"state": {"target": ["12", "11", "4", "3"], "time": [1880, 2365, 2827, 3315]}, "edge": {"target": [], "time": []}}, "mouseover": {"state": {"target": ["12", "10", "11", "4", "2", "3", "7"], "time": [1682, 2160, 2302, 2777, 3127, 3219, 3799]}, "edge": {"target": [], "time": []}}, "mouseout": {"state": {"target": ["4", "1", "0", "12", "10", "11", "4",