{"condition": 1, "counterbalance": 0, "assignmentId": "a34423226", "workerId": "w83929499", "hitId": "h74847225", "currenttrial": 137, "bonus": 0, "data": [{"uniqueid": "w83929499:a34423226", "current_trial": 0, "dateTime": 1664464080194, "trialdata": {"success": true, "trial_type": "fullscreen", "trial_index": 0, "time_elapsed": 9970, "internal_node_id": "0.0-0.0"}}, {"uniqueid": "w83929499:a34423226", "current_trial": 1, "dateTime": 1664464113493, "trialdata": {"view_history": [{"page_index": 0, "viewing_time": 33265}], "rt": 33266, "trial_id": "exp_instructions_no_distractor", "trial_type": "instructions", "trial_index": 1, "time_elapsed": 43272, "internal_node_id": "0.0-1.0"}}, {"uniqueid": "w83929499:a34423226", "current_trial": 2, "dateTime": 1664464117498, "trialdata": {"success": true, "trial_type": "fullscreen", "trial_index": 2, "time_elapsed": 47277, "internal_node_id": "0.0-2.0-0.0"}}, {"uniqueid": "w83929499:a34423226", "current_trial": 3, "dateTime": 1664464409576, "trialdata": {"view_history": [{"page_index": 0, "viewing_time": 81541}, {"page_index": 1, "viewing_time": 123916}, {"page_index": 2, "viewing_time": 15376}, {"page_index": 3, "viewing_time": 9536}, {"page_index": 4, "viewing_time": 61700}], "rt": 292068, "trial_id": "mouselab_instructions_1", "trial_type": "instructions", "trial_index": 3, "time_elapsed": 339355, "internal_node_id": "0.0-2.0-1.0"}}, {"uniqueid": "w83929499:a34423226", "current_trial": 4, "dateTime": 1664464539228, "trialdata": {"revealed_states": [], "num_clicks_accrued": [0, 0, 0, 0, 0, 0, 0, 0, 0, 0, 0, 0, 0], "stateRewards": ["", -10, 10, -10, 10, 10, 10, -10, 10, -10, -10, 10, 10], "withholdReward": false, "trial_id": "practice_1", "block": "test", "trialIndex": 0, "score": -11, "costs": -3, "simulationMode": [null, null, null], "rewards": [-10, -10, 10], "path": ["0", "0", "9", "10", "12"], "rt": [102193, 14168, 1166], "actions": ["left", "left", "down"], "actionTimes": [103262, 117959, 119643], "queries": {"click": {"state": {"target": ["8", "5", "1", "9", "11", "12", "3", "4", "7", "10", "6", "2"], "time": [11142, 20148, 43471, 57610, 61713, 63447, 68615, 75035, 85898, 87486, 89807, 92818]}, "edge": {"target": [], "time": []}}, "mouseover": {"state": {"target": ["6", "8", "5", "0", "0", "5", "0", "0", "1", "2", "4", "9", "0", "1", "0", "0", "9", "0", "0", "9", "0", "2", "11", "11", "12", "3", "0", "2", "4", "0", "0", "0", "7", "6", "10", "6", "0", "0", "2", "0", "0", "0", "0"], "time": [1532, 4385, 14510, 14847, 15682, 17707, 30261, 37980, 38387, 38487, 40042, 40317, 40795, 41982, 43862, 48610, 49543, 51205, 53187, 54910, 59035, 59358, 59902, 60189, 62828, 68328, 72785, 72953, 74825, 75566, 83608, 84379, 85683, 86191, 87156, 89406, 91176, 91961, 92418, 94832, 95444, 100942, 101643]}, "edge": {"target": [], "time": []}}, "mouseout": {"state": {"target": ["5", "1", "6", "8", "5", "0", "0", "5", "0", "5", "0", "1", "2", "4", "9", "0", "1", "0", "0", "9", "0", "0", "9", "0", "1", "2", "11", "11", "12", "3", "0", "1", "2", "4", "0", "0", "0", "1", "7", "6", "10", "5", "7", "6", "0", "1", "0", "1", "2", "1", "5", "5", "0", "0", "5", "5", "6", "6", "0", "0", "5", "6", "8"], "time": [null, 10, 1588, 11517, 14773, 14990, 15708, 20486, 30411, 31571, 38309, 38455, 38567, 40055, 40489, 40998, 43791, 43934, 49346, 51107, 52538, 53308, 58024, 59052, 59259, 59753, 59937, 61970, 63751, 68876, 72818, 72909, 73412, 75400, 75759, 83641, 84748, 85258, 86167, 86207, 87738, 88903, 89255, 90089, 91319, 91504, 92265, 92394, 93026, 93140, 93555, 93942, 94918, 95639, 96281, 97812, 97936, 100110, 101427, 104206, 104407, 104489, 122775]}, "edge": {"target": [], "time": []}}}, "displayed_time": "120.16", "trialTime": 126862, "trial_type": "mouselab-mdp", "trial_index": 4, "time_elapsed": 469004, "internal_node_id": "0.0-2.0-2.0-0.0"}}, {"uniqueid": "w83929499:a34423226", "current_trial": 5, "dateTime": 1664464586197, "trialdata": {"revealed_states": [], "num_clicks_accrued": [0, 0, 0, 0, 0, 0, 0, 0, 0, 0, 0, 0, 0], "stateRewards": ["", -10, -10, -10, 10, -10, -10, 10, -10, -10, -10, -10, 10], "withholdReward": false, "trial_id": "practice_2", "block": "test", "trialIndex": 1, "score": -28.25, "costs": -0.25, "simulationMode": [null, null, null], "rewards": [-10, -10, -10], "path": ["0", "0", "9", "10", "11"], "rt": [16501, 11855, 2507], "actions": ["left", "left", "up"], "actionTimes": [18531, 30902, 33922], "queries": {"click": {"state": {"target": ["1"], "time": [14763]}, "edge": {"target": [], "time": []}}, "mouseover": {"state": {"target": ["8", "6", "5", "8", "0", "1", "0", "0", "1", "2", "4", "0", "9", "11", "5", "0", "1", "6"], "time": [3083, 5439, 5529, 5729, 7122, 8388, 8901, 9634, 10163, 10427, 11022, 11366, 11901, 12624, 13074, 13914, 14247, 15186]}, "edge": {"target": [], "time": []}}, "mouseout": {"state": {"target": ["0", "8", "6", "5", "8", "0", "1", "0", "0", "1", "2", "4", "0", "9", "11", "5", "0", "1", "6", "1", "9", "0", "5", "6", "5", "11", "9"], "time": [2642, 3210, 5499, 5594, 6134, 7312, 8740, 8974, 9758, 10283, 10883, 11251, 11399, 12211, 12814, 13535, 14040, 15071, 15205, 24454, 26461, 26557, 26771, 37927, 37975, 39493, 39540]}, "edge": {"target": [], "time": []}}}, "displayed_time": "34.44", "trialTime": 46877, "trial_type": "mouselab-mdp", "trial_index": 5, "time_elapsed": 515975, "internal_node_id": "0.0-2.0-2.0-1.0"}}, {"uniqueid": "w83929499:a34423226", "current_trial": 6, "dateTime": 1664464776036, "trialdata": {"view_history": [{"page_index": 0, "viewing_time": 127408}, {"page_index": 1, "viewing_time": 48635}, {"page_index": 2, "viewing_time": 13777}], "rt": 189821, "trial_id": "mouselab_instructions_2_scarce", "trial_type": "instructions", "trial_index": 6, "time_elapsed": 705815, "internal_node_id": "0.0-2.0-3.0"}}, {"uniqueid": "w83929499:a34423226", "current_trial": 7, "dateTime": 1664464873797, "trialdata": {"rt": 97755, "response": {"Q0": "$-48 to $48", "Q1": "The cost is always $0.25.", "Q2": "The better I perform the higher my bonus will be.", "Q3": "No, the amount of cash at each node of the web may be different each time.", "Q4": "The values of the nodes walked through from start to finish.", "Q5": "No, the spider might forget to count the money on some rounds."}, "question_order": [0, 1, 2, 3, 4, 5], "correct": {"Q0": "$-48 to $48", "Q1": "The cost is always $0.25.", "Q2": "The better I perform the higher my bonus will be.", "Q3": "No, the amount of cash at each node of the web may be different each time.", "Q4": "The values of the nodes walked through from start to finish.", "Q5": "No, the spider might forget to count the money on some rounds."}, "trial_id": "mouselab_quiz_scarce", "trial_type": "survey-multi-choice", "trial_index": 7, "time_elapsed": 803576, "internal_node_id": "0.0-2.0-4.0"}}, {"uniqueid": "w83929499:a34423226", "current_trial": 8, "dateTime": 1664464891455, "trialdata": {"rt": 17638, "stimulus": "\n<h1> Get ready to start the game! </h1>\n\nThank you for reading the instructions. Get ready start with the first of 4 block(s) of this game.\n<br><br>\nIn this first block, you will complete 30 rounds of this game before moving on.\n<br><br>\nRemember, the more money the spider gets, the bigger your bonus will be!\n<br><br>\n<div style='text-align: center;'>Press <code>space</code> to begin.</div>\n\n<br><br>\n(If, at any point, the <code>space</code> key does not take you to the next page, click once on the text and try again.)", "response": " ", "trial_id": "mdp_ready_1", "trial_type": "html-keyboard-response", "trial_index": 8, "time_elapsed": 821234, "internal_node_id": "0.0-4.0-0.0"}}, {"uniqueid": "w83929499:a34423226", "current_trial": 9, "dateTime": 1664464942641, "trialdata": {"revealed_states": [], "num_clicks_accrued": [0, 0, 0, 0, 0, 0, 0, 0, 0, 0, 0, 0, 0], "stateRewards": ["", 2, 4, 48, -24, 2, -8, -24, -24, 2, -8, -24, -48], "withholdReward": true, "trial_id": "mdp_274832552938", "block": "test1", "trialIndex": 2, "score": -50, "costs": -1, "simulationMode": [null, null, null], "rewards": [2, -8, -48], "path": ["0", "0", "9", "10", "12"], "rt": [32595, 5240, 3499], "actions": ["left", "left", "down"], "actionTimes": [35635, 41384, 45400], "queries": {"click": {"state": {"target": ["5", "6", "8", "7"], "time": [10034, 15569, 20814, 22512]}, "edge": {"target": [], "time": []}}, "mouseover": {"state": {"target": ["5", "6", "6", "5", "6", "7", "8", "7"], "time": [3315, 3354, 7302, 8202, 14080, 19079, 19709, 22289]}, "edge": {"target": [], "time": []}}, "mouseout": {"state": {"target": ["7", "0", "5", "6", "6", "5", "6", "7", "6", "8", "7", "8"], "time": [2006, 2688, 3337, 3387, 7351, 10415, 15875, 19345, 19578, 21072, 22728, 49248]}, "edge": {"target": [], "time": []}}}, "displayed_time": "45.92", "trialTime": 51064, "trial_type": "mouselab-mdp", "trial_index": 9, "time_elapsed": 872418, "internal_node_id": "0.0-4.0-1.0-0.0"}}, {"uniqueid": "w83929499:a34423226", "current_trial": 10, "dateTime": 1664464964760, "trialdata": {"revealed_states": [], "num_clicks_accrued": [0, 0, 0, 0, 0, 0, 0, 0, 0, 0, 0, 0, 0], "stateRewards": ["", 2, 8, 24, -48, 4, 8, 24, 48, 2, -8, -24, 24], "withholdReward": true, "trial_id": "mdp_939899431582", "block": "test1", "trialIndex": 3, "score": -33.25, "costs": -0.25, "simulationMode": [null, null, null], "rewards": [2, 8, -48], "path": ["0", "0", "1", "2", "4"], "rt": [8837, 4718, 955], "actions": ["up", "up", "left"], "actionTimes": [10782, 16008, 17473], "queries": {"click": {"state": {"target": ["1"], "time": [8494]}, "edge": {"target": [], "time": []}}, "mouseover": {"state": {"target": ["5", "6", "7", "1"], "time": [2243, 2278, 8029, 8189]}, "edge": {"target": [], "time": []}}, "mouseout": {"state": {"target": ["8", "0", "5", "6", "7", "1", "6", "8"], "time": [983, 1563, 2277, 2293, 8089, 8654, 20195, 21136]}, "edge": {"target": [], "time": []}}}, "displayed_time": "17.98", "trialTime": 22004, "trial_type": "mouselab-mdp", "trial_index": 10, "time_elapsed": 894539, "internal_node_id": "0.0-4.0-1.0-1.0"}}, {"uniqueid": "w83929499:a34423226", "current_trial": 11, "dateTime": 1664464982291, "trialdata": {"revealed_states": [], "num_clicks_accrued": [0, 0, 0, 0, 0, 0, 0, 0, 0, 0, 0, 0, 0], "stateRewards": ["", 4, -8, 24, 48, 2, -4, 48, 48, 4, -8, 48, 48], "withholdReward": false, "trial_id": "mdp_962498334245", "block": "test1", "trialIndex": 4, "score": 51, "costs": 0, "simulationMode": [null, null, null], "rewards": [2, -4, 48], "path": ["0", "0", "5", "6", "7"], "rt": [4417, 1136, 1229], "actions": ["right", "right", "up"], "actionTimes": [6505, 8151, 9892], "queries": {"click": {"state": {"target": [], "time": []}, "edge": {"target": [], "time": []}}, "mouseover": {"state": {"target": ["5", "6"], "time": [2335, 2386]}, "edge": {"target": [], "time": []}}, "mouseout": {"state": {"target": ["6", "5", "5", "6"], "time": [768, 824, 2370, 2401]}, "edge": {"target": [], "time": []}}}, "displayed_time": "10.41", "trialTime": 17429, "trial_type": "mouselab-mdp", "trial_index": 11, "time_elapsed": 912070, "internal_node_id": "0.0-4.0-1.0-2.0"}}, {"uniqueid": "w83929499:a34423226", "current_trial": 12, "dateTime": 1664464997632, "trialdata": {"revealed_states": [], "num_clicks_accrued": [0, 0, 0, 0, 0, 0, 0, 0, 0, 0, 0, 0, 0], "stateRewards": ["", -4, -4, -24, -48, -4, 8, -24, -48, 4, -8, 24, -24], "withholdReward": true, "trial_id": "mdp_924927483179", "block": "test1", "trialIndex": 5, "score": 24.75, "costs": -0.25, "simulationMode": [null, null, null], "rewards": [4, -8, 24], "path": ["0", "0", "9", "10", "11"], "rt": [7989, 914, 648], "actions": ["left", "left", "up"], "actionTimes": [9879, 11311, 12475], "queries": {"click": {"state": {"target": ["5"], "time": [6176]}, "edge": {"target": [], "time": []}}, "mouseover": {"state": {"target": ["5", "5", "6"], "time": [2188, 5948, 6430]}, "edge": {"target": [], "time": []}}, "mouseout": {"state": {"target": ["5", "5", "5", "6", "8"], "time": [1157, 2203, 6396, 6446, 14042]}, "edge": {"target": [], "time": []}}}, "displayed_time": "12.99", "trialTime": 15255, "trial_type": "mouselab-mdp", "trial_index": 12, "time_elapsed": 927411, "internal_node_id": "0.0-4.0-1.0-3.0"}}, {"uniqueid": "w83929499:a34423226", "current_trial": 13, "dateTime": 1664465010376, "trialdata": {"revealed_states": [], "num_clicks_accrued": [0, 0, 0, 0, 0, 0, 0, 0, 0, 0, 0, 0, 0], "stateRewards": ["", 2, 4, -48, -48, 4, 4, -48, -48, -2, -8, 48, -24], "withholdReward": true, "trial_id": "mdp_175327338412", "block": "test1", "trialIndex": 6, "score": -35.25, "costs": -0.25, "simulationMode": [null, null, null], "rewards": [4, 4, -48], "path": ["0", "0", "5", "6", "7"], "rt": [4962, 720, 915], "actions": ["right", "right", "up"], "actionTimes": [6389, 7627, 9053], "queries": {"click": {"state": {"target": ["5"], "time": [5083]}, "edge": {"target": [], "time": []}}, "mouseover": {"state": {"target": ["6", "7", "1", "5", "6"], "time": [1660, 4022, 4259, 4722, 5326]}, "edge": {"target": [], "time": []}}, "mouseout": {"state": {"target": ["8", "0", "6", "7", "1", "5", "6"], "time": [583, 1643, 1675, 4039, 4555, 5314, 5368]}, "edge": {"target": [], "time": []}}}, "displayed_time": "10.43", "trialTime": 12653, "trial_type": "mouselab-mdp", "trial_index": 13, "time_elapsed": 940155, "internal_node_id": "0.0-4.0-1.0-4.0"}}, {"uniqueid": "w83929499:a34423226", "current_trial": 14, "dateTime": 1664465021942, "trialdata": {"revealed_states": [], "num_clicks_accrued": [0, 0, 0, 0, 0, 0, 0, 0, 0, 0, 0, 0, 0], "stateRewards": ["", -4, -8, -48, 24, -4, -4, -24, -48, 2, -8, -24, -48], "withholdReward": true, "trial_id": "mdp_628181832088", "block": "test1", "trialIndex": 7, "score": -25.25, "costs": -0.25, "simulationMode": [null, null, null], "rewards": [2, -8, -24], "path": ["0", "0", "9", "10", "11"], "rt": [3206, 1422, 1573], "actions": ["left", "left", "up"], "actionTimes": [4948, 6880, 8964], "queries": {"click": {"state": {"target": ["9"], "time": [3051]}, "edge": {"target": [], "time": []}}, "mouseover": {"state": {"target": ["5", "6", "5", "0", "9", "0", "5", "6"], "time": [1975, 2008, 2599, 2676, 2846, 3257, 3292, 3309]}, "edge": {"target": [], "time": []}}, "mouseout": {"state": {"target": ["6", "5", "0", "5", "6", "5", "0", "9", "0", "5", "6", "8"], "time": [845, 878, 1931, 2007, 2049, 2658, 2753, 3241, 3290, 3307, 3324, 10339]}, "edge": {"target": [], "time": []}}}, "displayed_time": "9.47", "trialTime": 11465, "trial_type": "mouselab-mdp", "trial_index": 14, "time_elapsed": 951720, "internal_node_id": "0.0-4.0-1.0-5.0"}}, {"uniqueid": "w83929499:a34423226", "current_trial": 15, "dateTime": 1664465038413, "trialdata": {"revealed_states": [], "num_clicks_accrued": [0, 0, 0, 0, 0, 0, 0, 0, 0, 0, 0, 0, 0], "stateRewards": ["", -2, 8, 48, 48, 2, 4, -48, 24, -4, -8, 48, 24], "withholdReward": true, "trial_id": "mdp_572910394648", "block": "test1", "trialIndex": 8, "score": 33.75, "costs": -1.25, "simulationMode": [null, null, null], "rewards": [2, 4, 24], "path": ["0", "0", "5", "6", "8"], "rt": [10700, 152, 779], "actions": ["right", "right", "down"], "actionTimes": [11982, 12653, 13934], "queries": {"click": {"state": {"target": ["1", "9", "5", "6", "7"], "time": [4120, 5774, 6798, 8798, 10035]}, "edge": {"target": [], "time": []}}, "mouseover": {"state": {"target": ["5", "6", "1", "5", "0", "9", "0", "5", "6", "7"], "time": [1500, 1568, 3427, 4541, 4900, 5226, 6157, 6307, 7138, 9670]}, "edge": {"target": [], "time": []}}, "mouseout": {"state": {"target": ["8", "6", "5", "5", "6", "1", "5", "0", "9", "0", "5", "6", "7", "6", "5"], "time": [484, 713, 818, 1551, 1605, 4477, 4767, 5093, 6096, 6205, 7105, 9269, 10353, 15234, 15351]}, "edge": {"target": [], "time": []}}}, "displayed_time": "14.45", "trialTime": 16381, "trial_type": "mouselab-mdp", "trial_index": 15, "time_elapsed": 968191, "internal_node_id": "0.0-4.0-1.0-6.0"}}, {"uniqueid": "w83929499:a34423226", "current_trial": 16, "dateTime": 1664465052709, "trialdata": {"revealed_states": [], "num_clicks_accrued": [0, 0, 0, 0, 0, 0, 0, 0, 0, 0, 0, 0, 0], "stateRewards": ["", 4, 4, 24, -48, 2, -8, -24, -48, 4, 8, 48, 48], "withholdReward": false, "trial_id": "mdp_592471239511", "block": "test1", "trialIndex": 9, "score": 63.75, "costs": -1.25, "simulationMode": [null, null, null], "rewards": [4, 8, 48], "path": ["0", "0", "9", "10", "11"], "rt": [8533, 197, 420], "actions": ["left", "left", "up"], "actionTimes": [9682, 10390, 11325], "queries": {"click": {"state": {"target": ["5", "6", "9", "10", "11"], "time": [2581, 3790, 5425, 6748, 7951]}, "edge": {"target": [], "time": []}}, "mouseover": {"state": {"target": ["5", "6", "0", "9", "10", "11", "0"], "time": [1698, 3427, 4927, 5108, 6458, 7622, 8712]}, "edge": {"target": [], "time": []}}, "mouseout": {"state": {"target": ["6", "5", "0", "5", "6", "5", "0", "9", "9", "10", "9", "11", "10", "9", "0", "0"], "time": [529, 667, 1399, 3293, 4159, 4875, 5035, 5677, 6309, 6994, 7362, 8155, 8471, 8654, 9054, 12339]}, "edge": {"target": [], "time": []}}}, "displayed_time": "11.84", "trialTime": 14196, "trial_type": "mouselab-mdp", "trial_index": 16, "time_elapsed": 982488, "internal_node_id": "0.0-4.0-1.0-7.0"}}, {"uniqueid": "w83929499:a34423226", "current_trial": 17, "dateTime": 1664465069742, "trialdata": {"revealed_states": [], "num_clicks_accrued": [0, 0, 0, 0, 0, 0, 0, 0, 0, 0, 0, 0, 0], "stateRewards": ["", -4, -8, 48, 24, 4, -8, 24, -48, -2, -8, 24, -48], "withholdReward": true, "trial_id": "mdp_952038635544", "block": "test1", "trialIndex": 10, "score": 23.75, "costs": -1.25, "simulationMode": [null, null, null], "rewards": [4, -8, 24], "path": ["0", "0", "5", "6", "7"], "rt": [11460, 321, 323], "actions": ["right", "right", "up"], "actionTimes": [13185, 14027, 14868], "queries": {"click": {"state": {"target": ["1", "5", "6", "9", "7"], "time": [2666, 3892, 6374, 7624, 12449]}, "edge": {"target": [], "time": []}}, "mouseover": {"state": {"target": ["1", "0", "5", "0", "6", "0", "9", "10", "0", "10", "7"], "time": [2404, 3006, 3556, 5053, 5834, 6968, 7235, 8266, 10053, 11213, 12213]}, "edge": {"target": [], "time": []}}, "mouseout": {"state": {"target": ["0", "1", "0", "5", "5", "0", "5", "6", "0", "9", "10", "9", "0", "9", "10", "9", "7", "6"], "time": [989, 2857, 3452, 4273, 4970, 5751, 5817, 6599, 7052, 8200, 9914, 10008, 10097, 10883, 11752, 11813, 12689, 15659]}, "edge": {"target": [], "time": []}}}, "displayed_time": "15.38", "trialTime": 16950, "trial_type": "mouselab-mdp", "trial_index": 17, "time_elapsed": 999520, "internal_node_id": "0.0-4.0-1.0-8.0"}}, {"uniqueid": "w83929499:a34423226", "current_trial": 18, "dateTime": 1664465097531, "trialdata": {"revealed_states": [], "num_clicks_accrued": [0, 0, 0, 0, 0, 0, 0, 0, 0, 0, 0, 0, 0], "stateRewards": ["", -2, -4, -24, 48, -4, 8, 48, 48, 2, 8, -48, -24], "withholdReward": true, "trial_id": "mdp_136376573354", "block": "test1", "trialIndex": 11, "score": 45, "costs": -2, "simulationMode": [null, null, null], "rewards": [-2, -4, 48], "path": ["0", "0", "1", "2", "4"], "rt": [22599, 216, 211], "actions": ["up", "up", "left"], "actionTimes": [23826, 24557, 25285], "queries": {"click": {"state": {"target": ["1", "9", "10", "11", "12", "2", "3", "4"], "time": [2195, 3367, 5340, 6643, 7547, 14445, 15130, 17595]}, "edge": {"target": [], "time": []}}, "mouseover": {"state": {"target": ["0", "1", "0", "9", "0", "0", "10", "11", "12", "2", "3", "0", "5", "4", "0", "5", "6"], "time": [1384, 1928, 2496, 3041, 4457, 4700, 5091, 6145, 7188, 14101, 14920, 15566, 16950, 17335, 17980, 18313, 18360]}, "edge": {"target": [], "time": []}}, "mouseout": {"state": {"target": ["0", "1", "0", "9", "0", "0", "9", "10", "11", "10", "12", "9", "2", "3", "0", "5", "1", "4", "0", "5", "6"], "time": [1661, 2392, 2542, 3595, 4473, 4756, 4987, 6059, 6871, 7105, 7783, 12884, 14773, 15349, 15671, 16978, 17096, 17848, 17995, 18329, 18417]}, "edge": {"target": [], "time": []}}}, "displayed_time": "25.79", "trialTime": 27644, "trial_type": "mouselab-mdp", "trial_index": 18, "time_elapsed": 1027310, "internal_node_id": "0.0-4.0-1.0-9.0"}}, {"uniqueid": "w83929499:a34423226", "current_trial": 19, "dateTime": 1664465109333, "trialdata": {"revealed_states": [], "num_clicks_accrued": [0, 0, 0, 0, 0, 0, 0, 0, 0, 0, 0, 0, 0], "stateRewards": ["", 4, -4, 48, 24, 2, 4, 24, -24, 2, 4, 24, 48], "withholdReward": true, "trial_id": "mdp_736351885282", "block": "test1", "trialIndex": 12, "score": 34, "costs": -1, "simulationMode": [null, null, null], "rewards": [2, 4, 24], "path": ["0", "0", "5", "6", "7"], "rt": [7083, 138, 314], "actions": ["right", "right", "up"], "actionTimes": [8158, 8810, 9635], "queries": {"click": {"state": {"target": ["5", "6", "7", "8"], "time": [2266, 3570, 4598, 6928]}, "edge": {"target": [], "time": []}}, "mouseover": {"state": {"target": ["0", "5", "6", "6", "5", "6", "7", "8", "8"], "time": [1308, 1342, 1426, 1665, 2006, 3106, 4446, 5570, 6703]}, "edge": {"target": [], "time": []}}, "mouseout": {"state": {"target": ["8", "5", "0", "0", "5", "6", "6", "5", "6", "6", "7", "6", "8", "8", "8"], "time": [575, 747, 932, 1329, 1401, 1483, 1785, 2843, 3923, 4205, 4854, 5300, 6375, 7122, 10815]}, "edge": {"target": [], "time": []}}}, "displayed_time": "10.15", "trialTime": 11702, "trial_type": "mouselab-mdp", "trial_index": 19, "time_elapsed": 1039112, "internal_node_id": "0.0-4.0-1.0-10.0"}}, {"uniqueid": "w83929499:a34423226", "current_trial": 20, "dateTime": 1664465127345, "trialdata": {"revealed_states": [], "num_clicks_accrued": [0, 0, 0, 0, 0, 0, 0, 0, 0, 0, 0, 0, 0], "stateRewards": ["", 2, -4, -24, -48, -2, 8, -24, 48, -2, 8, 24, -48], "withholdReward": false, "trial_id": "mdp_566582551557", "block": "test1", "trialIndex": 13, "score": 57, "costs": -2, "simulationMode": [null, null, null], "rewards": [-2, 8, 48], "path": ["0", "0", "5", "6", "8"], "rt": [12604, 80, 454], "actions": ["right", "right", "down"], "actionTimes": [13735, 14333, 15309], "queries": {"click": {"state": {"target": ["1", "2", "4", "3", "5", "9", "6", "7"], "time": [2072, 3167, 4540, 5538, 6798, 8276, 11367, 12286]}, "edge": {"target": [], "time": []}}, "mouseover": {"state": {"target": ["1", "2", "4", "3", "0", "5", "0", "9", "0", "6", "7"], "time": [1728, 2991, 4274, 5306, 6074, 6539, 7970, 8037, 8819, 11057, 11995]}, "edge": {"target": [], "time": []}}, "mouseout": {"state": {"target": ["0", "1", "2", "4", "1", "3", "0", "5", "5", "0", "9", "0", "5", "5", "9", "9", "5", "6", "7", "6", "6", "6"], "time": [1562, 2892, 4091, 4892, 5057, 5756, 6473, 7072, 7944, 8004, 8670, 8836, 9220, 9704, 9837, 10200, 10876, 11860, 12552, 13182, 16031, 16432]}, "edge": {"target": [], "time": []}}}, "displayed_time": "15.81", "trialTime": 17861, "trial_type": "mouselab-mdp", "trial_index": 20, "time_elapsed": 1057124, "internal_node_id": "0.0-4.0-1.0-11.0"}}, {"uniqueid": "w83929499:a34423226", "current_trial": 21, "dateTime": 1664465141922, "trialdata": {"revealed_states": [], "num_clicks_accrued": [0, 0, 0, 0, 0, 0, 0, 0, 0, 0, 0, 0, 0], "stateRewards": ["", -4, 4, -48, -48, -2, -8, -48, -24, 4, 8, -24, 24], "withholdReward": true, "trial_id": "mdp_449260894259", "block": "test1", "trialIndex": 14, "score": 39.75, "costs": -1.25, "simulationMode": [null, null, null], "rewards": [4, 8, 24], "path": ["0", "0", "9", "10", "12"], "rt": [9669, 78, 182], "actions": ["left", "left", "down"], "actionTimes": [10761, 11360, 12067], "queries": {"click": {"state": {"target": ["1", "9", "10", "11", "12"], "time": [5032, 6325, 7801, 8702, 9536]}, "edge": {"target": [], "time": []}}, "mouseover": {"state": {"target": ["1", "9", "10", "11", "12"], "time": [4171, 5994, 7512, 8369, 9379]}, "edge": {"target": [], "time": []}}, "mouseout": {"state": {"target": ["0", "1", "9", "9", "10", "11", "10", "12"], "time": [1420, 5399, 6731, 7462, 8262, 8915, 9263, 9782]}, "edge": {"target": [], "time": []}}}, "displayed_time": "12.58", "trialTime": 14447, "trial_type": "mouselab-mdp", "trial_index": 21, "time_elapsed": 1071701, "internal_node_id": "0.0-4.0-1.0-12.0"}}, {"uniqueid": "w83929499:a34423226", "current_trial": 22, "dateTime": 1664465154525, "trialdata": {"revealed_states": [], "num_clicks_accrued": [0, 0, 0, 0, 0, 0, 0, 0, 0, 0, 0, 0, 0], "stateRewards": ["", -2, 4, -24, -24, -2, 4, 48, 24, -4, -8, 24, -48], "withholdReward": true, "trial_id": "mdp_191839460481", "block": "test1", "trialIndex": 15, "score": 53.75, "costs": -1.25, "simulationMode": [null, null, null], "rewards": [-2, 4, 48], "path": ["0", "0", "5", "6", "7"], "rt": [7818, 139, 436], "actions": ["right", "right", "up"], "actionTimes": [8738, 9387, 10335], "queries": {"click": {"state": {"target": ["1", "5", "9", "6", "7"], "time": [1803, 3401, 4337, 6766, 7563]}, "edge": {"target": [], "time": []}}, "mouseover": {"state": {"target": ["1", "5", "0", "9", "0", "6", "7"], "time": [1588, 3176, 3935, 4017, 6230, 6530, 7330]}, "edge": {"target": [], "time": []}}, "mouseout": {"state": {"target": ["0", "1", "5", "0", "9", "0", "5", "6", "6", "7", "6"], "time": [776, 2977, 3918, 3951, 4618, 6247, 6332, 7152, 7298, 7847, 8048]}, "edge": {"target": [], "time": []}}}, "displayed_time": "10.84", "trialTime": 12481, "trial_type": "mouselab-mdp", "trial_index": 22, "time_elapsed": 1084303, "internal_node_id": "0.0-4.0-1.0-13.0"}}, {"uniqueid": "w83929499:a34423226", "current_trial": 23, "dateTime": 1664465168012, "trialdata": {"revealed_states": [], "num_clicks_accrued": [0, 0, 0, 0, 0, 0, 0, 0, 0, 0, 0, 0, 0], "stateRewards": ["", -4, 8, 24, 24, -2, 8, -48, 48, 4, -8, 48, -48], "withholdReward": true, "trial_id": "mdp_295249220524", "block": "test1", "trialIndex": 16, "score": 47.75, "costs": -1.25, "simulationMode": [null, null, null], "rewards": [4, -8, 48], "path": ["0", "0", "9", "10", "11"], "rt": [8856, 192, 327], "actions": ["left", "left", "up"], "actionTimes": [9794, 10504, 11339], "queries": {"click": {"state": {"target": ["1", "9", "10", "12", "11"], "time": [1745, 2709, 4054, 4849, 5708]}, "edge": {"target": [], "time": []}}, "mouseover": {"state": {"target": ["1", "9", "10", "12", "11", "0", "0"], "time": [1493, 2491, 3813, 4671, 5398, 6129, 8042]}, "edge": {"target": [], "time": []}}, "mouseout": {"state": {"target": ["6", "5", "1", "9", "10", "12", "11", "9", "0", "0"], "time": [499, 554, 2251, 3613, 4529, 5079, 5911, 6045, 6317, 12012]}, "edge": {"target": [], "time": []}}}, "displayed_time": "11.86", "trialTime": 13394, "trial_type": "mouselab-mdp", "trial_index": 23, "time_elapsed": 1097791, "internal_node_id": "0.0-4.0-1.0-14.0"}}, {"uniqueid": "w83929499:a34423226", "current_trial": 24, "dateTime": 1664465179274, "trialdata": {"revealed_states": [], "num_clicks_accrued": [0, 0, 0, 0, 0, 0, 0, 0, 0, 0, 0, 0, 0], "stateRewards": ["", -4, 8, -24, -24, 4, -8, 48, -24, -4, -8, -24, -48], "withholdReward": false, "trial_id": "mdp_391766721791", "block": "test1", "trialIndex": 17, "score": 47.75, "costs": -1.25, "simulationMode": [null, null, null], "rewards": [4, -8, 48], "path": ["0", "0", "5", "6", "7"], "rt": [6507, 227, 408], "actions": ["right", "right", "up"], "actionTimes": [7720, 8463, 9378], "queries": {"click": {"state": {"target": ["1", "9", "5", "6", "7"], "time": [1946, 3468, 4571, 5820, 6621]}, "edge": {"target": [], "time": []}}, "mouseover": {"state": {"target": ["1", "9", "0", "5", "6", "6", "7"], "time": [1668, 2638, 4088, 4170, 5288, 5587, 6471]}, "edge": {"target": [], "time": []}}, "mouseout": {"state": {"target": ["5", "9", "1", "9", "0", "5", "6", "6", "7"], "time": [497, 814, 2438, 4053, 4142, 5252, 5326, 6422, 7034]}, "edge": {"target": [], "time": []}}}, "displayed_time": "9.88", "trialTime": 11158, "trial_type": "mouselab-mdp", "trial_index": 24, "time_elapsed": 1109053, "internal_node_id": "0.0-4.0-1.0-15.0"}}, {"uniqueid": "w83929499:a34423226", "current_trial": 25, "dateTime": 1664465194702, "trialdata": {"revealed_states": [], "num_clicks_accrued": [0, 0, 0, 0, 0, 0, 0, 0, 0, 0, 0, 0, 0], "stateRewards": ["", -4, -4, 24, -48, -2, 8, -24, -48, -4, 4, 24, -48], "withholdReward": false, "trial_id": "mdp_934626330092", "block": "test1", "trialIndex": 18, "score": 19.5, "costs": -1.5, "simulationMode": [null, null, null], "rewards": [-4, -4, 24], "path": ["0", "0", "1", "2", "3"], "rt": [10414, 257, 402], "actions": ["up", "up", "right"], "actionTimes": [11679, 12439, 13351], "queries": {"click": {"state": {"target": ["1", "9", "5", "2", "4", "3"], "time": [1970, 3025, 4073, 6765, 7445, 9738]}, "edge": {"target": [], "time": []}}, "mouseover": {"state": {"target": ["1", "9", "0", "5", "2", "4", "6", "3", "7", "6"], "time": [1675, 2789, 3571, 3756, 6502, 7269, 8117, 9470, 10082, 10216]}, "edge": {"target": [], "time": []}}, "mouseout": {"state": {"target": ["5", "1", "9", "0", "5", "2", "4", "6", "3", "7", "6", "8"], "time": [800, 2492, 3538, 3629, 6203, 7152, 7785, 9367, 9999, 10119, 10698, 14861]}, "edge": {"target": [], "time": []}}}, "displayed_time": "13.87", "trialTime": 15315, "trial_type": "mouselab-mdp", "trial_index": 25, "time_elapsed": 1124481, "internal_node_id": "0.0-4.0-1.0-16.0"}}, {"uniqueid": "w83929499:a34423226", "current_trial": 26, "dateTime": 1664465207905, "trialdata": {"revealed_states": [], "num_clicks_accrued": [0, 0, 0, 0, 0, 0, 0, 0, 0, 0, 0, 0, 0], "stateRewards": ["", 4, -4, 48, -48, 4, -4, 24, -24, 4, 8, -24, -48], "withholdReward": true, "trial_id": "mdp_433630527224", "block": "test1", "trialIndex": 19, "score": 52, "costs": -1, "simulationMode": [null, null, null], "rewards": [4, -4, 48], "path": ["0", "0", "1", "2", "3"], "rt": [4903, 206, 439], "actions": ["up", "up", "right"], "actionTimes": [5767, 6493, 7439], "queries": {"click": {"state": {"target": ["1", "2", "4", "3"], "time": [1728, 2725, 3587, 4418]}, "edge": {"target": [], "time": []}}, "mouseover": {"state": {"target": ["1", "2", "4", "3"], "time": [1573, 2476, 3387, 4186]}, "edge": {"target": [], "time": []}}, "mouseout": {"state": {"target": ["0", "1", "1", "2", "4", "2", "3", "5", "8"], "time": [1306, 2059, 2356, 3254, 3936, 4074, 4669, 8615, 11799]}, "edge": {"target": [], "time": []}}}, "displayed_time": "10.86", "trialTime": 13079, "trial_type": "mouselab-mdp", "trial_index": 26, "time_elapsed": 1137684, "internal_node_id": "0.0-4.0-1.0-17.0"}}, {"uniqueid": "w83929499:a34423226", "current_trial": 27, "dateTime": 1664465222105, "trialdata": {"revealed_states": [], "num_clicks_accrued": [0, 0, 0, 0, 0, 0, 0, 0, 0, 0, 0, 0, 0], "stateRewards": ["", 2, 8, 24, -48, 4, 8, 24, 24, 4, -8, 48, 48], "withholdReward": false, "trial_id": "mdp_646103824875", "block": "test1", "trialIndex": 20, "score": 40.25, "costs": -0.75, "simulationMode": [null, null, null], "rewards": [4, 8, 24], "path": ["0", "0", "5", "6", "7"], "rt": [4236, 184, 489], "actions": ["right", "right", "up"], "actionTimes": [5138, 5838, 6841], "queries": {"click": {"state": {"target": ["5", "6", "7"], "time": [2194, 3155, 3932]}, "edge": {"target": [], "time": []}}, "mouseover": {"state": {"target": ["5", "6", "7"], "time": [1952, 2784, 3705]}, "edge": {"target": [], "time": []}}, "mouseout": {"state": {"target": ["6", "5", "5", "6", "7"], "time": [386, 576, 2652, 3576, 4252]}, "edge": {"target": [], "time": []}}}, "displayed_time": "9.90", "trialTime": 14090, "trial_type": "mouselab-mdp", "trial_index": 27, "time_elapsed": 1151884, "internal_node_id": "0.0-4.0-1.0-18.0"}}, {"uniqueid": "w83929499:a34423226", "current_trial": 28, "dateTime": 1664465236643, "trialdata": {"revealed_states": [], "num_clicks_accrued": [0, 0, 0, 0, 0, 0, 0, 0, 0, 0, 0, 0, 0], "stateRewards": ["", 2, -8, -24, 48, 4, -8, -24, -24, 2, 8, -24, 24], "withholdReward": true, "trial_id": "mdp_480787552818", "block": "test1", "trialIndex": 21, "score": 38, "costs": -1, "simulationMode": [null, null, null], "rewards": [2, 8, 24], "path": ["0", "0", "9", "10", "12"], "rt": [7331, 113, 262], "actions": ["left", "left", "down"], "actionTimes": [11397, 12018, 12799], "queries": {"click": {"state": {"target": ["9", "10", "11", "12"], "time": [6369, 8317, 9127, 10015]}, "edge": {"target": [], "time": []}}, "mouseover": {"state": {"target": ["9", "10", "11", "12"], "time": [5042, 7698, 8899, 9804]}, "edge": {"target": [], "time": []}}, "mouseout": {"state": {"target": ["6", "5", "9", "10", "11", "10", "12"], "time": [765, 970, 7506, 8822, 9344, 9715, 10194]}, "edge": {"target": [], "time": []}}}, "displayed_time": "13.30", "trialTime": 14450, "trial_type": "mouselab-mdp", "trial_index": 28, "time_elapsed": 1166421, "internal_node_id": "0.0-4.0-1.0-19.0"}}, {"uniqueid": "w83929499:a34423226", "current_trial": 29, "dateTime": 1664465261705, "trialdata": {"revealed_states": [], "num_clicks_accrued": [0, 0, 0, 0, 0, 0, 0, 0, 0, 0, 0, 0, 0], "stateRewards": ["", 4, 4, -24, -48, 2, 4, 24, -48, 2, 4, 24, 24], "withholdReward": true, "trial_id": "mdp_223558518218", "block": "test1", "trialIndex": 22, "score": 33, "costs": -2, "simulationMode": [null, null, null], "rewards": [2, 4, 24], "path": ["0", "0", "5", "6", "7"], "rt": [14404, 1765, 1594], "actions": ["right", "right", "up"], "actionTimes": [16799, 19078, 21187], "queries": {"click": {"state": {"target": ["1", "2", "4", "3", "5", "6", "8", "7"], "time": [7311, 8455, 9312, 10177, 11978, 13117, 14015, 14807]}, "edge": {"target": [], "time": []}}, "mouseover": {"state": {"target": ["1", "2", "4", "3", "5", "6", "8", "7"], "time": [6937, 8154, 9140, 9886, 11752, 12766, 13864, 14600]}, "edge": {"target": [], "time": []}}, "mouseout": {"state": {"target": ["0", "1", "2", "4", "2", "3", "5", "6", "8", "6", "7"], "time": [2710, 8069, 8927, 9736, 9852, 10584, 12650, 13764, 14368, 14514, 15113]}, "edge": {"target": [], "time": []}}}, "displayed_time": "21.69", "trialTime": 24941, "trial_type": "mouselab-mdp", "trial_index": 29, "time_elapsed": 1191483, "internal_node_id": "0.0-4.0-1.0-20.0"}}, {"uniqueid": "w83929499:a34423226", "current_trial": 30, "dateTime": 1664465273542, "trialdata": {"revealed_states": [], "num_clicks_accrued": [0, 0, 0, 0, 0, 0, 0, 0, 0, 0, 0, 0, 0], "stateRewards": ["", 4, 4, 48, -24, -4, -8, 24, -24, 2, -8, -24, 24], "withholdReward": true, "trial_id": "mdp_933201675789", "block": "test1", "trialIndex": 23, "score": 22, "costs": -1, "simulationMode": [null, null, null], "rewards": [2, -8, 24], "path": ["0", "0", "9", "10", "12"], "rt": [5416, 382, 1235], "actions": ["left", "left", "down"], "actionTimes": [7122, 8019, 9771], "queries": {"click": {"state": {"target": ["9", "10", "12", "11"], "time": [2834, 3692, 4476, 5720]}, "edge": {"target": [], "time": []}}, "mouseover": {"state": {"target": ["9", "10", "12", "11", "0"], "time": [2561, 3474, 4287, 5341, 6288]}, "edge": {"target": [], "time": []}}, "mouseout": {"state": {"target": ["5", "9", "10", "12", "11", "0", "5", "6", "8"], "time": [874, 3406, 4155, 4827, 6024, 6424, 8801, 10886, 10987]}, "edge": {"target": [], "time": []}}}, "displayed_time": "10.29", "trialTime": 11731, "trial_type": "mouselab-mdp", "trial_index": 30, "time_elapsed": 1203320, "internal_node_id": "0.0-4.0-1.0-21.0"}}, {"uniqueid": "w83929499:a34423226", "current_trial": 31, "dateTime": 1664465291775, "trialdata": {"revealed_states": [], "num_clicks_accrued": [0, 0, 0, 0, 0, 0, 0, 0, 0, 0, 0, 0, 0], "stateRewards": ["", -2, -4, -48, -48, 4, 8, 24, -48, 4, -8, 24, 24], "withholdReward": true, "trial_id": "mdp_749799219195", "block": "test1", "trialIndex": 24, "score": 39, "costs": -2, "simulationMode": [null, null, null], "rewards": [4, 8, 24], "path": ["0", "0", "5", "6", "7"], "rt": [12920, 160, 1169], "actions": ["right", "right", "up"], "actionTimes": [13837, 14504, 16179], "queries": {"click": {"state": {"target": ["1", "9", "5", "6", "7", "10", "11", "12"], "time": [1796, 5137, 8260, 9055, 9704, 11030, 11723, 12481]}, "edge": {"target": [], "time": []}}, "mouseover": {"state": {"target": ["1", "0", "9", "10", "5", "6", "5", "10", "0", "5", "6", "7", "0", "10", "11", "12"], "time": [1538, 3143, 3301, 6332, 6667, 6818, 7115, 7585, 7797, 8030, 8763, 9519, 10162, 10415, 11381, 12219]}, "edge": {"target": [], "time": []}}, "mouseout": {"state": {"target": ["0", "1", "0", "9", "10", "9", "5", "6", "5", "9", "10", "9", "0", "5", "6", "7", "5", "0", "9", "10", "11", "10", "12"], "time": [792, 2287, 3169, 6226, 6603, 6633, 6684, 6981, 7236, 7347, 7647, 7730, 7965, 8735, 9462, 10047, 10146, 10240, 10328, 11299, 11949, 12144, 12662]}, "edge": {"target": [], "time": []}}}, "displayed_time": "16.69", "trialTime": 18090, "trial_type": "mouselab-mdp", "trial_index": 31, "time_elapsed": 1221554, "internal_node_id": "0.0-4.0-1.0-22.0"}}, {"uniqueid": "w83929499:a34423226", "current_trial": 32, "dateTime": 1664465302911, "trialdata": {"revealed_states": [], "num_clicks_accrued": [0, 0, 0, 0, 0, 0, 0, 0, 0, 0, 0, 0, 0], "stateRewards": ["", 2, 4, 48, 48, -2, 4, 48, -24, -4, 8, -48, 48], "withholdReward": false, "trial_id": "mdp_407586865939", "block": "test1", "trialIndex": 25, "score": 58.25, "costs": -0.75, "simulationMode": [null, null, null], "rewards": [2, 4, 48], "path": ["0", "0", "1", "2", "3"], "rt": [3768, 153, 403], "actions": ["up", "up", "right"], "actionTimes": [4771, 5442, 6360], "queries": {"click": {"state": {"target": ["1", "2", "3"], "time": [1650, 2941, 3570]}, "edge": {"target": [], "time": []}}, "mouseover": {"state": {"target": ["1", "2", "3"], "time": [1460, 2544, 3440]}, "edge": {"target": [], "time": []}}, "mouseout": {"state": {"target": ["0", "1", "2", "3", "5", "8"], "time": [728, 2474, 3322, 3922, 7475, 8853]}, "edge": {"target": [], "time": []}}}, "displayed_time": "9.00", "trialTime": 11046, "trial_type": "mouselab-mdp", "trial_index": 32, "time_elapsed": 1232690, "internal_node_id": "0.0-4.0-1.0-23.0"}}, {"uniqueid": "w83929499:a34423226", "current_trial": 33, "dateTime": 1664465316669, "trialdata": {"revealed_states": [], "num_clicks_accrued": [0, 0, 0, 0, 0, 0, 0, 0, 0, 0, 0, 0, 0], "stateRewards": ["", -2, 4, -24, 24, -4, -8, 24, -48, -4, -4, -48, -24], "withholdReward": true, "trial_id": "mdp_753137520419", "block": "test1", "trialIndex": 26, "score": 16, "costs": -1, "simulationMode": [null, null, null], "rewards": [-4, -8, 24], "path": ["0", "0", "5", "6", "7"], "rt": [7411, 120, 431], "actions": ["right", "right", "up"], "actionTimes": [8811, 9456, 10400], "queries": {"click": {"state": {"target": ["5", "6", "8", "7"], "time": [2461, 4195, 4907, 6223]}, "edge": {"target": [], "time": []}}, "mouseover": {"state": {"target": ["5", "0", "6", "8", "7"], "time": [2239, 3111, 4073, 4719, 5873]}, "edge": {"target": [], "time": []}}, "mouseout": {"state": {"target": ["0", "5", "0", "5", "6", "8", "6", "7", "5"], "time": [1073, 2987, 3178, 3877, 4586, 5424, 5538, 6552, 6735]}, "edge": {"target": [], "time": []}}}, "displayed_time": "10.91", "trialTime": 13662, "trial_type": "mouselab-mdp", "trial_index": 33, "time_elapsed": 1246448, "internal_node_id": "0.0-4.0-1.0-24.0"}}, {"uniqueid": "w83929499:a34423226", "current_trial": 34, "dateTime": 1664465329733, "trialdata": {"revealed_states": [], "num_clicks_accrued": [0, 0, 0, 0, 0, 0, 0, 0, 0, 0, 0, 0, 0], "stateRewards": ["", -4, 8, 24, -48, -4, -8, -24, 24, 2, -4, -48, 24], "withholdReward": true, "trial_id": "mdp_898449441629", "block": "test1", "trialIndex": 27, "score": 26, "costs": -1, "simulationMode": [null, null, null], "rewards": [2, -4, 24], "path": ["0", "0", "9", "10", "12"], "rt": [5182, 207, 483], "actions": ["left", "left", "down"], "actionTimes": [7309, 8032, 9029], "queries": {"click": {"state": {"target": ["9", "10", "11", "12"], "time": [3032, 3995, 5133, 5912]}, "edge": {"target": [], "time": []}}, "mouseover": {"state": {"target": ["9", "10", "11", "12"], "time": [2776, 3742, 4976, 5680]}, "edge": {"target": [], "time": []}}, "mouseout": {"state": {"target": ["0", "9", "10", "10", "11", "10", "12"], "time": [2712, 3641, 4512, 4823, 5441, 5574, 6223]}, "edge": {"target": [], "time": []}}}, "displayed_time": "11.13", "trialTime": 12944, "trial_type": "mouselab-mdp", "trial_index": 34, "time_elapsed": 1259512, "internal_node_id": "0.0-4.0-1.0-25.0"}}, {"uniqueid": "w83929499:a34423226", "current_trial": 35, "dateTime": 1664465340777, "trialdata": {"revealed_states": [], "num_clicks_accrued": [0, 0, 0, 0, 0, 0, 0, 0, 0, 0, 0, 0, 0], "stateRewards": ["", 4, 4, 24, -24, -4, -8, 48, -24, 4, 4, 48, 24], "withholdReward": true, "trial_id": "mdp_822446942217", "block": "test1", "trialIndex": 28, "score": 36.25, "costs": -0.75, "simulationMode": [null, null, null], "rewards": [4, 4, 24], "path": ["0", "0", "1", "2", "3"], "rt": [3585, 227, 587], "actions": ["up", "up", "right"], "actionTimes": [4581, 5316, 6441], "queries": {"click": {"state": {"target": ["1", "2", "3"], "time": [1846, 2782, 3470]}, "edge": {"target": [], "time": []}}, "mouseover": {"state": {"target": ["1", "2", "3"], "time": [1698, 2506, 3271]}, "edge": {"target": [], "time": []}}, "mouseout": {"state": {"target": ["0", "1", "1", "2", "3", "5"], "time": [1524, 2138, 2473, 3179, 3891, 7417]}, "edge": {"target": [], "time": []}}}, "displayed_time": "9.00", "trialTime": 10945, "trial_type": "mouselab-mdp", "trial_index": 35, "time_elapsed": 1270556, "internal_node_id": "0.0-4.0-1.0-26.0"}}, {"uniqueid": "w83929499:a34423226", "current_trial": 36, "dateTime": 1664465354400, "trialdata": {"revealed_states": [], "num_clicks_accrued": [0, 0, 0, 0, 0, 0, 0, 0, 0, 0, 0, 0, 0], "stateRewards": ["", 4, -8, 24, 48, 2, 4, 48, 48, 2, 8, -48, -48], "withholdReward": false, "trial_id": "mdp_783704746330", "block": "test1", "trialIndex": 29, "score": 58.25, "costs": -0.75, "simulationMode": [null, null, null], "rewards": [2, 4, 48], "path": ["0", "0", "5", "6", "8"], "rt": [3963, 182, 499], "actions": ["right", "right", "down"], "actionTimes": [5064, 5766, 6784], "queries": {"click": {"state": {"target": ["5", "6", "8"], "time": [2065, 3105, 3929]}, "edge": {"target": [], "time": []}}, "mouseover": {"state": {"target": ["5", "6", "8"], "time": [1872, 2770, 3719]}, "edge": {"target": [], "time": []}}, "mouseout": {"state": {"target": ["0", "5", "6", "8"], "time": [1722, 2721, 3636, 4285]}, "edge": {"target": [], "time": []}}}, "displayed_time": "11.10", "trialTime": 13512, "trial_type": "mouselab-mdp", "trial_index": 36, "time_elapsed": 1284179, "internal_node_id": "0.0-4.0-1.0-27.0"}}, {"uniqueid": "w83929499:a34423226", "current_trial": 37, "dateTime": 1664465366688, "trialdata": {"revealed_states": [], "num_clicks_accrued": [0, 0, 0, 0, 0, 0, 0, 0, 0, 0, 0, 0, 0], "stateRewards": ["", -2, -4, -48, -48, 4, -4, 48, 24, 4, 4, 48, 48], "withholdReward": true, "trial_id": "mdp_950960813932", "block": "test1", "trialIndex": 30, "score": 60.25, "costs": -0.75, "simulationMode": [null, null, null], "rewards": [4, 4, 48], "path": ["0", "0", "9", "10", "11"], "rt": [4124, 183, 395], "actions": ["left", "left", "up"], "actionTimes": [5214, 5903, 6814], "queries": {"click": {"state": {"target": ["9", "10", "11"], "time": [2030, 3289, 4103]}, "edge": {"target": [], "time": []}}, "mouseover": {"state": {"target": ["9", "10", "11"], "time": [1789, 3073, 3919]}, "edge": {"target": [], "time": []}}, "mouseout": {"state": {"target": ["0", "9", "10", "11", "9"], "time": [1673, 2903, 3836, 4806, 7315]}, "edge": {"target": [], "time": []}}}, "displayed_time": "10.09", "trialTime": 12178, "trial_type": "mouselab-mdp", "trial_index": 37, "time_elapsed": 1296466, "internal_node_id": "0.0-4.0-1.0-28.0"}}, {"uniqueid": "w83929499:a34423226", "current_trial": 38, "dateTime": 1664465379314, "trialdata": {"revealed_states": [], "num_clicks_accrued": [0, 0, 0, 0, 0, 0, 0, 0, 0, 0, 0, 0, 0], "stateRewards": ["", 2, 4, -48, -48, 2, 4, 48, -24, -2, 8, 48, -48], "withholdReward": true, "trial_id": "mdp_258528916140", "block": "test1", "trialIndex": 31, "score": 58.25, "costs": -0.75, "simulationMode": [null, null, null], "rewards": [2, 4, 48], "path": ["0", "0", "5", "6", "7"], "rt": [3960, 187, 296], "actions": ["right", "right", "up"], "actionTimes": [5087, 5786, 6596], "queries": {"click": {"state": {"target": ["5", "6", "7"], "time": [2170, 3010, 3857]}, "edge": {"target": [], "time": []}}, "mouseover": {"state": {"target": ["5", "6", "7"], "time": [1983, 2765, 3621]}, "edge": {"target": [], "time": []}}, "mouseout": {"state": {"target": ["0", "5", "6", "7"], "time": [952, 2716, 3523, 7695]}, "edge": {"target": [], "time": []}}}, "displayed_time": "10.13", "trialTime": 12495, "trial_type": "mouselab-mdp", "trial_index": 38, "time_elapsed": 1309093, "internal_node_id": "0.0-4.0-1.0-29.0"}}, {"uniqueid": "w83929499:a34423226", "current_trial": 39, "dateTime": 1664465493860, "trialdata": {"rt": 114529, "stimulus": "<h1> End of block! </h1>\n\nYou have reached the end of the block 1/4. If you need a short break, feel free to take one now before moving on.\n\n<br><br>\nIn the next block, you will complete another 30 rounds of this game.\n\n<br><br>\n<div style='text-align: center;'>Press <code>space</code> to begin.</div>\n<br><br>\n<div style='text-align: center;'>(If the experiment doesn't continue, try clicking on the text and then pressing <code>space</code>.)</div>", "response": " ", "trial_id": "mdp_ready_2", "trial_type": "html-keyboard-response", "trial_index": 39, "time_elapsed": 1423639, "internal_node_id": "0.0-4.0-2.0"}}, {"uniqueid": "w83929499:a34423226", "current_trial": 40, "dateTime": 1664465510153, "trialdata": {"revealed_states": [], "num_clicks_accrued": [0, 0, 0, 0, 0, 0, 0, 0, 0, 0, 0, 0, 0], "stateRewards": ["", -4, -8, -48, 48, -2, 8, 48, 48, -2, -4, -48, -48], "withholdReward": false, "trial_id": "mdp_752833580638", "block": "test2", "trialIndex": 32, "score": 58.25, "costs": -0.75, "simulationMode": [null, null, null], "rewards": [-2, 8, 48], "path": ["0", "0", "5", "6", "8"], "rt": [6874, 287, 490], "actions": ["right", "right", "down"], "actionTimes": [9822, 10621, 11625], "queries": {"click": {"state": {"target": ["5", "6", "8"], "time": [4799, 7290, 8290]}, "edge": {"target": [], "time": []}}, "mouseover": {"state": {"target": ["5", "9", "6", "8"], "time": [3105, 5653, 7001, 8129]}, "edge": {"target": [], "time": []}}, "mouseout": {"state": {"target": ["7", "6", "0", "5", "5", "9", "5", "6", "6", "8"], "time": [2188, 2249, 3055, 5125, 5336, 6236, 6885, 7551, 7934, 8617]}, "edge": {"target": [], "time": []}}}, "displayed_time": "12.95", "trialTime": 16176, "trial_type": "mouselab-mdp", "trial_index": 40, "time_elapsed": 1439932, "internal_node_id": "0.0-4.0-3.0-0.0"}}, {"uniqueid": "w83929499:a34423226", "current_trial": 41, "dateTime": 1664465522645, "trialdata": {"revealed_states": [], "num_clicks_accrued": [0, 0, 0, 0, 0, 0, 0, 0, 0, 0, 0, 0, 0], "stateRewards": ["", -4, 8, -48, -48, -2, -8, -24, -48, 2, -4, -48, 24], "withholdReward": false, "trial_id": "mdp_743906784415", "block": "test2", "trialIndex": 33, "score": 26, "costs": -1, "simulationMode": [null, null, null], "rewards": [2, -4, 24], "path": ["0", "0", "9", "10", "12"], "rt": [6508, 383, 608], "actions": ["left", "left", "down"], "actionTimes": [7971, 8872, 10006], "queries": {"click": {"state": {"target": ["9", "10", "12", "11"], "time": [2342, 4229, 5233, 6220]}, "edge": {"target": [], "time": []}}, "mouseover": {"state": {"target": ["0", "9", "10", "12", "11", "0", "5"], "time": [1898, 2211, 3924, 4857, 5788, 6888, 6971]}, "edge": {"target": [], "time": []}}, "mouseout": {"state": {"target": ["6", "5", "0", "0", "9", "10", "12", "11", "0"], "time": [794, 878, 943, 1982, 3890, 4724, 5505, 6490, 6938]}, "edge": {"target": [], "time": []}}}, "displayed_time": "10.52", "trialTime": 12385, "trial_type": "mouselab-mdp", "trial_index": 41, "time_elapsed": 1452423, "internal_node_id": "0.0-4.0-3.0-1.0"}}, {"uniqueid": "w83929499:a34423226", "current_trial": 42, "dateTime": 1664465538086, "trialdata": {"revealed_states": [], "num_clicks_accrued": [0, 0, 0, 0, 0, 0, 0, 0, 0, 0, 0, 0, 0], "stateRewards": ["", -4, 8, -48, -48, -4, 4, -24, -48, 2, -4, -24, 24], "withholdReward": true, "trial_id": "mdp_183773275291", "block": "test2", "trialIndex": 34, "score": 25, "costs": -2, "simulationMode": [null, null, null], "rewards": [2, -4, 24], "path": ["0", "0", "9", "10", "12"], "rt": [10258, 122, 454], "actions": ["left", "left", "down"], "actionTimes": [11324, 11961, 12924], "queries": {"click": {"state": {"target": ["1", "2", "3", "4", "5", "9", "10", "11"], "time": [1665, 3157, 3876, 4654, 5898, 7341, 8134, 8966]}, "edge": {"target": [], "time": []}}, "mouseover": {"state": {"target": ["1", "2", "3", "4", "7", "6", "5", "0", "9", "10", "11", "12"], "time": [1495, 2979, 3611, 4392, 4992, 5341, 5691, 6523, 6590, 7890, 8796, 9629]}, "edge": {"target": [], "time": []}}, "mouseout": {"state": {"target": ["5", "0", "1", "2", "3", "2", "4", "1", "7", "6", "5", "0", "9", "10", "11", "12"], "time": [472, 1398, 1941, 3561, 4309, 4358, 4843, 4942, 5274, 5558, 6491, 6556, 7828, 8671, 9322, 10104]}, "edge": {"target": [], "time": []}}}, "displayed_time": "13.44", "trialTime": 15342, "trial_type": "mouselab-mdp", "trial_index": 42, "time_elapsed": 1467865, "internal_node_id": "0.0-4.0-3.0-2.0"}}, {"uniqueid": "w83929499:a34423226", "current_trial": 43, "dateTime": 1664465550534, "trialdata": {"revealed_states": [], "num_clicks_accrued": [0, 0, 0, 0, 0, 0, 0, 0, 0, 0, 0, 0, 0], "stateRewards": ["", -2, 4, -24, 24, -4, -8, 24, -48, -4, -4, -48, -24], "withholdReward": true, "trial_id": "mdp_753137520419", "block": "test2", "trialIndex": 35, "score": 16, "costs": -1, "simulationMode": [null, null, null], "rewards": [-4, -8, 24], "path": ["0", "0", "5", "6", "7"], "rt": [5988, 358, 210], "actions": ["right", "right", "up"], "actionTimes": [6950, 7823, 8543], "queries": {"click": {"state": {"target": ["5", "6", "8", "7"], "time": [1721, 3347, 3970, 5324]}, "edge": {"target": [], "time": []}}, "mouseover": {"state": {"target": ["5", "1", "6", "6", "8", "7"], "time": [1527, 2535, 2819, 3202, 3785, 4917]}, "edge": {"target": [], "time": []}}, "mouseout": {"state": {"target": ["0", "5", "1", "6", "6", "8", "8", "5", "7", "5", "6", "8"], "time": [1272, 2270, 2736, 2886, 3735, 4269, 4468, 4583, 5500, 5983, 6033, 11860]}, "edge": {"target": [], "time": []}}}, "displayed_time": "10.96", "trialTime": 12330, "trial_type": "mouselab-mdp", "trial_index": 43, "time_elapsed": 1480313, "internal_node_id": "0.0-4.0-3.0-3.0"}}, {"uniqueid": "w83929499:a34423226", "current_trial": 44, "dateTime": 1664465563262, "trialdata": {"revealed_states": [], "num_clicks_accrued": [0, 0, 0, 0, 0, 0, 0, 0, 0, 0, 0, 0, 0], "stateRewards": ["", 4, 4, -24, -48, -4, 4, -48, 24, 4, -8, -48, 48], "withholdReward": true, "trial_id": "mdp_566768794366", "block": "test2", "trialIndex": 36, "score": 48.25, "costs": -0.75, "simulationMode": [null, null, null], "rewards": [4, -8, 48], "path": ["0", "0", "9", "10", "12"], "rt": [4987, 163, 645], "actions": ["left", "left", "down"], "actionTimes": [5892, 6564, 7727], "queries": {"click": {"state": {"target": ["9", "10", "12"], "time": [1617, 2332, 4636]}, "edge": {"target": [], "time": []}}, "mouseover": {"state": {"target": ["9", "10", "12", "12", "8"], "time": [1394, 2070, 3267, 4421, 5150]}, "edge": {"target": [], "time": []}}, "mouseout": {"state": {"target": ["0", "9", "10", "10", "12", "9", "12"], "time": [1322, 2021, 2868, 3235, 3667, 4014, 5018]}, "edge": {"target": [], "time": []}}}, "displayed_time": "10.91", "trialTime": 12618, "trial_type": "mouselab-mdp", "trial_index": 44, "time_elapsed": 1493040, "internal_node_id": "0.0-4.0-3.0-4.0"}}, {"uniqueid": "w83929499:a34423226", "current_trial": 45, "dateTime": 1664465575271, "trialdata": {"revealed_states": [], "num_clicks_accrued": [0, 0, 0, 0, 0, 0, 0, 0, 0, 0, 0, 0, 0], "stateRewards": ["", 4, -8, 24, 48, 2, -4, 48, 48, 4, -8, 48, 48], "withholdReward": true, "trial_id": "mdp_962498334245", "block": "test2", "trialIndex": 37, "score": 48.25, "costs": -0.75, "simulationMode": [null, null, null], "rewards": [4, -8, 48], "path": ["0", "0", "1", "2", "4"], "rt": [5162, 1078, 1271], "actions": ["up", "up", "left"], "actionTimes": [6191, 7789, 9597], "queries": {"click": {"state": {"target": ["1", "2", "4"], "time": [1561, 2671, 3976]}, "edge": {"target": [], "time": []}}, "mouseover": {"state": {"target": ["1", "2", "4", "3"], "time": [1317, 2247, 3836, 4485]}, "edge": {"target": [], "time": []}}, "mouseout": {"state": {"target": ["8", "5", "1", "2", "4", "2", "3"], "time": [482, 648, 2164, 3712, 4345, 4469, 4496]}, "edge": {"target": [], "time": []}}}, "displayed_time": "10.11", "trialTime": 11883, "trial_type": "mouselab-mdp", "trial_index": 45, "time_elapsed": 1505049, "internal_node_id": "0.0-4.0-3.0-5.0"}}, {"uniqueid": "w83929499:a34423226", "current_trial": 46, "dateTime": 1664465590351, "trialdata": {"revealed_states": [], "num_clicks_accrued": [0, 0, 0, 0, 0, 0, 0, 0, 0, 0, 0, 0, 0], "stateRewards": ["", -2, 8, -24, 48, -4, 4, -48, 24, 4, -8, 48, -24], "withholdReward": true, "trial_id": "mdp_425320427962", "block": "test2", "trialIndex": 38, "score": 47.75, "costs": -1.25, "simulationMode": [null, null, null], "rewards": [4, -8, 48], "path": ["0", "0", "9", "10", "11"], "rt": [8929, 350, 664], "actions": ["left", "left", "up"], "actionTimes": [10653, 11512, 12691], "queries": {"click": {"state": {"target": ["5", "1", "9", "10", "11"], "time": [4956, 6773, 7652, 8498, 9320]}, "edge": {"target": [], "time": []}}, "mouseover": {"state": {"target": ["5", "5", "1", "9", "10", "11"], "time": [3090, 4672, 6546, 7495, 8297, 9044]}, "edge": {"target": [], "time": []}}, "mouseout": {"state": {"target": ["7", "5", "0", "5", "5", "5", "5", "1", "9", "10", "11", "10", "9"], "time": [903, 1301, 1634, 3109, 5448, 6047, 6314, 7262, 8112, 8978, 9579, 9727, 9816]}, "edge": {"target": [], "time": []}}}, "displayed_time": "13.21", "trialTime": 14961, "trial_type": "mouselab-mdp", "trial_index": 46, "time_elapsed": 1520130, "internal_node_id": "0.0-4.0-3.0-6.0"}}, {"uniqueid": "w83929499:a34423226", "current_trial": 47, "dateTime": 1664465602044, "trialdata": {"revealed_states": [], "num_clicks_accrued": [0, 0, 0, 0, 0, 0, 0, 0, 0, 0, 0, 0, 0], "stateRewards": ["", 4, -8, -24, 48, -4, 8, -24, -48, -4, -4, 24, 48], "withholdReward": true, "trial_id": "mdp_282352776624", "block": "test2", "trialIndex": 39, "score": 47.75, "costs": -1.25, "simulationMode": [null, null, null], "rewards": [4, -8, 48], "path": ["0", "0", "1", "2", "4"], "rt": [6236, 178, 934], "actions": ["up", "up", "left"], "actionTimes": [7452, 8145, 9586], "queries": {"click": {"state": {"target": ["5", "1", "2", "3", "4"], "time": [1944, 3248, 4172, 5249, 5940]}, "edge": {"target": [], "time": []}}, "mouseover": {"state": {"target": ["5", "0", "1", "2", "3", "4", "7"], "time": [1778, 2489, 2878, 4021, 5091, 5790, 6312]}, "edge": {"target": [], "time": []}}, "mouseout": {"state": {"target": ["0", "5", "0", "1", "2", "3", "2", "4", "7", "6"], "time": [1612, 2405, 2538, 3771, 4920, 5604, 5735, 6137, 10931, 11081]}, "edge": {"target": [], "time": []}}}, "displayed_time": "10.10", "trialTime": 11574, "trial_type": "mouselab-mdp", "trial_index": 47, "time_elapsed": 1531822, "internal_node_id": "0.0-4.0-3.0-7.0"}}, {"uniqueid": "w83929499:a34423226", "current_trial": 48, "dateTime": 1664465619199, "trialdata": {"revealed_states": [], "num_clicks_accrued": [0, 0, 0, 0, 0, 0, 0, 0, 0, 0, 0, 0, 0], "stateRewards": ["", 2, -4, -48, -48, -2, -4, -24, -48, -2, 8, 24, 24], "withholdReward": true, "trial_id": "mdp_656069446729", "block": "test2", "trialIndex": 40, "score": 33, "costs": -2, "simulationMode": [null, null, null], "rewards": [-2, 8, 24], "path": ["0", "0", "9", "10", "11"], "rt": [12740, 166, 267], "actions": ["left", "left", "up"], "actionTimes": [13672, 14351, 15135], "queries": {"click": {"state": {"target": ["9", "1", "2", "5", "3", "4", "10", "11"], "time": [2160, 3300, 4179, 6132, 7565, 9123, 11153, 11809]}, "edge": {"target": [], "time": []}}, "mouseover": {"state": {"target": ["0", "9", "1", "2", "5", "3", "3", "4", "4", "0", "10", "11"], "time": [1580, 1996, 3011, 3960, 5763, 7007, 7366, 8442, 8989, 10522, 11021, 11621]}, "edge": {"target": [], "time": []}}, "mouseout": {"state": {"target": ["5", "0", "9", "1", "2", "5", "5", "3", "3", "2", "4", "1", "4", "1", "5", "0", "9", "10", "11", "0"], "time": [302, 1725, 2637, 3861, 4827, 6618, 6692, 7101, 7958, 8058, 8507, 8840, 9439, 9573, 10158, 10604, 10804, 11570, 12119, 16233]}, "edge": {"target": [], "time": []}}}, "displayed_time": "15.65", "trialTime": 17045, "trial_type": "mouselab-mdp", "trial_index": 48, "time_elapsed": 1548976, "internal_node_id": "0.0-4.0-3.0-8.0"}}, {"uniqueid": "w83929499:a34423226", "current_trial": 49, "dateTime": 1664465633297, "trialdata": {"revealed_states": [], "num_clicks_accrued": [0, 0, 0, 0, 0, 0, 0, 0, 0, 0, 0, 0, 0], "stateRewards": ["", 2, -8, 48, -24, 2, 8, 24, -24, 4, -4, -48, -48], "withholdReward": true, "trial_id": "mdp_130946197263", "block": "test2", "trialIndex": 41, "score": 37.25, "costs": -1.75, "simulationMode": [null, null, null], "rewards": [2, 8, 24], "path": ["0", "0", "5", "6", "7"], "rt": [9329, 627, 165], "actions": ["right", "right", "up"], "actionTimes": [10421, 11566, 12237], "queries": {"click": {"state": {"target": ["9", "10", "11", "5", "6", "7", "8"], "time": [1862, 2891, 3806, 5274, 5920, 6585, 8996]}, "edge": {"target": [], "time": []}}, "mouseover": {"state": {"target": ["9", "10", "11", "5", "6", "7", "8"], "time": [1666, 2445, 3579, 5010, 5726, 6415, 8706]}, "edge": {"target": [], "time": []}}, "mouseout": {"state": {"target": ["0", "9", "9", "10", "11", "5", "6", "7", "8"], "time": [1550, 2230, 2412, 3529, 4212, 5682, 6327, 6891, 9189]}, "edge": {"target": [], "time": []}}}, "displayed_time": "12.75", "trialTime": 13977, "trial_type": "mouselab-mdp", "trial_index": 49, "time_elapsed": 1563076, "internal_node_id": "0.0-4.0-3.0-9.0"}}, {"uniqueid": "w83929499:a34423226", "current_trial": 50, "dateTime": 1664465644006, "trialdata": {"revealed_states": [], "num_clicks_accrued": [0, 0, 0, 0, 0, 0, 0, 0, 0, 0, 0, 0, 0], "stateRewards": ["", -4, 4, -24, 24, -2, -4, 48, 24, 2, 8, -48, 24], "withholdReward": true, "trial_id": "mdp_150340189492", "block": "test2", "trialIndex": 42, "score": 28.25, "costs": -0.75, "simulationMode": [null, null, null], "rewards": [-4, 4, 24], "path": ["0", "0", "1", "2", "4"], "rt": [4177, 114, 173], "actions": ["up", "up", "left"], "actionTimes": [5132, 5762, 6452], "queries": {"click": {"state": {"target": ["1", "2", "4"], "time": [1572, 3047, 3682]}, "edge": {"target": [], "time": []}}, "mouseover": {"state": {"target": ["1", "9", "2", "4", "7"], "time": [1365, 2352, 2880, 3396, 4214]}, "edge": {"target": [], "time": []}}, "mouseout": {"state": {"target": ["0", "1", "9", "1", "2", "4", "1", "7", "8", "8"], "time": [1282, 2086, 2624, 2713, 3346, 3999, 4104, 4279, 8441, 9390]}, "edge": {"target": [], "time": []}}}, "displayed_time": "8.96", "trialTime": 10601, "trial_type": "mouselab-mdp", "trial_index": 50, "time_elapsed": 1573784, "internal_node_id": "0.0-4.0-3.0-10.0"}}, {"uniqueid": "w83929499:a34423226", "current_trial": 51, "dateTime": 1664465656050, "trialdata": {"revealed_states": [], "num_clicks_accrued": [0, 0, 0, 0, 0, 0, 0, 0, 0, 0, 0, 0, 0], "stateRewards": ["", 2, 8, 48, 24, -4, 4, -48, 24, 2, 8, 48, 48], "withholdReward": true, "trial_id": "mdp_367344599162", "block": "test2", "trialIndex": 43, "score": 62, "costs": -1, "simulationMode": [null, null, null], "rewards": [2, 8, 48], "path": ["0", "0", "1", "2", "3"], "rt": [5269, 219, 228], "actions": ["up", "up", "right"], "actionTimes": [6328, 7056, 7796], "queries": {"click": {"state": {"target": ["5", "1", "2", "3"], "time": [1883, 3582, 4395, 5115]}, "edge": {"target": [], "time": []}}, "mouseover": {"state": {"target": ["5", "0", "1", "2", "3"], "time": [1555, 2722, 3189, 4154, 4871]}, "edge": {"target": [], "time": []}}, "mouseout": {"state": {"target": ["0", "5", "0", "1", "2", "3", "7", "6"], "time": [1438, 2255, 2755, 3986, 4818, 5417, 9463, 11029]}, "edge": {"target": [], "time": []}}}, "displayed_time": "10.06", "trialTime": 11944, "trial_type": "mouselab-mdp", "trial_index": 51, "time_elapsed": 1585828, "internal_node_id": "0.0-4.0-3.0-11.0"}}, {"uniqueid": "w83929499:a34423226", "current_trial": 52, "dateTime": 1664465668513, "trialdata": {"revealed_states": [], "num_clicks_accrued": [0, 0, 0, 0, 0, 0, 0, 0, 0, 0, 0, 0, 0], "stateRewards": ["", -4, -8, 48, -24, 4, -8, 48, 48, -2, 4, -48, -24], "withholdReward": true, "trial_id": "mdp_925905402462", "block": "test2", "trialIndex": 44, "score": 47.75, "costs": -1.25, "simulationMode": [null, null, null], "rewards": [4, -8, 48], "path": ["0", "0", "5", "6", "7"], "rt": [5995, 104, 199], "actions": ["right", "right", "up"], "actionTimes": [6913, 7533, 8248], "queries": {"click": {"state": {"target": ["9", "1", "5", "6", "7"], "time": [1579, 2697, 3502, 4206, 5319]}, "edge": {"target": [], "time": []}}, "mouseover": {"state": {"target": ["9", "1", "5", "6", "7"], "time": [1402, 2314, 3282, 3914, 5180]}, "edge": {"target": [], "time": []}}, "mouseout": {"state": {"target": ["6", "5", "9", "1", "5", "6", "6", "7"], "time": [339, 456, 2032, 3164, 3830, 4797, 5096, 5612]}, "edge": {"target": [], "time": []}}}, "displayed_time": "9.92", "trialTime": 12348, "trial_type": "mouselab-mdp", "trial_index": 52, "time_elapsed": 1598292, "internal_node_id": "0.0-4.0-3.0-12.0"}}, {"uniqueid": "w83929499:a34423226", "current_trial": 53, "dateTime": 1664465680395, "trialdata": {"revealed_states": [], "num_clicks_accrued": [0, 0, 0, 0, 0, 0, 0, 0, 0, 0, 0, 0, 0], "stateRewards": ["", 4, -8, 48, -24, 4, -4, -48, -48, 4, -4, 24, 24], "withholdReward": true, "trial_id": "mdp_221562928904", "block": "test2", "trialIndex": 45, "score": 28.25, "costs": -0.75, "simulationMode": [null, null, null], "rewards": [4, -4, 24], "path": ["0", "0", "9", "10", "11"], "rt": [4115, 159, 236], "actions": ["left", "left", "up"], "actionTimes": [5605, 6274, 7015], "queries": {"click": {"state": {"target": ["9", "10", "11"], "time": [2330, 3145, 4013]}, "edge": {"target": [], "time": []}}, "mouseover": {"state": {"target": ["9", "10", "11"], "time": [2201, 2722, 3847]}, "edge": {"target": [], "time": []}}, "mouseout": {"state": {"target": ["6", "5", "9", "10", "11", "9"], "time": [721, 1051, 2685, 3798, 4214, 4397]}, "edge": {"target": [], "time": []}}}, "displayed_time": "10.49", "trialTime": 11775, "trial_type": "mouselab-mdp", "trial_index": 53, "time_elapsed": 1610174, "internal_node_id": "0.0-4.0-3.0-13.0"}}, {"uniqueid": "w83929499:a34423226", "current_trial": 54, "dateTime": 1664465698481, "trialdata": {"revealed_states": [], "num_clicks_accrued": [0, 0, 0, 0, 0, 0, 0, 0, 0, 0, 0, 0, 0], "stateRewards": ["", 2, 4, -48, -24, -4, 4, -24, 24, -2, -8, -24, 24], "withholdReward": true, "trial_id": "mdp_640720803523", "block": "test2", "trialIndex": 46, "score": 16.75, "costs": -2.25, "simulationMode": [null, null, null], "rewards": [-2, -8, 24], "path": ["0", "0", "9", "10", "12"], "rt": [13143, 23, 500], "actions": ["left", "left", "down"], "actionTimes": [14164, 14693, 15717], "queries": {"click": {"state": {"target": ["1", "2", "3", "4", "5", "6", "7", "8", "9"], "time": [1608, 2343, 2984, 6728, 8119, 8807, 9256, 10299, 12363]}, "edge": {"target": [], "time": []}}, "mouseover": {"state": {"target": ["1", "2", "3", "7", "4", "7", "6", "5", "6", "7", "8", "0", "9"], "time": [1445, 2195, 2746, 3776, 6524, 7157, 7507, 7558, 8606, 9122, 10170, 11986, 12086]}, "edge": {"target": [], "time": []}}, "mouseout": {"state": {"target": ["0", "1", "2", "3", "7", "2", "4", "2", "7", "6", "5", "6", "7", "6", "6", "8", "5", "0", "9", "12"], "time": [1346, 2095, 2711, 3244, 6225, 6474, 6907, 7024, 7174, 7523, 8558, 9022, 9488, 9588, 9921, 10587, 11952, 12035, 13119, 17398]}, "edge": {"target": [], "time": []}}}, "displayed_time": "16.23", "trialTime": 17969, "trial_type": "mouselab-mdp", "trial_index": 54, "time_elapsed": 1628260, "internal_node_id": "0.0-4.0-3.0-14.0"}}, {"uniqueid": "w83929499:a34423226", "current_trial": 55, "dateTime": 1664465721096, "trialdata": {"revealed_states": [], "num_clicks_accrued": [0, 0, 0, 0, 0, 0, 0, 0, 0, 0, 0, 0, 0], "stateRewards": ["", 2, -8, 24, -24, -2, 8, -48, -48, 2, -8, -24, -48], "withholdReward": true, "trial_id": "mdp_744278669205", "block": "test2", "trialIndex": 47, "score": -40, "costs": -3, "simulationMode": [null, null, null], "rewards": [-2, 8, -48], "path": ["0", "0", "5", "6", "8"], "rt": [15933, 1740, 936], "actions": ["right", "right", "down"], "actionTimes": [17008, 19265, 20692], "queries": {"click": {"state": {"target": ["1", "2", "4", "3", "5", "6", "8", "7", "9", "10", "12", "11"], "time": [1630, 2737, 3448, 4561, 7379, 9386, 9979, 10766, 11838, 12750, 13964, 14721]}, "edge": {"target": [], "time": []}}, "mouseover": {"state": {"target": ["1", "2", "4", "5", "3", "6", "5", "6", "0", "6", "8", "7", "0", "9", "10", "11", "12", "11"], "time": [1476, 2605, 3311, 4319, 4452, 6700, 7150, 7682, 8065, 8698, 9815, 10565, 11262, 11329, 12278, 13344, 13711, 14609]}, "edge": {"target": [], "time": []}}, "mouseout": {"state": {"target": ["0", "1", "2", "4", "1", "5", "3", "6", "5", "6", "5", "0", "5", "6", "8", "6", "7", "6", "5", "0", "9", "10", "11", "10", "12", "11", "5", "6", "8"], "time": [1264, 2088, 3220, 3773, 3940, 4335, 4901, 6884, 7636, 7994, 8048, 8260, 8451, 9615, 10446, 10548, 10948, 11213, 11246, 11296, 12215, 13229, 13595, 13679, 14294, 14893, 15176, 15342, 22002]}, "edge": {"target": [], "time": []}}}, "displayed_time": "21.21", "trialTime": 22475, "trial_type": "mouselab-mdp", "trial_index": 55, "time_elapsed": 1650874, "internal_node_id": "0.0-4.0-3.0-15.0"}}, {"uniqueid": "w83929499:a34423226", "current_trial": 56, "dateTime": 1664465737062, "trialdata": {"revealed_states": [], "num_clicks_accrued": [0, 0, 0, 0, 0, 0, 0, 0, 0, 0, 0, 0, 0], "stateRewards": ["", -4, -8, -24, 24, 4, 4, -48, -48, -4, -4, 24, -48], "withholdReward": true, "trial_id": "mdp_431592223624", "block": "test2", "trialIndex": 48, "score": 18.75, "costs": -2.25, "simulationMode": [null, null, null], "rewards": [-4, -4, 24], "path": ["0", "0", "9", "10", "11"], "rt": [10970, 97, 213], "actions": ["left", "left", "up"], "actionTimes": [11898, 12505, 13235], "queries": {"click": {"state": {"target": ["1", "5", "6", "8", "7", "9", "10", "12", "11"], "time": [1520, 2674, 3321, 3960, 4775, 6381, 8109, 8684, 10136]}, "edge": {"target": [], "time": []}}, "mouseover": {"state": {"target": ["1", "9", "0", "5", "5", "6", "8", "7", "0", "9", "10", "12", "11"], "time": [1299, 2114, 2315, 2347, 2564, 3097, 3780, 4596, 5599, 6094, 7843, 8463, 10014]}, "edge": {"target": [], "time": []}}, "mouseout": {"state": {"target": ["0", "1", "9", "0", "5", "5", "6", "8", "6", "7", "6", "0", "9", "9", "10", "12", "10", "11", "1", "5", "6"], "time": [1232, 1883, 2265, 2331, 2364, 2966, 3713, 4429, 4530, 5013, 5265, 5619, 6848, 7144, 8293, 9108, 9174, 10590, 10724, 10757, 10806]}, "edge": {"target": [], "time": []}}}, "displayed_time": "13.74", "trialTime": 15840, "trial_type": "mouselab-mdp", "trial_index": 56, "time_elapsed": 1666840, "internal_node_id": "0.0-4.0-3.0-16.0"}}, {"uniqueid": "w83929499:a34423226", "current_trial": 57, "dateTime": 1664465752621, "trialdata": {"revealed_states": [], "num_clicks_accrued": [0, 0, 0, 0, 0, 0, 0, 0, 0, 0, 0, 0, 0], "stateRewards": ["", -2, 4, -48, 24, -4, 8, 48, 24, -2, 4, -48, -24], "withholdReward": true, "trial_id": "mdp_740882974347", "block": "test2", "trialIndex": 49, "score": 28.75, "costs": -2.25, "simulationMode": [null, null, null], "rewards": [-2, 4, 24], "path": ["0", "0", "1", "2", "4"], "rt": [10471, 144, 206], "actions": ["up", "up", "left"], "actionTimes": [12062, 12720, 13432], "queries": {"click": {"state": {"target": ["1", "5", "9", "10", "12", "11", "2", "3", "4"], "time": [2158, 3126, 3926, 5400, 6373, 7964, 9271, 9952, 10838]}, "edge": {"target": [], "time": []}}, "mouseover": {"state": {"target": ["1", "5", "0", "9", "10", "12", "11", "11", "0", "2", "3", "4"], "time": [1968, 2867, 3601, 3750, 5040, 5934, 7399, 7680, 8396, 8996, 9779, 10643]}, "edge": {"target": [], "time": []}}, "mouseout": {"state": {"target": ["8", "5", "1", "5", "0", "9", "10", "12", "9", "11", "11", "9", "0", "2", "3", "2", "4", "2"], "time": [991, 1222, 2568, 3567, 3650, 4532, 5715, 6615, 7096, 7468, 8230, 8379, 8446, 9661, 10361, 10594, 10996, 11126]}, "edge": {"target": [], "time": []}}}, "displayed_time": "13.94", "trialTime": 15451, "trial_type": "mouselab-mdp", "trial_index": 57, "time_elapsed": 1682399, "internal_node_id": "0.0-4.0-3.0-17.0"}}, {"uniqueid": "w83929499:a34423226", "current_trial": 58, "dateTime": 1664465765498, "trialdata": {"revealed_states": [], "num_clicks_accrued": [0, 0, 0, 0, 0, 0, 0, 0, 0, 0, 0, 0, 0], "stateRewards": ["", -4, 8, 24, -24, 4, -8, -24, -24, -2, 8, -48, 24], "withholdReward": true, "trial_id": "mdp_240302100183", "block": "test2", "trialIndex": 50, "score": 31.25, "costs": -1.75, "simulationMode": [null, null, null], "rewards": [-4, 8, 24], "path": ["0", "0", "1", "2", "3"], "rt": [7999, 105, 652], "actions": ["up", "up", "right"], "actionTimes": [8960, 9577, 10739], "queries": {"click": {"state": {"target": ["5", "6", "8", "7", "1", "2", "3"], "time": [2086, 2803, 3691, 4409, 5435, 6122, 7111]}, "edge": {"target": [], "time": []}}, "mouseover": {"state": {"target": ["0", "5", "6", "8", "7", "0", "1", "2", "3"], "time": [1260, 1343, 2509, 3633, 4224, 4990, 5257, 5988, 7004]}, "edge": {"target": [], "time": []}}, "mouseout": {"state": {"target": ["0", "5", "6", "8", "6", "7", "5", "0", "1", "2", "3", "7", "6"], "time": [1293, 2476, 3558, 4140, 4207, 4723, 4929, 5106, 5889, 6987, 7538, 11784, 11884]}, "edge": {"target": [], "time": []}}}, "displayed_time": "11.25", "trialTime": 12746, "trial_type": "mouselab-mdp", "trial_index": 58, "time_elapsed": 1695276, "internal_node_id": "0.0-4.0-3.0-18.0"}}, {"uniqueid": "w83929499:a34423226", "current_trial": 59, "dateTime": 1664465775794, "trialdata": {"revealed_states": [], "num_clicks_accrued": [0, 0, 0, 0, 0, 0, 0, 0, 0, 0, 0, 0, 0], "stateRewards": ["", 4, -8, 24, 48, -2, -4, -48, 24, 2, 4, -48, -24], "withholdReward": false, "trial_id": "mdp_749974461966", "block": "test2", "trialIndex": 51, "score": -13.75, "costs": -0.75, "simulationMode": [null, null, null], "rewards": [2, 4, -24], "path": ["0", "0", "9", "10", "12"], "rt": [4490, 48, 208], "actions": ["left", "left", "down"], "actionTimes": [5308, 5864, 6605], "queries": {"click": {"state": {"target": ["9", "10", "11"], "time": [1728, 2830, 3869]}, "edge": {"target": [], "time": []}}, "mouseover": {"state": {"target": ["9", "10", "11"], "time": [1468, 2618, 3687]}, "edge": {"target": [], "time": []}}, "mouseout": {"state": {"target": ["0", "9", "9", "10", "11", "9"], "time": [1402, 2074, 2568, 3599, 4265, 4581]}, "edge": {"target": [], "time": []}}}, "displayed_time": "8.82", "trialTime": 10165, "trial_type": "mouselab-mdp", "trial_index": 59, "time_elapsed": 1705573, "internal_node_id": "0.0-4.0-3.0-19.0"}}, {"uniqueid": "w83929499:a34423226", "current_trial": 60, "dateTime": 1664465786005, "trialdata": {"revealed_states": [], "num_clicks_accrued": [0, 0, 0, 0, 0, 0, 0, 0, 0, 0, 0, 0, 0], "stateRewards": ["", -2, -8, -24, -24, 4, -4, -48, 48, 2, 8, 48, -48], "withholdReward": true, "trial_id": "mdp_498095124548", "block": "test2", "trialIndex": 52, "score": 52, "costs": -1, "simulationMode": [null, null, null], "rewards": [4, -4, 48], "path": ["0", "0", "5", "6", "8"], "rt": [5841, 30, 123], "actions": ["right", "right", "down"], "actionTimes": [6706, 7273, 7914], "queries": {"click": {"state": {"target": ["5", "6", "7", "8"], "time": [1913, 2789, 4415, 5273]}, "edge": {"target": [], "time": []}}, "mouseover": {"state": {"target": ["5", "6", "8", "7", "8"], "time": [1645, 2511, 3499, 4276, 5143]}, "edge": {"target": [], "time": []}}, "mouseout": {"state": {"target": ["0", "5", "5", "6", "8", "6", "7", "6", "8"], "time": [663, 2262, 2383, 3365, 3910, 3967, 4760, 5031, 5634]}, "edge": {"target": [], "time": []}}}, "displayed_time": "8.87", "trialTime": 10064, "trial_type": "mouselab-mdp", "trial_index": 60, "time_elapsed": 1715783, "internal_node_id": "0.0-4.0-3.0-20.0"}}, {"uniqueid": "w83929499:a34423226", "current_trial": 61, "dateTime": 1664465798386, "trialdata": {"revealed_states": [], "num_clicks_accrued": [0, 0, 0, 0, 0, 0, 0, 0, 0, 0, 0, 0, 0], "stateRewards": ["", -2, 4, 48, -24, 2, 8, 24, 48, 2, 4, -24, -48], "withholdReward": true, "trial_id": "mdp_892412058587", "block": "test2", "trialIndex": 53, "score": 54.25, "costs": -0.75, "simulationMode": [null, null, null], "rewards": [-2, 4, 48], "path": ["0", "0", "1", "2", "3"], "rt": [3629, 71, 367], "actions": ["up", "up", "right"], "actionTimes": [4428, 5015, 5878], "queries": {"click": {"state": {"target": ["1", "2", "3"], "time": [1427, 2332, 3270]}, "edge": {"target": [], "time": []}}, "mouseover": {"state": {"target": ["1", "2", "3"], "time": [1165, 2131, 3036]}, "edge": {"target": [], "time": []}}, "mouseout": {"state": {"target": ["6", "1", "2", "3", "7", "5", "8", "8", "8"], "time": [172, 2065, 2879, 3612, 6876, 7092, 8052, 9441, 10023]}, "edge": {"target": [], "time": []}}}, "displayed_time": "8.80", "trialTime": 12257, "trial_type": "mouselab-mdp", "trial_index": 61, "time_elapsed": 1728164, "internal_node_id": "0.0-4.0-3.0-21.0"}}, {"uniqueid": "w83929499:a34423226", "current_trial": 62, "dateTime": 1664465811750, "trialdata": {"revealed_states": [], "num_clicks_accrued": [0, 0, 0, 0, 0, 0, 0, 0, 0, 0, 0, 0, 0], "stateRewards": ["", 2, -4, 24, -24, 2, -8, 48, 48, 4, -4, 24, 48], "withholdReward": false, "trial_id": "mdp_947836623875", "block": "test2", "trialIndex": 54, "score": 26.25, "costs": -0.75, "simulationMode": [null, null, null], "rewards": [2, -4, 24], "path": ["0", "0", "1", "2", "3"], "rt": [3972, 89, 274], "actions": ["up", "up", "right"], "actionTimes": [6194, 6819, 7603], "queries": {"click": {"state": {"target": ["1", "2", "3"], "time": [3069, 3841, 4898]}, "edge": {"target": [], "time": []}}, "mouseover": {"state": {"target": ["0", "1", "2", "3", "7"], "time": [2327, 2832, 3614, 4664, 5398]}, "edge": {"target": [], "time": []}}, "mouseout": {"state": {"target": ["6", "5", "0", "1", "2", "3", "7", "6"], "time": [1400, 1555, 2366, 3532, 4581, 5151, 5432, 8993]}, "edge": {"target": [], "time": []}}}, "displayed_time": "11.22", "trialTime": 13235, "trial_type": "mouselab-mdp", "trial_index": 62, "time_elapsed": 1741529, "internal_node_id": "0.0-4.0-3.0-22.0"}}, {"uniqueid": "w83929499:a34423226", "current_trial": 63, "dateTime": 1664465824165, "trialdata": {"revealed_states": [], "num_clicks_accrued": [0, 0, 0, 0, 0, 0, 0, 0, 0, 0, 0, 0, 0], "stateRewards": ["", -2, -4, -48, 48, -2, -4, 24, 48, -4, -8, -24, 24], "withholdReward": true, "trial_id": "mdp_917590390609", "block": "test2", "trialIndex": 55, "score": 46.25, "costs": -0.75, "simulationMode": [null, null, null], "rewards": [-2, -4, 48], "path": ["0", "0", "1", "2", "4"], "rt": [4074, 160, 419], "actions": ["up", "up", "left"], "actionTimes": [4995, 5664, 6606], "queries": {"click": {"state": {"target": ["1", "2", "4"], "time": [1897, 2597, 3349]}, "edge": {"target": [], "time": []}}, "mouseover": {"state": {"target": ["1", "2", "4", "7"], "time": [1673, 2420, 3052, 3934]}, "edge": {"target": [], "time": []}}, "mouseout": {"state": {"target": ["6", "5", "1", "2", "4", "1", "7"], "time": [504, 537, 2270, 3019, 3668, 3768, 3951]}, "edge": {"target": [], "time": []}}}, "displayed_time": "9.92", "trialTime": 12281, "trial_type": "mouselab-mdp", "trial_index": 63, "time_elapsed": 1753944, "internal_node_id": "0.0-4.0-3.0-23.0"}}, {"uniqueid": "w83929499:a34423226", "current_trial": 64, "dateTime": 1664465835864, "trialdata": {"revealed_states": [], "num_clicks_accrued": [0, 0, 0, 0, 0, 0, 0, 0, 0, 0, 0, 0, 0], "stateRewards": ["", -4, 8, -24, 24, -2, -8, 24, -24, 4, -4, -48, 48], "withholdReward": false, "trial_id": "mdp_297684722007", "block": "test2", "trialIndex": 56, "score": 52.25, "costs": -0.75, "simulationMode": [null, null, null], "rewards": [4, -4, 48], "path": ["0", "0", "9", "10", "12"], "rt": [4627, 78, 1492], "actions": ["left", "left", "down"], "actionTimes": [6089, 6675, 8688], "queries": {"click": {"state": {"target": ["9", "10", "12"], "time": [2560, 3514, 4498]}, "edge": {"target": [], "time": []}}, "mouseover": {"state": {"target": ["9", "9", "10", "12"], "time": [2101, 2365, 3314, 4397]}, "edge": {"target": [], "time": []}}, "mouseout": {"state": {"target": ["6", "5", "0", "9", "9", "10", "12"], "time": [567, 719, 799, 2182, 3149, 4114, 4848]}, "edge": {"target": [], "time": []}}}, "displayed_time": "9.46", "trialTime": 11573, "trial_type": "mouselab-mdp", "trial_index": 64, "time_elapsed": 1765643, "internal_node_id": "0.0-4.0-3.0-24.0"}}, {"uniqueid": "w83929499:a34423226", "current_trial": 65, "dateTime": 1664465850441, "trialdata": {"revealed_states": [], "num_clicks_accrued": [0, 0, 0, 0, 0, 0, 0, 0, 0, 0, 0, 0, 0], "stateRewards": ["", 4, 8, -48, -48, 2, 4, -24, -48, 2, 8, 48, -48], "withholdReward": false, "trial_id": "mdp_902172716465", "block": "test2", "trialIndex": 57, "score": 62.25, "costs": -0.75, "simulationMode": [null, null, null], "rewards": [2, 8, 48], "path": ["0", "0", "9", "10", "11"], "rt": [4720, 142, 1026], "actions": ["left", "left", "up"], "actionTimes": [6098, 6757, 8289], "queries": {"click": {"state": {"target": ["9", "10", "11"], "time": [2867, 3833, 4488]}, "edge": {"target": [], "time": []}}, "mouseover": {"state": {"target": ["9", "10", "11", "1", "5", "8"], "time": [2548, 3620, 4264, 4879, 4984, 5187]}, "edge": {"target": [], "time": []}}, "mouseout": {"state": {"target": ["0", "9", "10", "11", "1", "5", "8", "8"], "time": [2151, 3315, 4148, 4781, 4914, 5063, 5220, 13038]}, "edge": {"target": [], "time": []}}}, "displayed_time": "10.38", "trialTime": 14460, "trial_type": "mouselab-mdp", "trial_index": 65, "time_elapsed": 1780219, "internal_node_id": "0.0-4.0-3.0-25.0"}}, {"uniqueid": "w83929499:a34423226", "current_trial": 66, "dateTime": 1664465865564, "trialdata": {"revealed_states": [], "num_clicks_accrued": [0, 0, 0, 0, 0, 0, 0, 0, 0, 0, 0, 0, 0], "stateRewards": ["", -2, 8, 48, 24, 2, -4, 48, -48, 2, 8, 24, -24], "withholdReward": true, "trial_id": "mdp_176207245985", "block": "test2", "trialIndex": 58, "score": 38, "costs": -1, "simulationMode": [null, null, null], "rewards": [2, 8, 24], "path": ["0", "0", "9", "10", "11"], "rt": [6679, 106, 365], "actions": ["left", "left", "up"], "actionTimes": [7703, 8321, 9212], "queries": {"click": {"state": {"target": ["9", "10", "12", "11"], "time": [1836, 2592, 3300, 5034]}, "edge": {"target": [], "time": []}}, "mouseover": {"state": {"target": ["0", "9", "10", "12", "11", "0"], "time": [1227, 1669, 2234, 3057, 4865, 5523]}, "edge": {"target": [], "time": []}}, "mouseout": {"state": {"target": ["5", "0", "9", "10", "12", "9", "10", "11", "9", "0", "8", "6", "5", "6", "6", "5"], "time": [537, 1469, 2201, 2976, 3618, 4551, 4715, 5360, 5466, 5544, 10843, 12758, 12895, 13124, 13583, 13623]}, "edge": {"target": [], "time": []}}}, "displayed_time": "9.73", "trialTime": 14983, "trial_type": "mouselab-mdp", "trial_index": 66, "time_elapsed": 1795343, "internal_node_id": "0.0-4.0-3.0-26.0"}}, {"uniqueid": "w83929499:a34423226", "current_trial": 67, "dateTime": 1664465883664, "trialdata": {"revealed_states": [], "num_clicks_accrued": [0, 0, 0, 0, 0, 0, 0, 0, 0, 0, 0, 0, 0], "stateRewards": ["", 2, 8, -48, 24, -2, 4, 48, 48, -2, -8, 48, 24], "withholdReward": false, "trial_id": "mdp_157355418411", "block": "test2", "trialIndex": 59, "score": 41, "costs": -2, "simulationMode": [null, null, null], "rewards": [-2, -8, 48], "path": ["0", "0", "9", "10", "11"], "rt": [12636, 113, 434], "actions": ["left", "left", "up"], "actionTimes": [14154, 14784, 15735], "queries": {"click": {"state": {"target": ["1", "2", "3", "4", "9", "10", "12", "11"], "time": [2568, 3271, 4034, 5329, 9439, 10273, 11001, 12926]}, "edge": {"target": [], "time": []}}, "mouseover": {"state": {"target": ["1", "2", "3", "4", "7", "6", "0", "9", "0", "5", "0", "9", "10", "12", "0", "11"], "time": [2379, 3095, 3877, 5145, 5925, 6008, 6875, 7358, 8490, 8523, 9039, 9239, 10105, 10838, 11936, 12393]}, "edge": {"target": [], "time": []}}, "mouseout": {"state": {"target": ["0", "1", "2", "3", "3", "2", "4", "7", "6", "0", "9", "0", "5", "0", "9", "10", "12", "0", "11", "1", "5"], "time": [2012, 2995, 3777, 4294, 4776, 4947, 5625, 5942, 6109, 6958, 8372, 8523, 8706, 9056, 9939, 10771, 11303, 11969, 13254, 13402, 16885]}, "edge": {"target": [], "time": []}}}, "displayed_time": "16.25", "trialTime": 17992, "trial_type": "mouselab-mdp", "trial_index": 67, "time_elapsed": 1813442, "internal_node_id": "0.0-4.0-3.0-27.0"}}, {"uniqueid": "w83929499:a34423226", "current_trial": 68, "dateTime": 1664465894646, "trialdata": {"revealed_states": [], "num_clicks_accrued": [0, 0, 0, 0, 0, 0, 0, 0, 0, 0, 0, 0, 0], "stateRewards": ["", 2, 4, 48, 24, -4, 8, 48, 48, 2, -4, -48, -24], "withholdReward": false, "trial_id": "mdp_822099887466", "block": "test2", "trialIndex": 60, "score": 56.25, "costs": -0.75, "simulationMode": [null, null, null], "rewards": [-4, 8, 48], "path": ["0", "0", "5", "6", "8"], "rt": [4667, 77, 272], "actions": ["right", "right", "down"], "actionTimes": [5507, 6101, 6885], "queries": {"click": {"state": {"target": ["5", "6", "8"], "time": [2413, 3786, 4393]}, "edge": {"target": [], "time": []}}, "mouseover": {"state": {"target": ["5", "6", "8"], "time": [1660, 3541, 4289]}, "edge": {"target": [], "time": []}}, "mouseout": {"state": {"target": ["0", "5", "6", "8"], "time": [510, 2858, 4207, 4695]}, "edge": {"target": [], "time": []}}}, "displayed_time": "8.84", "trialTime": 10871, "trial_type": "mouselab-mdp", "trial_index": 68, "time_elapsed": 1824425, "internal_node_id": "0.0-4.0-3.0-28.0"}}, {"uniqueid": "w83929499:a34423226", "current_trial": 69, "dateTime": 1664465913396, "trialdata": {"revealed_states": [], "num_clicks_accrued": [0, 0, 0, 0, 0, 0, 0, 0, 0, 0, 0, 0, 0], "stateRewards": ["", -4, -4, -24, -48, -4, 8, -24, -48, 4, -8, 24, -24], "withholdReward": true, "trial_id": "mdp_924927483179", "block": "test2", "trialIndex": 61, "score": 22.25, "costs": -2.75, "simulationMode": [null, null, null], "rewards": [4, -8, 24], "path": ["0", "0", "9", "10", "11"], "rt": [13260, 47, 243], "actions": ["left", "left", "up"], "actionTimes": [15127, 15681, 16461], "queries": {"click": {"state": {"target": ["1", "2", "4", "3", "5", "6", "8", "7", "9", "10", "12"], "time": [2652, 3523, 4354, 5912, 7238, 7863, 8537, 9499, 11802, 12543, 13420]}, "edge": {"target": [], "time": []}}, "mouseover": {"state": {"target": ["1", "2", "4", "3", "5", "6", "8", "7", "9", "10", "12", "11"], "time": [2464, 3327, 4233, 5258, 6491, 7723, 8338, 9304, 10320, 12351, 13317, 14217]}, "edge": {"target": [], "time": []}}, "mouseout": {"state": {"target": ["5", "1", "2", "4", "1", "3", "5", "6", "8", "7", "9", "10", "12", "11", "5", "6"], "time": [856, 3243, 4145, 4625, 4958, 6174, 7589, 8255, 8788, 9822, 12203, 13084, 13684, 14317, 14366, 14383]}, "edge": {"target": [], "time": []}}}, "displayed_time": "16.97", "trialTime": 18616, "trial_type": "mouselab-mdp", "trial_index": 69, "time_elapsed": 1843174, "internal_node_id": "0.0-4.0-3.0-29.0"}}, {"uniqueid": "w83929499:a34423226", "current_trial": 70, "dateTime": 1664465931512, "trialdata": {"rt": 18094, "stimulus": "<h1> End of block! </h1>\n\nYou have reached the end of the block 2/4. If you need a short break, feel free to take one now before moving on.\n\n<br><br>\nIn the next block, you will complete another 30 rounds of this game.\n\n<br><br>\n<div style='text-align: center;'>Press <code>space</code> to begin.</div>\n<br><br>\n<div style='text-align: center;'>(If the experiment doesn't continue, try clicking on the text and then pressing <code>space</code>.)</div>", "response": " ", "trial_id": "mdp_ready_3", "trial_type": "html-keyboard-response", "trial_index": 70, "time_elapsed": 1861291, "internal_node_id": "0.0-4.0-4.0"}}, {"uniqueid": "w83929499:a34423226", "current_trial": 71, "dateTime": 1664465943418, "trialdata": {"revealed_states": [], "num_clicks_accrued": [0, 0, 0, 0, 0, 0, 0, 0, 0, 0, 0, 0, 0], "stateRewards": ["", -4, -4, -24, 24, -4, 4, -24, 48, -2, 4, 48, -48], "withholdReward": false, "trial_id": "mdp_774757609669", "block": "test3", "trialIndex": 62, "score": 54.25, "costs": -0.75, "simulationMode": [null, null, null], "rewards": [-2, 4, 48], "path": ["0", "0", "9", "10", "11"], "rt": [5060, 123, 208], "actions": ["left", "left", "up"], "actionTimes": [6727, 7358, 8076], "queries": {"click": {"state": {"target": ["9", "10", "11"], "time": [3594, 4422, 5463]}, "edge": {"target": [], "time": []}}, "mouseover": {"state": {"target": ["9", "10", "11"], "time": [3241, 4128, 5301]}, "edge": {"target": [], "time": []}}, "mouseout": {"state": {"target": ["0", "9", "10", "11", "10", "9"], "time": [2340, 4052, 5152, 5717, 5867, 5984]}, "edge": {"target": [], "time": []}}}, "displayed_time": "9.67", "trialTime": 11782, "trial_type": "mouselab-mdp", "trial_index": 71, "time_elapsed": 1873197, "internal_node_id": "0.0-4.0-5.0-0.0"}}, {"uniqueid": "w83929499:a34423226", "current_trial": 72, "dateTime": 1664465989366, "trialdata": {"revealed_states": [], "num_clicks_accrued": [0, 0, 0, 0, 0, 0, 0, 0, 0, 0, 0, 0, 0], "stateRewards": ["", -2, 8, 48, 48, 2, 4, -48, 24, -4, -8, 48, 24], "withholdReward": true, "trial_id": "mdp_572910394648", "block": "test3", "trialIndex": 63, "score": 16.25, "costs": -0.75, "simulationMode": [null, null, null], "rewards": [-4, -8, 24], "path": ["0", "0", "9", "10", "12"], "rt": [4609, 51, 465], "actions": ["left", "left", "down"], "actionTimes": [8807, 9374, 10372], "queries": {"click": {"state": {"target": ["9", "10", "12"], "time": [6109, 6977, 7566]}, "edge": {"target": [], "time": []}}, "mouseover": {"state": {"target": ["5", "9", "10", "12"], "time": [5276, 5908, 6759, 7344]}, "edge": {"target": [], "time": []}}, "mouseout": {"state": {"target": ["6", "5", "5", "9", "10", "12"], "time": [3444, 3493, 5364, 6491, 7240, 7774]}, "edge": {"target": [], "time": []}}}, "displayed_time": "12.20", "trialTime": 45815, "trial_type": "mouselab-mdp", "trial_index": 72, "time_elapsed": 1919144, "internal_node_id": "0.0-4.0-5.0-1.0"}}, {"uniqueid": "w83929499:a34423226", "current_trial": 73, "dateTime": 1664466001119, "trialdata": {"revealed_states": [], "num_clicks_accrued": [0, 0, 0, 0, 0, 0, 0, 0, 0, 0, 0, 0, 0], "stateRewards": ["", 2, 4, -24, -48, 4, -4, 24, 48, -4, -4, -24, 48], "withholdReward": true, "trial_id": "mdp_181958792175", "block": "test3", "trialIndex": 64, "score": 28.25, "costs": -0.75, "simulationMode": [null, null, null], "rewards": [4, -4, 24], "path": ["0", "0", "5", "6", "7"], "rt": [3642, 49, 123], "actions": ["right", "right", "up"], "actionTimes": [5116, 5682, 6350], "queries": {"click": {"state": {"target": ["5", "6", "7"], "time": [2372, 3102, 3923]}, "edge": {"target": [], "time": []}}, "mouseover": {"state": {"target": ["5", "6", "7"], "time": [1985, 2833, 3752]}, "edge": {"target": [], "time": []}}, "mouseout": {"state": {"target": ["0", "5", "6", "7"], "time": [701, 2700, 3466, 4233]}, "edge": {"target": [], "time": []}}}, "displayed_time": "10.47", "trialTime": 11601, "trial_type": "mouselab-mdp", "trial_index": 73, "time_elapsed": 1930897, "internal_node_id": "0.0-4.0-5.0-2.0"}}, {"uniqueid": "w83929499:a34423226", "current_trial": 74, "dateTime": 1664466012017, "trialdata": {"revealed_states": [], "num_clicks_accrued": [0, 0, 0, 0, 0, 0, 0, 0, 0, 0, 0, 0, 0], "stateRewards": ["", -4, 8, 24, -24, 4, -8, -24, -24, -2, 8, -48, 24], "withholdReward": true, "trial_id": "mdp_240302100183", "block": "test3", "trialIndex": 65, "score": 31.5, "costs": -1.5, "simulationMode": [null, null, null], "rewards": [-4, 8, 24], "path": ["0", "0", "1", "2", "3"], "rt": [6814, 84, 152], "actions": ["up", "up", "right"], "actionTimes": [7669, 8274, 8962], "queries": {"click": {"state": {"target": ["5", "6", "8", "1", "2", "3"], "time": [1702, 2249, 2965, 5247, 5840, 6353]}, "edge": {"target": [], "time": []}}, "mouseover": {"state": {"target": ["5", "6", "8", "7", "1", "2", "3", "7"], "time": [1601, 2047, 2769, 3895, 4544, 5594, 6176, 6761]}, "edge": {"target": [], "time": []}}, "mouseout": {"state": {"target": ["0", "5", "6", "8", "7", "1", "2", "3", "7"], "time": [1397, 1999, 2730, 3530, 4111, 5510, 6093, 6660, 6809]}, "edge": {"target": [], "time": []}}}, "displayed_time": "9.47", "trialTime": 10774, "trial_type": "mouselab-mdp", "trial_index": 74, "time_elapsed": 1941796, "internal_node_id": "0.0-4.0-5.0-3.0"}}, {"uniqueid": "w83929499:a34423226", "current_trial": 75, "dateTime": 1664466023913, "trialdata": {"revealed_states": [], "num_clicks_accrued": [0, 0, 0, 0, 0, 0, 0, 0, 0, 0, 0, 0, 0], "stateRewards": ["", 2, 4, 24, 48, -2, 8, 24, -24, -4, -4, 48, 48], "withholdReward": true, "trial_id": "mdp_753439303214", "block": "test3", "trialIndex": 66, "score": 44.25, "costs": -0.75, "simulationMode": [null, null, null], "rewards": [-4, -4, 48], "path": ["0", "0", "9", "10", "12"], "rt": [3514, 1676, 595], "actions": ["left", "left", "down"], "actionTimes": [4160, 6340, 7441], "queries": {"click": {"state": {"target": ["9", "10", "12"], "time": [1426, 2187, 2931]}, "edge": {"target": [], "time": []}}, "mouseover": {"state": {"target": ["9", "10", "12"], "time": [1137, 1950, 2814]}, "edge": {"target": [], "time": []}}, "mouseout": {"state": {"target": ["6", "5", "0", "9", "10", "12"], "time": [220, 276, 1000, 1816, 2748, 3265]}, "edge": {"target": [], "time": []}}}, "displayed_time": "10.65", "trialTime": 11764, "trial_type": "mouselab-mdp", "trial_index": 75, "time_elapsed": 1953692, "internal_node_id": "0.0-4.0-5.0-4.0"}}, {"uniqueid": "w83929499:a34423226", "current_trial": 76, "dateTime": 1664466038049, "trialdata": {"revealed_states": [], "num_clicks_accrued": [0, 0, 0, 0, 0, 0, 0, 0, 0, 0, 0, 0, 0], "stateRewards": ["", 2, -4, -24, 24, 2, 8, 48, 48, 2, -8, 48, -24], "withholdReward": true, "trial_id": "mdp_330392242530", "block": "test3", "trialIndex": 67, "score": 26, "costs": -1, "simulationMode": [null, null, null], "rewards": [2, -4, 24], "path": ["0", "0", "1", "2", "4"], "rt": [8795, 56, 110], "actions": ["up", "up", "left"], "actionTimes": [10437, 11004, 11625], "queries": {"click": {"state": {"target": ["1", "2", "3", "4"], "time": [2815, 3634, 4289, 5329]}, "edge": {"target": [], "time": []}}, "mouseover": {"state": {"target": ["0", "1", "2", "3", "4", "7"], "time": [1805, 2538, 3458, 4086, 5151, 7771]}, "edge": {"target": [], "time": []}}, "mouseout": {"state": {"target": ["9", "9", "0", "1", "2", "3", "2", "4", "7", "1"], "time": [1005, 1255, 1939, 3303, 4019, 5035, 5123, 5618, 8250, 8815]}, "edge": {"target": [], "time": []}}}, "displayed_time": "12.13", "trialTime": 14017, "trial_type": "mouselab-mdp", "trial_index": 76, "time_elapsed": 1967827, "internal_node_id": "0.0-4.0-5.0-5.0"}}, {"uniqueid": "w83929499:a34423226", "current_trial": 77, "dateTime": 1664466050059, "trialdata": {"revealed_states": [], "num_clicks_accrued": [0, 0, 0, 0, 0, 0, 0, 0, 0, 0, 0, 0, 0], "stateRewards": ["", -2, -8, -24, -48, 4, -8, 48, 24, 2, 4, -48, -48], "withholdReward": false, "trial_id": "mdp_898082967464", "block": "test3", "trialIndex": 68, "score": 48.25, "costs": -0.75, "simulationMode": [null, null, null], "rewards": [4, -8, 48], "path": ["0", "0", "5", "6", "7"], "rt": [3269, 42, 216], "actions": ["right", "right", "up"], "actionTimes": [4748, 5291, 6013], "queries": {"click": {"state": {"target": ["5", "6", "7"], "time": [2274, 2907, 3577]}, "edge": {"target": [], "time": []}}, "mouseover": {"state": {"target": ["5", "6", "7"], "time": [1925, 2665, 3348]}, "edge": {"target": [], "time": []}}, "mouseout": {"state": {"target": ["7", "1", "5", "6", "7"], "time": [521, 1049, 2631, 3299, 3951]}, "edge": {"target": [], "time": []}}}, "displayed_time": "10.48", "trialTime": 11900, "trial_type": "mouselab-mdp", "trial_index": 77, "time_elapsed": 1979838, "internal_node_id": "0.0-4.0-5.0-6.0"}}, {"uniqueid": "w83929499:a34423226", "current_trial": 78, "dateTime": 1664466071438, "trialdata": {"revealed_states": [], "num_clicks_accrued": [0, 0, 0, 0, 0, 0, 0, 0, 0, 0, 0, 0, 0], "stateRewards": ["", -2, 8, 48, -24, 2, 4, -48, -24, -4, 8, -48, -48], "withholdReward": false, "trial_id": "mdp_539167561933", "block": "test3", "trialIndex": 69, "score": 57.25, "costs": -1.75, "simulationMode": [null, null, null], "rewards": [-2, 8, 48], "path": ["0", "0", "1", "2", "3"], "rt": [7423, 115, 99], "actions": ["up", "up", "right"], "actionTimes": [8359, 8979, 9596], "queries": {"click": {"state": {"target": ["5", "6", "8", "7", "1", "2", "3"], "time": [1670, 2341, 3071, 3936, 5459, 6142, 6961]}, "edge": {"target": [], "time": []}}, "mouseover": {"state": {"target": ["5", "6", "8", "7", "0", "1", "2", "3"], "time": [1569, 2052, 2917, 3724, 4848, 5152, 5970, 6780]}, "edge": {"target": [], "time": []}}, "mouseout": {"state": {"target": ["0", "5", "6", "8", "6", "7", "6", "0", "1", "2", "3", "8", "7", "6", "5", "3", "7", "6", "6", "6", "6", "6", "6", "5", "1", "6"], "time": [1418, 2017, 2852, 3583, 3650, 4289, 4616, 4898, 5864, 6763, 7339, 11210, 13740, 14273, 14424, 14857, 15006, 16688, 17437, 17903, 18386, 18852, 19534, 19967, 20334, 20567]}, "edge": {"target": [], "time": []}}}, "displayed_time": "10.11", "trialTime": 21245, "trial_type": "mouselab-mdp", "trial_index": 78, "time_elapsed": 2001217, "internal_node_id": "0.0-4.0-5.0-7.0"}}, {"uniqueid": "w83929499:a34423226", "current_trial": 79, "dateTime": 1664466083216, "trialdata": {"revealed_states": [], "num_clicks_accrued": [0, 0, 0, 0, 0, 0, 0, 0, 0, 0, 0, 0, 0], "stateRewards": ["", -4, 8, 24, -24, 4, 8, -24, -48, 2, 4, 24, -24], "withholdReward": true, "trial_id": "mdp_782187007008", "block": "test3", "trialIndex": 70, "score": 32, "costs": -1, "simulationMode": [null, null, null], "rewards": [-4, 8, 24], "path": ["0", "0", "1", "2", "3"], "rt": [4191, 143, 181], "actions": ["up", "up", "right"], "actionTimes": [5555, 6216, 6914], "queries": {"click": {"state": {"target": ["1", "2", "4", "3"], "time": [1930, 2633, 3316, 4314]}, "edge": {"target": [], "time": []}}, "mouseover": {"state": {"target": ["1", "2", "4", "3", "7"], "time": [1744, 2407, 3146, 4122, 4656]}, "edge": {"target": [], "time": []}}, "mouseout": {"state": {"target": ["6", "0", "1", "2", "4", "2", "3", "7", "7"], "time": [60, 1142, 2358, 3040, 3574, 3739, 4572, 4713, 10889]}, "edge": {"target": [], "time": []}}}, "displayed_time": "10.36", "trialTime": 11649, "trial_type": "mouselab-mdp", "trial_index": 79, "time_elapsed": 2012995, "internal_node_id": "0.0-4.0-5.0-8.0"}}, {"uniqueid": "w83929499:a34423226", "current_trial": 80, "dateTime": 1664466094688, "trialdata": {"revealed_states": [], "num_clicks_accrued": [0, 0, 0, 0, 0, 0, 0, 0, 0, 0, 0, 0, 0], "stateRewards": ["", 4, 4, -48, -24, -2, -4, 48, 24, -4, 4, 24, -48], "withholdReward": true, "trial_id": "mdp_617383046444", "block": "test3", "trialIndex": 71, "score": 45.25, "costs": -1.75, "simulationMode": [null, null, null], "rewards": [-2, -4, 48], "path": ["0", "0", "5", "6", "7"], "rt": [6914, 89, 309], "actions": ["right", "right", "up"], "actionTimes": [7683, 8291, 9110], "queries": {"click": {"state": {"target": ["1", "2", "3", "4", "5", "6", "7"], "time": [1425, 2311, 2881, 3980, 5070, 5648, 6354]}, "edge": {"target": [], "time": []}}, "mouseover": {"state": {"target": ["1", "2", "3", "4", "5", "6", "7"], "time": [1043, 2138, 2675, 3770, 4802, 5418, 6251]}, "edge": {"target": [], "time": []}}, "mouseout": {"state": {"target": ["0", "1", "2", "3", "2", "4", "2", "5", "6", "7", "6", "8", "8"], "time": [939, 1888, 2637, 3287, 3603, 4177, 4253, 5385, 6200, 6600, 6717, 10663, 11179]}, "edge": {"target": [], "time": []}}}, "displayed_time": "9.77", "trialTime": 11345, "trial_type": "mouselab-mdp", "trial_index": 80, "time_elapsed": 2024467, "internal_node_id": "0.0-4.0-5.0-9.0"}}, {"uniqueid": "w83929499:a34423226", "current_trial": 81, "dateTime": 1664466125592, "trialdata": {"revealed_states": [], "num_clicks_accrued": [0, 0, 0, 0, 0, 0, 0, 0, 0, 0, 0, 0, 0], "stateRewards": ["", 2, 4, -48, -48, 4, 4, -48, -48, -2, -8, 48, -24], "withholdReward": false, "trial_id": "mdp_175327338412", "block": "test3", "trialIndex": 72, "score": 42, "costs": -1, "simulationMode": [null, null, null], "rewards": [-2, -8, 48], "path": ["0", "0", "9", "10", "11"], "rt": [4888, 43, 110], "actions": ["left", "left", "up"], "actionTimes": [5622, 6170, 6787], "queries": {"click": {"state": {"target": ["9", "10", "12", "11"], "time": [1356, 2092, 2650, 3449]}, "edge": {"target": [], "time": []}}, "mouseover": {"state": {"target": ["0", "9", "10", "12", "11", "0"], "time": [949, 1127, 1896, 2464, 3220, 3744]}, "edge": {"target": [], "time": []}}, "mouseout": {"state": {"target": ["0", "0", "9", "10", "12", "11", "0", "6", "0", "9", "9", "9", "9", "9", "9"], "time": [603, 1004, 1749, 2384, 2862, 3614, 3778, 9212, 10438, 10838, 13515, 15167, 15527, 16839, 17999]}, "edge": {"target": [], "time": []}}}, "displayed_time": "8.73", "trialTime": 30767, "trial_type": "mouselab-mdp", "trial_index": 81, "time_elapsed": 2055371, "internal_node_id": "0.0-4.0-5.0-10.0"}}, {"uniqueid": "w83929499:a34423226", "current_trial": 82, "dateTime": 1664466136855, "trialdata": {"revealed_states": [], "num_clicks_accrued": [0, 0, 0, 0, 0, 0, 0, 0, 0, 0, 0, 0, 0], "stateRewards": ["", 4, -4, 48, -48, 2, 8, -48, 24, -2, -4, -24, 48], "withholdReward": true, "trial_id": "mdp_937564992306", "block": "test3", "trialIndex": 73, "score": 46, "costs": -1, "simulationMode": [null, null, null], "rewards": [-2, -4, 48], "path": ["0", "0", "9", "10", "12"], "rt": [4636, 11, 189], "actions": ["left", "left", "down"], "actionTimes": [5722, 6250, 6962], "queries": {"click": {"state": {"target": ["9", "10", "11", "12"], "time": [2298, 2901, 3429, 4385]}, "edge": {"target": [], "time": []}}, "mouseover": {"state": {"target": ["9", "10", "11", "0", "12"], "time": [1777, 2676, 3241, 3859, 4158]}, "edge": {"target": [], "time": []}}, "mouseout": {"state": {"target": ["0", "9", "10", "11", "0", "12"], "time": [1677, 2627, 3142, 3674, 3891, 4601]}, "edge": {"target": [], "time": []}}}, "displayed_time": "10.09", "trialTime": 11139, "trial_type": "mouselab-mdp", "trial_index": 82, "time_elapsed": 2066633, "internal_node_id": "0.0-4.0-5.0-11.0"}}, {"uniqueid": "w83929499:a34423226", "current_trial": 83, "dateTime": 1664466157205, "trialdata": {"revealed_states": [], "num_clicks_accrued": [0, 0, 0, 0, 0, 0, 0, 0, 0, 0, 0, 0, 0], "stateRewards": ["", -2, -4, -24, -48, -4, -8, -48, 24, -4, -8, -24, -48], "withholdReward": true, "trial_id": "mdp_475782454549", "block": "test3", "trialIndex": 74, "score": 14, "costs": -3, "simulationMode": [null, null, null], "rewards": [-4, -8, 24], "path": ["0", "0", "5", "6", "8"], "rt": [15524, 477, 211], "actions": ["right", "right", "down"], "actionTimes": [16817, 17801, 18518], "queries": {"click": {"state": {"target": ["1", "2", "3", "4", "9", "10", "12", "5", "6", "7", "8", "11"], "time": [2559, 3192, 3711, 4816, 5990, 7559, 7971, 9047, 9584, 10414, 12259, 15578]}, "edge": {"target": [], "time": []}}, "mouseover": {"state": {"target": ["0", "1", "2", "3", "4", "9", "5", "0", "10", "12", "5", "6", "8", "7", "0", "8", "11"], "time": [1762, 2292, 2969, 3519, 4468, 5649, 6566, 7132, 7435, 7864, 8481, 9329, 9896, 10213, 11701, 11960, 15345]}, "edge": {"target": [], "time": []}}, "mouseout": {"state": {"target": ["0", "0", "1", "2", "3", "4", "9", "5", "0", "9", "10", "12", "5", "6", "8", "6", "7", "9", "0", "5", "8", "8", "5", "11"], "time": [571, 1794, 2885, 3436, 3908, 4984, 6322, 7115, 7149, 7199, 7781, 8197, 9230, 9798, 10075, 10146, 10647, 11700, 11727, 11761, 12579, 14924, 15024, 15740]}, "edge": {"target": [], "time": []}}}, "displayed_time": "19.05", "trialTime": 20194, "trial_type