{"condition": 1, "counterbalance": 0, "assignmentId": "a99491022", "workerId": "w29142510", "hitId": "h63545340", "currenttrial": 155, "bonus": 0, "data": [{"uniqueid": "w29142510:a99491022", "current_trial": 0, "dateTime": 1664555058802, "trialdata": {"success": true, "trial_type": "fullscreen", "trial_index": 0, "time_elapsed": 79167, "internal_node_id": "0.0-0.0"}}, {"uniqueid": "w29142510:a99491022", "current_trial": 1, "dateTime": 1664555075376, "trialdata": {"view_history": [{"page_index": 0, "viewing_time": 16567}], "rt": 16568, "trial_id": "exp_instructions_no_distractor", "trial_type": "instructions", "trial_index": 1, "time_elapsed": 95742, "internal_node_id": "0.0-1.0"}}, {"uniqueid": "w29142510:a99491022", "current_trial": 2, "dateTime": 1664555080015, "trialdata": {"success": true, "trial_type": "fullscreen", "trial_index": 2, "time_elapsed": 100381, "internal_node_id": "0.0-2.0-0.0"}}, {"uniqueid": "w29142510:a99491022", "current_trial": 3, "dateTime": 1664555178233, "trialdata": {"view_history": [{"page_index": 0, "viewing_time": 41790}, {"page_index": 1, "viewing_time": 27536}, {"page_index": 2, "viewing_time": 13392}, {"page_index": 3, "viewing_time": 8056}, {"page_index": 4, "viewing_time": 7440}], "rt": 98214, "trial_id": "mouselab_instructions_1", "trial_type": "instructions", "trial_index": 3, "time_elapsed": 198599, "internal_node_id": "0.0-2.0-1.0"}}, {"uniqueid": "w29142510:a99491022", "current_trial": 4, "dateTime": 1664555206229, "trialdata": {"revealed_states": [], "num_clicks_accrued": [0, 0, 0, 0, 0, 0, 0, 0, 0, 0, 0, 0, 0], "stateRewards": ["", -10, 10, 10, 10, -10, 10, -10, -10, 10, 10, -10, -10], "withholdReward": false, "trial_id": "practice_1", "block": "test", "trialIndex": 0, "score": -8, "costs": 0, "simulationMode": [null, null, null], "rewards": [-10, 10, -10], "path": ["0", "0", "5", "6", "8"], "rt": [9389, 1750, 617], "actions": ["right", "right", "down"], "actionTimes": [17795, 20058, 21191], "queries": {"click": {"state": {"target": [], "time": []}, "edge": {"target": [], "time": []}}, "mouseover": {"state": {"target": [], "time": []}, "edge": {"target": [], "time": []}}, "mouseout": {"state": {"target": ["5", "1"], "time": [6228, 7594]}, "edge": {"target": [], "time": []}}}, "displayed_time": "21.71", "trialTime": 27676, "trial_type": "mouselab-mdp", "trial_index": 4, "time_elapsed": 226594, "internal_node_id": "0.0-2.0-2.0-0.0"}}, {"uniqueid": "w29142510:a99491022", "current_trial": 5, "dateTime": 1664555234603, "trialdata": {"revealed_states": [], "num_clicks_accrued": [0, 0, 0, 0, 0, 0, 0, 0, 0, 0, 0, 0, 0], "stateRewards": ["", -10, 10, -10, -10, -10, 10, -10, -10, -10, -10, -10, 10], "withholdReward": false, "trial_id": "practice_2", "block": "test", "trialIndex": 1, "score": -8.75, "costs": -0.75, "simulationMode": [null, null, null], "rewards": [-10, 10, -10], "path": ["0", "0", "5", "6", "8"], "rt": [14168, 316, 1750], "actions": ["right", "right", "down"], "actionTimes": [20302, 21125, 23391], "queries": {"click": {"state": {"target": ["1", "10", "7"], "time": [8775, 12334, 18687]}, "edge": {"target": [], "time": []}}, "mouseover": {"state": {"target": ["1", "9", "10", "9", "5", "7", "7"], "time": [7096, 10395, 10778, 12794, 13110, 13894, 17976]}, "edge": {"target": [], "time": []}}, "mouseout": {"state": {"target": ["1", "1", "9", "10", "9", "5", "7", "7", "7", "0"], "time": [2797, 10194, 10411, 12760, 12844, 13827, 13911, 18975, 26557, 27006]}, "edge": {"target": [], "time": []}}}, "displayed_time": "23.91", "trialTime": 28311, "trial_type": "mouselab-mdp", "trial_index": 5, "time_elapsed": 254969, "internal_node_id": "0.0-2.0-2.0-1.0"}}, {"uniqueid": "w29142510:a99491022", "current_trial": 6, "dateTime": 1664555311868, "trialdata": {"view_history": [{"page_index": 0, "viewing_time": 37731}, {"page_index": 1, "viewing_time": 30992}, {"page_index": 2, "viewing_time": 8536}], "rt": 77259, "trial_id": "mouselab_instructions_2_scarce", "trial_type": "instructions", "trial_index": 6, "time_elapsed": 332234, "internal_node_id": "0.0-2.0-3.0"}}, {"uniqueid": "w29142510:a99491022", "current_trial": 7, "dateTime": 1664555350182, "trialdata": {"rt": 38308, "response": {"Q0": "$-48 to $48", "Q1": "The cost is always $0.25.", "Q2": "The better I perform the higher my bonus will be.", "Q3": "No, the amount of cash at each node of the web may be different each time.", "Q4": "The score for a round is random.", "Q5": "Yes."}, "question_order": [0, 1, 2, 3, 4, 5], "correct": {"Q0": "$-48 to $48", "Q1": "The cost is always $0.25.", "Q2": "The better I perform the higher my bonus will be.", "Q3": "No, the amount of cash at each node of the web may be different each time.", "Q4": "The values of the nodes walked through from start to finish.", "Q5": "No, the spider might forget to count the money on some rounds."}, "trial_id": "mouselab_quiz_scarce", "trial_type": "survey-multi-choice", "trial_index": 7, "time_elapsed": 370548, "internal_node_id": "0.0-2.0-4.0"}}, {"uniqueid": "w29142510:a99491022", "current_trial": 8, "dateTime": 1664555380208, "trialdata": {"success": true, "trial_type": "fullscreen", "trial_index": 8, "time_elapsed": 400574, "internal_node_id": "0.0-2.1-0.1"}}, {"uniqueid": "w29142510:a99491022", "current_trial": 9, "dateTime": 1664555413654, "trialdata": {"view_history": [{"page_index": 0, "viewing_time": 12170}, {"page_index": 1, "viewing_time": 6504}, {"page_index": 2, "viewing_time": 5536}, {"page_index": 3, "viewing_time": 4960}, {"page_index": 4, "viewing_time": 4272}], "rt": 33442, "trial_id": "mouselab_instructions_1", "trial_type": "instructions", "trial_index": 9, "time_elapsed": 434020, "internal_node_id": "0.0-2.1-1.1"}}, {"uniqueid": "w29142510:a99491022", "current_trial": 10, "dateTime": 1664555425235, "trialdata": {"revealed_states": [], "num_clicks_accrued": [0, 0, 0, 0, 0, 0, 0, 0, 0, 0, 0, 0, 0], "stateRewards": ["", -10, 10, 10, 10, -10, 10, -10, -10, 10, 10, -10, -10], "withholdReward": false, "trial_id": "practice_1", "block": "test", "trialIndex": 2, "score": 11, "costs": -1, "simulationMode": [null, null, null], "rewards": [10, 10, -10], "path": ["0", "0", "9", "10", "12"], "rt": [5790, 313, 390], "actions": ["left", "left", "down"], "actionTimes": [7414, 8237, 9131], "queries": {"click": {"state": {"target": ["1", "5", "9", "11"], "time": [2463, 3198, 3854, 5302]}, "edge": {"target": [], "time": []}}, "mouseover": {"state": {"target": ["1", "5", "0", "9", "11", "10"], "time": [2158, 3024, 3458, 3757, 5091, 5690]}, "edge": {"target": [], "time": []}}, "mouseout": {"state": {"target": ["0", "1", "5", "0", "9", "9", "11", "10", "9", "5"], "time": [1475, 2758, 3425, 3525, 4124, 4957, 5590, 6141, 6373, 6440]}, "edge": {"target": [], "time": []}}}, "displayed_time": "9.64", "trialTime": 11513, "trial_type": "mouselab-mdp", "trial_index": 10, "time_elapsed": 445601, "internal_node_id": "0.0-2.1-2.1-0.1"}}, {"uniqueid": "w29142510:a99491022", "current_trial": 11, "dateTime": 1664555446009, "trialdata": {"revealed_states": [], "num_clicks_accrued": [0, 0, 0, 0, 0, 0, 0, 0, 0, 0, 0, 0, 0], "stateRewards": ["", -10, 10, -10, -10, -10, 10, -10, -10, -10, -10, -10, 10], "withholdReward": false, "trial_id": "practice_2", "block": "test", "trialIndex": 3, "score": -9.25, "costs": -1.25, "simulationMode": [null, null, null], "rewards": [-10, 10, -10], "path": ["0", "0", "1", "2", "3"], "rt": [13725, 157, 52], "actions": ["up", "up", "right"], "actionTimes": [15107, 15782, 16345], "queries": {"click": {"state": {"target": ["1", "5", "9", "2", "4"], "time": [2221, 4733, 5812, 9110, 12295]}, "edge": {"target": [], "time": []}}, "mouseover": {"state": {"target": ["5", "1", "9", "6", "5", "9", "10", "0", "2", "4"], "time": [1711, 2180, 2528, 4143, 4593, 5326, 6260, 7781, 8725, 10608]}, "edge": {"target": [], "time": []}}, "mouseout": {"state": {"target": ["6", "5", "5", "1", "9", "6", "5", "9", "10", "9", "0", "1", "2", "4", "2", "1", "1", "2", "3", "0"], "time": [944, 1094, 1994, 2461, 2911, 4543, 4926, 6076, 6781, 6976, 7926, 8576, 10341, 12493, 18324, 18407, 18574, 18640, 19374, 19457]}, "edge": {"target": [], "time": []}}}, "displayed_time": "16.86", "trialTime": 20711, "trial_type": "mouselab-mdp", "trial_index": 11, "time_elapsed": 466375, "internal_node_id": "0.0-2.1-2.1-1.1"}}, {"uniqueid": "w29142510:a99491022", "current_trial": 12, "dateTime": 1664555461087, "trialdata": {"view_history": [{"page_index": 0, "viewing_time": 7276}, {"page_index": 1, "viewing_time": 6048}, {"page_index": 2, "viewing_time": 1752}], "rt": 15076, "trial_id": "mouselab_instructions_2_scarce", "trial_type": "instructions", "trial_index": 12, "time_elapsed": 481453, "internal_node_id": "0.0-2.1-3.1"}}, {"uniqueid": "w29142510:a99491022", "current_trial": 13, "dateTime": 1664555737589, "trialdata": {"rt": 276493, "response": {"Q0": "$-48 to $48", "Q1": "The cost is always $0.25.", "Q2": "The better I perform the higher my bonus will be.", "Q3": "No, the amount of cash at each node of the web may be different each time.", "Q4": "The values of the nodes walked through from start to finish.", "Q5": "Yes."}, "question_order": [0, 1, 2, 3, 4, 5], "correct": {"Q0": "$-48 to $48", "Q1": "The cost is always $0.25.", "Q2": "The better I perform the higher my bonus will be.", "Q3": "No, the amount of cash at each node of the web may be different each time.", "Q4": "The values of the nodes walked through from start to finish.", "Q5": "No, the spider might forget to count the money on some rounds."}, "trial_id": "mouselab_quiz_scarce", "trial_type": "survey-multi-choice", "trial_index": 13, "time_elapsed": 757955, "internal_node_id": "0.0-2.1-4.1"}}, {"uniqueid": "w29142510:a99491022", "current_trial": 14, "dateTime": 1664555762815, "trialdata": {"success": true, "trial_type": "fullscreen", "trial_index": 14, "time_elapsed": 783181, "internal_node_id": "0.0-2.2-0.2"}}, {"uniqueid": "w29142510:a99491022", "current_trial": 15, "dateTime": 1664555777422, "trialdata": {"view_history": [{"page_index": 0, "viewing_time": 9861}, {"page_index": 1, "viewing_time": 1008}, {"page_index": 2, "viewing_time": 1312}, {"page_index": 3, "viewing_time": 920}, {"page_index": 4, "viewing_time": 1504}], "rt": 14605, "trial_id": "mouselab_instructions_1", "trial_type": "instructions", "trial_index": 15, "time_elapsed": 797788, "internal_node_id": "0.0-2.2-1.2"}}, {"uniqueid": "w29142510:a99491022", "current_trial": 16, "dateTime": 1664555784492, "trialdata": {"revealed_states": [], "num_clicks_accrued": [0, 0, 0, 0, 0, 0, 0, 0, 0, 0, 0, 0, 0], "stateRewards": ["", -10, 10, 10, 10, -10, 10, -10, -10, 10, 10, -10, -10], "withholdReward": false, "trial_id": "practice_1", "block": "test", "trialIndex": 4, "score": 11.5, "costs": -0.5, "simulationMode": [null, null, null], "rewards": [10, 10, -10], "path": ["0", "0", "9", "10", "11"], "rt": [2593, 114, 725], "actions": ["left", "left", "up"], "actionTimes": [3316, 3935, 5163], "queries": {"click": {"state": {"target": ["5", "9"], "time": [1161, 1473]}, "edge": {"target": [], "time": []}}, "mouseover": {"state": {"target": ["5", "0", "9", "1", "10"], "time": [1039, 1304, 1338, 1704, 2071]}, "edge": {"target": [], "time": []}}, "mouseout": {"state": {"target": ["0", "5", "0", "9", "1", "10", "9"], "time": [1005, 1288, 1321, 1621, 2021, 2304, 2404]}, "edge": {"target": [], "time": []}}}, "displayed_time": "5.67", "trialTime": 7005, "trial_type": "mouselab-mdp", "trial_index": 16, "time_elapsed": 804858, "internal_node_id": "0.0-2.2-2.2-0.2"}}, {"uniqueid": "w29142510:a99491022", "current_trial": 17, "dateTime": 1664555801837, "trialdata": {"revealed_states": [], "num_clicks_accrued": [0, 0, 0, 0, 0, 0, 0, 0, 0, 0, 0, 0, 0], "stateRewards": ["", -10, 10, -10, -10, -10, 10, -10, -10, -10, -10, -10, 10], "withholdReward": false, "trial_id": "practice_2", "block": "test", "trialIndex": 5, "score": -10.25, "costs": -2.25, "simulationMode": [null, null, null], "rewards": [-10, -10, 10], "path": ["0", "0", "9", "10", "12"], "rt": [12149, 491, 422], "actions": ["left", "left", "down"], "actionTimes": [13044, 14042, 14975], "queries": {"click": {"state": {"target": ["1", "3", "5", "9", "10", "4", "8", "7", "12"], "time": [1608, 2152, 3048, 3752, 4296, 6760, 7960, 8616, 9648]}, "edge": {"target": [], "time": []}}, "mouseover": {"state": {"target": ["1", "3", "2", "5", "9", "10", "11", "4", "2", "4", "2", "6", "8", "6", "7", "12", "11"], "time": [1287, 2005, 2587, 2937, 3637, 4054, 4520, 4887, 6336, 6586, 6919, 7583, 7702, 8269, 8519, 9568, 10051]}, "edge": {"target": [], "time": []}}, "mouseout": {"state": {"target": ["0", "1", "3", "2", "1", "5", "9", "10", "11", "4", "1", "5", "2", "4", "2", "3", "6", "8", "6", "7", "9", "12", "10", "11", "4", "2", "1", "0"], "time": [1143, 1737, 2471, 2671, 2704, 3254, 4020, 4503, 4553, 5153, 5203, 5663, 6503, 6903, 6935, 7152, 7686, 8252, 8319, 8885, 9268, 9851, 9968, 10085, 16183, 16333, 16367, 16383]}, "edge": {"target": [], "time": []}}}, "displayed_time": "15.48", "trialTime": 17285, "trial_type": "mouselab-mdp", "trial_index": 17, "time_elapsed": 822203, "internal_node_id": "0.0-2.2-2.2-1.2"}}, {"uniqueid": "w29142510:a99491022", "current_trial": 18, "dateTime": 1664555816766, "trialdata": {"view_history": [{"page_index": 0, "viewing_time": 10623}, {"page_index": 1, "viewing_time": 2663}, {"page_index": 2, "viewing_time": 1640}], "rt": 14927, "trial_id": "mouselab_instructions_2_scarce", "trial_type": "instructions", "trial_index": 18, "time_elapsed": 837132, "internal_node_id": "0.0-2.2-3.2"}}, {"uniqueid": "w29142510:a99491022", "current_trial": 19, "dateTime": 1664555990195, "trialdata": {"rt": 173421, "response": {"Q0": "$-48 to $48", "Q1": "The cost is always $0.25.", "Q2": "The better I perform the higher my bonus will be.", "Q3": "No, the amount of cash at each node of the web may be different each time.", "Q4": "The score for a round is random.", "Q5": "Yes."}, "question_order": [0, 1, 2, 3, 4, 5], "correct": {"Q0": "$-48 to $48", "Q1": "The cost is always $0.25.", "Q2": "The better I perform the higher my bonus will be.", "Q3": "No, the amount of cash at each node of the web may be different each time.", "Q4": "The values of the nodes walked through from start to finish.", "Q5": "No, the spider might forget to count the money on some rounds."}, "trial_id": "mouselab_quiz_scarce", "trial_type": "survey-multi-choice", "trial_index": 19, "time_elapsed": 1010561, "internal_node_id": "0.0-2.2-4.2"}}, {"uniqueid": "w29142510:a99491022", "current_trial": 20, "dateTime": 1664555994627, "trialdata": {"success": true, "trial_type": "fullscreen", "trial_index": 20, "time_elapsed": 1014993, "internal_node_id": "0.0-2.3-0.3"}}, {"uniqueid": "w29142510:a99491022", "current_trial": 21, "dateTime": 1664556030162, "trialdata": {"view_history": [{"page_index": 0, "viewing_time": 3269}, {"page_index": 1, "viewing_time": 2768}, {"page_index": 2, "viewing_time": 1056}, {"page_index": 3, "viewing_time": 5169}, {"page_index": 4, "viewing_time": 23271}], "rt": 35533, "trial_id": "mouselab_instructions_1", "trial_type": "instructions", "trial_index": 21, "time_elapsed": 1050528, "internal_node_id": "0.0-2.3-1.3"}}, {"uniqueid": "w29142510:a99491022", "current_trial": 22, "dateTime": 1664556037828, "trialdata": {"revealed_states": [], "num_clicks_accrued": [0, 0, 0, 0, 0, 0, 0, 0, 0, 0, 0, 0, 0], "stateRewards": ["", -10, 10, 10, 10, -10, 10, -10, -10, 10, 10, -10, -10], "withholdReward": false, "trial_id": "practice_1", "block": "test", "trialIndex": 6, "score": 11.75, "costs": -0.25, "simulationMode": [null, null, null], "rewards": [10, 10, -10], "path": ["0", "0", "9", "10", "12"], "rt": [3684, 98, 212], "actions": ["left", "left", "down"], "actionTimes": [4538, 5149, 5879], "queries": {"click": {"state": {"target": ["9"], "time": [1755]}, "edge": {"target": [], "time": []}}, "mouseover": {"state": {"target": ["9", "5", "0"], "time": [1650, 2034, 2217]}, "edge": {"target": [], "time": []}}, "mouseout": {"state": {"target": ["9", "5", "0", "9", "9"], "time": [1984, 2183, 2267, 2450, 2617]}, "edge": {"target": [], "time": []}}}, "displayed_time": "6.38", "trialTime": 7594, "trial_type": "mouselab-mdp", "trial_index": 22, "time_elapsed": 1058194, "internal_node_id": "0.0-2.3-2.3-0.3"}}, {"uniqueid": "w29142510:a99491022", "current_trial": 23, "dateTime": 1664556044993, "trialdata": {"revealed_states": [], "num_clicks_accrued": [0, 0, 0, 0, 0, 0, 0, 0, 0, 0, 0, 0, 0], "stateRewards": ["", -10, 10, -10, -10, -10, 10, -10, -10, -10, -10, -10, 10], "withholdReward": false, "trial_id": "practice_2", "block": "test", "trialIndex": 7, "score": -8, "costs": 0, "simulationMode": [null, null, null], "rewards": [-10, 10, -10], "path": ["0", "0", "1", "2", "3"], "rt": [1274, 82, 586], "actions": ["up", "up", "right"], "actionTimes": [2941, 3537, 4641], "queries": {"click": {"state": {"target": [], "time": []}, "edge": {"target": [], "time": []}}, "mouseover": {"state": {"target": ["3"], "time": [2103]}, "edge": {"target": [], "time": []}}, "mouseout": {"state": {"target": ["0", "3", "3", "5"], "time": [1918, 2120, 5587, 5686]}, "edge": {"target": [], "time": []}}}, "displayed_time": "5.15", "trialTime": 7098, "trial_type": "mouselab-mdp", "trial_index": 23, "time_elapsed": 1065359, "internal_node_id": "0.0-2.3-2.3-1.3"}}, {"uniqueid": "w29142510:a99491022", "current_trial": 24, "dateTime": 1664556073803, "trialdata": {"view_history": [{"page_index": 0, "viewing_time": 24144}, {"page_index": 1, "viewing_time": 2088}, {"page_index": 2, "viewing_time": 2576}], "rt": 28808, "trial_id": "mouselab_instructions_2_scarce", "trial_type": "instructions", "trial_index": 24, "time_elapsed": 1094169, "internal_node_id": "0.0-2.3-3.3"}}, {"uniqueid": "w29142510:a99491022", "current_trial": 25, "dateTime": 1664556226590, "trialdata": {"rt": 152781, "response": {"Q0": "$-48 to $48", "Q1": "The cost is always $0.25.", "Q2": "The better I perform the higher my bonus will be.", "Q3": "No, the amount of cash at each node of the web may be different each time.", "Q4": "The values of the nodes walked through from start to finish.", "Q5": "No, the spider might forget to count the money on some rounds."}, "question_order": [0, 1, 2, 3, 4, 5], "correct": {"Q0": "$-48 to $48", "Q1": "The cost is always $0.25.", "Q2": "The better I perform the higher my bonus will be.", "Q3": "No, the amount of cash at each node of the web may be different each time.", "Q4": "The values of the nodes walked through from start to finish.", "Q5": "No, the spider might forget to count the money on some rounds."}, "trial_id": "mouselab_quiz_scarce", "trial_type": "survey-multi-choice", "trial_index": 25, "time_elapsed": 1246956, "internal_node_id": "0.0-2.3-4.3"}}, {"uniqueid": "w29142510:a99491022", "current_trial": 26, "dateTime": 1664556237154, "trialdata": {"rt": 10552, "stimulus": "\n<h1> Get ready to start the game! </h1>\n\nThank you for reading the instructions. Get ready start with the first of 4 block(s) of this game.\n<br><br>\nIn this first block, you will complete 30 rounds of this game before moving on.\n<br><br>\nRemember, the more money the spider gets, the bigger your bonus will be!\n<br><br>\n<div style='text-align: center;'>Press <code>space</code> to begin.</div>\n\n<br><br>\n(If, at any point, the <code>space</code> key does not take you to the next page, click once on the text and try again.)", "response": " ", "trial_id": "mdp_ready_1", "trial_type": "html-keyboard-response", "trial_index": 26, "time_elapsed": 1257520, "internal_node_id": "0.0-4.0-0.0"}}, {"uniqueid": "w29142510:a99491022", "current_trial": 27, "dateTime": 1664556250116, "trialdata": {"revealed_states": [], "num_clicks_accrued": [0, 0, 0, 0, 0, 0, 0, 0, 0, 0, 0, 0, 0], "stateRewards": ["", 4, -4, 48, -48, -4, -4, 48, -48, 4, 4, -48, -24], "withholdReward": true, "trial_id": "mdp_490058671112", "block": "test1", "trialIndex": 8, "score": 52.5, "costs": -0.5, "simulationMode": [null, null, null], "rewards": [4, -4, 48], "path": ["0", "0", "1", "2", "3"], "rt": [5019, 245, 639], "actions": ["up", "up", "right"], "actionTimes": [6469, 7227, 8372], "queries": {"click": {"state": {"target": ["1", "3"], "time": [2161, 4552]}, "edge": {"target": [], "time": []}}, "mouseover": {"state": {"target": ["1", "3"], "time": [1916, 2967]}, "edge": {"target": [], "time": []}}, "mouseout": {"state": {"target": ["1", "3", "3"], "time": [2784, 5366, 11264]}, "edge": {"target": [], "time": []}}}, "displayed_time": "10.45", "trialTime": 12892, "trial_type": "mouselab-mdp", "trial_index": 27, "time_elapsed": 1270482, "internal_node_id": "0.0-4.0-1.0-0.0"}}, {"uniqueid": "w29142510:a99491022", "current_trial": 28, "dateTime": 1664556262131, "trialdata": {"revealed_states": [], "num_clicks_accrued": [0, 0, 0, 0, 0, 0, 0, 0, 0, 0, 0, 0, 0], "stateRewards": ["", -2, -4, -48, -48, 4, 8, 24, -48, 4, -8, 24, 24], "withholdReward": true, "trial_id": "mdp_749799219195", "block": "test1", "trialIndex": 9, "score": 24.5, "costs": -0.5, "simulationMode": [null, null, null], "rewards": [4, -8, 24], "path": ["0", "0", "9", "10", "11"], "rt": [4563, 150, 1974], "actions": ["left", "left", "up"], "actionTimes": [5629, 6292, 8783], "queries": {"click": {"state": {"target": ["9", "11"], "time": [2199, 3639]}, "edge": {"target": [], "time": []}}, "mouseover": {"state": {"target": ["9", "11"], "time": [1860, 3110]}, "edge": {"target": [], "time": []}}, "mouseout": {"state": {"target": ["0", "9", "11", "11"], "time": [1760, 3026, 4326, 10887]}, "edge": {"target": [], "time": []}}}, "displayed_time": "10.07", "trialTime": 11939, "trial_type": "mouselab-mdp", "trial_index": 28, "time_elapsed": 1282497, "internal_node_id": "0.0-4.0-1.0-1.0"}}, {"uniqueid": "w29142510:a99491022", "current_trial": 29, "dateTime": 1664556275225, "trialdata": {"revealed_states": [], "num_clicks_accrued": [0, 0, 0, 0, 0, 0, 0, 0, 0, 0, 0, 0, 0], "stateRewards": ["", -4, -8, -24, 24, 2, 8, 24, 48, 2, 4, 24, -48], "withholdReward": false, "trial_id": "mdp_122352383932", "block": "test1", "trialIndex": 10, "score": 38.5, "costs": -0.5, "simulationMode": [null, null, null], "rewards": [2, 8, 24], "path": ["0", "0", "5", "6", "7"], "rt": [3549, 233, 746], "actions": ["right", "right", "up"], "actionTimes": [5073, 5813, 7075], "queries": {"click": {"state": {"target": ["5", "7"], "time": [2190, 3095]}, "edge": {"target": [], "time": []}}, "mouseover": {"state": {"target": ["5", "7"], "time": [1997, 2930]}, "edge": {"target": [], "time": []}}, "mouseout": {"state": {"target": ["0", "5", "7"], "time": [1915, 2730, 3564]}, "edge": {"target": [], "time": []}}}, "displayed_time": "10.53", "trialTime": 13024, "trial_type": "mouselab-mdp", "trial_index": 29, "time_elapsed": 1295591, "internal_node_id": "0.0-4.0-1.0-2.0"}}, {"uniqueid": "w29142510:a99491022", "current_trial": 30, "dateTime": 1664556288017, "trialdata": {"revealed_states": [], "num_clicks_accrued": [0, 0, 0, 0, 0, 0, 0, 0, 0, 0, 0, 0, 0], "stateRewards": ["", -4, 4, -48, -48, -4, 8, -24, 24, 2, -4, 48, 48], "withholdReward": false, "trial_id": "mdp_821566905048", "block": "test1", "trialIndex": 11, "score": 50, "costs": -1, "simulationMode": [null, null, null], "rewards": [2, -4, 48], "path": ["0", "0", "9", "10", "12"], "rt": [5859, 275, 329], "actions": ["left", "left", "down"], "actionTimes": [7072, 7859, 8696], "queries": {"click": {"state": {"target": ["1", "5", "9", "12"], "time": [2052, 3067, 4379, 5795]}, "edge": {"target": [], "time": []}}, "mouseover": {"state": {"target": ["1", "5", "0", "9", "9", "10", "11", "10", "12", "2"], "time": [1802, 2851, 3551, 3685, 4035, 5101, 5185, 5368, 5627, 6318]}, "edge": {"target": [], "time": []}}, "mouseout": {"state": {"target": ["7", "5", "0", "1", "5", "0", "9", "9", "9", "10", "11", "10", "12", "9", "1"], "time": [619, 819, 1411, 2752, 3518, 3618, 3835, 4651, 5001, 5118, 5351, 5418, 6068, 6234, 6300]}, "edge": {"target": [], "time": []}}}, "displayed_time": "10.21", "trialTime": 12725, "trial_type": "mouselab-mdp", "trial_index": 30, "time_elapsed": 1308383, "internal_node_id": "0.0-4.0-1.0-3.0"}}, {"uniqueid": "w29142510:a99491022", "current_trial": 31, "dateTime": 1664556299844, "trialdata": {"revealed_states": [], "num_clicks_accrued": [0, 0, 0, 0, 0, 0, 0, 0, 0, 0, 0, 0, 0], "stateRewards": ["", 2, -8, -24, 48, -4, -8, 24, -48, 4, -8, -24, -24], "withholdReward": false, "trial_id": "mdp_928911266656", "block": "test1", "trialIndex": 12, "score": 46.5, "costs": -0.5, "simulationMode": [null, null, null], "rewards": [2, -8, 48], "path": ["0", "0", "1", "2", "4"], "rt": [2659, 165, 306], "actions": ["up", "up", "left"], "actionTimes": [5103, 5786, 6610], "queries": {"click": {"state": {"target": ["1", "4"], "time": [3114, 3915]}, "edge": {"target": [], "time": []}}, "mouseover": {"state": {"target": ["1", "4", "2"], "time": [2905, 3737, 4321]}, "edge": {"target": [], "time": []}}, "mouseout": {"state": {"target": ["2", "1", "1", "4", "2", "3"], "time": [1822, 1938, 3638, 4288, 4354, 9452]}, "edge": {"target": [], "time": []}}}, "displayed_time": "10.44", "trialTime": 11758, "trial_type": "mouselab-mdp", "trial_index": 31, "time_elapsed": 1320210, "internal_node_id": "0.0-4.0-1.0-4.0"}}, {"uniqueid": "w29142510:a99491022", "current_trial": 32, "dateTime": 1664556313331, "trialdata": {"revealed_states": [], "num_clicks_accrued": [0, 0, 0, 0, 0, 0, 0, 0, 0, 0, 0, 0, 0], "stateRewards": ["", 2, -8, 24, 24, 4, -4, -24, -48, 4, 8, 24, 24], "withholdReward": false, "trial_id": "mdp_249803813713", "block": "test1", "trialIndex": 13, "score": 39.75, "costs": -1.25, "simulationMode": [null, null, null], "rewards": [4, 8, 24], "path": ["0", "0", "9", "10", "11"], "rt": [7857, 74, 610], "actions": ["left", "left", "up"], "actionTimes": [9098, 9677, 10795], "queries": {"click": {"state": {"target": ["5", "8", "7", "9", "11"], "time": [2779, 3683, 4436, 6891, 7739]}, "edge": {"target": [], "time": []}}, "mouseover": {"state": {"target": ["3", "3", "5", "6", "8", "6", "7", "9", "11"], "time": [1754, 2104, 2521, 3170, 3474, 4153, 4253, 6186, 7435]}, "edge": {"target": [], "time": []}}, "mouseout": {"state": {"target": ["0", "3", "3", "5", "6", "8", "6", "7", "5", "9", "11", "11"], "time": [1538, 1787, 2237, 3154, 3337, 4086, 4203, 4970, 5886, 7369, 8251, 12584]}, "edge": {"target": [], "time": []}}}, "displayed_time": "11.30", "trialTime": 13414, "trial_type": "mouselab-mdp", "trial_index": 32, "time_elapsed": 1333697, "internal_node_id": "0.0-4.0-1.0-5.0"}}, {"uniqueid": "w29142510:a99491022", "current_trial": 33, "dateTime": 1664556325549, "trialdata": {"revealed_states": [], "num_clicks_accrued": [0, 0, 0, 0, 0, 0, 0, 0, 0, 0, 0, 0, 0], "stateRewards": ["", -4, 8, 24, 24, 2, 4, -48, 24, -2, -4, -24, -24], "withholdReward": true, "trial_id": "mdp_752328329546", "block": "test1", "trialIndex": 14, "score": 33.75, "costs": -1.25, "simulationMode": [null, null, null], "rewards": [2, 4, 24], "path": ["0", "0", "5", "6", "8"], "rt": [6907, 177, 267], "actions": ["right", "right", "down"], "actionTimes": [8075, 8758, 9532], "queries": {"click": {"state": {"target": ["1", "9", "5", "7", "8"], "time": [1776, 2576, 3352, 4832, 5568]}, "edge": {"target": [], "time": []}}, "mouseover": {"state": {"target": ["1", "9", "5", "5", "6", "8", "6", "7", "6", "8"], "time": [1616, 2350, 2933, 3249, 3866, 3983, 4400, 4700, 5215, 5349]}, "edge": {"target": [], "time": []}}, "mouseout": {"state": {"target": ["1", "1", "9", "5", "5", "6", "8", "6", "7", "6", "8"], "time": [575, 2200, 2883, 2999, 3800, 3949, 4399, 4499, 5149, 5316, 6015]}, "edge": {"target": [], "time": []}}}, "displayed_time": "10.17", "trialTime": 12148, "trial_type": "mouselab-mdp", "trial_index": 33, "time_elapsed": 1345915, "internal_node_id": "0.0-4.0-1.0-6.0"}}, {"uniqueid": "w29142510:a99491022", "current_trial": 34, "dateTime": 1664556336942, "trialdata": {"revealed_states": [], "num_clicks_accrued": [0, 0, 0, 0, 0, 0, 0, 0, 0, 0, 0, 0, 0], "stateRewards": ["", 2, -8, -24, 48, 4, -8, -24, -24, 2, 8, -24, 24], "withholdReward": true, "trial_id": "mdp_480787552818", "block": "test1", "trialIndex": 15, "score": 46.25, "costs": -0.75, "simulationMode": [null, null, null], "rewards": [2, -8, 48], "path": ["0", "0", "1", "2", "4"], "rt": [4156, 172, 192], "actions": ["up", "up", "left"], "actionTimes": [5335, 6016, 6719], "queries": {"click": {"state": {"target": ["1", "3", "4"], "time": [1693, 2789, 4021]}, "edge": {"target": [], "time": []}}, "mouseover": {"state": {"target": ["1", "2", "3", "2", "4", "4", "4", "2"], "time": [1527, 2377, 2543, 3193, 3276, 3604, 3909, 4509]}, "edge": {"target": [], "time": []}}, "mouseout": {"state": {"target": ["7", "9", "0", "1", "1", "2", "3", "2", "4", "4", "4", "2"], "time": [627, 828, 1460, 1927, 2277, 2493, 3161, 3227, 3443, 3759, 4460, 4576]}, "edge": {"target": [], "time": []}}}, "displayed_time": "10.18", "trialTime": 11322, "trial_type": "mouselab-mdp", "trial_index": 34, "time_elapsed": 1357307, "internal_node_id": "0.0-4.0-1.0-7.0"}}, {"uniqueid": "w29142510:a99491022", "current_trial": 35, "dateTime": 1664556356038, "trialdata": {"revealed_states": [], "num_clicks_accrued": [0, 0, 0, 0, 0, 0, 0, 0, 0, 0, 0, 0, 0], "stateRewards": ["", 2, 4, -48, -48, 4, 4, -48, -48, -2, -8, 48, -24], "withholdReward": true, "trial_id": "mdp_175327338412", "block": "test1", "trialIndex": 16, "score": 41.25, "costs": -1.75, "simulationMode": [null, null, null], "rewards": [-2, -8, 48], "path": ["0", "0", "9", "10", "11"], "rt": [13357, 362, 990], "actions": ["left", "left", "up"], "actionTimes": [14316, 15191, 16685], "queries": {"click": {"state": {"target": ["9", "5", "7", "8", "4", "3", "11"], "time": [2644, 3588, 4669, 5332, 8540, 9668, 12580]}, "edge": {"target": [], "time": []}}, "mouseover": {"state": {"target": ["9", "0", "5", "6", "7", "6", "8", "1", "2", "4", "2", "3", "1", "11"], "time": [2330, 3263, 3314, 4230, 4413, 5046, 5113, 5896, 6062, 7547, 8878, 9378, 10277, 12310]}, "edge": {"target": [], "time": []}}, "mouseout": {"state": {"target": ["2", "1", "9", "0", "5", "6", "7", "6", "8", "5", "1", "2", "4", "2", "3", "1", "11"], "time": [531, 564, 3230, 3280, 4113, 4379, 5029, 5079, 5713, 5795, 5995, 7379, 8811, 9111, 10061, 12211, 12962]}, "edge": {"target": [], "time": []}}}, "displayed_time": "17.19", "trialTime": 19026, "trial_type": "mouselab-mdp", "trial_index": 35, "time_elapsed": 1376404, "internal_node_id": "0.0-4.0-1.0-8.0"}}, {"uniqueid": "w29142510:a99491022", "current_trial": 36, "dateTime": 1664556369317, "trialdata": {"revealed_states": [], "num_clicks_accrued": [0, 0, 0, 0, 0, 0, 0, 0, 0, 0, 0, 0, 0], "stateRewards": ["", 2, 8, 48, -24, -4, 4, 48, 24, -2, 8, 24, 24], "withholdReward": true, "trial_id": "mdp_123436106791", "block": "test1", "trialIndex": 17, "score": 61.75, "costs": -1.25, "simulationMode": [null, null, null], "rewards": [2, 8, 48], "path": ["0", "0", "1", "2", "3"], "rt": [8729, 243, 296], "actions": ["up", "up", "right"], "actionTimes": [10006, 10755, 11558], "queries": {"click": {"state": {"target": ["9", "5", "1", "4", "3"], "time": [3895, 4982, 6303, 7734, 8766]}, "edge": {"target": [], "time": []}}, "mouseover": {"state": {"target": ["9", "10", "9", "0", "5", "6", "1", "4", "2", "3", "3"], "time": [1831, 1965, 3531, 4381, 4847, 5454, 6096, 7312, 8062, 8096, 8379]}, "edge": {"target": [], "time": []}}, "mouseout": {"state": {"target": ["2", "1", "0", "9", "10", "9", "0", "5", "6", "5", "1", "4", "2", "3", "3"], "time": [881, 931, 1664, 1931, 3431, 4347, 4463, 5330, 5630, 5730, 6980, 8046, 8079, 8113, 9162]}, "edge": {"target": [], "time": []}}}, "displayed_time": "12.06", "trialTime": 13210, "trial_type": "mouselab-mdp", "trial_index": 36, "time_elapsed": 1389683, "internal_node_id": "0.0-4.0-1.0-9.0"}}, {"uniqueid": "w29142510:a99491022", "current_trial": 37, "dateTime": 1664556380515, "trialdata": {"revealed_states": [], "num_clicks_accrued": [0, 0, 0, 0, 0, 0, 0, 0, 0, 0, 0, 0, 0], "stateRewards": ["", 4, -4, 48, 24, 2, 4, 24, -24, 2, 4, 24, 48], "withholdReward": true, "trial_id": "mdp_736351885282", "block": "test1", "trialIndex": 18, "score": 28.5, "costs": -0.5, "simulationMode": [null, null, null], "rewards": [4, -4, 24], "path": ["0", "0", "1", "2", "4"], "rt": [2896, 103, 157], "actions": ["up", "up", "left"], "actionTimes": [4124, 4732, 5402], "queries": {"click": {"state": {"target": ["1", "4"], "time": [1709, 3013]}, "edge": {"target": [], "time": []}}, "mouseover": {"state": {"target": ["1", "2", "3", "2", "4"], "time": [1579, 2294, 2511, 2711, 2745]}, "edge": {"target": [], "time": []}}, "mouseout": {"state": {"target": ["0", "1", "2", "3", "2", "4"], "time": [1395, 2245, 2461, 2683, 2729, 3378]}, "edge": {"target": [], "time": []}}}, "displayed_time": "10.23", "trialTime": 11125, "trial_type": "mouselab-mdp", "trial_index": 37, "time_elapsed": 1400880, "internal_node_id": "0.0-4.0-1.0-10.0"}}, {"uniqueid": "w29142510:a99491022", "current_trial": 38, "dateTime": 1664556392337, "trialdata": {"revealed_states": [], "num_clicks_accrued": [0, 0, 0, 0, 0, 0, 0, 0, 0, 0, 0, 0, 0], "stateRewards": ["", -4, 8, 24, -24, 4, 8, -24, -48, 2, 4, 24, -24], "withholdReward": true, "trial_id": "mdp_782187007008", "block": "test1", "trialIndex": 19, "score": 34, "costs": -1, "simulationMode": [null, null, null], "rewards": [2, 4, 24], "path": ["0", "0", "9", "10", "11"], "rt": [4953, 151, 98], "actions": ["left", "left", "up"], "actionTimes": [6247, 6907, 7521], "queries": {"click": {"state": {"target": ["1", "9", "12", "11"], "time": [2460, 3347, 4403, 5052]}, "edge": {"target": [], "time": []}}, "mouseover": {"state": {"target": ["1", "9", "10", "12", "10", "11"], "time": [2008, 3240, 3839, 4156, 4789, 4839]}, "edge": {"target": [], "time": []}}, "mouseout": {"state": {"target": ["2", "1", "1", "9", "10", "12", "10", "11", "2"], "time": [807, 1024, 2907, 3757, 4073, 4773, 4822, 5406, 10604]}, "edge": {"target": [], "time": []}}}, "displayed_time": "10.30", "trialTime": 11747, "trial_type": "mouselab-mdp", "trial_index": 38, "time_elapsed": 1412703, "internal_node_id": "0.0-4.0-1.0-11.0"}}, {"uniqueid": "w29142510:a99491022", "current_trial": 39, "dateTime": 1664556403517, "trialdata": {"revealed_states": [], "num_clicks_accrued": [0, 0, 0, 0, 0, 0, 0, 0, 0, 0, 0, 0, 0], "stateRewards": ["", 4, 4, 24, -48, 2, -8, -24, -48, 4, 8, 48, 48], "withholdReward": true, "trial_id": "mdp_592471239511", "block": "test1", "trialIndex": 20, "score": 64.5, "costs": -0.5, "simulationMode": [null, null, null], "rewards": [4, 8, 48], "path": ["0", "0", "9", "10", "12"], "rt": [4121, 556, 166], "actions": ["left", "left", "down"], "actionTimes": [5339, 6408, 7085], "queries": {"click": {"state": {"target": ["9", "12"], "time": [3082, 4035]}, "edge": {"target": [], "time": []}}, "mouseover": {"state": {"target": ["9", "9", "12"], "time": [1603, 1853, 3902]}, "edge": {"target": [], "time": []}}, "mouseout": {"state": {"target": ["4", "0", "9", "9", "12"], "time": [737, 1553, 1670, 3536, 4302]}, "edge": {"target": [], "time": []}}}, "displayed_time": "9.22", "trialTime": 11109, "trial_type": "mouselab-mdp", "trial_index": 39, "time_elapsed": 1423883, "internal_node_id": "0.0-4.0-1.0-12.0"}}, {"uniqueid": "w29142510:a99491022", "current_trial": 40, "dateTime": 1664556416097, "trialdata": {"revealed_states": [], "num_clicks_accrued": [0, 0, 0, 0, 0, 0, 0, 0, 0, 0, 0, 0, 0], "stateRewards": ["", 2, 4, 48, -48, 2, 4, 24, -24, 2, -4, -24, -48], "withholdReward": false, "trial_id": "mdp_706591889062", "block": "test1", "trialIndex": 21, "score": 34.5, "costs": -0.5, "simulationMode": [null, null, null], "rewards": [2, 4, 24], "path": ["0", "0", "5", "6", "7"], "rt": [3268, 71, 684], "actions": ["right", "right", "up"], "actionTimes": [6663, 7250, 8446], "queries": {"click": {"state": {"target": ["5", "7"], "time": [4368, 5743]}, "edge": {"target": [], "time": []}}, "mouseover": {"state": {"target": ["5", "8", "6", "7", "6"], "time": [4145, 4795, 5215, 5615, 5978]}, "edge": {"target": [], "time": []}}, "mouseout": {"state": {"target": ["6", "5", "5", "6", "5", "0", "5", "8", "6", "7", "6"], "time": [1345, 1479, 2562, 2846, 2996, 3312, 4662, 5045, 5278, 5928, 6095]}, "edge": {"target": [], "time": []}}}, "displayed_time": "11.40", "trialTime": 12503, "trial_type": "mouselab-mdp", "trial_index": 40, "time_elapsed": 1436463, "internal_node_id": "0.0-4.0-1.0-13.0"}}, {"uniqueid": "w29142510:a99491022", "current_trial": 41, "dateTime": 1664556429038, "trialdata": {"revealed_states": [], "num_clicks_accrued": [0, 0, 0, 0, 0, 0, 0, 0, 0, 0, 0, 0, 0], "stateRewards": ["", -4, 8, -24, 24, -2, -8, 24, -24, 4, -4, -48, 48], "withholdReward": true, "trial_id": "mdp_297684722007", "block": "test1", "trialIndex": 22, "score": 52, "costs": -1, "simulationMode": [null, null, null], "rewards": [4, -4, 48], "path": ["0", "0", "9", "10", "12"], "rt": [6503, 67, 129], "actions": ["left", "left", "down"], "actionTimes": [7643, 8228, 8874], "queries": {"click": {"state": {"target": ["1", "5", "9", "12"], "time": [2419, 3211, 3843, 4691]}, "edge": {"target": [], "time": []}}, "mouseover": {"state": {"target": ["1", "5", "0", "9", "12", "10"], "time": [2163, 3028, 3545, 3579, 4528, 4994]}, "edge": {"target": [], "time": []}}, "mouseout": {"state": {"target": ["7", "1", "5", "0", "9", "12", "10", "9"], "time": [546, 2811, 3528, 3578, 4061, 4911, 5194, 12009]}, "edge": {"target": [], "time": []}}}, "displayed_time": "10.14", "trialTime": 12863, "trial_type": "mouselab-mdp", "trial_index": 41, "time_elapsed": 1449404, "internal_node_id": "0.0-4.0-1.0-14.0"}}, {"uniqueid": "w29142510:a99491022", "current_trial": 42, "dateTime": 1664556440003, "trialdata": {"revealed_states": [], "num_clicks_accrued": [0, 0, 0, 0, 0, 0, 0, 0, 0, 0, 0, 0, 0], "stateRewards": ["", -4, 8, 24, 24, -2, 8, -48, 48, 4, -8, 48, -48], "withholdReward": true, "trial_id": "mdp_295249220524", "block": "test1", "trialIndex": 23, "score": 48, "costs": -1, "simulationMode": [null, null, null], "rewards": [4, -8, 48], "path": ["0", "0", "9", "10", "11"], "rt": [3910, 135, 172], "actions": ["left", "left", "up"], "actionTimes": [4965, 5604, 6290], "queries": {"click": {"state": {"target": ["1", "5", "9", "11"], "time": [1640, 2256, 2984, 3904]}, "edge": {"target": [], "time": []}}, "mouseover": {"state": {"target": ["1", "5", "0", "9", "9", "10", "11"], "time": [1486, 2102, 2519, 2536, 2885, 3468, 3685]}, "edge": {"target": [], "time": []}}, "mouseout": {"state": {"target": ["0", "1", "5", "0", "9", "9", "10", "11", "1"], "time": [402, 1994, 2469, 2535, 2568, 3351, 3584, 4251, 4318]}, "edge": {"target": [], "time": []}}}, "displayed_time": "10.06", "trialTime": 10889, "trial_type": "mouselab-mdp", "trial_index": 42, "time_elapsed": 1460369, "internal_node_id": "0.0-4.0-1.0-15.0"}}, {"uniqueid": "w29142510:a99491022", "current_trial": 43, "dateTime": 1664556450564, "trialdata": {"revealed_states": [], "num_clicks_accrued": [0, 0, 0, 0, 0, 0, 0, 0, 0, 0, 0, 0, 0], "stateRewards": ["", 2, -8, -24, -48, -2, -4, 48, 48, 4, 8, 48, 48], "withholdReward": true, "trial_id": "mdp_347285045422", "block": "test1", "trialIndex": 24, "score": 64.5, "costs": -0.5, "simulationMode": [null, null, null], "rewards": [4, 8, 48], "path": ["0", "0", "9", "10", "12"], "rt": [3895, 158, 165], "actions": ["left", "left", "down"], "actionTimes": [4634, 5308, 5981], "queries": {"click": {"state": {"target": ["9", "12"], "time": [2827, 3619]}, "edge": {"target": [], "time": []}}, "mouseover": {"state": {"target": ["9", "10", "12", "1", "3"], "time": [2666, 3316, 3366, 3933, 3966]}, "edge": {"target": [], "time": []}}, "mouseout": {"state": {"target": ["6", "5", "0", "9", "10", "12", "9", "1", "3"], "time": [384, 434, 2467, 3250, 3350, 3899, 3933, 3949, 3983]}, "edge": {"target": [], "time": []}}}, "displayed_time": "9.74", "trialTime": 10484, "trial_type": "mouselab-mdp", "trial_index": 43, "time_elapsed": 1470930, "internal_node_id": "0.0-4.0-1.0-16.0"}}, {"uniqueid": "w29142510:a99491022", "current_trial": 44, "dateTime": 1664556473135, "trialdata": {"revealed_states": [], "num_clicks_accrued": [0, 0, 0, 0, 0, 0, 0, 0, 0, 0, 0, 0, 0], "stateRewards": ["", 4, -8, 24, 48, 2, -4, 48, 48, 4, -8, 48, 48], "withholdReward": true, "trial_id": "mdp_962498334245", "block": "test1", "trialIndex": 25, "score": 50.5, "costs": -0.5, "simulationMode": [null, null, null], "rewards": [2, -4, 48], "path": ["0", "0", "5", "6", "7"], "rt": [4924, 156, 143], "actions": ["right", "right", "up"], "actionTimes": [5781, 6442, 7095], "queries": {"click": {"state": {"target": ["5", "7"], "time": [3122, 4066]}, "edge": {"target": [], "time": []}}, "mouseover": {"state": {"target": ["5", "7"], "time": [2919, 3752]}, "edge": {"target": [], "time": []}}, "mouseout": {"state": {"target": ["7", "5", "0", "5", "7"], "time": [387, 453, 2785, 3652, 4319]}, "edge": {"target": [], "time": []}}}, "displayed_time": "9.86", "trialTime": 22495, "trial_type": "mouselab-mdp", "trial_index": 44, "time_elapsed": 1493501, "internal_node_id": "0.0-4.0-1.0-17.0"}}, {"uniqueid": "w29142510:a99491022", "current_trial": 45, "dateTime": 1664556485040, "trialdata": {"revealed_states": [], "num_clicks_accrued": [0, 0, 0, 0, 0, 0, 0, 0, 0, 0, 0, 0, 0], "stateRewards": ["", 2, 4, -48, -24, -4, 4, -24, 24, -2, -8, -24, 24], "withholdReward": true, "trial_id": "mdp_640720803523", "block": "test1", "trialIndex": 26, "score": 17.5, "costs": -1.5, "simulationMode": [null, null, null], "rewards": [-2, -8, 24], "path": ["0", "0", "9", "10", "12"], "rt": [6953, 154, 220], "actions": ["left", "left", "down"], "actionTimes": [8447, 9114, 9846], "queries": {"click": {"state": {"target": ["1", "4", "3", "5", "9", "12"], "time": [1979, 2667, 3475, 4499, 5259, 6003]}, "edge": {"target": [], "time": []}}, "mouseover": {"state": {"target": ["1", "4", "2", "3", "3", "5", "5", "0", "9", "12", "10"], "time": [1878, 2512, 2978, 3011, 3294, 4044, 4361, 4878, 4928, 5727, 6544]}, "edge": {"target": [], "time": []}}, "mouseout": {"state": {"target": ["7", "0", "1", "4", "2", "3", "3", "5", "5", "0", "9", "12", "10", "4"], "time": [1095, 1619, 2394, 2945, 2995, 3178, 3927, 4094, 4860, 4911, 5594, 6510, 6561, 11675]}, "edge": {"target": [], "time": []}}}, "displayed_time": "10.49", "trialTime": 11832, "trial_type": "mouselab-mdp", "trial_index": 45, "time_elapsed": 1505406, "internal_node_id": "0.0-4.0-1.0-18.0"}}, {"uniqueid": "w29142510:a99491022", "current_trial": 46, "dateTime": 1664556495675, "trialdata": {"revealed_states": [], "num_clicks_accrued": [0, 0, 0, 0, 0, 0, 0, 0, 0, 0, 0, 0, 0], "stateRewards": ["", -4, -8, -24, -48, -2, -8, 24, -48, -4, -8, 24, -48], "withholdReward": true, "trial_id": "mdp_621812384092", "block": "test1", "trialIndex": 27, "score": 17.75, "costs": -1.25, "simulationMode": [null, null, null], "rewards": [-2, -8, 24], "path": ["0", "0", "5", "6", "7"], "rt": [4958, 137, 916], "actions": ["right", "right", "up"], "actionTimes": [5643, 6286, 7714], "queries": {"click": {"state": {"target": ["1", "9", "5", "8", "7"], "time": [1278, 1958, 2654, 3342, 4262]}, "edge": {"target": [], "time": []}}, "mouseover": {"state": {"target": ["1", "9", "0", "5", "6", "5", "6", "8", "6", "7"], "time": [1066, 1782, 2215, 2248, 2282, 2532, 3032, 3099, 3698, 3949]}, "edge": {"target": [], "time": []}}, "mouseout": {"state": {"target": ["1", "9", "0", "5", "6", "5", "6", "8", "6", "7", "7", "6"], "time": [1533, 2198, 2232, 2266, 2365, 2998, 3049, 3631, 3749, 4481, 9165, 10513]}, "edge": {"target": [], "time": []}}}, "displayed_time": "9.69", "trialTime": 10557, "trial_type": "mouselab-mdp", "trial_index": 46, "time_elapsed": 1516041, "internal_node_id": "0.0-4.0-1.0-19.0"}}, {"uniqueid": "w29142510:a99491022", "current_trial": 47, "dateTime": 1664556509380, "trialdata": {"revealed_states": [], "num_clicks_accrued": [0, 0, 0, 0, 0, 0, 0, 0, 0, 0, 0, 0, 0], "stateRewards": ["", -2, 8, 24, -48, -4, -8, -24, -48, -4, 8, -24, 48], "withholdReward": true, "trial_id": "mdp_464339499860", "block": "test1", "trialIndex": 28, "score": 33.75, "costs": -1.25, "simulationMode": [null, null, null], "rewards": [-2, 8, 24], "path": ["0", "0", "1", "2", "3"], "rt": [8663, 141, 663], "actions": ["up", "up", "right"], "actionTimes": [10152, 10798, 11970], "queries": {"click": {"state": {"target": ["1", "9", "5", "4", "3"], "time": [4097, 5825, 6465, 7897, 8874]}, "edge": {"target": [], "time": []}}, "mouseover": {"state": {"target": ["1", "1", "9", "5", "7", "4", "2", "3", "2", "2"], "time": [2925, 3859, 5257, 6257, 6858, 7624, 8224, 8807, 9140, 9407]}, "edge": {"target": [], "time": []}}, "mouseout": {"state": {"target": ["7", "5", "0", "1", "1", "9", "5", "7", "1", "9", "4", "2", "3", "2", "2", "3"], "time": [508, 759, 1280, 3258, 4657, 6174, 6775, 6941, 7040, 7288, 8207, 8257, 9123, 9156, 9423, 9506]}, "edge": {"target": [], "time": []}}}, "displayed_time": "12.47", "trialTime": 13625, "trial_type": "mouselab-mdp", "trial_index": 47, "time_elapsed": 1529746, "internal_node_id": "0.0-4.0-1.0-20.0"}}, {"uniqueid": "w29142510:a99491022", "current_trial": 48, "dateTime": 1664556520577, "trialdata": {"revealed_states": [], "num_clicks_accrued": [0, 0, 0, 0, 0, 0, 0, 0, 0, 0, 0, 0, 0], "stateRewards": ["", -4, 8, 48, -48, 2, -4, 24, -24, -2, 4, -24, -24], "withholdReward": true, "trial_id": "mdp_804988042722", "block": "test1", "trialIndex": 29, "score": 55.5, "costs": -1.5, "simulationMode": [null, null, null], "rewards": [-4, 8, 48], "path": ["0", "0", "1", "2", "3"], "rt": [5439, 197, 209], "actions": ["up", "up", "right"], "actionTimes": [6588, 7293, 8006], "queries": {"click": {"state": {"target": ["9", "12", "11", "1", "4", "3"], "time": [1678, 2430, 3134, 3974, 4822, 5366]}, "edge": {"target": [], "time": []}}, "mouseover": {"state": {"target": ["9", "12", "10", "11", "1", "4", "2", "3"], "time": [1480, 2164, 2781, 2864, 3813, 4597, 5063, 5163]}, "edge": {"target": [], "time": []}}, "mouseout": {"state": {"target": ["7", "0", "9", "12", "10", "11", "1", "1", "4", "2", "3", "7"], "time": [431, 1414, 2080, 2713, 2830, 3497, 4313, 4563, 5046, 5113, 5663, 9928]}, "edge": {"target": [], "time": []}}}, "displayed_time": "9.15", "trialTime": 11116, "trial_type": "mouselab-mdp", "trial_index": 48, "time_elapsed": 1540943, "internal_node_id": "0.0-4.0-1.0-21.0"}}, {"uniqueid": "w29142510:a99491022", "current_trial": 49, "dateTime": 1664556531848, "trialdata": {"revealed_states": [], "num_clicks_accrued": [0, 0, 0, 0, 0, 0, 0, 0, 0, 0, 0, 0, 0], "stateRewards": ["", 4, -8, 48, 48, 2, 4, 48, -48, 4, -4, -48, 48], "withholdReward": false, "trial_id": "mdp_519605841135", "block": "test1", "trialIndex": 30, "score": 58.5, "costs": -0.5, "simulationMode": [null, null, null], "rewards": [2, 4, 48], "path": ["0", "0", "5", "6", "7"], "rt": [3660, 111, 938], "actions": ["right", "right", "up"], "actionTimes": [5088, 5716, 7159], "queries": {"click": {"state": {"target": ["5", "7"], "time": [3065, 4073]}, "edge": {"target": [], "time": []}}, "mouseover": {"state": {"target": ["5", "6", "7"], "time": [2639, 3638, 3904]}, "edge": {"target": [], "time": []}}, "mouseout": {"state": {"target": ["7", "5", "6", "7", "8"], "time": [905, 3388, 3837, 8096, 10952]}, "edge": {"target": [], "time": []}}}, "displayed_time": "10.43", "trialTime": 11198, "trial_type": "mouselab-mdp", "trial_index": 49, "time_elapsed": 1552214, "internal_node_id": "0.0-4.0-1.0-22.0"}}, {"uniqueid": "w29142510:a99491022", "current_trial": 50, "dateTime": 1664556541610, "trialdata": {"revealed_states": [], "num_clicks_accrued": [0, 0, 0, 0, 0, 0, 0, 0, 0, 0, 0, 0, 0], "stateRewards": ["", -2, 8, 48, 24, 2, -4, 48, -48, 2, 8, 24, -24], "withholdReward": false, "trial_id": "mdp_176207245985", "block": "test1", "trialIndex": 31, "score": 38, "costs": -1, "simulationMode": [null, null, null], "rewards": [2, 8, 24], "path": ["0", "0", "9", "10", "11"], "rt": [5110, 142, 149], "actions": ["left", "left", "up"], "actionTimes": [6002, 6647, 7304], "queries": {"click": {"state": {"target": ["1", "9", "12", "11"], "time": [2570, 3298, 4250, 4954]}, "edge": {"target": [], "time": []}}, "mouseover": {"state": {"target": ["5", "1", "9", "10", "12", "11"], "time": [1856, 2256, 3172, 3771, 3988, 4705]}, "edge": {"target": [], "time": []}}, "mouseout": {"state": {"target": ["8", "0", "5", "1", "9", "10", "12", "11", "1", "3", "8", "8"], "time": [405, 1456, 2039, 2906, 3738, 3938, 4472, 5288, 5355, 8520, 9370, 9603]}, "edge": {"target": [], "time": []}}}, "displayed_time": "8.89", "trialTime": 9680, "trial_type": "mouselab-mdp", "trial_index": 50, "time_elapsed": 1561976, "internal_node_id": "0.0-4.0-1.0-23.0"}}, {"uniqueid": "w29142510:a99491022", "current_trial": 51, "dateTime": 1664556553034, "trialdata": {"revealed_states": [], "num_clicks_accrued": [0, 0, 0, 0, 0, 0, 0, 0, 0, 0, 0, 0, 0], "stateRewards": ["", 2, -8, 48, -24, -4, -8, -24, 48, -2, 4, 24, -48], "withholdReward": true, "trial_id": "mdp_186932504904", "block": "test1", "trialIndex": 32, "score": 46.25, "costs": -0.75, "simulationMode": [null, null, null], "rewards": [2, -8, 48], "path": ["0", "0", "1", "2", "3"], "rt": [2914, 522, 238], "actions": ["up", "up", "right"], "actionTimes": [3710, 4742, 5493], "queries": {"click": {"state": {"target": ["1", "4", "3"], "time": [1204, 1980, 2636]}, "edge": {"target": [], "time": []}}, "mouseover": {"state": {"target": ["1", "4", "2", "3"], "time": [1086, 1670, 2270, 2503]}, "edge": {"target": [], "time": []}}, "mouseout": {"state": {"target": ["6", "5", "0", "1", "4", "2", "3"], "time": [387, 420, 903, 1554, 2219, 2336, 2970]}, "edge": {"target": [], "time": []}}}, "displayed_time": "10.80", "trialTime": 11338, "trial_type": "mouselab-mdp", "trial_index": 51, "time_elapsed": 1573400, "internal_node_id": "0.0-4.0-1.0-24.0"}}, {"uniqueid": "w29142510:a99491022", "current_trial": 52, "dateTime": 1664556562621, "trialdata": {"revealed_states": [], "num_clicks_accrued": [0, 0, 0, 0, 0, 0, 0, 0, 0, 0, 0, 0, 0], "stateRewards": ["", -4, -8, 48, 24, 4, -8, 24, -48, -2, -8, 24, -48], "withholdReward": true, "trial_id": "mdp_952038635544", "block": "test1", "trialIndex": 33, "score": 24.5, "costs": -0.5, "simulationMode": [null, null, null], "rewards": [4, -8, 24], "path": ["0", "0", "5", "6", "7"], "rt": [3051, 146, 115], "actions": ["right", "right", "up"], "actionTimes": [3847, 4507, 5128], "queries": {"click": {"state": {"target": ["5", "7"], "time": [1335, 2743]}, "edge": {"target": [], "time": []}}, "mouseover": {"state": {"target": ["5", "6", "8", "6", "7", "6"], "time": [1112, 1945, 2012, 2379, 2612, 3012]}, "edge": {"target": [], "time": []}}, "mouseout": {"state": {"target": ["5", "6", "8", "6", "7", "6"], "time": [1745, 1962, 2345, 2545, 2961, 3162]}, "edge": {"target": [], "time": []}}}, "displayed_time": "8.80", "trialTime": 9504, "trial_type": "mouselab-mdp", "trial_index": 52, "time_elapsed": 1582987, "internal_node_id": "0.0-4.0-1.0-25.0"}}, {"uniqueid": "w29142510:a99491022", "current_trial": 53, "dateTime": 1664556573570, "trialdata": {"revealed_states": [], "num_clicks_accrued": [0, 0, 0, 0, 0, 0, 0, 0, 0, 0, 0, 0, 0], "stateRewards": ["", -2, -4, 48, 48, 2, 4, -48, 24, 4, -8, 24, -24], "withholdReward": true, "trial_id": "mdp_628613319495", "block": "test1", "trialIndex": 34, "score": 24.25, "costs": -0.75, "simulationMode": [null, null, null], "rewards": [4, -8, 24], "path": ["0", "0", "9", "10", "11"], "rt": [5063, 45, 751], "actions": ["left", "left", "up"], "actionTimes": [6430, 6987, 8260], "queries": {"click": {"state": {"target": ["9", "12", "11"], "time": [3321, 4297, 5201]}, "edge": {"target": [], "time": []}}, "mouseover": {"state": {"target": ["9", "12", "10", "11", "11"], "time": [3161, 4110, 4643, 4692, 5076]}, "edge": {"target": [], "time": []}}, "mouseout": {"state": {"target": ["5", "0", "9", "12", "10", "11", "11", "1"], "time": [1144, 3027, 3843, 4609, 4676, 4760, 5493, 9475]}, "edge": {"target": [], "time": []}}}, "displayed_time": "10.37", "trialTime": 10871, "trial_type": "mouselab-mdp", "trial_index": 53, "time_elapsed": 1593936, "internal_node_id": "0.0-4.0-1.0-26.0"}}, {"uniqueid": "w29142510:a99491022", "current_trial": 54, "dateTime": 1664556584790, "trialdata": {"revealed_states": [], "num_clicks_accrued": [0, 0, 0, 0, 0, 0, 0, 0, 0, 0, 0, 0, 0], "stateRewards": ["", 4, 8, 24, 24, 2, -4, 48, -24, -4, 8, -24, 24], "withholdReward": true, "trial_id": "mdp_932292142091", "block": "test1", "trialIndex": 35, "score": 40.5, "costs": -0.5, "simulationMode": [null, null, null], "rewards": [4, 8, 24], "path": ["0", "0", "1", "2", "3"], "rt": [2798, 110, 52], "actions": ["up", "up", "right"], "actionTimes": [4440, 5057, 5615], "queries": {"click": {"state": {"target": ["1", "3"], "time": [2201, 3386]}, "edge": {"target": [], "time": []}}, "mouseover": {"state": {"target": ["1", "3"], "time": [1997, 3230]}, "edge": {"target": [], "time": []}}, "mouseout": {"state": {"target": ["6", "5", "0", "1", "3"], "time": [497, 680, 1864, 2664, 3779]}, "edge": {"target": [], "time": []}}}, "displayed_time": "10.64", "trialTime": 11131, "trial_type": "mouselab-mdp", "trial_index": 54, "time_elapsed": 1605156, "internal_node_id": "0.0-4.0-1.0-27.0"}}, {"uniqueid": "w29142510:a99491022", "current_trial": 55, "dateTime": 1664556594876, "trialdata": {"revealed_states": [], "num_clicks_accrued": [0, 0, 0, 0, 0, 0, 0, 0, 0, 0, 0, 0, 0], "stateRewards": ["", -2, -8, -48, 24, 2, -4, -48, 48, 2, 4, 24, -24], "withholdReward": true, "trial_id": "mdp_849341543762", "block": "test1", "trialIndex": 36, "score": 50.25, "costs": -0.75, "simulationMode": [null, null, null], "rewards": [2, -4, 48], "path": ["0", "0", "5", "6", "8"], "rt": [3467, 120, 1], "actions": ["right", "right", "down"], "actionTimes": [4768, 5404, 5919], "queries": {"click": {"state": {"target": ["5", "7", "8"], "time": [1808, 2519, 3144]}, "edge": {"target": [], "time": []}}, "mouseover": {"state": {"target": ["5", "7", "6", "8"], "time": [1635, 2334, 2867, 2918]}, "edge": {"target": [], "time": []}}, "mouseout": {"state": {"target": ["5", "0", "5", "7", "6", "8"], "time": [968, 1584, 2071, 2851, 2901, 3600]}, "edge": {"target": [], "time": []}}}, "displayed_time": "9.30", "trialTime": 10007, "trial_type": "mouselab-mdp", "trial_index": 55, "time_elapsed": 1615241, "internal_node_id": "0.0-4.0-1.0-28.0"}}, {"uniqueid": "w29142510:a99491022", "current_trial": 56, "dateTime": 1664556606413, "trialdata": {"revealed_states": [], "num_clicks_accrued": [0, 0, 0, 0, 0, 0, 0, 0, 0, 0, 0, 0, 0], "stateRewards": ["", 2, -4, -24, 24, 2, 8, 48, 48, 2, -8, 48, -24], "withholdReward": false, "trial_id": "mdp_330392242530", "block": "test1", "trialIndex": 37, "score": 26.5, "costs": -0.5, "simulationMode": [null, null, null], "rewards": [2, -4, 24], "path": ["0", "0", "1", "2", "4"], "rt": [2372, 25, 311], "actions": ["up", "up", "left"], "actionTimes": [3504, 4034, 4869], "queries": {"click": {"state": {"target": ["1", "4"], "time": [1614, 2382]}, "edge": {"target": [], "time": []}}, "mouseover": {"state": {"target": ["1", "2", "4", "2"], "time": [1425, 2108, 2191, 2824]}, "edge": {"target": [], "time": []}}, "mouseout": {"state": {"target": ["8", "6", "5", "0", "1", "2", "4", "2"], "time": [9, 492, 775, 1325, 2041, 2125, 2791, 2891]}, "edge": {"target": [], "time": []}}}, "displayed_time": "10.13", "trialTime": 11453, "trial_type": "mouselab-mdp", "trial_index": 56, "time_elapsed": 1626779, "internal_node_id": "0.0-4.0-1.0-29.0"}}, {"uniqueid": "w29142510:a99491022", "current_trial": 57, "dateTime": 1664556617589, "trialdata": {"rt": 11172, "stimulus": "<h1> End of block! </h1>\n\nYou have reached the end of the block 1/4. If you need a short break, feel free to take one now before moving on.\n\n<br><br>\nIn the next block, you will complete another 30 rounds of this game.\n\n<br><br>\n<div style='text-align: center;'>Press <code>space</code> to begin.</div>\n<br><br>\n<div style='text-align: center;'>(If the experiment doesn't continue, try clicking on the text and then pressing <code>space</code>.)</div>", "response": " ", "trial_id": "mdp_ready_2", "trial_type": "html-keyboard-response", "trial_index": 57, "time_elapsed": 1637955, "internal_node_id": "0.0-4.0-2.0"}}, {"uniqueid": "w29142510:a99491022", "current_trial": 58, "dateTime": 1664556631009, "trialdata": {"revealed_states": [], "num_clicks_accrued": [0, 0, 0, 0, 0, 0, 0, 0, 0, 0, 0, 0, 0], "stateRewards": ["", -2, 4, 48, -24, 2, 8, 24, 48, 2, 4, -24, -48], "withholdReward": true, "trial_id": "mdp_892412058587", "block": "test2", "trialIndex": 38, "score": 53.75, "costs": -1.25, "simulationMode": [null, null, null], "rewards": [-2, 4, 48], "path": ["0", "0", "1", "2", "3"], "rt": [7859, 145, 221], "actions": ["up", "up", "right"], "actionTimes": [9239, 9892, 10618], "queries": {"click": {"state": {"target": ["1", "9", "12", "11", "3"], "time": [2287, 2982, 4071, 4686, 7694]}, "edge": {"target": [], "time": []}}, "mouseover": {"state": {"target": ["1", "9", "5", "10", "12", "10", "11", "5", "6", "7", "3"], "time": [2015, 2732, 3282, 3516, 3814, 4415, 4481, 5231, 5331, 6664, 7230]}, "edge": {"target": [], "time": []}}, "mouseout": {"state": {"target": ["5", "0", "1", "9", "5", "9", "10", "12", "10", "11", "5", "6", "7", "3"], "time": [999, 1649, 2598, 3116, 3448, 3515, 3798, 4265, 4431, 4931, 5297, 6464, 6981, 12379]}, "edge": {"target": [], "time": []}}}, "displayed_time": "11.13", "trialTime": 13330, "trial_type": "mouselab-mdp", "trial_index": 58, "time_elapsed": 1651374, "internal_node_id": "0.0-4.0-3.0-0.0"}}, {"uniqueid": "w29142510:a99491022", "current_trial": 59, "dateTime": 1664556643151, "trialdata": {"revealed_states": [], "num_clicks_accrued": [0, 0, 0, 0, 0, 0, 0, 0, 0, 0, 0, 0, 0], "stateRewards": ["", 2, 4, 48, -48, 2, -4, 48, 24, -2, -8, -24, 48], "withholdReward": false, "trial_id": "mdp_962424406744", "block": "test2", "trialIndex": 39, "score": 50.5, "costs": -0.5, "simulationMode": [null, null, null], "rewards": [2, -4, 48], "path": ["0", "0", "5", "6", "7"], "rt": [2801, 326, 1398], "actions": ["right", "right", "up"], "actionTimes": [3965, 4806, 6711], "queries": {"click": {"state": {"target": ["5", "7"], "time": [1953, 2777]}, "edge": {"target": [], "time": []}}, "mouseover": {"state": {"target": ["5", "6", "7"], "time": [1731, 2347, 2647]}, "edge": {"target": [], "time": []}}, "mouseout": {"state": {"target": ["5", "6", "7"], "time": [2313, 2397, 7648]}, "edge": {"target": [], "time": []}}}, "displayed_time": "11.16", "trialTime": 12058, "trial_type": "mouselab-mdp", "trial_index": 59, "time_elapsed": 1663516, "internal_node_id": "0.0-4.0-3.0-1.0"}}, {"uniqueid": "w29142510:a99491022", "current_trial": 60, "dateTime": 1664556655618, "trialdata": {"revealed_states": [], "num_clicks_accrued": [0, 0, 0, 0, 0, 0, 0, 0, 0, 0, 0, 0, 0], "stateRewards": ["", 2, 4, 48, 48, -2, 4, 48, -24, -4, 8, -48, 48], "withholdReward": true, "trial_id": "mdp_407586865939", "block": "test2", "trialIndex": 40, "score": 57.75, "costs": -1.25, "simulationMode": [null, null, null], "rewards": [2, 4, 48], "path": ["0", "0", "1", "2", "4"], "rt": [7257, 120, 184], "actions": ["up", "up", "left"], "actionTimes": [8198, 8832, 9529], "queries": {"click": {"state": {"target": ["9", "11", "5", "1", "4"], "time": [1702, 3614, 4717, 5574, 6806]}, "edge": {"target": [], "time": []}}, "mouseover": {"state": {"target": ["9", "1", "11", "7", "5", "1", "2", "3", "2", "4"], "time": [1513, 2746, 3329, 4381, 4579, 5429, 6012, 6195, 6395, 6711]}, "edge": {"target": [], "time": []}}, "mouseout": {"state": {"target": ["7", "9", "1", "11", "7", "5", "1", "2", "3", "2", "4"], "time": [463, 1913, 3246, 3946, 4495, 4978, 5924, 6145, 6363, 6495, 7078]}, "edge": {"target": [], "time": []}}}, "displayed_time": "10.04", "trialTime": 12379, "trial_type": "mouselab-mdp", "trial_index": 60, "time_elapsed": 1675984, "internal_node_id": "0.0-4.0-3.0-2.0"}}, {"uniqueid": "w29142510:a99491022", "current_trial": 61, "dateTime": 1664556667236, "trialdata": {"revealed_states": [], "num_clicks_accrued": [0, 0, 0, 0, 0, 0, 0, 0, 0, 0, 0, 0, 0], "stateRewards": ["", -4, 8, -24, -24, 4, -8, 48, -24, -4, -8, -24, -48], "withholdReward": true, "trial_id": "mdp_391766721791", "block": "test2", "trialIndex": 41, "score": 48, "costs": -1, "simulationMode": [null, null, null], "rewards": [4, -8, 48], "path": ["0", "0", "5", "6", "7"], "rt": [4858, 185, 84], "actions": ["right", "right", "up"], "actionTimes": [6889, 7588, 8186], "queries": {"click": {"state": {"target": ["9", "5", "8", "7"], "time": [3014, 3719, 4710, 5366]}, "edge": {"target": [], "time": []}}, "mouseover": {"state": {"target": ["9", "5", "7", "6", "8", "7"], "time": [2870, 3553, 4237, 4437, 4470, 5236]}, "edge": {"target": [], "time": []}}, "mouseout": {"state": {"target": ["0", "0", "9", "5", "7", "6", "8", "7"], "time": [1421, 2388, 3420, 4186, 4403, 4453, 4886, 9974]}, "edge": {"target": [], "time": []}}}, "displayed_time": "11.03", "trialTime": 11540, "trial_type": "mouselab-mdp", "trial_index": 61, "time_elapsed": 1687602, "internal_node_id": "0.0-4.0-3.0-3.0"}}, {"uniqueid": "w29142510:a99491022", "current_trial": 62, "dateTime": 1664556679343, "trialdata": {"revealed_states": [], "num_clicks_accrued": [0, 0, 0, 0, 0, 0, 0, 0, 0, 0, 0, 0, 0], "stateRewards": ["", 2, 4, -48, -48, 2, 4, 48, -24, -2, 8, 48, -48], "withholdReward": true, "trial_id": "mdp_258528916140", "block": "test2", "trialIndex": 42, "score": 57.75, "costs": -1.25, "simulationMode": [null, null, null], "rewards": [2, 4, 48], "path": ["0", "0", "5", "6", "7"], "rt": [7573, 184, 113], "actions": ["right", "right", "up"], "actionTimes": [8762, 9460, 10089], "queries": {"click": {"state": {"target": ["1", "4", "3", "5", "7"], "time": [1993, 2784, 3608, 6777, 7456]}, "edge": {"target": [], "time": []}}, "mouseover": {"state": {"target": ["1", "4", "2", "3", "3", "7", "7", "5", "7", "5", "7", "6"], "time": [1628, 2628, 3078, 3128, 3461, 4377, 5227, 5677, 6443, 6560, 7243, 7743]}, "edge": {"target": [], "time": []}}, "mouseout": {"state": {"target": ["1", "4", "2", "3", "3", "3", "7", "7", "5", "7", "5", "7", "6", "7"], "time": [2411, 3061, 3111, 3227, 3827, 4211, 4511, 5543, 5977, 6510, 7160, 7710, 7960, 11120]}, "edge": {"target": [], "time": []}}}, "displayed_time": "10.59", "trialTime": 12025, "trial_type": "mouselab-mdp", "trial_index": 62, "time_elapsed": 1699709, "internal_node_id": "0.0-4.0-3.0-4.0"}}, {"uniqueid": "w29142510:a99491022", "current_trial": 63, "dateTime": 1664556691892, "trialdata": {"revealed_states": [], "num_clicks_accrued": [0, 0, 0, 0, 0, 0, 0, 0, 0, 0, 0, 0, 0], "stateRewards": ["", -4, -4, 24, -24, 4, 4, 24, 48, 4, -4, 48, -48], "withholdReward": true, "trial_id": "mdp_522385334882", "block": "test2", "trialIndex": 43, "score": 52.25, "costs": -0.75, "simulationMode": [null, null, null], "rewards": [4, -4, 48], "path": ["0", "0", "9", "10", "11"], "rt": [3763, 129, 70], "actions": ["left", "left", "up"], "actionTimes": [5663, 6295, 6870], "queries": {"click": {"state": {"target": ["9", "12", "11"], "time": [2580, 3412, 4020]}, "edge": {"target": [], "time": []}}, "mouseover": {"state": {"target": ["9", "10", "12", "10", "11"], "time": [2383, 3083, 3283, 3699, 3883]}, "edge": {"target": [], "time": []}}, "mouseout": {"state": {"target": ["7", "5", "9", "10", "12", "10", "11", "4"], "time": [1183, 1699, 2833, 3250, 3632, 3816, 4365, 11363]}, "edge": {"target": [], "time": []}}}, "displayed_time": "10.90", "trialTime": 12466, "trial_type": "mouselab-mdp", "trial_index": 63, "time_elapsed": 1712258, "internal_node_id": "0.0-4.0-3.0-5.0"}}, {"uniqueid": "w29142510:a99491022", "current_trial": 64, "dateTime": 1664556701363, "trialdata": {"revealed_states": [], "num_clicks_accrued": [0, 0, 0, 0, 0, 0, 0, 0, 0, 0, 0, 0, 0], "stateRewards": ["", 2, -4, -48, 24, -4, 4, 24, 24, 2, -8, -24, -48], "withholdReward": true, "trial_id": "mdp_807654778305", "block": "test2", "trialIndex": 44, "score": 26.5, "costs": -0.5, "simulationMode": [null, null, null], "rewards": [2, -4, 24], "path": ["0", "0", "1", "2", "4"], "rt": [2161, 419, 276], "actions": ["up", "up", "left"], "actionTimes": [3014, 3951, 4741], "queries": {"click": {"state": {"target": ["1", "4"], "time": [1273, 1898]}, "edge": {"target": [], "time": []}}, "mouseover": {"state": {"target": ["1", "2", "4", "2", "3"], "time": [1099, 1616, 1765, 2199, 2233]}, "edge": {"target": [], "time": []}}, "mouseout": {"state": {"target": ["2", "1", "1", "2", "4", "2", "3", "2", "1", "0"], "time": [466, 616, 1566, 1632, 2182, 2232, 5831, 6380, 6448, 6481]}, "edge": {"target": [], "time": []}}}, "displayed_time": "8.85", "trialTime": 9390, "trial_type": "mouselab-mdp", "trial_index": 64, "time_elapsed": 1721729, "internal_node_id": "0.0-4.0-3.0-6.0"}}, {"uniqueid": "w29142510:a99491022", "current_trial": 65, "dateTime": 1664556712410, "trialdata": {"revealed_states": [], "num_clicks_accrued": [0, 0, 0, 0, 0, 0, 0, 0, 0, 0, 0, 0, 0], "stateRewards": ["", 2, 4, 24, 48, -2, 8, 24, -24, -4, -4, 48, 48], "withholdReward": true, "trial_id": "mdp_753439303214", "block": "test2", "trialIndex": 45, "score": 34.5, "costs": -0.5, "simulationMode": [null, null, null], "rewards": [2, 4, 24], "path": ["0", "0", "1", "2", "3"], "rt": [2267, 241, 337], "actions": ["up", "up", "right"], "actionTimes": [4559, 5313, 6159], "queries": {"click": {"state": {"target": ["1", "3"], "time": [2800, 3361]}, "edge": {"target": [], "time": []}}, "mouseover": {"state": {"target": ["1", "3"], "time": [2639, 3156]}, "edge": {"target": [], "time": []}}, "mouseout": {"state": {"target": ["0", "1", "3", "5"], "time": [2573, 3089, 3555, 9087]}, "edge": {"target": [], "time": []}}}, "displayed_time": "10.29", "trialTime": 10963, "trial_type": "mouselab-mdp", "trial_index": 65, "time_elapsed": 1732776, "internal_node_id": "0.0-4.0-3.0-7.0"}}, {"uniqueid": "w29142510:a99491022", "current_trial": 66, "dateTime": 1664556724534, "trialdata": {"revealed_states": [], "num_clicks_accrued": [0, 0, 0, 0, 0, 0, 0, 0, 0, 0, 0, 0, 0], "stateRewards": ["", 4, 8, -24, 48, 4, -8, -48, 48, -4, 8, -24, -48], "withholdReward": false, "trial_id": "mdp_376126356841", "block": "test2", "trialIndex": 46, "score": 48.25, "costs": -0.75, "simulationMode": [null, null, null], "rewards": [4, -8, 48], "path": ["0", "0", "5", "6", "8"], "rt": [3361, 895, 255], "actions": ["right", "right", "down"], "actionTimes": [4509, 5913, 6673], "queries": {"click": {"state": {"target": ["9", "5", "8"], "time": [1709, 2446, 3342]}, "edge": {"target": [], "time": []}}, "mouseover": {"state": {"target": ["9", "0", "5", "6", "8"], "time": [1535, 2102, 2352, 2636, 3118]}, "edge": {"target": [], "time": []}}, "mouseout": {"state": {"target": ["0", "9", "9", "0", "5", "6", "8", "6"], "time": [1502, 1902, 2069, 2152, 2636, 2669, 3568, 10450]}, "edge": {"target": [], "time": []}}}, "displayed_time": "10.15", "trialTime": 12036, "trial_type": "mouselab-mdp", "trial_index": 66, "time_elapsed": 1744900, "internal_node_id": "0.0-4.0-3.0-8.0"}}, {"uniqueid": "w29142510:a99491022", "current_trial": 67, "dateTime": 1664556740971, "trialdata": {"revealed_states": [], "num_clicks_accrued": [0, 0, 0, 0, 0, 0, 0, 0, 0, 0, 0, 0, 0], "stateRewards": ["", -2, 8, 24, -48, -2, -4, 24, 48, 2, 8, -48, -48], "withholdReward": true, "trial_id": "mdp_562228697607", "block": "test2", "trialIndex": 47, "score": 44.75, "costs": -2.25, "simulationMode": [null, null, null], "rewards": [-2, -4, 48], "path": ["0", "0", "5", "6", "8"], "rt": [12054, 181, 261], "actions": ["right", "right", "down"], "actionTimes": [12969, 13667, 14430], "queries": {"click": {"state": {"target": ["9", "11", "12", "4", "3", "1", "7", "5", "8"], "time": [1751, 3072, 3736, 6576, 7640, 8768, 9528, 10536, 11312]}, "edge": {"target": [], "time": []}}, "mouseover": {"state": {"target": ["9", "10", "12", "10", "11", "10", "12", "5", "6", "5", "1", "4", "2", "3", "1", "7", "6", "5", "8"], "time": [1506, 2372, 2439, 2722, 2905, 3438, 3488, 4438, 4555, 4905, 5805, 6355, 6937, 7329, 8654, 9270, 9820, 10419, 11153]}, "edge": {"target": [], "time": []}}, "mouseout": {"state": {"target": ["5", "0", "9", "10", "12", "10", "11", "10", "12", "5", "6", "5", "1", "4", "2", "3", "3", "1", "7", "6", "5", "8"], "time": [723, 1440, 2189, 2389, 2705, 2755, 3422, 3472, 3972, 4521, 4839, 5738, 6129, 6904, 6971, 7987, 8120, 9103, 9736, 10303, 10870, 11519]}, "edge": {"target": [], "time": []}}}, "displayed_time": "14.94", "trialTime": 16348, "trial_type": "mouselab-mdp", "trial_index": 67, "time_elapsed": 1761337, "internal_node_id": "0.0-4.0-3.0-9.0"}}, {"uniqueid": "w29142510:a99491022", "current_trial": 68, "dateTime": 1664556753278, "trialdata": {"revealed_states": [], "num_clicks_accrued": [0, 0, 0, 0, 0, 0, 0, 0, 0, 0, 0, 0, 0], "stateRewards": ["", -2, 4, 24, 48, 2, 4, -48, -48, 2, 8, 48, -48], "withholdReward": false, "trial_id": "mdp_409609775558", "block": "test2", "trialIndex": 48, "score": 61.5, "costs": -1.5, "simulationMode": [null, null, null], "rewards": [2, 8, 48], "path": ["0", "0", "9", "10", "11"], "rt": [7368, 4, 172], "actions": ["left", "left", "up"], "actionTimes": [9070, 9588, 10289], "queries": {"click": {"state": {"target": ["5", "8", "7", "1", "9", "11"], "time": [2304, 3184, 3935, 5135, 5824, 6527]}, "edge": {"target": [], "time": []}}, "mouseover": {"state": {"target": ["5", "8", "6", "7", "1", "1", "1", "9", "11"], "time": [2202, 3085, 3551, 3768, 4551, 4767, 4984, 5617, 6417]}, "edge": {"target": [], "time": []}}, "mouseout": {"state": {"target": ["6", "5", "0", "9", "10", "9", "0", "5", "8", "6", "7", "1", "1", "1", "9", "11"], "time": [768, 785, 802, 819, 1035, 1352, 1902, 2752, 3518, 3702, 4285, 4634, 4784, 5534, 6167, 6834]}, "edge": {"target": [], "time": []}}}, "displayed_time": "10.80", "trialTime": 12222, "trial_type": "mouselab-mdp", "trial_index": 68, "time_elapsed": 1773644, "internal_node_id": "0.0-4.0-3.0-10.0"}}, {"uniqueid": "w29142510:a99491022", "current_trial": 69, "dateTime": 1664556763868, "trialdata": {"revealed_states": [], "num_clicks_accrued": [0, 0, 0, 0, 0, 0, 0, 0, 0, 0, 0, 0, 0], "stateRewards": ["", -4, 4, -24, 24, 2, 4, -24, 48, -4, 8, -48, 48], "withholdReward": true, "trial_id": "mdp_422109108860", "block": "test2", "trialIndex": 49, "score": 57.75, "costs": -1.25, "simulationMode": [null, null, null], "rewards": [2, 4, 48], "path": ["0", "0", "5", "6", "8"], "rt": [6146, 179, 176], "actions": ["right", "right", "down"], "actionTimes": [7159, 7853, 8533], "queries": {"click": {"state": {"target": ["9", "1", "5", "7", "8"], "time": [1837, 2565, 3270, 4213, 4829]}, "edge": {"target": [], "time": []}}, "mouseover": {"state": {"target": ["9", "9", "1", "5", "6", "7", "6", "8", "6"], "time": [1358, 1676, 2458, 3124, 3773, 3857, 4540, 4590, 5240]}, "edge": {"target": [], "time": []}}, "mouseout": {"state": {"target": ["1", "9", "9", "1", "5", "6", "7", "6", "8", "6"], "time": [725, 1458, 2207, 2957, 3580, 3790, 4507, 4574, 5223, 5257]}, "edge": {"target": [], "time": []}}}, "displayed_time": "10.01", "trialTime": 10506, "trial_type": "mouselab-mdp", "trial_index": 69, "time_elapsed": 1784234, "internal_node_id": "0.0-4.0-3.0-11.0"}}, {"uniqueid": "w29142510:a99491022", "current_trial": 70, "dateTime": 1664556774725, "trialdata": {"revealed_states": [], "num_clicks_accrued": [0, 0, 0, 0, 0, 0, 0, 0, 0, 0, 0, 0, 0], "stateRewards": ["", -4, 8, -24, 48, 2, -8, 24, 48, 2, -8, -24, -48], "withholdReward": true, "trial_id": "mdp_493778446445", "block": "test2", "trialIndex": 50, "score": 56.25, "costs": -0.75, "simulationMode": [null, null, null], "rewards": [-4, 8, 48], "path": ["0", "0", "1", "2", "4"], "rt": [3721, 157, 63], "actions": ["up", "up", "left"], "actionTimes": [4803, 5466, 6037], "queries": {"click": {"state": {"target": ["1", "3", "4"], "time": [1953, 2657, 3377]}, "edge": {"target": [], "time": []}}, "mouseover": {"state": {"target": ["1", "2", "3", "2", "4"], "time": [1475, 2242, 2441, 3041, 3175]}, "edge": {"target": [], "time": []}}, "mouseout": {"state": {"target": ["7", "5", "0", "1", "2", "3", "2", "4", "2", "7"], "time": [659, 775, 1375, 2192, 2392, 3008, 3074, 3658, 7457, 8656]}, "edge": {"target": [], "time": []}}}, "displayed_time": "10.08", "trialTime": 10767, "trial_type": "mouselab-mdp", "trial_index": 70, "time_elapsed": 1795091, "internal_node_id": "0.0-4.0-3.0-12.0"}}, {"uniqueid": "w29142510:a99491022", "current_trial": 71, "dateTime": 1664556788001, "trialdata": {"revealed_states": [], "num_clicks_accrued": [0, 0, 0, 0, 0, 0, 0, 0, 0, 0, 0, 0, 0], "stateRewards": ["", 4, -4, 48, -48, 4, -4, 24, -24, 4, 8, -24, -48], "withholdReward": false, "trial_id": "mdp_433630527224", "block": "test2", "trialIndex": 51, "score": 51, "costs": -2, "simulationMode": [null, null, null], "rewards": [4, -4, 48], "path": ["0", "0", "1", "2", "3"], "rt": [8055, 184, 89], "actions": ["up", "up", "right"], "actionTimes": [9795, 10497, 11101], "queries": {"click": {"state": {"target": ["9", "12", "11", "5", "7", "8", "1", "3"], "time": [2264, 3104, 3640, 4712, 5335, 6488, 7984, 8529]}, "edge": {"target": [], "time": []}}, "mouseover": {"state": {"target": ["9", "12", "10", "11", "5", "6", "5", "7", "6", "6", "8", "6", "1", "3", "2"], "time": [2167, 2997, 3414, 3447, 4280, 4414, 4580, 5213, 5813, 6196, 6313, 6863, 7863, 8396, 8779]}, "edge": {"target": [], "time": []}}, "mouseout": {"state": {"target": ["1", "0", "9", "12", "10", "11", "5", "6", "5", "7", "6", "6", "8", "6", "1", "3", "2"], "time": [831, 2064, 2714, 3397, 3447, 3913, 4347, 4496, 5030, 5763, 5979, 6246, 6813, 7346, 8145, 8745, 8996]}, "edge": {"target": [], "time": []}}}, "displayed_time": "11.61", "trialTime": 13201, "trial_type": "mouselab-mdp", "trial_index": 71, "time_elapsed": 1808367, "internal_node_id": "0.0-4.0-3.0-13.0"}}, {"uniqueid": "w29142510:a99491022", "current_trial": 72, "dateTime": 1664556798024, "trialdata": {"revealed_states": [], "num_clicks_accrued": [0, 0, 0, 0, 0, 0, 0, 0, 0, 0, 0, 0, 0], "stateRewards": ["", 2, -4, 48, -24, 4, -8, -24, 48, -2, -4, 24, -48], "withholdReward": true, "trial_id": "mdp_357328205509", "block": "test2", "trialIndex": 52, "score": 50.25, "costs": -0.75, "simulationMode": [null, null, null], "rewards": [2, -4, 48], "path": ["0", "0", "1", "2", "3"], "rt": [3128, 88, 175], "actions": ["up", "up", "right"], "actionTimes": [4645, 5251, 5937], "queries": {"click": {"state": {"target": ["1", "4", "3"], "time": [1959, 2599, 3368]}, "edge": {"target": [], "time": []}}, "mouseover": {"state": {"target": ["1", "4", "2", "3"], "time": [1847, 2447, 2863, 3263]}, "edge": {"target": [], "time": []}}, "mouseout": {"state": {"target": ["5", "0", "0", "1", "4", "2", "3"], "time": [747, 863, 1647, 2363, 2846, 2896, 3763]}, "edge": {"target": [], "time": []}}}, "displayed_time": "9.52", "trialTime": 9944, "trial_type": "mouselab-mdp", "trial_index": 72, "time_elapsed": 1818390, "internal_node_id": "0.0-4.0-3.0-14.0"}}, {"uniqueid": "w29142510:a99491022", "current_trial": 73, "dateTime": 1664556808492, "trialdata": {"revealed_states": [], "num_clicks_accrued": [0, 0, 0, 0, 0, 0, 0, 0, 0, 0, 0, 0, 0], "stateRewards": ["", -4, -8, 24, -48, 2, 4, -48, -48, 2, -8, 24, 48], "withholdReward": true, "trial_id": "mdp_111262146724", "block": "test2", "trialIndex": 53, "score": 46.5, "costs": -0.5, "simulationMode": [null, null, null], "rewards": [2, -8, 48], "path": ["0", "0", "9", "10", "12"], "rt": [2324, 126, 120], "actions": ["left", "left", "down"], "actionTimes": [3362, 4006, 4634], "queries": {"click": {"state": {"target": ["9", "12"], "time": [1538, 2218]}, "edge": {"target": [], "time": []}}, "mouseover": {"state": {"target": ["9", "10", "12"], "time": [1397, 1914, 1963]}, "edge": {"target": [], "time": []}}, "mouseout": {"state": {"target": ["0", "9", "10", "12", "9", "5", "6", "6", "5"], "time": [1330, 1864, 1930, 2413, 2580, 5962, 5995, 8062, 8245]}, "edge": {"target": [], "time": []}}}, "displayed_time": "10.04", "trialTime": 10381, "trial_type": "mouselab-mdp", "trial_index": 73, "time_elapsed": 1828858, "internal_node_id": "0.0-4.0-3.0-15.0"}}, {"uniqueid": "w29142510:a99491022", "current_trial": 74, "dateTime": 1664556817781, "trialdata": {"revealed_states": [], "num_clicks_accrued": [0, 0, 0, 0, 0, 0, 0, 0, 0, 0, 0, 0, 0], "stateRewards": ["", 4, 8, 48, 48, 4, 4, -24, -48, 4, 8, -48, -48], "withholdReward": true, "trial_id": "mdp_984548726931", "block": "test2", "trialIndex": 54, "score": 63.75, "costs": -1.25, "simulationMode": [null, null, null], "rewards": [4, 8, 48], "path": ["0", "0", "1", "2", "4"], "rt": [4342, 328, 345], "actions": ["up", "up", "left"], "actionTimes": [5933, 6778, 7629], "queries": {"click": {"state": {"target": ["5", "8", "7", "1", "4"], "time": [2071, 2711, 3375, 4071, 4663]}, "edge": {"target": [], "time": []}}, "mouseover": {"state": {"target": ["5", "8", "6", "7", "1", "4", "2"], "time": [1835, 2584, 3085, 3268, 3967, 4583, 4983]}, "edge": {"target": [], "time": []}}, "mouseout": {"state": {"target": ["0", "5", "8", "6", "7", "1", "4"], "time": [1485, 2334, 3034, 3118, 3684, 4301, 4934]}, "edge": {"target": [], "time": []}}}, "displayed_time": "8.59", "trialTime": 9211, "trial_type": "mouselab-mdp", "trial_index": 74, "time_elapsed": 1838147, "internal_node_id": "0.0-4.0-3.0-16.0"}}, {"uniqueid": "w29142510:a99491022", "current_trial": 75, "dateTime": 1664556828292, "trialdata": {"revealed_states": [], "num_clicks_accrued": [0, 0, 0, 0, 0, 0, 0, 0, 0, 0, 0, 0, 0], "stateRewards": ["", 2, -4, -24, 24, 2, 8, 48, 48, 2, -8, 48, -24], "withholdReward": false, "trial_id": "mdp_330392242530", "block": "test2", "trialIndex": 55, "score": 46.25, "costs": -0.75, "simulationMode": [null, null, null], "rewards": [2, -8, 48], "path": ["0", "0", "9", "10", "11"], "rt": [4323, 35, 227], "actions": ["left", "left", "up"], "actionTimes": [5459, 6002, 6743], "queries": {"click": {"state": {"target": ["9", "12", "11"], "time": [1781, 2733, 3621]}, "edge": {"target": [], "time": []}}, "mouseover": {"state": {"target": ["9", "12", "12", "10", "10", "11"], "time": [1601, 2234, 2633, 3017, 3084, 3383]}, "edge": {"target": [], "time": []}}, "mouseout": {"state": {"target": ["2", "1", "9", "12", "12", "10", "10", "11", "1"], "time": [734, 901, 2100, 2367, 2966, 3033, 3117, 3950, 7716]}, "edge": {"target": [], "time": []}}}, "displayed_time": "10.14", "trialTime": 10425, "trial_type": "mouselab-mdp", "trial_index": 75, "time_elapsed": 1848658, "internal_node_id": "0.0-4.0-3.0-17.0"}}, {"uniqueid": "w29142510:a99491022", "current_trial": 76, "dateTime": 1664556838827, "trialdata": {"revealed_states": [], "num_clicks_accrued": [0, 0, 0, 0, 0, 0, 0, 0, 0, 0, 0, 0, 0], "stateRewards": ["", 2, -8, -24, 48, 4, -8, -24, -24, 2, 8, -24, 24], "withholdReward": true, "trial_id": "mdp_480787552818", "block": "test2", "trialIndex": 56, "score": 45.75, "costs": -1.25, "simulationMode": [null, null, null], "rewards": [2, -8, 48], "path": ["0", "0", "1", "2", "4"], "rt": [4517, 94, 50], "actions": ["up", "up", "left"], "actionTimes": [5553, 6156, 6714], "queries": {"click": {"state": {"target": ["5", "7", "8", "1", "4"], "time": [1646, 2391, 3231, 3862, 4383]}, "edge": {"target": [], "time": []}}, "mouseover": {"state": {"target": ["5", "7", "6", "8", "1", "2", "4", "2"], "time": [1346, 2246, 2662, 2912, 3745, 4128, 4245, 4629]}, "edge": {"target": [], "time": []}}, "mouseout": {"state": {"target": ["1", "0", "5", "7", "6", "8", "5", "1", "2", "4", "2", "3", "5"], "time": [750, 1296, 1946, 2629, 2813, 3528, 3595, 4063, 4145, 4595, 4662, 8879, 9095]}, "edge": {"target": [], "time": []}}}, "displayed_time": "10.04", "trialTime": 10441, "trial_type": "mouselab-mdp", "trial_index": 76, "time_elapsed": 1859192, "internal_node_id": "0.0-4.0-3.0-18.0"}}, {"uniqueid": "w29142510:a99491022", "current_trial": 77, "dateTime": 1664556855669, "trialdata": {"revealed_states": [], "num_clicks_accrued": [0, 0, 0, 0, 0, 0, 0, 0, 0, 0, 0, 0, 0], "stateRewards": ["", 2, -4, -24, -24, -2, -8, -48, 24, -4, -8, 24, 24], "withholdReward": false, "trial_id": "mdp_521351546461", "block": "test2", "trialIndex": 57, "score": 14.5, "costs": -2.5, "simulationMode": [null, null, null], "rewards": [-4, -8, 24], "path": ["0", "0", "9", "10", "11"], "rt": [11036, 136, 228], "actions": ["left", "left", "up"], "actionTimes": [11953, 12593, 13335], "queries": {"click": {"state": {"target": ["9", "5", "1", "4", "3", "11", "12", "7", "8", "10"], "time": [2465, 3881, 4650, 5313, 6009, 6769, 7521, 8577, 9257, 10553]}, "edge": {"target": [], "time": []}}, "mouseover": {"state": {"target": ["9", "5", "9", "0", "5", "1", "4", "2", "3", "2", "11", "11", "10", "12", "0", "7", "6", "8", "6", "10"], "time": [1460, 1925, 2375, 3526, 3741, 4541, 5092, 5540, 5857, 6340, 6390, 6640, 7056, 7373, 8073, 8473, 8939, 9173, 9639, 10239]}, "edge": {"target": [], "time": []}}, "mouseout": {"state": {"target": ["5", "0", "9", "5", "9", "9", "0", "5", "1", "4", "2", "3", "2", "11", "11", "10", "12", "9", "0", "5", "7", "6", "8", "6", "5", "9", "10", "9"], "time": [709, 1375, 1858, 2008, 2941, 3358, 3664, 4241, 4957, 5507, 5624, 6307, 6357, 6440, 7024, 7256, 7707, 8073, 8106, 8156, 8806, 9056, 9480, 9722, 9989, 10206, 10755, 10872]}, "edge": {"target": [], "time": []}}}, "displayed_time": "13.84", "trialTime": 16765, "trial_type": "mouselab-mdp", "trial_index": 77, "time_elapsed": 1876035, "internal_node_id": "0.0-4.0-3.0-19.0"}}, {"uniqueid": "w29142510:a99491022", "current_trial": 78, "dateTime": 1664556868518, "trialdata": {"revealed_states": [], "num_clicks_accrued": [0, 0, 0, 0, 0, 0, 0, 0, 0, 0, 0, 0, 0], "stateRewards": ["", 4, 8, 24, 24, 2, -4, 48, -24, -4, 8, -24, 24], "withholdReward": false, "trial_id": "mdp_932292142091", "block": "test2", "trialIndex": 58, "score": 40, "costs": -1, "simulationMode": [null, null, null], "rewards": [4, 8, 24], "path": ["0", "0", "1", "2", "3"], "rt": [7152, 171, 1043], "actions": ["up", "up", "right"], "actionTimes": [8304, 8985, 10541], "queries": {"click": {"state": {"target": ["9", "1", "3", "4"], "time": [4132, 5116, 6100, 7012]}, "edge": {"target": [], "time": []}}, "mouseover": {"state": {"target": ["0", "9", "1", "2", "3", "2", "4"], "time": [1683, 3182, 4765, 5715, 5931, 6498, 6733]}, "edge": {"target": [], "time": []}}, "mouseout": {"state": {"target": ["0", "9", "1", "2", "3", "2", "4", "3"], "time": [3099, 4749, 5648, 5748, 6431, 6598, 7281, 12063]}, "edge": {"target": [], "time": []}}}, "displayed_time": "11.05", "trialTime": 12777, "trial_type": "mouselab-mdp", "trial_index": 78, "time_elapsed": 1888884, "internal_node_id": "0.0-4.0-3.0-20.0"}}, {"uniqueid": "w29142510:a99491022", "current_trial": 79, "dateTime": 1664556882481, "trialdata": {"revealed_states": [], "num_clicks_accrued": [0, 0, 0, 0, 0, 0, 0, 0, 0, 0, 0, 0, 0], "stateRewards": ["", -2, 8, -48, 48, -4, 8, -24, 24, 4, -4, 24, -48], "withholdReward": true, "trial_id": "mdp_904238083902", "block": "test2", "trialIndex": 59, "score": 27.25, "costs": -1.75, "simulationMode": [null, null, null], "rewards": [4, -4, 24], "path": ["0", "0", "9", "10", "11"], "rt": [9070, 471, 235], "actions": ["left", "left", "up"], "actionTimes": [10314, 11288, 12035], "queries": {"click": {"state": {"target": ["5", "7", "1", "9", "11", "12", "10"], "time": [2448, 3864, 4520, 5320, 6160, 7160, 7824]}, "edge": {"target": [], "time": []}}, "mouseover": {"state": {"target": ["5", "1", "7", "7", "1", "9", "10", "11", "10", "12", "10"], "time": [2223, 3135, 3252, 3551, 4318, 5101, 5684, 6017, 6600, 6867, 7583]}, "edge": {"target": [], "time": []}}, "mouseout": {"state": {"target": ["0", "5", "1", "7", "7", "1", "9", "10", "11", "10", "12", "10"], "time": [1985, 2835, 3201, 3303, 4136, 4918, 5567, 5984, 6551, 6651, 7483, 8217]}, "edge": {"target": [], "time": []}}}, "displayed_time": "12.55", "trialTime": 13880, "trial_type": "mouselab-mdp", "trial_index": 79, "time_elapsed": 1902847, "internal_node_id": "0.0-4.0-3.0-21.0"}}, {"uniqueid": "w29142510:a99491022", "current_trial": 80, "dateTime": 1664556892428, "trialdata": {"revealed_states": [], "num_clicks_accrued": [0, 0, 0, 0, 0, 0, 0, 0, 0, 0, 0, 0, 0], "stateRewards": ["", 2, -4, 24, 24, 4, -4, -24, 24, -4, -4, 48, 48], "withholdReward": true, "trial_id": "mdp_566306223773", "block": "test2", "trialIndex": 60, "score": 28, "costs": -1, "simulationMode": [null, null, null], "rewards": [4, -4, 24], "path": ["0", "0", "5", "6", "8"], "rt": [5073, 273, 51], "actions": ["right", "right", "down"], "actionTimes": [6063, 6846, 7406], "queries": {"click": {"state": {"target": ["9", "5", "7", "8"], "time": [1546, 2162, 3226, 4002]}, "edge": {"target": [], "time": []}}, "mouseover": {"state": {"target": ["0", "9", "0", "5", "1", "7", "6", "8", "6"], "time": [1223, 1390, 1906, 1939, 2440, 3023, 3639, 3873, 4439]}, "edge": {"target": [], "time": []}}, "mouseout": {"state": {"target": ["11", "1", "0", "9", "0", "5", "1", "7", "6", "8", "6"], "time": [590, 873, 1240, 1889, 1923, 2323, 2806, 3555, 3793, 4372, 4472]}, "edge": {"target": [], "time": []}}}, "displayed_time": "8.99", "trialTime": 9869, "trial_type": "mouselab-mdp", "trial_index": 80, "time_elapsed": 1912794, "internal_node_id": "0.0-4.0-3.0-22.0"}}, {"uniqueid": "w29142510:a99491022", "current_trial": 81, "dateTime": 1664556903680, "trialdata": {"revealed_states": [], "num_clicks_accrued": [0, 0, 0, 0, 0, 0, 0, 0, 0, 0, 0, 0, 0], "stateRewards": ["", 2, 8, 24, -48, 4, 8, 24, 24, 4, -8, 48, 48], "withholdReward": true, "trial_id": "mdp_646103824875", "block": "test2", "trialIndex": 61, "score": 38.25, "costs": -0.75, "simulationMode": [null, null, null], "rewards": [2, 8, 24], "path": ["0", "0", "1", "2", "3"], "rt": [4081, 106, 740], "actions": ["up", "up", "right"], "actionTimes": [5067, 5677, 6927], "queries": {"click": {"state": {"target": ["1", "4", "3"], "time": [2309, 2893, 3429]}, "edge": {"target": [], "time": []}}, "mouseover": {"state": {"target": ["1", "2", "4", "2", "3"], "time": [2154, 2637, 2788, 3138, 3172]}, "edge": {"target": [], "time": []}}, "mouseout": {"state": {"target": ["5", "0", "1", "2", "4", "2", "3", "3"], "time": [854, 1316, 2571, 2721, 3087, 3171, 3687, 3954]}, "edge": {"target": [], "time": []}}}, "displayed_time": "9.99", "trialTime": 11172, "trial_type": "mouselab-mdp", "trial_index": 81, "time_elapsed": 1924046, "internal_node_id": "0.0-4.0-3.0-23.0"}}, {"uniqueid": "w29142510:a99491022", "current_trial": 82, "dateTime": 1664556934160, "trialdata": {"revealed_states": [], "num_clicks_accrued": [0, 0, 0, 0, 0, 0, 0, 0, 0, 0, 0, 0, 0], "stateRewards": ["", 4, -8, 48, -24, -4, 4, 24, 24, -2, -4, 24, 24], "withholdReward": true, "trial_id": "mdp_542168715839", "block": "test2", "trialIndex": 62, "score": 48.5, "costs": -0.5, "simulationMode": [null, null, null], "rewards": [4, -8, 48], "path": ["0", "0", "1", "2", "3"], "rt": [1975, 374, 27], "actions": ["up", "up", "right"], "actionTimes": [22859, 23750, 24286], "queries": {"click": {"state": {"target": ["1", "3"], "time": [21345, 21777]}, "edge": {"target": [], "time": []}}, "mouseover": {"state": {"target": ["1", "3"], "time": [21110, 21576]}, "edge": {"target": [], "time": []}}, "mouseout": {"state": {"target": ["3", "0", "1", "3", "2"], "time": [816, 1465, 21543, 22026, 29274]}, "edge": {"target": [], "time": []}}}, "displayed_time": "29.89", "trialTime": 30399, "trial_type": "mouselab-mdp", "trial_index": 82, "time_elapsed": 1954526, "internal_node_id": "0.0-4.0-3.0-24.0"}}, {"uniqueid": "w29142510:a99491022", "current_trial": 83, "dateTime": 1664556946885, "trialdata": {"revealed_states": [], "num_clicks_accrued": [0, 0, 0, 0, 0, 0, 0, 0, 0, 0, 0, 0, 0], "stateRewards": ["", -2, -4, 48, -24, -4, -4, -24, -24, -2, 4, -48, -24], "withholdReward": false, "trial_id": "mdp_410467837196", "block": "test2", "trialIndex": 63, "score": 45, "costs": -2, "simulationMode": [null, null, null], "rewards": [-2, -4, 48], "path": ["0", "0", "1", "2", "3"], "rt": [8081, 509, 82], "actions": ["up", "up", "right"], "actionTimes": [9173, 10217, 10806], "queries": {"click": {"state": {"target": ["9", "5", "1", "4", "11", "7", "8", "3"], "time": [2593, 3233, 3929, 4442, 5201, 6385, 7169, 7850]}, "edge": {"target": [], "time": []}}, "mouseover": {"state": {"target": ["1", "9", "5", "1", "4", "11", "11", "10", "7", "6", "8", "6", "3"], "time": [2127, 2376, 2992, 3642, 4309, 4759, 5075, 5492, 6241, 6691, 7025, 7391, 7724]}, "edge": {"target": [], "time": []}}, "mouseout": {"state": {"target": ["3", "0", "1", "9", "5", "1", "4", "11", "11", "10", "9", "7", "6", "8", "6", "3", "1", "3"], "time": [493, 1276, 2326, 2926, 3433, 4159, 4742, 4792, 5425, 5541, 5609, 6608, 6808, 7341, 7425, 8024, 8091, 8291]}, "edge": {"target": [], "time": []}}}, "displayed_time": "11.32", "trialTime": 12645, "trial_type": "mouselab-mdp", "trial_index": 83, "time_elapsed": 1967251, "internal_node_id": "0.0-4.0-3.0-25.0"}}, {"uniqueid": "w29142510:a99491022", "current_trial": 84, "dateTime": 1664556959389, "trialdata": {"revealed_states": [], "num_clicks_accrued": [0, 0, 0, 0, 0, 0, 0, 0, 0, 0, 0, 0, 0], "stateRewards": ["", -4, 4, 24, 24, -2, 8, 24, -48, 4, -8, -24, -48], "withholdReward": true, "trial_id": "mdp_651542905861", "block": "test2", "trialIndex": 64, "score": 33.5, "costs": -1.5, "simulationMode": [null, null, null], "rewards": [-2, 8, 24], "path": ["0", "0", "5", "6", "7"], "rt": [6650, 88, 1620], "actions": ["right", "right", "up"], "actionTimes": [7618, 8215, 10346], "queries": {"click": {"state": {"target": ["9", "12", "11", "7", "5", "6"], "time": [1535, 2495, 3057, 4008, 4783, 6759]}, "edge": {"target": [], "time": []}}, "mouseover": {"state": {"target": ["0", "9", "10", "12", "10", "11", "5", "7", "5", "6"], "time": [1243, 1293, 2075, 2292, 2675, 2908, 3475, 3775, 4608, 6607]}, "edge": {"target": [], "time": []}}, "mouseout": {"state": {"target": ["0", "9", "10", "12", "10", "11", "5", "7", "5", "6", "0", "9"], "time": [1259, 1742, 2242, 2592, 2842, 3309, 3525, 4358, 4925, 6907, 11591, 11624]}, "edge": {"target": [], "time": []}}}, "displayed_time": "10.86", "trialTime": 12418, "trial_type": "mouselab-mdp", "trial_index": 84, "time_elapsed": 1979755, "internal_node_id": "0.0-4.0-3.0-26.0"}}, {"uniqueid": "w29142510:a99491022", "current_trial": 85, "dateTime": 1664556970033, "trialdata": {"revealed_states": [], "num_clicks_accrued": [0, 0, 0, 0, 0, 0, 0, 0, 0, 0, 0, 0, 0], "stateRewards": ["", -2, -8, 48, 24, 4, -8, 24, 48, 4, -4, 24, -48], "withholdReward": true, "trial_id": "mdp_871576155740", "block": "test2", "trialIndex": 65, "score": 18.5, "costs": -0.5, "simulationMode": [null, null, null], "rewards": [-2, -8, 24], "path": ["0", "0", "1", "2", "4"], "rt": [3361, 91, 142], "actions": ["up", "up", "left"], "actionTimes": [4209, 4813, 5466], "queries": {"click": {"state": {"target": ["1", "4"], "time": [2347, 2964]}, "edge": {"target": [], "time": []}}, "mouseover": {"state": {"target": ["1", "1", "1", "4", "2"], "time": [1506, 1835, 2222, 2906, 3222]}, "edge": {"target": [], "time": []}}, "mouseout": {"state": {"target": ["0", "1", "1", "1", "4", "2", "0", "6"], "time": [1256, 1556, 2089, 2555, 3155, 3355, 7488, 7554]}, "edge": {"target": [], "time": []}}}, "displayed_time": "9.85", "trialTime": 10546, "trial_type": "mouselab-mdp", "trial_index": 85, "time_elapsed": 1990399, "internal_node_id": "0.0-4.0-3.0-27.0"}}, {"uniqueid": "w29142510:a99491022", "current_trial": 86, "dateTime": 1664556981154, "trialdata": {"revealed_states": [], "num_clicks_accrued": [0, 0, 0, 0, 0, 0, 0, 0, 0, 0, 0, 0, 0], "stateRewards": ["", -4, -4, -24, 24, -4, 4, -24, 48, -2, 4, 48, -48], "withholdReward": true, "trial_id": "mdp_774757609669", "block": "test2", "trialIndex": 66, "score": 19.75, "costs": -1.25, "simulationMode": [null, null, null], "rewards": [-4, -4, 24], "path": ["0", "0", "1", "2", "4"], "rt": [4944, 169, 276], "actions": ["up", "up", "left"], "actionTimes": [5865, 6551, 7342], "queries": {"click": {"state": {"target": ["5", "7", "1", "4", "2"], "time": [1375, 2094, 2663, 3279, 4917]}, "edge": {"target": [], "time": []}}, "mouseover": {"state": {"target": ["5", "7", "1", "4", "2"], "time": [1149, 1965, 2465, 3132, 4814]}, "edge": {"target": [], "time": []}}, "mouseout": {"state": {"target": ["0", "5", "7", "1", "4", "4", "2", "3", "5"], "time": [1133, 1799, 2332, 2865, 3582, 4631, 5048, 9963, 10230]}, "edge": {"target": [], "time": []}}}, "displayed_time": "9.92", "trialTime": 11030, "trial_type": "mouselab-mdp", "trial_index": 86, "time_elapsed": 2001520, "internal_node_id": "0.0-4.0-3.0-28.0"}}, {"uniqueid": "w29142510:a99491022", "current_trial": 87, "dateTime": 1664556991313, "trialdata": {"revealed_states": [], "num_clicks_accrued": [0, 0, 0, 0, 0, 0, 0, 0, 0, 0, 0, 0, 0], "stateRewards": ["", 2, 4, -48, 48, -4, 8, -48, -24, -4, -4, 48, 48], "withholdReward": true, "trial_id": "mdp_613582696541", "block": "test2", "trialIndex": 67, "score": 58, "costs": -1, "simulationMode": [null, null, null], "rewards": [2, 4, 48], "path": ["0", "0", "1", "2", "4"], "rt": [5040, 147, 157], "actions": ["up", "up", "left"], "actionTimes": [5809, 6464, 7124], "queries": {"click": {"state": {"target": ["5", "7", "1", "4"], "time": [2175, 2960, 4174, 4823]}, "edge": {"target": [], "time": []}}, "mouseover": {"state": {"target": ["0", "5", "6", "6", "5", "7", "7", "6", "1", "4"], "time": [1168, 1418, 1451, 1617, 2117, 2450, 2850, 3334, 3917, 4717]}, "edge": {"target": [], "time": []}}, "mouseout": {"state": {"target": ["0", "5", "6", "6", "5", "7", "7", "6", "5", "1", "4", "2"], "time": [1384, 1434, 1468, 1701, 2302, 2535, 3267, 3417, 3517, 4416, 5216, 8765]}, "edge": {"target": [], "time": []}}}, "displayed_time": "8.77", "trialTime": 10060, "trial_type": "mouselab-mdp", "trial_index": 87, "time_elapsed": 2011679, "internal_node_id": "0.0-4.0-3.0-29.0"}}, {"uniqueid": "w29142510:a99491022", "current_trial": 88, "dateTime": 1664557046840, "trialdata": {"rt": 55521, "stimulus": "<h1> End of block! </h1>\n\nYou have reached the end of the block 2/4. If you need a short break, feel free to take one now before moving on.\n\n<br><br>\nIn the next block, you will complete another 30 rounds of this game.\n\n<br><br>\n<div style='text-align: center;'>Press <code>space</code> to begin.</div>\n<br><br>\n<div style='text-align: center;'>(If the experiment doesn't continue, try clicking on the text and then pressing <code>space</code>.)</div>", "response": " ", "trial_id": "mdp_ready_3", "trial_type": "html-keyboard-response", "trial_index": 88, "time_elapsed": 2067205, "internal_node_id": "0.0-4.0-4.0"}}, {"uniqueid": "w29142510:a99491022", "current_trial": 89, "dateTime": 1664557061901, "trialdata": {"revealed_states": [], "num_clicks_accrued": [0, 0, 0, 0, 0, 0, 0, 0, 0, 0, 0, 0, 0], "stateRewards": ["", -4, -8, -24, -48, -2, -8, 24, -48, -4, -8, 24, -48], "withholdReward": false, "trial_id": "mdp_621812384092", "block": "test3", "trialIndex": 68, "score": 17.75, "costs": -1.25, "simulationMode": [null, null, null], "rewards": [-2, -8, 24], "path": ["0", "0", "5", "6", "7"], "rt": [4156, 355, 1048], "actions": ["right", "right", "up"], "actionTimes": [7037, 7908, 9468], "queries": {"click": {"state": {"target": ["1", "4", "9", "5", "7"], "time": [3522, 4066, 4706, 5362, 5994]}, "edge": {"target": [], "time": []}}, "mouseover": {"state": {"target": ["1", "4", "9", "0", "5", "6", "7", "6"], "time": [3187, 3904, 4353, 5087, 5153, 5603, 5803, 6303]}, "edge": {"target": [], "time": []}}, "mouseout": {"state": {"target": ["2", "1", "0", "1", "4", "9", "0", "5", "6", "7", "6", "7"], "time": [2254, 2288, 2737, 3837, 4287, 5070, 5120, 5586, 5636, 6253, 6486, 6536]}, "edge": {"target": [], "time": []}}}, "displayed_time": "10.88", "trialTime": 14972, "trial_type": "mouselab-mdp", "trial_index": 89, "time_elapsed": 2082267, "internal_node_id": "0.0-4.0-5.0-0.0"}}, {"uniqueid": "w29142510:a99491022", "current_trial": 90, "dateTime": 1664557077803, "trialdata": {"revealed_states": [], "num_clicks_accrued": [0, 0, 0, 0, 0, 0, 0, 0, 0, 0, 0, 0, 0], "stateRewards": ["", 2, 4, -24, -48, 4, -4, 24, 48, -4, -4, -24, 48], "withholdReward": true, "trial_id": "mdp_181958792175", "block": "test3", "trialIndex": 69, "score": 28, "costs": -1, "simulationMode": [null, null, null], "rewards": [4, -4, 24], "path": ["0", "0", "5", "6", "7"], "rt": [3914, 347, 655], "actions": ["right", "right", "up"], "actionTimes": [5339, 6197, 7355], "queries": {"click": {"state": {"target": ["9", "11", "5", "7"], "time": [2251, 2824, 3608, 4296]}, "edge": {"target": [], "time": []}}, "mouseover": {"state": {"target": ["1", "9", "11", "10", "5", "5", "7", "7", "6"], "time": [1784, 2183, 2650, 3083, 3183, 3483, 3999, 4183, 4516]}, "edge": {"target": [], "time": []}}, "mouseout": {"state": {"target": ["1", "9", "11", "10", "9", "5", "5", "7", "7"], "time": [1900, 2583, 3049, 3100, 3150, 3200, 3916, 4049, 4466]}, "edge": {"target": [], "time": []}}}, "displayed_time": "11.43", "trialTime": 15807, "trial_type": "mouselab-mdp", "trial_index": 90, "time_elapsed": 2098168, "internal_node_id": "0.0-4.0-5.0-1.0"}}, {"uniqueid": "w29142510:a99491022", "current_trial": 91, "dateTime": 1664557093817, "trialdata": {"revealed_states": [], "num_clicks_accrued": [0, 0, 0, 0, 0, 0, 0, 0, 0, 0, 0, 0, 0], "stateRewards": ["", -2, 4, -48, -48, -4, -8, 48, -48, 2, 4, 48, -48], "withholdReward": false, "trial_id": "mdp_258647270500", "block": "test3", "trialIndex": 70, "score": 58.25, "costs": -0.75, "simulationMode": [null, null, null], "rewards": [2, 4, 48], "path": ["0", "0", "9", "10", "11"], "rt": [4833, 237, 277], "actions": ["left", "left", "up"], "actionTimes": [7568, 8317, 9108], "queries": {"click": {"state": {"target": ["9", "12", "11"], "time": [4423, 5286, 6247]}, "edge": {"target": [], "time": []}}, "mouseover": {"state": {"target": ["0", "12", "10", "9", "9", "12", "12", "10", "11", "4"], "time": [2965, 3381, 3715, 3948, 4364, 4898, 5181, 5880, 5997, 6713]}, "edge": {"target": [], "time": []}}, "mouseout": {"state": {"target": ["6", "0", "12", "10", "9", "9", "12", "12", "9", "10", "11"], "time": [2182, 3031, 3498, 3931, 3981, 4681, 4997, 5514, 5797, 5914, 6514]}, "edge": {"target": [], "time": []}}}, "displayed_time": "11.74", "trialTime": 15891, "trial_type": "mouselab-mdp", "trial_index": 91, "time_elapsed": 2114182, "internal_node_id": "0.0-4.0-5.0-2.0"}}, {"uniqueid": "w29142510:a99491022", "current_trial": 92, "dateTime": 1664557114787, "trialdata": {"revealed_states": [], "num_clicks_accrued": [0, 0, 0, 0, 0, 0, 0, 0, 0, 0, 0, 0, 0], "stateRewards": ["", -2, -8, 24, -24, 4, -8, 48, 48, -4, -8, -24, -48], "withholdReward": true, "trial_id": "mdp_286767261523", "block": "test3", "trialIndex": 71, "score": 18.25, "costs": -0.75, "simulationMode": [null, null, null], "rewards": [-2, -8, 24], "path": ["0", "0", "1", "2", "3"], "rt": [3507, 73, 350], "actions": ["up", "up", "right"], "actionTimes": [5162, 5746, 6606], "queries": {"click": {"state": {"target": ["1", "4", "3"], "time": [2196, 3173, 3836]}, "edge": {"target": [], "time": []}}, "mouseover": {"state": {"target": ["1", "4", "2", "3", "5"], "time": [2074, 2990, 3408, 3607, 4091]}, "edge": {"target": [], "time": []}}, "mouseout": {"state": {"target": ["4", "0", "1", "4", "2", "3", "5"], "time": [891, 1524, 2491, 3373, 3507, 3990, 4340]}, "edge": {"target": [], "time": []}}}, "displayed_time": "10.66", "trialTime": 20876, "trial_type": "mouselab-mdp", "trial_index": 92, "time_elapsed": 2135153, "internal_node_id": "0.0-4.0-5.0-3.0"}}, {"uniqueid": "w29142510:a99491022", "current_trial": 93, "dateTime": 1664557126469, "trialdata": {"revealed_states": [], "num_clicks_accrued": [0, 0, 0, 0, 0, 0, 0, 0, 0, 0, 0, 0, 0], "stateRewards": ["", -2, 4, -24, 24, -4, -8, 24, -48, -4, -4, -48, -24], "withholdReward": true, "trial_id": "mdp_753137520419", "block": "test3", "trialIndex": 72, "score": 30.5, "costs": -0.5, "simulationMode": [null, null, null], "rewards": [-2, 4, 24], "path": ["0", "0", "1", "2", "4"], "rt": [3175, 176, 116], "actions": ["up", "up",