{"condition": 1, "counterbalance": 0, "assignmentId": "a63364200", "workerId": "w11713545", "hitId": "h29289217", "currenttrial": 9, "bonus": 0, "data": [{"uniqueid": "w11713545:a63364200", "current_trial": 0, "dateTime": 1664554995724, "trialdata": {"success": true, "trial_type": "fullscreen", "trial_index": 0, "time_elapsed": 2573, "internal_node_id": "0.0-0.0"}}, {"uniqueid": "w11713545:a63364200", "current_trial": 1, "dateTime": 1664555002151, "trialdata": {"view_history": [{"page_index": 0, "viewing_time": 6425}], "rt": 6425, "trial_id": "exp_instructions_no_distractor", "trial_type": "instructions", "trial_index": 1, "time_elapsed": 9000, "internal_node_id": "0.0-1.0"}}, {"uniqueid": "w11713545:a63364200", "current_trial": 2, "dateTime": 1664555005293, "trialdata": {"success": true, "trial_type": "fullscreen", "trial_index": 2, "time_elapsed": 12142, "internal_node_id": "0.0-2.0-0.0"}}, {"uniqueid": "w11713545:a63364200", "current_trial": 3, "dateTime": 1664555077585, "trialdata": {"view_history": [{"page_index": 0, "viewing_time": 31090}, {"page_index": 1, "viewing_time": 23916}, {"page_index": 2, "viewing_time": 9644}, {"page_index": 3, "viewing_time": 4640}, {"page_index": 4, "viewing_time": 3001}], "rt": 72291, "trial_id": "mouselab_instructions_1", "trial_type": "instructions", "trial_index": 3, "time_elapsed": 84434, "internal_node_id": "0.0-2.0-1.0"}}, {"uniqueid": "w11713545:a63364200", "current_trial": 4, "dateTime": 1664555092980, "trialdata": {"revealed_states": [], "num_clicks_accrued": [0, 0, 0, 0, 0, 0, 0, 0, 0, 0, 0, 0, 0], "stateRewards": ["", 10, 10, -10, -10, 10, -10, 10, -10, 10, -10, -10, 10], "withholdReward": false, "trial_id": "practice_1", "block": "test", "trialIndex": 0, "score": 11.5, "costs": -0.5, "simulationMode": [null, null, null], "rewards": [10, -10, 10], "path": ["0", "0", "5", "6", "7"], "rt": [6202, 299, 699], "actions": ["right", "right", "up"], "actionTimes": [8418, 9224, 10424], "queries": {"click": {"state": {"target": ["5", "7"], "time": [5363, 7283]}, "edge": {"target": [], "time": []}}, "mouseover": {"state": {"target": ["6", "5", "6", "6", "6", "7"], "time": [4682, 4824, 6466, 6841, 7058, 7199]}, "edge": {"target": [], "time": []}}, "mouseout": {"state": {"target": ["5", "0", "0", "0", "6", "5", "6", "5", "6", "6", "7"], "time": [140, 837, 1333, 2374, 4733, 5674, 6508, 6574, 6875, 7116, 7449]}, "edge": {"target": [], "time": []}}}, "displayed_time": "10.93", "trialTime": 15273, "trial_type": "mouselab-mdp", "trial_index": 4, "time_elapsed": 99829, "internal_node_id": "0.0-2.0-2.0-0.0"}}, {"uniqueid": "w11713545:a63364200", "current_trial": 5, "dateTime": 1664555102643, "trialdata": {"revealed_states": [], "num_clicks_accrued": [0, 0, 0, 0, 0, 0, 0, 0, 0, 0, 0, 0, 0], "stateRewards": ["", -10, -10, -10, 10, 10, -10, -10, -10, -10, 10, 10, 10], "withholdReward": false, "trial_id": "practice_2", "block": "test", "trialIndex": 1, "score": -8.5, "costs": -0.5, "simulationMode": [null, null, null], "rewards": [10, -10, -10], "path": ["0", "0", "5", "6", "7"], "rt": [4095, 106, 149], "actions": ["right", "right", "up"], "actionTimes": [5896, 6502, 7154], "queries": {"click": {"state": {"target": ["5", "8"], "time": [3165, 5235]}, "edge": {"target": [], "time": []}}, "mouseover": {"state": {"target": ["5", "6", "7", "6", "8"], "time": [3061, 4470, 4670, 4920, 4970]}, "edge": {"target": [], "time": []}}, "mouseout": {"state": {"target": ["5", "0", "5", "6", "7", "6", "8"], "time": [1570, 1953, 3295, 4612, 4887, 4953, 5345]}, "edge": {"target": [], "time": []}}}, "displayed_time": "7.66", "trialTime": 9638, "trial_type": "mouselab-mdp", "trial_index": 5, "time_elapsed": 109492, "internal_node_id": "0.0-2.0-2.0-1.0"}}, {"uniqueid": "w11713545:a63364200", "current_trial": 6, "dateTime": 1664555157877, "trialdata": {"view_history": [{"page_index": 0, "viewing_time": 28698}, {"page_index": 1, "viewing_time": 10520}, {"page_index": 2, "viewing_time": 16015}], "rt": 55232, "trial_id": "mouselab_instructions_2_scarce", "trial_type": "instructions", "trial_index": 6, "time_elapsed": 164726, "internal_node_id": "0.0-2.0-3.0"}}, {"uniqueid": "w11713545:a63364200", "current_trial": 7, "dateTime": 1664555181485, "trialdata": {"rt": 23606, "response": {"Q0": "$-48 to $48", "Q1": "The cost is always $0.25.", "Q2": "The better I perform the higher my bonus will be.", "Q3": "No, the amount of cash at each node of the web may be different each time.", "Q4": "The values of the nodes walked through from start to finish.", "Q5": "No, the score will only be displayed once at the end of the game."}, "question_order": [0, 1, 2, 3, 4, 5], "correct": {"Q0": "$-48 to $48", "Q1": "The cost is always $0.25.", "Q2": "The better I perform the higher my bonus will be.", "Q3": "No, the amount of cash at each node of the web may be different each time.", "Q4": "The values of the nodes walked through from start to finish.", "Q5": "No, the spider might forget to count the money on some rounds."}, "trial_id": "mouselab_quiz_scarce", "trial_type": "survey-multi-choice", "trial_index": 7, "time_elapsed": 188334, "internal_node_id": "0.0-2.0-4.0"}}, {"uniqueid": "w11713545:a63364200", "current_trial": 8, "dateTime": 1664555187047, "trialdata": {"success": true, "trial_type": "fullscreen", "trial_index": 8, "time_elapsed": 193896, "internal_node_id": "0.0-2.1-0.1"}}], "questiondata": {"params": {"CODE": "C6DMOQA6", "MIN_TIME": 7, "inspectCost": 0.25, "startTime": "Fri Sep 30 2022 18:23:12 GMT+0200 (czas \u015brodkowoeuropejski letni)", "bonusRate": 0.002, "variance": "2_4_24", "branching": "312"}}, "eventdata": [{"eventtype": "initialized", "value": null, "timestamp": 1664554992517, "interval": 0}, {"eventtype": "window_resize", "value": [1365, 856], "timestamp": 1664554992517, "interval": 0}, {"eventtype": "window_resize", "value": [1365, 856], "timestamp": 1664554992780, "interval": 263}, {"eventtype": "window_resize", "value": [1920, 1080], "timestamp": 1664554994932, "interval": 2152}, {"eventtype": "window_resize", "value": [1365, 856], "timestamp": 1664555143988, "interval": 149056}, {"eventtype": "focus", "value": "off", "timestamp": 1664555145264, "interval": 1276}, {"eventtype": "focus", "value": "on", "timestamp": 1664555155672, "interval": 10408}, {"eventtype": "window_resize", "value": [1920, 1080], "timestamp": 1664555156757, "interval": 1085}, {"eventtype": "focus", "value": "off", "timestamp": 1664555184471, "interval": 27714}, {"eventtype": "focus", "value": "on", "timestamp": 1664555185965, "interval": 1494}, {"eventtype": "window_resize", "value": [1365, 856], "timestamp": 1664555191119, "interval": 5154}], "useragent": "Mozilla/5.0 (Windows NT 10.0; Win64; x64) AppleWebKit/537.36 (KHTML, like Gecko) Chrome/104.0.5112.102 Safari/537.36 OPR/90.0.4480.117", "mode": "live", "id": "w11713545:a63364200", "status": "user data saved", "Beginhit": "2022-09-30 16:23:11.91025", "Beginexp": "2022-09-30 16:23:15.701885", "Endhit": null, "psiturkStatus": 6, "browser": "<redacted>", "platform": "windows", "language": "pl-PL"}