{"condition": 1, "counterbalance": 0, "assignmentId": "a40779595", "workerId": "w24219690", "hitId": "h59574843", "currenttrial": 143, "bonus": 0, "data": [{"uniqueid": "w24219690:a40779595", "current_trial": 0, "dateTime": 1664554870614, "trialdata": {"success": true, "trial_type": "fullscreen", "trial_index": 0, "time_elapsed": 3059, "internal_node_id": "0.0-0.0"}}, {"uniqueid": "w24219690:a40779595", "current_trial": 1, "dateTime": 1664554875957, "trialdata": {"view_history": [{"page_index": 0, "viewing_time": 5338}], "rt": 5339, "trial_id": "exp_instructions_no_distractor", "trial_type": "instructions", "trial_index": 1, "time_elapsed": 8402, "internal_node_id": "0.0-1.0"}}, {"uniqueid": "w24219690:a40779595", "current_trial": 2, "dateTime": 1664554878380, "trialdata": {"success": true, "trial_type": "fullscreen", "trial_index": 2, "time_elapsed": 10825, "internal_node_id": "0.0-2.0-0.0"}}, {"uniqueid": "w24219690:a40779595", "current_trial": 3, "dateTime": 1664554932761, "trialdata": {"view_history": [{"page_index": 0, "viewing_time": 17830}, {"page_index": 1, "viewing_time": 17497}, {"page_index": 2, "viewing_time": 4448}, {"page_index": 3, "viewing_time": 3032}, {"page_index": 4, "viewing_time": 11573}], "rt": 54380, "trial_id": "mouselab_instructions_1", "trial_type": "instructions", "trial_index": 3, "time_elapsed": 65206, "internal_node_id": "0.0-2.0-1.0"}}, {"uniqueid": "w24219690:a40779595", "current_trial": 4, "dateTime": 1664554948592, "trialdata": {"revealed_states": [], "num_clicks_accrued": [0, 0, 0, 0, 0, 0, 0, 0, 0, 0, 0, 0, 0], "stateRewards": ["", 10, 10, 10, -10, -10, 10, -10, -10, 10, 10, -10, 10], "withholdReward": false, "trial_id": "practice_1", "block": "test", "trialIndex": 0, "score": 11.25, "costs": -0.75, "simulationMode": [null, null, null], "rewards": [10, 10, -10], "path": ["0", "0", "1", "2", "4"], "rt": [6853, 1281, 978], "actions": ["up", "up", "left"], "actionTimes": [8686, 10461, 11928], "queries": {"click": {"state": {"target": ["10", "6", "2"], "time": [5460, 6577, 7018]}, "edge": {"target": [], "time": []}}, "mouseover": {"state": {"target": ["9", "10", "5", "6", "2"], "time": [3156, 4191, 6243, 6293, 6760]}, "edge": {"target": [], "time": []}}, "mouseout": {"state": {"target": ["5", "0", "0", "0", "0", "9", "10", "5", "6", "2", "1"], "time": [36, 270, 453, 737, 2039, 3640, 5742, 6260, 6694, 7195, 15003]}, "edge": {"target": [], "time": []}}}, "displayed_time": "12.42", "trialTime": 15678, "trial_type": "mouselab-mdp", "trial_index": 4, "time_elapsed": 81037, "internal_node_id": "0.0-2.0-2.0-0.0"}}, {"uniqueid": "w24219690:a40779595", "current_trial": 5, "dateTime": 1664554953758, "trialdata": {"revealed_states": [], "num_clicks_accrued": [0, 0, 0, 0, 0, 0, 0, 0, 0, 0, 0, 0, 0], "stateRewards": ["", 10, 10, -10, -10, -10, 10, -10, 10, 10, 10, -10, 10], "withholdReward": false, "trial_id": "practice_2", "block": "test", "trialIndex": 1, "score": 12, "costs": 0, "simulationMode": [null, null, null], "rewards": [-10, 10, 10], "path": ["0", "0", "5", "6", "8"], "rt": [876, 35, 68], "actions": ["right", "right", "down"], "actionTimes": [2398, 2924, 3509], "queries": {"click": {"state": {"target": [], "time": []}, "edge": {"target": [], "time": []}}, "mouseover": {"state": {"target": [], "time": []}, "edge": {"target": [], "time": []}}, "mouseout": {"state": {"target": ["4", "2", "3", "8", "0"], "time": [1003, 1037, 1053, 1220, 1721]}, "edge": {"target": [], "time": []}}}, "displayed_time": "4.01", "trialTime": 5127, "trial_type": "mouselab-mdp", "trial_index": 5, "time_elapsed": 86203, "internal_node_id": "0.0-2.0-2.0-1.0"}}, {"uniqueid": "w24219690:a40779595", "current_trial": 6, "dateTime": 1664554983875, "trialdata": {"view_history": [{"page_index": 0, "viewing_time": 15563}, {"page_index": 1, "viewing_time": 10152}, {"page_index": 2, "viewing_time": 4400}], "rt": 30116, "trial_id": "mouselab_instructions_2_scarce", "trial_type": "instructions", "trial_index": 6, "time_elapsed": 116320, "internal_node_id": "0.0-2.0-3.0"}}, {"uniqueid": "w24219690:a40779595", "current_trial": 7, "dateTime": 1664555017544, "trialdata": {"rt": 33666, "response": {"Q0": "$-10 to $10", "Q1": "The cost is always $0.25.", "Q2": "The better I perform the higher my bonus will be.", "Q3": "No, the amount of cash at each node of the web may be different each time.", "Q4": "The values of the nodes walked through from start to finish.", "Q5": "No, the spider might forget to count the money on some rounds."}, "question_order": [0, 1, 2, 3, 4, 5], "correct": {"Q0": "$-48 to $48", "Q1": "The cost is always $0.25.", "Q2": "The better I perform the higher my bonus will be.", "Q3": "No, the amount of cash at each node of the web may be different each time.", "Q4": "The values of the nodes walked through from start to finish.", "Q5": "No, the spider might forget to count the money on some rounds."}, "trial_id": "mouselab_quiz_scarce", "trial_type": "survey-multi-choice", "trial_index": 7, "time_elapsed": 149989, "internal_node_id": "0.0-2.0-4.0"}}, {"uniqueid": "w24219690:a40779595", "current_trial": 8, "dateTime": 1664555022064, "trialdata": {"success": true, "trial_type": "fullscreen", "trial_index": 8, "time_elapsed": 154509, "internal_node_id": "0.0-2.1-0.1"}}, {"uniqueid": "w24219690:a40779595", "current_trial": 9, "dateTime": 1664555041591, "trialdata": {"view_history": [{"page_index": 0, "viewing_time": 7129}, {"page_index": 1, "viewing_time": 5474}, {"page_index": 2, "viewing_time": 2398}, {"page_index": 3, "viewing_time": 787}, {"page_index": 4, "viewing_time": 3737}], "rt": 19525, "trial_id": "mouselab_instructions_1", "trial_type": "instructions", "trial_index": 9, "time_elapsed": 174036, "internal_node_id": "0.0-2.1-1.1"}}, {"uniqueid": "w24219690:a40779595", "current_trial": 10, "dateTime": 1664555047887, "trialdata": {"revealed_states": [], "num_clicks_accrued": [0, 0, 0, 0, 0, 0, 0, 0, 0, 0, 0, 0, 0], "stateRewards": ["", 10, 10, 10, -10, -10, 10, -10, -10, 10, 10, -10, 10], "withholdReward": false, "trial_id": "practice_1", "block": "test", "trialIndex": 2, "score": -8, "costs": 0, "simulationMode": [null, null, null], "rewards": [-10, 10, -10], "path": ["0", "0", "5", "6", "8"], "rt": [211, 304, 95], "actions": ["right", "right", "down"], "actionTimes": [3350, 4161, 4753], "queries": {"click": {"state": {"target": [], "time": []}, "edge": {"target": [], "time": []}}, "mouseover": {"state": {"target": [], "time": []}, "edge": {"target": [], "time": []}}, "mouseout": {"state": {"target": ["5", "0", "0", "7", "7", "0", "8"], "time": [1070, 1170, 1621, 1671, 2873, 3469, 5308]}, "edge": {"target": [], "time": []}}}, "displayed_time": "5.24", "trialTime": 6252, "trial_type": "mouselab-mdp", "trial_index": 10, "time_elapsed": 180332, "internal_node_id": "0.0-2.1-2.1-0.1"}}, {"uniqueid": "w24219690:a40779595", "current_trial": 11, "dateTime": 1664555050609, "trialdata": {"revealed_states": [], "num_clicks_accrued": [0, 0, 0, 0, 0, 0, 0, 0, 0, 0, 0, 0, 0], "stateRewards": ["", 10, 10, -10, -10, -10, 10, -10, 10, 10, 10, -10, 10], "withholdReward": false, "trial_id": "practice_2", "block": "test", "trialIndex": 3, "score": 12, "costs": 0, "simulationMode": [null, null, null], "rewards": [10, 10, -10], "path": ["0", "0", "1", "2", "3"], "rt": [413, 32, 28], "actions": ["up", "up", "right"], "actionTimes": [856, 1383, 1930], "queries": {"click": {"state": {"target": [], "time": []}, "edge": {"target": [], "time": []}}, "mouseover": {"state": {"target": [], "time": []}, "edge": {"target": [], "time": []}}, "mouseout": {"state": {"target": ["0"], "time": [2135]}, "edge": {"target": [], "time": []}}}, "displayed_time": "2.42", "trialTime": 2680, "trial_type": "mouselab-mdp", "trial_index": 11, "time_elapsed": 183054, "internal_node_id": "0.0-2.1-2.1-1.1"}}, {"uniqueid": "w24219690:a40779595", "current_trial": 12, "dateTime": 1664555054727, "trialdata": {"view_history": [{"page_index": 0, "viewing_time": 2317}, {"page_index": 1, "viewing_time": 998}, {"page_index": 2, "viewing_time": 801}], "rt": 4116, "trial_id": "mouselab_instructions_2_scarce", "trial_type": "instructions", "trial_index": 12, "time_elapsed": 187172, "internal_node_id": "0.0-2.1-3.1"}}, {"uniqueid": "w24219690:a40779595", "current_trial": 13, "dateTime": 1664555065784, "trialdata": {"rt": 11055, "response": {"Q0": "$-48 to $48", "Q1": "The cost is always $0.25.", "Q2": "The better I perform the higher my bonus will be.", "Q3": "No, the amount of cash at each node of the web may be different each time.", "Q4": "The values of the nodes walked through from start to finish.", "Q5": "No, the spider might forget to count the money on some rounds."}, "question_order": [0, 1, 2, 3, 4, 5], "correct": {"Q0": "$-48 to $48", "Q1": "The cost is always $0.25.", "Q2": "The better I perform the higher my bonus will be.", "Q3": "No, the amount of cash at each node of the web may be different each time.", "Q4": "The values of the nodes walked through from start to finish.", "Q5": "No, the spider might forget to count the money on some rounds."}, "trial_id": "mouselab_quiz_scarce", "trial_type": "survey-multi-choice", "trial_index": 13, "time_elapsed": 198229, "internal_node_id": "0.0-2.1-4.1"}}, {"uniqueid": "w24219690:a40779595", "current_trial": 14, "dateTime": 1664555070922, "trialdata": {"rt": 5132, "stimulus": "\n<h1> Get ready to start the game! </h1>\n\nThank you for reading the instructions. Get ready start with the first of 4 block(s) of this game.\n<br><br>\nIn this first block, you will complete 30 rounds of this game before moving on.\n<br><br>\nRemember, the more money the spider gets, the bigger your bonus will be!\n<br><br>\n<div style='text-align: center;'>Press <code>space</code> to begin.</div>\n\n<br><br>\n(If, at any point, the <code>space</code> key does not take you to the next page, click once on the text and try again.)", "response": " ", "trial_id": "mdp_ready_1", "trial_type": "html-keyboard-response", "trial_index": 14, "time_elapsed": 203367, "internal_node_id": "0.0-4.0-0.0"}}, {"uniqueid": "w24219690:a40779595", "current_trial": 15, "dateTime": 1664555082870, "trialdata": {"revealed_states": [], "num_clicks_accrued": [0, 0, 0, 0, 0, 0, 0, 0, 0, 0, 0, 0, 0], "stateRewards": ["", -4, 4, 24, 24, -2, 8, 24, -48, 4, -8, -24, -48], "withholdReward": true, "trial_id": "mdp_651542905861", "block": "test1", "trialIndex": 4, "score": 29, "costs": 0, "simulationMode": [null, null, null], "rewards": [-4, 4, 24], "path": ["0", "0", "1", "2", "4"], "rt": [722, 24, 89], "actions": ["up", "up", "left"], "actionTimes": [1991, 2518, 3100], "queries": {"click": {"state": {"target": [], "time": []}, "edge": {"target": [], "time": []}}, "mouseover": {"state": {"target": [], "time": []}, "edge": {"target": [], "time": []}}, "mouseout": {"state": {"target": [], "time": []}, "edge": {"target": [], "time": []}}}, "displayed_time": "10.27", "trialTime": 11907, "trial_type": "mouselab-mdp", "trial_index": 15, "time_elapsed": 215315, "internal_node_id": "0.0-4.0-1.0-0.0"}}, {"uniqueid": "w24219690:a40779595", "current_trial": 16, "dateTime": 1664555093051, "trialdata": {"revealed_states": [], "num_clicks_accrued": [0, 0, 0, 0, 0, 0, 0, 0, 0, 0, 0, 0, 0], "stateRewards": ["", -2, 8, 24, -48, -4, -8, -24, -48, -4, 8, -24, 48], "withholdReward": true, "trial_id": "mdp_464339499860", "block": "test1", "trialIndex": 5, "score": 57, "costs": 0, "simulationMode": [null, null, null], "rewards": [-4, 8, 48], "path": ["0", "0", "9", "10", "12"], "rt": [2309, 2447, 193], "actions": ["left", "left", "down"], "actionTimes": [3892, 6841, 7524], "queries": {"click": {"state": {"target": [], "time": []}, "edge": {"target": [], "time": []}}, "mouseover": {"state": {"target": [], "time": []}, "edge": {"target": [], "time": []}}, "mouseout": {"state": {"target": ["0", "0", "5", "11"], "time": [1387, 5145, 5346, 6142]}, "edge": {"target": [], "time": []}}}, "displayed_time": "9.58", "trialTime": 10140, "trial_type": "mouselab-mdp", "trial_index": 16, "time_elapsed": 225496, "internal_node_id": "0.0-4.0-1.0-1.0"}}, {"uniqueid": "w24219690:a40779595", "current_trial": 17, "dateTime": 1664555103529, "trialdata": {"revealed_states": [], "num_clicks_accrued": [0, 0, 0, 0, 0, 0, 0, 0, 0, 0, 0, 0, 0], "stateRewards": ["", 4, -8, -48, 24, 4, 4, -24, -24, 2, 4, -48, 24], "withholdReward": true, "trial_id": "mdp_626971397185", "block": "test1", "trialIndex": 6, "score": -11.75, "costs": -0.75, "simulationMode": [null, null, null], "rewards": [4, 4, -24], "path": ["0", "0", "5", "6", "8"], "rt": [6025, 38, 14], "actions": ["right", "right", "down"], "actionTimes": [7442, 7969, 8495], "queries": {"click": {"state": {"target": ["2", "10", "6"], "time": [4840, 6123, 6653]}, "edge": {"target": [], "time": []}}, "mouseover": {"state": {"target": ["1", "2", "1", "5", "9", "10", "9", "5", "6"], "time": [4560, 4610, 4993, 5494, 5678, 5861, 6312, 6379, 6579]}, "edge": {"target": [], "time": []}}, "mouseout": {"state": {"target": ["9", "1", "2", "1", "5", "9", "10", "9", "5", "6"], "time": [1243, 4577, 4960, 5044, 5594, 5811, 6295, 6329, 6412, 6796]}, "edge": {"target": [], "time": []}}}, "displayed_time": "9.42", "trialTime": 10439, "trial_type": "mouselab-mdp", "trial_index": 17, "time_elapsed": 235974, "internal_node_id": "0.0-4.0-1.0-2.0"}}, {"uniqueid": "w24219690:a40779595", "current_trial": 18, "dateTime": 1664555113832, "trialdata": {"revealed_states": [], "num_clicks_accrued": [0, 0, 0, 0, 0, 0, 0, 0, 0, 0, 0, 0, 0], "stateRewards": ["", -4, -8, -24, 24, 2, 8, 24, 48, 2, 4, 24, -48], "withholdReward": true, "trial_id": "mdp_122352383932", "block": "test1", "trialIndex": 7, "score": 39, "costs": 0, "simulationMode": [null, null, null], "rewards": [2, 8, 24], "path": ["0", "0", "5", "6", "7"], "rt": [681, 467, 103], "actions": ["right", "right", "up"], "actionTimes": [1285, 2243, 2847], "queries": {"click": {"state": {"target": [], "time": []}, "edge": {"target": [], "time": []}}, "mouseover": {"state": {"target": [], "time": []}, "edge": {"target": [], "time": []}}, "mouseout": {"state": {"target": ["8", "5", "0", "5", "8"], "time": [324, 374, 3761, 4045, 4980]}, "edge": {"target": [], "time": []}}}, "displayed_time": "9.61", "trialTime": 10266, "trial_type": "mouselab-mdp", "trial_index": 18, "time_elapsed": 246277, "internal_node_id": "0.0-4.0-1.0-3.0"}}, {"uniqueid": "w24219690:a40779595", "current_trial": 19, "dateTime": 1664555124263, "trialdata": {"revealed_states": [], "num_clicks_accrued": [0, 0, 0, 0, 0, 0, 0, 0, 0, 0, 0, 0, 0], "stateRewards": ["", 2, 4, 48, -48, 2, -4, 48, 24, -2, -8, -24, 48], "withholdReward": false, "trial_id": "mdp_962424406744", "block": "test1", "trialIndex": 8, "score": 58.25, "costs": -0.75, "simulationMode": [null, null, null], "rewards": [2, 4, 48], "path": ["0", "0", "1", "2", "3"], "rt": [1705, 51, 9], "actions": ["up", "up", "right"], "actionTimes": [2445, 2991, 3499], "queries": {"click": {"state": {"target": ["10", "2", "6"], "time": [1136, 1443, 1885]}, "edge": {"target": [], "time": []}}, "mouseover": {"state": {"target": ["9", "10", "2", "6"], "time": [870, 905, 1304, 1704]}, "edge": {"target": [], "time": []}}, "mouseout": {"state": {"target": ["9", "9", "9", "10", "2", "6", "8"], "time": [169, 553, 888, 1221, 1588, 4207, 4558]}, "edge": {"target": [], "time": []}}}, "displayed_time": "9.74", "trialTime": 10381, "trial_type": "mouselab-mdp", "trial_index": 19, "time_elapsed": 256708, "internal_node_id": "0.0-4.0-1.0-4.0"}}, {"uniqueid": "w24219690:a40779595", "current_trial": 20, "dateTime": 1664555134951, "trialdata": {"revealed_states": [], "num_clicks_accrued": [0, 0, 0, 0, 0, 0, 0, 0, 0, 0, 0, 0, 0], "stateRewards": ["", 2, 4, 48, -48, 2, 4, 24, -24, 2, -4, -24, -48], "withholdReward": true, "trial_id": "mdp_706591889062", "block": "test1", "trialIndex": 9, "score": -13.75, "costs": -0.75, "simulationMode": [null, null, null], "rewards": [2, 4, -24], "path": ["0", "0", "5", "6", "8"], "rt": [2273, 425, 225], "actions": ["right", "right", "down"], "actionTimes": [3322, 4242, 4960], "queries": {"click": {"state": {"target": ["2", "10", "6"], "time": [1636, 2238, 2681]}, "edge": {"target": [], "time": []}}, "mouseover": {"state": {"target": ["1", "2", "10", "9", "0", "5", "6"], "time": [1330, 1530, 1814, 2381, 2399, 2431, 2465]}, "edge": {"target": [], "time": []}}, "mouseout": {"state": {"target": ["5", "1", "2", "10", "9", "0", "5", "6", "8", "8"], "time": [746, 1364, 1748, 2365, 2398, 2415, 2449, 6069, 8806, 9556]}, "edge": {"target": [], "time": []}}}, "displayed_time": "9.05", "trialTime": 10650, "trial_type": "mouselab-mdp", "trial_index": 20, "time_elapsed": 267396, "internal_node_id": "0.0-4.0-1.0-5.0"}}, {"uniqueid": "w24219690:a40779595", "current_trial": 21, "dateTime": 1664555149077, "trialdata": {"revealed_states": [], "num_clicks_accrued": [0, 0, 0, 0, 0, 0, 0, 0, 0, 0, 0, 0, 0], "stateRewards": ["", -2, -8, 48, 24, 2, 4, 24, -24, -2, -4, 48, -48], "withholdReward": true, "trial_id": "mdp_411152402386", "block": "test1", "trialIndex": 10, "score": 34.25, "costs": -0.75, "simulationMode": [null, null, null], "rewards": [2, 4, 24], "path": ["0", "0", "5", "6", "7"], "rt": [1644, 368, 105], "actions": ["right", "right", "up"], "actionTimes": [2376, 3238, 3842], "queries": {"click": {"state": {"target": ["2", "10", "6"], "time": [1088, 1487, 1874]}, "edge": {"target": [], "time": []}}, "mouseover": {"state": {"target": ["1", "2", "10", "9", "0", "5", "6"], "time": [884, 934, 1284, 1601, 1619, 1651, 1668]}, "edge": {"target": [], "time": []}}, "mouseout": {"state": {"target": ["0", "1", "2", "10", "9", "0", "5", "6"], "time": [683, 917, 1200, 1585, 1618, 1635, 1668, 2018]}, "edge": {"target": [], "time": []}}}, "displayed_time": "9.73", "trialTime": 14085, "trial_type": "mouselab-mdp", "trial_index": 21, "time_elapsed": 281522, "internal_node_id": "0.0-4.0-1.0-6.0"}}, {"uniqueid": "w24219690:a40779595", "current_trial": 22, "dateTime": 1664555160552, "trialdata": {"revealed_states": [], "num_clicks_accrued": [0, 0, 0, 0, 0, 0, 0, 0, 0, 0, 0, 0, 0], "stateRewards": ["", -2, -4, -24, -24, 4, 8, 24, 24, -2, 8, 48, 48], "withholdReward": true, "trial_id": "mdp_620787912291", "block": "test1", "trialIndex": 11, "score": 59, "costs": 0, "simulationMode": [null, null, null], "rewards": [-2, 8, 48], "path": ["0", "0", "9", "10", "12"], "rt": [627, 382, 234], "actions": ["left", "left", "down"], "actionTimes": [2139, 3020, 3741], "queries": {"click": {"state": {"target": [], "time": []}, "edge": {"target": [], "time": []}}, "mouseover": {"state": {"target": [], "time": []}, "edge": {"target": [], "time": []}}, "mouseout": {"state": {"target": ["0", "5"], "time": [10197, 10231]}, "edge": {"target": [], "time": []}}}, "displayed_time": "9.51", "trialTime": 11430, "trial_type": "mouselab-mdp", "trial_index": 22, "time_elapsed": 292996, "internal_node_id": "0.0-4.0-1.0-7.0"}}, {"uniqueid": "w24219690:a40779595", "current_trial": 23, "dateTime": 1664555174870, "trialdata": {"revealed_states": [], "num_clicks_accrued": [0, 0, 0, 0, 0, 0, 0, 0, 0, 0, 0, 0, 0], "stateRewards": ["", 4, 8, 24, 24, 2, -4, 48, -24, -4, 8, -24, 24], "withholdReward": false, "trial_id": "mdp_932292142091", "block": "test1", "trialIndex": 12, "score": 41, "costs": 0, "simulationMode": [null, null, null], "rewards": [4, 8, 24], "path": ["0", "0", "1", "2", "4"], "rt": [725, 114, 37], "actions": ["up", "up", "left"], "actionTimes": [1224, 1828, 2352], "queries": {"click": {"state": {"target": [], "time": []}, "edge": {"target": [], "time": []}}, "mouseover": {"state": {"target": [], "time": []}, "edge": {"target": [], "time": []}}, "mouseout": {"state": {"target": ["0", "7"], "time": [3099, 3132]}, "edge": {"target": [], "time": []}}}, "displayed_time": "9.50", "trialTime": 14278, "trial_type": "mouselab-mdp", "trial_index": 23, "time_elapsed": 307314, "internal_node_id": "0.0-4.0-1.0-8.0"}}, {"uniqueid": "w24219690:a40779595", "current_trial": 24, "dateTime": 1664555186480, "trialdata": {"revealed_states": [], "num_clicks_accrued": [0, 0, 0, 0, 0, 0, 0, 0, 0, 0, 0, 0, 0], "stateRewards": ["", -4, -4, -24, -24, -2, 4, 48, -24, -2, -4, -24, 48], "withholdReward": true, "trial_id": "mdp_855903341564", "block": "test1", "trialIndex": 13, "score": -17, "costs": 0, "simulationMode": [null, null, null], "rewards": [-2, 4, -24], "path": ["0", "0", "5", "6", "8"], "rt": [558, 78, 38], "actions": ["right", "right", "down"], "actionTimes": [1737, 2303, 2829], "queries": {"click": {"state": {"target": [], "time": []}, "edge": {"target": [], "time": []}}, "mouseover": {"state": {"target": ["0"], "time": [1290]}, "edge": {"target": [], "time": []}}, "mouseout": {"state": {"target": ["8", "7", "5", "0", "0"], "time": [789, 873, 973, 1106, 1340]}, "edge": {"target": [], "time": []}}}, "displayed_time": "10.18", "trialTime": 11565, "trial_type": "mouselab-mdp", "trial_index": 24, "time_elapsed": 318925, "internal_node_id": "0.0-4.0-1.0-9.0"}}, {"uniqueid": "w24219690:a40779595", "current_trial": 25, "dateTime": 1664555200274, "trialdata": {"revealed_states": [], "num_clicks_accrued": [0, 0, 0, 0, 0, 0, 0, 0, 0, 0, 0, 0, 0], "stateRewards": ["", -2, 8, 48, 24, 2, -8, -24, -48, -4, 8, -48, 24], "withholdReward": true, "trial_id": "mdp_224053025943", "block": "test1", "trialIndex": 14, "score": 33, "costs": 0, "simulationMode": [null, null, null], "rewards": [-4, 8, 24], "path": ["0", "0", "9", "10", "12"], "rt": [659, 123, 111], "actions": ["left", "left", "down"], "actionTimes": [1795, 2418, 3023], "queries": {"click": {"state": {"target": [], "time": []}, "edge": {"target": [], "time": []}}, "mouseover": {"state": {"target": ["5"], "time": [1311]}, "edge": {"target": [], "time": []}}, "mouseout": {"state": {"target": ["0", "5"], "time": [1295, 1327]}, "edge": {"target": [], "time": []}}}, "displayed_time": "10.14", "trialTime": 13750, "trial_type": "mouselab-mdp", "trial_index": 25, "time_elapsed": 332719, "internal_node_id": "0.0-4.0-1.0-10.0"}}, {"uniqueid": "w24219690:a40779595", "current_trial": 26, "dateTime": 1664555214179, "trialdata": {"revealed_states": [], "num_clicks_accrued": [0, 0, 0, 0, 0, 0, 0, 0, 0, 0, 0, 0, 0], "stateRewards": ["", -4, 8, -24, -24, 2, 4, 48, 48, -2, 4, 24, -48], "withholdReward": false, "trial_id": "mdp_397308196941", "block": "test1", "trialIndex": 15, "score": -15, "costs": 0, "simulationMode": [null, null, null], "rewards": [-4, 8, -24], "path": ["0", "0", "1", "2", "3"], "rt": [445, 21, 404], "actions": ["up", "up", "right"], "actionTimes": [2107, 2623, 3523], "queries": {"click": {"state": {"target": [], "time": []}, "edge": {"target": [], "time": []}}, "mouseover": {"state": {"target": [], "time": []}, "edge": {"target": [], "time": []}}, "mouseout": {"state": {"target": ["0", "5"], "time": [13447, 13698]}, "edge": {"target": [], "time": []}}}, "displayed_time": "10.66", "trialTime": 13864, "trial_type": "mouselab-mdp", "trial_index": 26, "time_elapsed": 346624, "internal_node_id": "0.0-4.0-1.0-11.0"}}, {"uniqueid": "w24219690:a40779595", "current_trial": 27, "dateTime": 1664555225249, "trialdata": {"revealed_states": [], "num_clicks_accrued": [0, 0, 0, 0, 0, 0, 0, 0, 0, 0, 0, 0, 0], "stateRewards": ["", -4, -8, -48, 24, -4, -4, -24, -48, 2, -8, -24, -48], "withholdReward": true, "trial_id": "mdp_628181832088", "block": "test1", "trialIndex": 16, "score": -49, "costs": 0, "simulationMode": [null, null, null], "rewards": [2, -8, -48], "path": ["0", "0", "9", "10", "12"], "rt": [470, 102, 279], "actions": ["left", "left", "down"], "actionTimes": [891, 1495, 2273], "queries": {"click": {"state": {"target": [], "time": []}, "edge": {"target": [], "time": []}}, "mouseover": {"state": {"target": [], "time": []}, "edge": {"target": [], "time": []}}, "mouseout": {"state": {"target": ["0", "0"], "time": [342, 10654]}, "edge": {"target": [], "time": []}}}, "displayed_time": "8.42", "trialTime": 11028, "trial_type": "mouselab-mdp", "trial_index": 27, "time_elapsed": 357694, "internal_node_id": "0.0-4.0-1.0-12.0"}}, {"uniqueid": "w24219690:a40779595", "current_trial": 28, "dateTime": 1664555235589, "trialdata": {"revealed_states": [], "num_clicks_accrued": [0, 0, 0, 0, 0, 0, 0, 0, 0, 0, 0, 0, 0], "stateRewards": ["", 2, 4, -24, -24, 4, 8, -48, 48, 2, 4, -24, -48], "withholdReward": true, "trial_id": "mdp_565165082781", "block": "test1", "trialIndex": 17, "score": -37, "costs": 0, "simulationMode": [null, null, null], "rewards": [2, 4, -48], "path": ["0", "0", "9", "10", "12"], "rt": [568, 404, 32], "actions": ["left", "left", "down"], "actionTimes": [1377, 2278, 2806], "queries": {"click": {"state": {"target": [], "time": []}, "edge": {"target": [], "time": []}}, "mouseover": {"state": {"target": [], "time": []}, "edge": {"target": [], "time": []}}, "mouseout": {"state": {"target": ["5", "0"], "time": [138, 956]}, "edge": {"target": [], "time": []}}}, "displayed_time": "9.81", "trialTime": 10301, "trial_type": "mouselab-mdp", "trial_index": 28, "time_elapsed": 368033, "internal_node_id": "0.0-4.0-1.0-13.0"}}, {"uniqueid": "w24219690:a40779595", "current_trial": 29, "dateTime": 1664555245220, "trialdata": {"revealed_states": [], "num_clicks_accrued": [0, 0, 0, 0, 0, 0, 0, 0, 0, 0, 0, 0, 0], "stateRewards": ["", -4, -4, -48, -24, 2, 8, 24, -48, 4, 4, 48, 48], "withholdReward": true, "trial_id": "mdp_693501840209", "block": "test1", "trialIndex": 18, "score": -51.25, "costs": -0.25, "simulationMode": [null, null, null], "rewards": [-4, -4, -48], "path": ["0", "0", "1", "2", "3"], "rt": [1061, 30, 221], "actions": ["up", "up", "right"], "actionTimes": [1712, 2238, 2947], "queries": {"click": {"state": {"target": ["1"], "time": [1028]}, "edge": {"target": [], "time": []}}, "mouseover": {"state": {"target": ["1"], "time": [857]}, "edge": {"target": [], "time": []}}, "mouseout": {"state": {"target": ["0"], "time": [523]}, "edge": {"target": [], "time": []}}}, "displayed_time": "8.65", "trialTime": 9589, "trial_type": "mouselab-mdp", "trial_index": 29, "time_elapsed": 377665, "internal_node_id": "0.0-4.0-1.0-14.0"}}, {"uniqueid": "w24219690:a40779595", "current_trial": 30, "dateTime": 1664555255863, "trialdata": {"revealed_states": [], "num_clicks_accrued": [0, 0, 0, 0, 0, 0, 0, 0, 0, 0, 0, 0, 0], "stateRewards": ["", 4, -4, 48, -48, 2, 8, -48, 24, -2, -4, -24, 48], "withholdReward": false, "trial_id": "mdp_937564992306", "block": "test1", "trialIndex": 19, "score": 39, "costs": 0, "simulationMode": [null, null, null], "rewards": [2, 8, 24], "path": ["0", "0", "5", "6", "8"], "rt": [616, 137, 86], "actions": ["right", "right", "down"], "actionTimes": [1060, 1684, 2268], "queries": {"click": {"state": {"target": [], "time": []}, "edge": {"target": [], "time": []}}, "mouseover": {"state": {"target": [], "time": []}, "edge": {"target": [], "time": []}}, "mouseout": {"state": {"target": ["0", "0", "1", "3", "5"], "time": [362, 9222, 9272, 9407, 10173]}, "edge": {"target": [], "time": []}}}, "displayed_time": "9.45", "trialTime": 10594, "trial_type": "mouselab-mdp", "trial_index": 30, "time_elapsed": 388308, "internal_node_id": "0.0-4.0-1.0-15.0"}}, {"uniqueid": "w24219690:a40779595", "current_trial": 31, "dateTime": 1664555266521, "trialdata": {"revealed_states": [], "num_clicks_accrued": [0, 0, 0, 0, 0, 0, 0, 0, 0, 0, 0, 0, 0], "stateRewards": ["", 2, -8, 48, -24, -4, -8, -24, 48, -2, 4, 24, -48], "withholdReward": true, "trial_id": "mdp_186932504904", "block": "test1", "trialIndex": 20, "score": -41.75, "costs": -0.75, "simulationMode": [null, null, null], "rewards": [-2, 4, -48], "path": ["0", "0", "9", "10", "12"], "rt": [1869, 273, 53], "actions": ["left", "left", "down"], "actionTimes": [2764, 3530, 4077], "queries": {"click": {"state": {"target": ["10", "2", "6"], "time": [1257, 1656, 2273]}, "edge": {"target": [], "time": []}}, "mouseover": {"state": {"target": ["9", "10", "2", "6"], "time": [1004, 1121, 1555, 2088]}, "edge": {"target": [], "time": []}}, "mouseout": {"state": {"target": ["0", "9", "10", "2", "6", "8"], "time": [971, 1053, 1371, 1805, 2389, 10047]}, "edge": {"target": [], "time": []}}}, "displayed_time": "9.89", "trialTime": 10614, "trial_type": "mouselab-mdp", "trial_index": 31, "time_elapsed": 398966, "internal_node_id": "0.0-4.0-1.0-16.0"}}, {"uniqueid": "w24219690:a40779595", "current_trial": 32, "dateTime": 1664555277069, "trialdata": {"revealed_states": [], "num_clicks_accrued": [0, 0, 0, 0, 0, 0, 0, 0, 0, 0, 0, 0, 0], "stateRewards": ["", 4, -4, 48, -48, -4, -4, 48, -48, 4, 4, -48, -24], "withholdReward": true, "trial_id": "mdp_490058671112", "block": "test1", "trialIndex": 21, "score": -12.25, "costs": -1.25, "simulationMode": [null, null, null], "rewards": [4, 4, -24], "path": ["0", "0", "9", "10", "12"], "rt": [3944, 87, 89], "actions": ["left", "left", "down"], "actionTimes": [4450, 5035, 5622], "queries": {"click": {"state": {"target": ["2", "10", "9", "12", "11"], "time": [889, 1628, 2844, 3330, 3895]}, "edge": {"target": [], "time": []}}, "mouseover": {"state": {"target": ["1", "2", "1", "1", "9", "10", "9", "9", "12", "11"], "time": [660, 777, 1060, 1144, 1377, 1561, 2161, 2629, 3213, 3814]}, "edge": {"target": [], "time": []}}, "mouseout": {"state": {"target": ["0", "1", "2", "1", "1", "9", "10", "9", "9", "12", "12", "10", "11", "9", "0", "5"], "time": [610, 710, 1027, 1094, 1194, 1461, 1845, 2446, 2963, 3464, 3680, 3714, 4014, 4114, 6433, 6500]}, "edge": {"target": [], "time": []}}}, "displayed_time": "9.51", "trialTime": 10507, "trial_type": "mouselab-mdp", "trial_index": 32, "time_elapsed": 409514, "internal_node_id": "0.0-4.0-1.0-17.0"}}, {"uniqueid": "w24219690:a40779595", "current_trial": 33, "dateTime": 1664555286867, "trialdata": {"revealed_states": [], "num_clicks_accrued": [0, 0, 0, 0, 0, 0, 0, 0, 0, 0, 0, 0, 0], "stateRewards": ["", 2, -8, 24, -24, -2, 8, -48, -48, 2, -8, -24, -48], "withholdReward": true, "trial_id": "mdp_744278669205", "block": "test1", "trialIndex": 22, "score": -37, "costs": 0, "simulationMode": [null, null, null], "rewards": [-2, 8, -48], "path": ["0", "0", "5", "6", "7"], "rt": [632, 49, 64], "actions": ["right", "right", "up"], "actionTimes": [1002, 1548, 2114], "queries": {"click": {"state": {"target": [], "time": []}, "edge": {"target": [], "time": []}}, "mouseover": {"state": {"target": [], "time": []}, "edge": {"target": [], "time": []}}, "mouseout": {"state": {"target": ["0", "3", "6", "8"], "time": [5386, 5904, 6020, 6421]}, "edge": {"target": [], "time": []}}}, "displayed_time": "9.37", "trialTime": 9747, "trial_type": "mouselab-mdp", "trial_index": 33, "time_elapsed": 419312, "internal_node_id": "0.0-4.0-1.0-18.0"}}, {"uniqueid": "w24219690:a40779595", "current_trial": 34, "dateTime": 1664555295999, "trialdata": {"revealed_states": [], "num_clicks_accrued": [0, 0, 0, 0, 0, 0, 0, 0, 0, 0, 0, 0, 0], "stateRewards": ["", -4, 4, -24, 48, 2, 4, -48, 24, 4, -8, -24, 24], "withholdReward": false, "trial_id": "mdp_740130150937", "block": "test1", "trialIndex": 23, "score": 52.5, "costs": -0.5, "simulationMode": [null, null, null], "rewards": [-4, 4, 48], "path": ["0", "0", "1", "2", "4"], "rt": [1825, 38, 325], "actions": ["up", "up", "left"], "actionTimes": [2317, 2844, 3665], "queries": {"click": {"state": {"target": ["7", "4"], "time": [888, 1576]}, "edge": {"target": [], "time": []}}, "mouseover": {"state": {"target": ["7", "2", "4", "1"], "time": [753, 1321, 1488, 1921]}, "edge": {"target": [], "time": []}}, "mouseout": {"state": {"target": ["0", "7", "2", "4", "1", "5"], "time": [370, 1053, 1471, 1737, 4508, 4674]}, "edge": {"target": [], "time": []}}}, "displayed_time": "8.49", "trialTime": 9089, "trial_type": "mouselab-mdp", "trial_index": 34, "time_elapsed": 428444, "internal_node_id": "0.0-4.0-1.0-19.0"}}, {"uniqueid": "w24219690:a40779595", "current_trial": 35, "dateTime": 1664555305885, "trialdata": {"revealed_states": [], "num_clicks_accrued": [0, 0, 0, 0, 0, 0, 0, 0, 0, 0, 0, 0, 0], "stateRewards": ["", -4, 8, -24, -24, 4, -8, 48, -24, -4, -8, -24, -48], "withholdReward": true, "trial_id": "mdp_391766721791", "block": "test1", "trialIndex": 24, "score": 47.5, "costs": -1.5, "simulationMode": [null, null, null], "rewards": [4, -8, 48], "path": ["0", "0", "5", "6", "7"], "rt": [3083, 16, 45], "actions": ["right", "right", "up"], "actionTimes": [3725, 4233, 4779], "queries": {"click": {"state": {"target": ["12", "11", "4", "3", "7", "8"], "time": [1048, 1425, 1876, 2228, 2633, 2972]}, "edge": {"target": [], "time": []}}, "mouseover": {"state": {"target": ["0", "9", "12", "10", "11", "4", "2", "3", "7", "7", "6", "8"], "time": [796, 829, 913, 1197, 1263, 1830, 2030, 2097, 2397, 2581, 2748, 2781]}, "edge": {"target": [], "time": []}}, "mouseout": {"state": {"target": ["6", "0", "0", "9", "12", "10", "11", "4", "2", "3", "7", "7", "6", "8"], "time": [295, 579, 813, 862, 1180, 1213, 1563, 2014, 2064, 2364, 2414, 2731, 2765, 7103]}, "edge": {"target": [], "time": []}}}, "displayed_time": "8.64", "trialTime": 9842, "trial_type": "mouselab-mdp", "trial_index": 35, "time_elapsed": 438330, "internal_node_id": "0.0-4.0-1.0-20.0"}}, {"uniqueid": "w24219690:a40779595", "current_trial": 36, "dateTime": 1664555314611, "trialdata": {"revealed_states": [], "num_clicks_accrued": [0, 0, 0, 0, 0, 0, 0, 0, 0, 0, 0, 0, 0], "stateRewards": ["", -4, -8, 48, 48, -4, 4, 48, -24, 4, 8, -24, -48], "withholdReward": false, "trial_id": "mdp_142906093415", "block": "test1", "trialIndex": 25, "score": 40.75, "costs": -0.25, "simulationMode": [null, null, null], "rewards": [-4, -8, 48], "path": ["0", "0", "1", "2", "4"], "rt": [1379, 40, 88], "actions": ["up", "up", "left"], "actionTimes": [1787, 2314, 2896], "queries": {"click": {"state": {"target": ["4"], "time": [874]}, "edge": {"target": [], "time": []}}, "mouseover": {"state": {"target": ["4"], "time": [805]}, "edge": {"target": [], "time": []}}, "mouseout": {"state": {"target": ["0", "4", "8", "8"], "time": [505, 1022, 6595, 8414]}, "edge": {"target": [], "time": []}}}, "displayed_time": "8.41", "trialTime": 8683, "trial_type": "mouselab-mdp", "trial_index": 36, "time_elapsed": 447056, "internal_node_id": "0.0-4.0-1.0-21.0"}}, {"uniqueid": "w24219690:a40779595", "current_trial": 37, "dateTime": 1664555328432, "trialdata": {"revealed_states": [], "num_clicks_accrued": [0, 0, 0, 0, 0, 0, 0, 0, 0, 0, 0, 0, 0], "stateRewards": ["", 2, 8, 48, -24, -4, 4, 48, 24, -2, 8, 24, 24], "withholdReward": false, "trial_id": "mdp_123436106791", "block": "test1", "trialIndex": 26, "score": 62.5, "costs": -0.5, "simulationMode": [null, null, null], "rewards": [2, 8, 48], "path": ["0", "0", "1", "2", "3"], "rt": [1432, 14, 11], "actions": ["up", "up", "right"], "actionTimes": [1925, 2430, 2945], "queries": {"click": {"state": {"target": ["4", "3"], "time": [811, 1177]}, "edge": {"target": [], "time": []}}, "mouseover": {"state": {"target": ["1", "4", "2", "3", "3", "6", "6"], "time": [598, 748, 948, 981, 1131, 1365, 1481]}, "edge": {"target": [], "time": []}}, "mouseout": {"state": {"target": ["1", "0", "1", "4", "2", "3", "3", "6", "6", "8"], "time": [363, 548, 647, 915, 965, 1014, 1298, 1398, 1515, 12979]}, "edge": {"target": [], "time": []}}}, "displayed_time": "8.49", "trialTime": 13770, "trial_type": "mouselab-mdp", "trial_index": 37, "time_elapsed": 460877, "internal_node_id": "0.0-4.0-1.0-22.0"}}, {"uniqueid": "w24219690:a40779595", "current_trial": 38, "dateTime": 1664555338208, "trialdata": {"revealed_states": [], "num_clicks_accrued": [0, 0, 0, 0, 0, 0, 0, 0, 0, 0, 0, 0, 0], "stateRewards": ["", 2, 8, 48, -48, -2, -4, -24, 24, 4, -4, 48, -48], "withholdReward": true, "trial_id": "mdp_105734044587", "block": "test1", "trialIndex": 27, "score": 62.75, "costs": -0.25, "simulationMode": [null, null, null], "rewards": [2, 8, 48], "path": ["0", "0", "1", "2", "3"], "rt": [1310, 35, 161], "actions": ["up", "up", "right"], "actionTimes": [1774, 2299, 2977], "queries": {"click": {"state": {"target": ["3"], "time": [941]}, "edge": {"target": [], "time": []}}, "mouseover": {"state": {"target": ["3", "7"], "time": [863, 1230]}, "edge": {"target": [], "time": []}}, "mouseout": {"state": {"target": ["0", "3", "7", "5"], "time": [680, 1130, 8655, 8839]}, "edge": {"target": [], "time": []}}}, "displayed_time": "9.46", "trialTime": 9729, "trial_type": "mouselab-mdp", "trial_index": 38, "time_elapsed": 470653, "internal_node_id": "0.0-4.0-1.0-23.0"}}, {"uniqueid": "w24219690:a40779595", "current_trial": 39, "dateTime": 1664555348222, "trialdata": {"revealed_states": [], "num_clicks_accrued": [0, 0, 0, 0, 0, 0, 0, 0, 0, 0, 0, 0, 0], "stateRewards": ["", -4, -4, -48, 48, -4, -8, -24, -48, -2, 8, 48, 24], "withholdReward": false, "trial_id": "mdp_365393526663", "block": "test1", "trialIndex": 28, "score": 44.75, "costs": -0.25, "simulationMode": [null, null, null], "rewards": [-4, -4, 48], "path": ["0", "0", "1", "2", "4"], "rt": [1185, 14, 76], "actions": ["up", "up", "left"], "actionTimes": [1893, 2398, 2977], "queries": {"click": {"state": {"target": ["4"], "time": [1009]}, "edge": {"target": [], "time": []}}, "mouseover": {"state": {"target": ["4", "2", "3"], "time": [865, 1165, 1315]}, "edge": {"target": [], "time": []}}, "mouseout": {"state": {"target": ["0", "0", "0", "4", "2", "3"], "time": [63, 264, 781, 1148, 1198, 9574]}, "edge": {"target": [], "time": []}}}, "displayed_time": "8.71", "trialTime": 9951, "trial_type": "mouselab-mdp", "trial_index": 39, "time_elapsed": 480667, "internal_node_id": "0.0-4.0-1.0-24.0"}}, {"uniqueid": "w24219690:a40779595", "current_trial": 40, "dateTime": 1664555360730, "trialdata": {"revealed_states": [], "num_clicks_accrued": [0, 0, 0, 0, 0, 0, 0, 0, 0, 0, 0, 0, 0], "stateRewards": ["", 2, 8, -24, -48, -4, 8, -48, -48, -2, -8, -24, -24], "withholdReward": true, "trial_id": "mdp_978177451072", "block": "test1", "trialIndex": 29, "score": -30.5, "costs": -1.5, "simulationMode": [null, null, null], "rewards": [-2, -8, -24], "path": ["0", "0", "9", "10", "11"], "rt": [3696, 96, 69], "actions": ["left", "left", "up"], "actionTimes": [4343, 4925, 5482], "queries": {"click": {"state": {"target": ["4", "3", "8", "7", "12", "11"], "time": [1229, 1723, 2515, 2978, 3469, 3723]}, "edge": {"target": [], "time": []}}, "mouseover": {"state": {"target": ["1", "4", "2", "3", "7", "6", "8", "7", "9", "12", "10", "11"], "time": [874, 1174, 1558, 1625, 1909, 1958, 2225, 2909, 3176, 3377, 3594, 3644]}, "edge": {"target": [], "time": []}}, "mouseout": {"state": {"target": ["5", "0", "1", "4", "2", "3", "7", "6", "8", "7", "9", "12", "10", "11"], "time": [156, 563, 1091, 1425, 1591, 1876, 1942, 1992, 2626, 3110, 3193, 3577, 3627, 3894]}, "edge": {"target": [], "time": []}}}, "displayed_time": "9.65", "trialTime": 12457, "trial_type": "mouselab-mdp", "trial_index": 40, "time_elapsed": 493175, "internal_node_id": "0.0-4.0-1.0-25.0"}}, {"uniqueid": "w24219690:a40779595", "current_trial": 41, "dateTime": 1664555372429, "trialdata": {"revealed_states": [], "num_clicks_accrued": [0, 0, 0, 0, 0, 0, 0, 0, 0, 0, 0, 0, 0], "stateRewards": ["", 2, 4, 48, 48, 4, -8, 24, -48, -4, -8, -24, -48], "withholdReward": true, "trial_id": "mdp_343818007251", "block": "test1", "trialIndex": 30, "score": 58.5, "costs": -0.5, "simulationMode": [null, null, null], "rewards": [2, 4, 48], "path": ["0", "0", "1", "2", "3"], "rt": [1452, 86, 13], "actions": ["up", "up", "right"], "actionTimes": [2278, 2860, 3387], "queries": {"click": {"state": {"target": ["11", "3"], "time": [1138, 1585]}, "edge": {"target": [], "time": []}}, "mouseover": {"state": {"target": ["10", "11", "3", "7"], "time": [971, 1055, 1505, 1922]}, "edge": {"target": [], "time": []}}, "mouseout": {"state": {"target": ["0", "10", "11", "3", "7", "0", "1", "2"], "time": [437, 988, 1305, 1889, 1939, 10466, 10499, 10699]}, "edge": {"target": [], "time": []}}}, "displayed_time": "8.83", "trialTime": 11656, "trial_type": "mouselab-mdp", "trial_index": 41, "time_elapsed": 504874, "internal_node_id": "0.0-4.0-1.0-26.0"}}, {"uniqueid": "w24219690:a40779595", "current_trial": 42, "dateTime": 1664555384473, "trialdata": {"revealed_states": [], "num_clicks_accrued": [0, 0, 0, 0, 0, 0, 0, 0, 0, 0, 0, 0, 0], "stateRewards": ["", 2, -4, -24, 24, 2, 8, 48, 48, 2, -8, 48, -24], "withholdReward": true, "trial_id": "mdp_330392242530", "block": "test1", "trialIndex": 31, "score": 62.25, "costs": -0.75, "simulationMode": [null, null, null], "rewards": [2, 8, 48], "path": ["0", "0", "5", "6", "7"], "rt": [2336, 36, 104], "actions": ["right", "right", "up"], "actionTimes": [2766, 3291, 3892], "queries": {"click": {"state": {"target": ["3", "4", "7"], "time": [896, 1249, 1838]}, "edge": {"target": [], "time": []}}, "mouseover": {"state": {"target": ["3", "2", "4", "7", "6", "8"], "time": [801, 1168, 1202, 1786, 1953, 2002]}, "edge": {"target": [], "time": []}}, "mouseout": {"state": {"target": ["0", "0", "3", "2", "4", "7", "6", "8", "8"], "time": [250, 551, 1035, 1186, 1386, 1936, 1986, 2202, 11513]}, "edge": {"target": [], "time": []}}}, "displayed_time": "8.43", "trialTime": 12000, "trial_type": "mouselab-mdp", "trial_index": 42, "time_elapsed": 516918, "internal_node_id": "0.0-4.0-1.0-27.0"}}, {"uniqueid": "w24219690:a40779595", "current_trial": 43, "dateTime": 1664555397045, "trialdata": {"revealed_states": [], "num_clicks_accrued": [0, 0, 0, 0, 0, 0, 0, 0, 0, 0, 0, 0, 0], "stateRewards": ["", -4, -8, 48, -24, 4, -8, 48, 48, -2, 4, -48, -24], "withholdReward": true, "trial_id": "mdp_925905402462", "block": "test1", "trialIndex": 32, "score": 40.5, "costs": -0.5, "simulationMode": [null, null, null], "rewards": [-4, -8, 48], "path": ["0", "0", "1", "2", "3"], "rt": [1639, 110, 227], "actions": ["up", "up", "right"], "actionTimes": [2307, 2908, 3625], "queries": {"click": {"state": {"target": ["4", "3"], "time": [1072, 1599]}, "edge": {"target": [], "time": []}}, "mouseover": {"state": {"target": ["1", "2", "4", "2", "3", "7"], "time": [812, 845, 995, 1246, 1495, 1762]}, "edge": {"target": [], "time": []}}, "mouseout": {"state": {"target": ["0", "1", "2", "4", "2", "3", "7", "6"], "time": [762, 829, 862, 1229, 1279, 1713, 1979, 12224]}, "edge": {"target": [], "time": []}}}, "displayed_time": "9.67", "trialTime": 12519, "trial_type": "mouselab-mdp", "trial_index": 43, "time_elapsed": 529490, "internal_node_id": "0.0-4.0-1.0-28.0"}}, {"uniqueid": "w24219690:a40779595", "current_trial": 44, "dateTime": 1664555407625, "trialdata": {"revealed_states": [], "num_clicks_accrued": [0, 0, 0, 0, 0, 0, 0, 0, 0, 0, 0, 0, 0], "stateRewards": ["", 2, 4, -48, -24, 2, 8, 24, 48, -2, 4, 48, -48], "withholdReward": true, "trial_id": "mdp_551894842204", "block": "test1", "trialIndex": 33, "score": 62, "costs": -1, "simulationMode": [null, null, null], "rewards": [2, 8, 48], "path": ["0", "0", "5", "6", "8"], "rt": [2779, 26, 100], "actions": ["right", "right", "down"], "actionTimes": [3380, 3908, 4499], "queries": {"click": {"state": {"target": ["4", "3", "7", "8"], "time": [1105, 1862, 2174, 2577]}, "edge": {"target": [], "time": []}}, "mouseover": {"state": {"target": ["1", "4", "2", "3", "3", "7", "6", "8"], "time": [828, 911, 1279, 1512, 1812, 2030, 2331, 2446]}, "edge": {"target": [], "time": []}}, "mouseout": {"state": {"target": ["0", "1", "4", "2", "3", "3", "7", "6", "8", "8", "8"], "time": [409, 861, 1245, 1312, 1645, 1996, 2313, 2347, 2730, 2913, 6334]}, "edge": {"target": [], "time": []}}}, "displayed_time": "9.60", "trialTime": 10535, "trial_type": "mouselab-mdp", "trial_index": 44, "time_elapsed": 540070, "internal_node_id": "0.0-4.0-1.0-29.0"}}, {"uniqueid": "w24219690:a40779595", "current_trial": 45, "dateTime": 1664555409748, "trialdata": {"rt": 2121, "stimulus": "<h1> End of block! </h1>\n\nYou have reached the end of the block 1/4. If you need a short break, feel free to take one now before moving on.\n\n<br><br>\nIn the next block, you will complete another 30 rounds of this game.\n\n<br><br>\n<div style='text-align: center;'>Press <code>space</code> to begin.</div>\n<br><br>\n<div style='text-align: center;'>(If the experiment doesn't continue, try clicking on the text and then pressing <code>space</code>.)</div>", "response": " ", "trial_id": "mdp_ready_2", "trial_type": "html-keyboard-response", "trial_index": 45, "time_elapsed": 542193, "internal_node_id": "0.0-4.0-2.0"}}, {"uniqueid": "w24219690:a40779595", "current_trial": 46, "dateTime": 1664555421641, "trialdata": {"revealed_states": [], "num_clicks_accrued": [0, 0, 0, 0, 0, 0, 0, 0, 0, 0, 0, 0, 0], "stateRewards": ["", -4, 4, 48, 24, -4, 4, -24, 48, -2, -8, 24, -48], "withholdReward": true, "trial_id": "mdp_261501605436", "block": "test2", "trialIndex": 34, "score": 52, "costs": -1, "simulationMode": [null, null, null], "rewards": [-4, 4, 48], "path": ["0", "0", "1", "2", "3"], "rt": [2264, 49, 157], "actions": ["up", "up", "right"], "actionTimes": [2813, 3357, 4016], "queries": {"click": {"state": {"target": ["12", "11", "4", "3"], "time": [979, 1335, 1762, 2047]}, "edge": {"target": [], "time": []}}, "mouseover": {"state": {"target": ["9", "12", "10", "11", "4", "2", "3", "7"], "time": [722, 921, 1189, 1255, 1706, 1890, 1940, 2240]}, "edge": {"target": [], "time": []}}, "mouseout": {"state": {"target": ["5", "0", "9", "12", "10", "11", "4", "2", "3", "7", "8"], "time": [287, 705, 738, 1172, 1222, 1489, 1874, 1923, 2189, 2274, 11033]}, "edge": {"target": [], "time": []}}}, "displayed_time": "8.55", "trialTime": 11847, "trial_type": "mouselab-mdp", "trial_index": 46, "time_elapsed": 554086, "internal_node_id": "0.0-4.0-3.0-0.0"}}, {"uniqueid": "w24219690:a40779595", "current_trial": 47, "dateTime": 1664555430534, "trialdata": {"revealed_states": [], "num_clicks_accrued": [0, 0, 0, 0, 0, 0, 0, 0, 0, 0, 0, 0, 0], "stateRewards": ["", -2, 8, -24, 48, -4, 4, -48, 24, 4, -8, 48, -24], "withholdReward": true, "trial_id": "mdp_425320427962", "block": "test2", "trialIndex": 35, "score": 58.75, "costs": -0.25, "simulationMode": [null, null, null], "rewards": [-2, 8, 48], "path": ["0", "0", "1", "2", "4"], "rt": [1127, 113, 171], "actions": ["up", "up", "left"], "actionTimes": [1590, 2194, 2853], "queries": {"click": {"state": {"target": ["4"], "time": [858]}, "edge": {"target": [], "time": []}}, "mouseover": {"state": {"target": ["4", "2", "3"], "time": [845, 1097, 1212]}, "edge": {"target": [], "time": []}}, "mouseout": {"state": {"target": ["0", "4", "2"], "time": [328, 1079, 1129]}, "edge": {"target": [], "time": []}}}, "displayed_time": "8.46", "trialTime": 8834, "trial_type": "mouselab-mdp", "trial_index": 47, "time_elapsed": 562979, "internal_node_id": "0.0-4.0-3.0-1.0"}}, {"uniqueid": "w24219690:a40779595", "current_trial": 48, "dateTime": 1664555440526, "trialdata": {"revealed_states": [], "num_clicks_accrued": [0, 0, 0, 0, 0, 0, 0, 0, 0, 0, 0, 0, 0], "stateRewards": ["", 2, -4, 24, 24, 2, 4, 24, 24, -4, 8, 24, 48], "withholdReward": false, "trial_id": "mdp_268430387178", "block": "test2", "trialIndex": 36, "score": 56, "costs": -1, "simulationMode": [null, null, null], "rewards": [-4, 8, 48], "path": ["0", "0", "9", "10", "12"], "rt": [3057, 149, 171], "actions": ["left", "left", "down"], "actionTimes": [4104, 4743, 5415], "queries": {"click": {"state": {"target": ["3", "4", "11", "12"], "time": [1596, 2059, 2600, 2959]}, "edge": {"target": [], "time": []}}, "mouseover": {"state": {"target": ["1", "2", "3", "2", "4", "11", "12", "8"], "time": [1156, 1306, 1556, 1790, 1992, 2474, 2875, 3358]}, "edge": {"target": [], "time": []}}, "mouseout": {"state": {"target": ["3", "0", "1", "2", "3", "2", "4", "11", "12"], "time": [706, 1123, 1240, 1340, 1773, 1907, 2224, 2708, 3091]}, "edge": {"target": [], "time": []}}}, "displayed_time": "9.05", "trialTime": 9943, "trial_type": "mouselab-mdp", "trial_index": 48, "time_elapsed": 572971, "internal_node_id": "0.0-4.0-3.0-2.0"}}, {"uniqueid": "w24219690:a40779595", "current_trial": 49, "dateTime": 1664555451107, "trialdata": {"revealed_states": [], "num_clicks_accrued": [0, 0, 0, 0, 0, 0, 0, 0, 0, 0, 0, 0, 0], "stateRewards": ["", -4, 4, -48, -48, -2, -8, -48, -24, 4, 8, -24, 24], "withholdReward": true, "trial_id": "mdp_449260894259", "block": "test2", "trialIndex": 37, "score": 39.25, "costs": -1.75, "simulationMode": [null, null, null], "rewards": [4, 8, 24], "path": ["0", "0", "9", "10", "12"], "rt": [3795, 56, 93], "actions": ["left", "left", "down"], "actionTimes": [4895, 5441, 6028], "queries": {"click": {"state": {"target": ["7", "8", "4", "3", "11", "12", "10"], "time": [1609, 2029, 2574, 2977, 3518, 3789, 4167]}, "edge": {"target": [], "time": []}}, "mouseover": {"state": {"target": ["5", "6", "7", "6", "8", "2", "4", "3", "1", "11", "10", "12", "10"], "time": [1246, 1297, 1596, 1830, 1863, 2297, 2514, 2864, 3148, 3448, 3648, 3698, 4016]}, "edge": {"target": [], "time": []}}, "mouseout": {"state": {"target": ["8", "6", "5", "5", "6", "7", "6", "8", "2", "4", "3", "1", "11", "10", "12", "10", "10"], "time": [779, 879, 962, 1279, 1480, 1780, 1847, 2180, 2314, 2747, 3114, 3165, 3616, 3666, 3899, 4299, 8304]}, "edge": {"target": [], "time": []}}}, "displayed_time": "10.10", "trialTime": 10536, "trial_type": "mouselab-mdp", "trial_index": 49, "time_elapsed": 583552, "internal_node_id": "0.0-4.0-3.0-3.0"}}, {"uniqueid": "w24219690:a40779595", "current_trial": 50, "dateTime": 1664555461341, "trialdata": {"revealed_states": [], "num_clicks_accrued": [0, 0, 0, 0, 0, 0, 0, 0, 0, 0, 0, 0, 0], "stateRewards": ["", -2, 8, 24, -48, -4, -8, -24, -48, -4, 8, -24, 48], "withholdReward": false, "trial_id": "mdp_464339499860", "block": "test2", "trialIndex": 38, "score": 55.5, "costs": -1.5, "simulationMode": [null, null, null], "rewards": [-4, 8, 48], "path": ["0", "0", "9", "10", "12"], "rt": [3964, 92, 179], "actions": ["left", "left", "down"], "actionTimes": [4840, 5425, 6096], "queries": {"click": {"state": {"target": ["4", "3", "7", "8", "12", "11"], "time": [1302, 1658, 1995, 2357, 2998, 3343]}, "edge": {"target": [], "time": []}}, "mouseover": {"state": {"target": ["1", "4", "2", "3", "7", "8", "12", "10", "11"], "time": [1061, 1228, 1462, 1511, 1845, 2312, 2880, 3180, 3313]}, "edge": {"target": [], "time": []}}, "mouseout": {"state": {"target": ["9", "6", "5", "0", "1", "4", "2", "3", "7", "8", "12", "10", "11"], "time": [143, 177, 460, 995, 1079, 1444, 1495, 1795, 2112, 2529, 3163, 3230, 3447]}, "edge": {"target": [], "time": []}}}, "displayed_time": "9.88", "trialTime": 10189, "trial_type": "mouselab-mdp", "trial_index": 50, "time_elapsed": 593786, "internal_node_id": "0.0-4.0-3.0-4.0"}}, {"uniqueid": "w24219690:a40779595", "current_trial": 51, "dateTime": 1664555472328, "trialdata": {"revealed_states": [], "num_clicks_accrued": [0, 0, 0, 0, 0, 0, 0, 0, 0, 0, 0, 0, 0], "stateRewards": ["", 2, -4, -48, 24, -4, 4, 24, 24, 2, -8, -24, -48], "withholdReward": true, "trial_id": "mdp_807654778305", "block": "test2", "trialIndex": 39, "score": 27.5, "costs": -1.5, "simulationMode": [null, null, null], "rewards": [-4, 4, 24], "path": ["0", "0", "5", "6", "8"], "rt": [7122, 72, 106], "actions": ["right", "right", "down"], "actionTimes": [8102, 8667, 9270], "queries": {"click": {"state": {"target": ["12", "11", "3", "7", "8", "4"], "time": [4376, 5077, 5476, 5870, 6226, 7342]}, "edge": {"target": [], "time": []}}, "mouseover": {"state": {"target": ["9", "10", "9", "12", "12", "10", "11", "11", "1", "3", "7", "7", "6", "8", "5", "1", "4"], "time": [1171, 1221, 3390, 3740, 4291, 4558, 4858, 5042, 5275, 5408, 5659, 5809, 6026, 6224, 7044, 7094, 7294]}, "edge": {"target": [], "time": []}}, "mouseout": {"state": {"target": ["9", "10", "9", "12", "12", "10", "11", "11", "1", "3", "7", "7", "6", "8", "5", "1", "4", "7", "6"], "time": [1204, 3357, 3674, 3808, 4525, 4591, 4908, 5192, 5293, 5625, 5709, 5993, 6059, 6376, 7061, 7110, 7461, 10447, 10564]}, "edge": {"target": [], "time": []}}}, "displayed_time": "9.76", "trialTime": 10942, "trial_type": "mouselab-mdp", "trial_index": 51, "time_elapsed": 604773, "internal_node_id": "0.0-4.0-3.0-5.0"}}, {"uniqueid": "w24219690:a40779595", "current_trial": 52, "dateTime": 1664555482278, "trialdata": {"revealed_states": [], "num_clicks_accrued": [0, 0, 0, 0, 0, 0, 0, 0, 0, 0, 0, 0, 0], "stateRewards": ["", -2, 4, -48, -48, -4, -8, 48, -48, 2, 4, 48, -48], "withholdReward": true, "trial_id": "mdp_258647270500", "block": "test2", "trialIndex": 40, "score": 58, "costs": -1, "simulationMode": [null, null, null], "rewards": [2, 4, 48], "path": ["0", "0", "9", "10", "11"], "rt": [2748, 93, 135], "actions": ["left", "left", "up"], "actionTimes": [3323, 3909, 4535], "queries": {"click": {"state": {"target": ["3", "4", "11", "12"], "time": [1358, 1910, 2197, 2557]}, "edge": {"target": [], "time": []}}, "mouseover": {"state": {"target": ["4", "2", "3", "2", "4", "4", "11", "10", "12"], "time": [1046, 1096, 1312, 1530, 1580, 1846, 2130, 2397, 2447]}, "edge": {"target": [], "time": []}}, "mouseout": {"state": {"target": ["5", "0", "0", "4", "2", "3", "2", "4", "4", "11", "10", "12", "5", "6", "8"], "time": [3, 261, 662, 1062, 1280, 1496, 1563, 1597, 2063, 2380, 2430, 2698, 5884, 5901, 9021]}, "edge": {"target": [], "time": []}}}, "displayed_time": "9.57", "trialTime": 9888, "trial_type": "mouselab-mdp", "trial_index": 52, "time_elapsed": 614723, "internal_node_id": "0.0-4.0-3.0-6.0"}}, {"uniqueid": "w24219690:a40779595", "current_trial": 53, "dateTime": 1664555492835, "trialdata": {"revealed_states": [], "num_clicks_accrued": [0, 0, 0, 0, 0, 0, 0, 0, 0, 0, 0, 0, 0], "stateRewards": ["", -4, 8, 24, 24, 2, 4, -48, 24, -2, -4, -24, -24], "withholdReward": true, "trial_id": "mdp_752328329546", "block": "test2", "trialIndex": 41, "score": 31.5, "costs": -1.5, "simulationMode": [null, null, null], "rewards": [-4, 8, 24], "path": ["0", "0", "1", "2", "3"], "rt": [3760, 160, 121], "actions": ["up", "up", "right"], "actionTimes": [5396, 6055, 6667], "queries": {"click": {"state": {"target": ["7", "8", "3", "4", "11", "12"], "time": [2475, 2688, 3233, 3429, 3912, 4094]}, "edge": {"target": [], "time": []}}, "mouseover": {"state": {"target": ["5", "6", "7", "6", "8", "6", "3", "2", "4", "11", "10", "12"], "time": [2139, 2174, 2373, 2607, 2640, 2824, 3074, 3341, 3391, 3841, 4008, 4058]}, "edge": {"target": [], "time": []}}, "mouseout": {"state": {"target": ["0", "5", "5", "6", "7", "6", "8", "6", "3", "2", "4", "11", "10", "12", "8"], "time": [1405, 1455, 2156, 2223, 2590, 2625, 2807, 2840, 3332, 3375, 3575, 3986, 4025, 4259, 4509]}, "edge": {"target": [], "time": []}}}, "displayed_time": "9.64", "trialTime": 10509, "trial_type": "mouselab-mdp", "trial_index": 53, "time_elapsed": 625280, "internal_node_id": "0.0-4.0-3.0-7.0"}}, {"uniqueid": "w24219690:a40779595", "current_trial": 54, "dateTime": 1664555502521, "trialdata": {"revealed_states": [], "num_clicks_accrued": [0, 0, 0, 0, 0, 0, 0, 0, 0, 0, 0, 0, 0], "stateRewards": ["", -4, -8, -24, -48, -2, -8, 24, -48, -4, -8, 24, -48], "withholdReward": true, "trial_id": "mdp_621812384092", "block": "test2", "trialIndex": 42, "score": 17.5, "costs": -1.5, "simulationMode": [null, null, null], "rewards": [-2, -8, 24], "path": ["0", "0", "5", "6", "7"], "rt": [3440, 113, 164], "actions": ["right", "right", "up"], "actionTimes": [4722, 5327, 5996], "queries": {"click": {"state": {"target": ["3", "7", "8", "4", "11", "12"], "time": [1666, 2007, 2486, 2939, 3741, 4150]}, "edge": {"target": [], "time": []}}, "mouseover": {"state": {"target": ["3", "7", "6", "8", "8", "5", "1", "4", "11", "10", "10", "11", "10", "12", "0", "5", "6"], "time": [1593, 1827, 2143, 2178, 2377, 2611, 2644, 2811, 3061, 3478, 3629, 3712, 3879, 4063, 4297, 4314, 4346]}, "edge": {"target": [], "time": []}}, "mouseout": {"state": {"target": ["8", "3", "7", "6", "8", "8", "5", "1", "4", "11", "10", "10", "11", "10", "12", "0", "5", "6", "8"], "time": [992, 1793, 2110, 2160, 2193, 2594, 2628, 2661, 3028, 3078, 3511, 3662, 3846, 4029, 4263, 4313, 4330, 8134, 8818]}, "edge": {"target": [], "time": []}}}, "displayed_time": "9.28", "trialTime": 9637, "trial_type": "mouselab-mdp", "trial_index": 54, "time_elapsed": 634966, "internal_node_id": "0.0-4.0-3.0-8.0"}}, {"uniqueid": "w24219690:a40779595", "current_trial": 55, "dateTime": 1664555511879, "trialdata": {"revealed_states": [], "num_clicks_accrued": [0, 0, 0, 0, 0, 0, 0, 0, 0, 0, 0, 0, 0], "stateRewards": ["", -2, -4, -48, -48, 4, -4, 48, 24, 4, 4, 48, 48], "withholdReward": true, "trial_id": "mdp_950960813932", "block": "test2", "trialIndex": 43, "score": 60.75, "costs": -0.25, "simulationMode": [null, null, null], "rewards": [4, 4, 48], "path": ["0", "0", "9", "10", "11"], "rt": [1298, 25, 111], "actions": ["left", "left", "up"], "actionTimes": [1751, 2276, 2880], "queries": {"click": {"state": {"target": ["11"], "time": [927]}, "edge": {"target": [], "time": []}}, "mouseover": {"state": {"target": ["10", "11", "10", "12"], "time": [765, 849, 1066, 1216]}, "edge": {"target": [], "time": []}}, "mouseout": {"state": {"target": ["0", "10", "11", "10", "12"], "time": [399, 799, 1049, 1083, 1316]}, "edge": {"target": [], "time": []}}}, "displayed_time": "8.45", "trialTime": 9308, "trial_type": "mouselab-mdp", "trial_index": 55, "time_elapsed": 644324, "internal_node_id": "0.0-4.0-3.0-9.0"}}, {"uniqueid": "w24219690:a40779595", "current_trial": 56, "dateTime": 1664555521137, "trialdata": {"revealed_states": [], "num_clicks_accrued": [0, 0, 0, 0, 0, 0, 0, 0, 0, 0, 0, 0, 0], "stateRewards": ["", -2, -4, -48, 48, -2, -4, 24, 48, -4, -8, -24, 24], "withholdReward": false, "trial_id": "mdp_917590390609", "block": "test2", "trialIndex": 44, "score": 46, "costs": -1, "simulationMode": [null, null, null], "rewards": [-2, -4, 48], "path": ["0", "0", "5", "6", "8"], "rt": [3296, 69, 122], "actions": ["right", "right", "down"], "actionTimes": [3902, 4473, 5093], "queries": {"click": {"state": {"target": ["11", "12", "7", "8"], "time": [1335, 1938, 2497, 2840]}, "edge": {"target": [], "time": []}}, "mouseover": {"state": {"target": ["11", "11", "10", "12", "9", "0", "5", "6", "7", "6", "8"], "time": [933, 1251, 1517, 1567, 2085, 2102, 2135, 2169, 2419, 2635, 2685]}, "edge": {"target": [], "time": []}}, "mouseout": {"state": {"target": ["0", "11", "11", "10", "12", "9", "0", "5", "6", "7", "6", "8"], "time": [499, 1033, 1484, 1534, 2035, 2102, 2118, 2152, 2385, 2619, 2669, 2920]}, "edge": {"target": [], "time": []}}}, "displayed_time": "8.61", "trialTime": 9207, "trial_type": "mouselab-mdp", "trial_index": 56, "time_elapsed": 653582, "internal_node_id": "0.0-4.0-3.0-10.0"}}, {"uniqueid": "w24219690:a40779595", "current_trial": 57, "dateTime": 1664555529876, "trialdata": {"revealed_states": [], "num_clicks_accrued": [0, 0, 0, 0, 0, 0, 0, 0, 0, 0, 0, 0, 0], "stateRewards": ["", 2, 8, -48, -24, 2, -4, -48, 24, 2, -4, -24, -24], "withholdReward": true, "trial_id": "mdp_954659099093", "block": "test2", "trialIndex": 45, "score": 25.5, "costs": -1.5, "simulationMode": [null, null, null], "rewards": [2, -4, 24], "path": ["0", "0", "5", "6", "8"], "rt": [3037, 74, 12], "actions": ["right", "right", "down"], "actionTimes": [3442, 4027, 4533], "queries": {"click": {"state": {"target": ["7", "8", "3", "4", "11", "12"], "time": [920, 1275, 1792, 2299, 2596, 2870]}, "edge": {"target": [], "time": []}}, "mouseover": {"state": {"target": ["5", "6", "7", "6", "8", "3", "2", "4", "4", "11", "10", "12"], "time": [650, 700, 817, 1084, 1150, 1769, 1918, 1968, 2168, 2452, 2736, 2786]}, "edge": {"target": [], "time": []}}, "mouseout": {"state": {"target": ["7", "5", "5", "5", "6", "7", "6", "8", "3", "2", "4", "4", "11", "10", "12"], "time": [49, 232, 299, 683, 733, 1050, 1117, 1401, 1885, 1935, 1985, 2419, 2719, 2769, 3003]}, "edge": {"target": [], "time": []}}}, "displayed_time": "8.40", "trialTime": 8669, "trial_type": "mouselab-mdp", "trial_index": 57, "time_elapsed": 662321, "internal_node_id": "0.0-4.0-3.0-11.0"}}, {"uniqueid": "w24219690:a40779595", "current_trial": 58, "dateTime": 1664555539868, "trialdata": {"revealed_states": [], "num_clicks_accrued": [0, 0, 0, 0, 0, 0, 0, 0, 0, 0, 0, 0, 0], "stateRewards": ["", 2, -8, 24, -48, 2, 4, 48, -48, -2, -8, -48, 48], "withholdReward": true, "trial_id": "mdp_629420544881", "block": "test2", "trialIndex": 46, "score": 42, "costs": -1, "simulationMode": [null, null, null], "rewards": [-2, -8, 48], "path": ["0", "0", "9", "10", "12"], "rt": [3711, 5, 82], "actions": ["left", "left", "down"], "actionTimes": [4098, 4604, 5198], "queries": {"click": {"state": {"target": ["3", "4", "11", "12"], "time": [1315, 1914, 2378, 3120]}, "edge": {"target": [], "time": []}}, "mouseover": {"state": {"target": ["1", "2", "3", "3", "4", "10", "11", "10", "12", "8", "8"], "time": [561, 661, 1062, 1262, 1846, 2129, 2313, 2530, 3081, 3381, 3548]}, "edge": {"target": [], "time": []}}, "mouseout": {"state": {"target": ["0", "1", "2", "3", "3", "4", "10", "11", "10", "12", "8"], "time": [210, 594, 828, 1079, 1479, 2046, 2263, 2514, 2563, 3264, 3416]}, "edge": {"target": [], "time": []}}}, "displayed_time": "9.39", "trialTime": 9946, "trial_type": "mouselab-mdp", "trial_index": 58, "time_elapsed": 672313, "internal_node_id": "0.0-4.0-3.0-12.0"}}, {"uniqueid": "w24219690:a40779595", "current_trial": 59, "dateTime": 1664555558181, "trialdata": {"revealed_states": [], "num_clicks_accrued": [0, 0, 0, 0, 0, 0, 0, 0, 0, 0, 0, 0, 0], "stateRewards": ["", -2, 8, -24, 24, 2, -8, 48, -24, 2, 8, -24, -24], "withholdReward": false, "trial_id": "mdp_674708270444", "block": "test2", "trialIndex": 47, "score": 46.5, "costs": -0.5, "simulationMode": [null, null, null], "rewards": [2, -8, 48], "path": ["0", "0", "5", "6", "7"], "rt": [1863, 122, 109], "actions": ["right", "right", "up"], "actionTimes": [3081, 3704, 4308], "queries": {"click": {"state": {"target": ["3", "7"], "time": [1701, 2083]}, "edge": {"target": [], "time": []}}, "mouseover": {"state": {"target": ["3", "3", "7", "6", "8"], "time": [1529, 1596, 1913, 2230, 2280]}, "edge": {"target": [], "time": []}}, "mouseout": {"state": {"target": ["8", "0", "3", "3", "7", "6", "8", "8"], "time": [862, 1128, 1546, 1880, 2214, 2247, 2497, 17714]}, "edge": {"target": [], "time": []}}}, "displayed_time": "9.22", "trialTime": 18264, "trial_type": "mouselab-mdp", "trial_index": 59, "time_elapsed": 690626, "internal_node_id": "0.0-4.0-3.0-13.0"}}, {"uniqueid": "w24219690:a40779595", "current_trial": 60, "dateTime": 1664555568704, "trialdata": {"revealed_states": [], "num_clicks_accrued": [0, 0, 0, 0, 0, 0, 0, 0, 0, 0, 0, 0, 0], "stateRewards": ["", 4, 8, 24, 24, 2, -4, 48, -24, -4, 8, -24, 24], "withholdReward": true, "trial_id": "mdp_932292142091", "block": "test2", "trialIndex": 48, "score": 50.75, "costs": -0.25, "simulationMode": [null, null, null], "rewards": [2, -4, 48], "path": ["0", "0", "5", "6", "7"], "rt": [1522, 94, 18], "actions": ["right", "right", "up"], "actionTimes": [2459, 3044, 3552], "queries": {"click": {"state": {"target": ["7"], "time": [1373]}, "edge": {"target": [], "time": []}}, "mouseover": {"state": {"target": ["7", "6"], "time": [1331, 1566]}, "edge": {"target": [], "time": []}}, "mouseout": {"state": {"target": ["5", "7", "6"], "time": [764, 1548, 1616]}, "edge": {"target": [], "time": []}}}, "displayed_time": "9.94", "trialTime": 10470, "trial_type": "mouselab-mdp", "trial_index": 60, "time_elapsed": 701149, "internal_node_id": "0.0-4.0-3.0-14.0"}}, {"uniqueid": "w24219690:a40779595", "current_trial": 61, "dateTime": 1664555579453, "trialdata": {"revealed_states": [], "num_clicks_accrued": [0, 0, 0, 0, 0, 0, 0, 0, 0, 0, 0, 0, 0], "stateRewards": ["", 2, -4, 48, -24, 4, -8, -24, 48, -2, -4, 24, -48], "withholdReward": true, "trial_id": "mdp_357328205509", "block": "test2", "trialIndex": 49, "score": 50.5, "costs": -0.5, "simulationMode": [null, null, null], "rewards": [2, -4, 48], "path": ["0", "0", "1", "2", "3"], "rt": [1859, 22, 22], "actions": ["up", "up", "right"], "actionTimes": [2490, 3014, 3531], "queries": {"click": {"state": {"target": ["7", "3"], "time": [1080, 1474]}, "edge": {"target": [], "time": []}}, "mouseover": {"state": {"target": ["7", "3", "2", "4"], "time": [956, 1390, 1623, 1824]}, "edge": {"target": [], "time": []}}, "mouseout": {"state": {"target": ["7", "3", "2", "4", "2"], "time": [1357, 1590, 1640, 1891, 10650]}, "edge": {"target": [], "time": []}}}, "displayed_time": "9.63", "trialTime": 10699, "trial_type": "mouselab-mdp", "trial_index": 61, "time_elapsed": 711898, "internal_node_id": "0.0-4.0-3.0-15.0"}}, {"uniqueid": "w24219690:a40779595", "current_trial": 62, "dateTime": 1664555588934, "trialdata": {"revealed_states": [], "num_clicks_accrued": [0, 0, 0, 0, 0, 0, 0, 0, 0, 0, 0, 0, 0], "stateRewards": ["", 4, -4, 48, -48, -2, -8, -24, 48, -2, 4, 24, -24], "withholdReward": true, "trial_id": "mdp_507290896735", "block": "test2", "trialIndex": 50, "score": 52.75, "costs": -0.25, "simulationMode": [null, null, null], "rewards": [4, -4, 48], "path": ["0", "0", "1", "2", "3"], "rt": [1123, 86, 143], "actions": ["up", "up", "right"], "actionTimes": [1623, 2205, 2845], "queries": {"click": {"state": {"target": ["3"], "time": [828]}, "edge": {"target": [], "time": []}}, "mouseover": {"state": {"target": ["1", "3", "2", "4"], "time": [616, 783, 1000, 1050]}, "edge": {"target": [], "time": []}}, "mouseout": {"state": {"target": ["1", "3", "2", "4", "0"], "time": [634, 950, 1034, 1217, 7941]}, "edge": {"target": [], "time": []}}}, "displayed_time": "8.50", "trialTime": 9429, "trial_type": "mouselab-mdp", "trial_index": 62, "time_elapsed": 721379, "internal_node_id": "0.0-4.0-3.0-16.0"}}, {"uniqueid": "w24219690:a40779595", "current_trial": 63, "dateTime": 1664555599382, "trialdata": {"revealed_states": [], "num_clicks_accrued": [0, 0, 0, 0, 0, 0, 0, 0, 0, 0, 0, 0, 0], "stateRewards": ["", -4, -4, 24, 48, 4, -4, -24, 24, -4, -4, 24, 24], "withholdReward": false, "trial_id": "mdp_357725458160", "block": "test2", "trialIndex": 51, "score": 44, "costs": -1, "simulationMode": [null, null, null], "rewards": [-4, -4, 48], "path": ["0", "0", "1", "2", "4"], "rt": [2910, 190, 88], "actions": ["up", "up", "left"], "actionTimes": [3450, 4131, 4713], "queries": {"click": {"state": {"target": ["8", "7", "3", "4"], "time": [971, 1488, 2080, 2479]}, "edge": {"target": [], "time": []}}, "mouseover": {"state": {"target": ["5", "8", "6", "7", "3", "2", "4"], "time": [670, 886, 1154, 1204, 2004, 2206, 2272]}, "edge": {"target": [], "time": []}}, "mouseout": {"state": {"target": ["5", "5", "0", "5", "8", "6", "7", "3", "2", "4", "1", "6"], "time": [235, 369, 403, 686, 1137, 1187, 1637, 2188, 2222, 2638, 9446, 9613]}, "edge": {"target": [], "time": []}}}, "displayed_time": "9.54", "trialTime": 10386, "trial_type": "mouselab-mdp", "trial_index": 63, "time_elapsed": 731827, "internal_node_id": "0.0-4.0-3.0-17.0"}}, {"uniqueid": "w24219690:a40779595", "current_trial": 64, "dateTime": 1664555618559, "trialdata": {"revealed_states": [], "num_clicks_accrued": [0, 0, 0, 0, 0, 0, 0, 0, 0, 0, 0, 0, 0], "stateRewards": ["", 4, 8, -48, 24, -2, 8, -48, -48, -4, 4, 48, -48], "withholdReward": true, "trial_id": "mdp_693807815190", "block": "test2", "trialIndex": 52, "score": 52.5, "costs": -0.5, "simulationMode": [null, null, null], "rewards": [-4, 4, 48], "path": ["0", "0", "9", "10", "11"], "rt": [2188, 66, 161], "actions": ["left", "left", "up"], "actionTimes": [2898, 3461, 4123], "queries": {"click": {"state": {"target": ["4", "11"], "time": [1482, 1945]}, "edge": {"target": [], "time": []}}, "mouseover": {"state": {"target": ["4", "4", "11", "10", "12"], "time": [858, 1323, 1859, 2126, 2176]}, "edge": {"target": [], "time": []}}, "mouseout": {"state": {"target": ["1", "4", "4", "11", "10", "12"], "time": [574, 891, 1626, 2093, 2159, 2309]}, "edge": {"target": [], "time": []}}}, "displayed_time": "8.71", "trialTime": 19123, "trial_type": "mouselab-mdp", "trial_index": 64, "time_elapsed": 751004, "internal_node_id": "0.0-4.0-3.0-18.0"}}, {"uniqueid": "w24219690:a40779595", "current_trial": 65, "dateTime": 1664555631706, "trialdata": {"revealed_states": [], "num_clicks_accrued": [0, 0, 0, 0, 0, 0, 0, 0, 0, 0, 0, 0, 0], "stateRewards": ["", -4, -4, -24, 48, 2, 4, -24, -48, -2, 4, 24, 24], "withholdReward": true, "trial_id": "mdp_360934723192", "block": "test2", "trialIndex": 53, "score": 44, "costs": -1, "simulationMode": [null, null, null], "rewards": [-4, -4, 48], "path": ["0", "0", "1", "2", "4"], "rt": [7684, 126, 33], "actions": ["up", "up", "left"], "actionTimes": [8096, 8723, 9247], "queries": {"click": {"state": {"target": ["7", "8", "3", "4"], "time": [5421, 5901, 6336, 6912]}, "edge": {"target": [], "time": []}}, "mouseover": {"state": {"target": ["5", "5", "7", "6", "8", "3", "2", "4", "11"], "time": [4108, 4442, 5159, 5610, 5693, 6227, 6477, 6861, 7345]}, "edge": {"target": [], "time": []}}, "mouseout": {"state": {"target": ["0", "5", "5", "7", "6", "8", "3", "2", "4", "11"], "time": [137, 4241, 5092, 5576, 5676, 6010, 6444, 6511, 7162, 7362]}, "edge": {"target": [], "time": []}}}, "displayed_time": "9.77", "trialTime": 13095, "trial_type": "mouselab-mdp", "trial_index": 65, "time_elapsed": 764151, "internal_node_id": "0.0-4.0-3.0-19.0"}}, {"uniqueid": "w24219690:a40779595", "current_trial": 66, "dateTime": 1664555645444, "trialdata": {"revealed_states": [], "num_clicks_accrued": [0, 0, 0, 0, 0, 0, 0, 0, 0, 0, 0, 0, 0], "stateRewards": ["", -4, -8, 48, 24, 4, -8, 24, -48, -2, -8, 24, -48], "withholdReward": true, "trial_id": "mdp_952038635544", "block": "test2", "trialIndex": 54, "score": 40.5, "costs": -0.5, "simulationMode": [null, null, null], "rewards": [-4, -8, 48], "path": ["0", "0", "1", "2", "3"], "rt": [2048, 94, 149], "actions": ["up", "up", "right"], "actionTimes": [2881, 3482, 4121], "queries": {"click": {"state": {"target": ["4", "3"], "time": [1342, 1971]}, "edge": {"target": [], "time": []}}, "mouseover": {"state": {"target": ["1", "4", "2", "3"], "time": [1052, 1135, 1786, 1836]}, "edge": {"target": [], "time": []}}, "mouseout": {"state": {"target": ["0", "1", "4", "2", "3", "7", "5"], "time": [985, 1069, 1519, 1802, 2153, 8510, 8610]}, "edge": {"target": [], "time": []}}}, "displayed_time": "8.83", "trialTime": 13682, "trial_type": "mouselab-mdp", "trial_index": 66, "time_elapsed": 777889, "internal_node_id": "0.0-4.0-3.0-20.0"}}, {"uniqueid": "w24219690:a40779595", "current_trial": 67, "dateTime": 1664555654524, "trialdata": {"revealed_states": [], "num_clicks_accrued": [0, 0, 0, 0, 0, 0, 0, 0, 0, 0, 0, 0, 0], "stateRewards": ["", 4, 8, -24, 48, 4, -8, -48, 48, -4, 8, -24, -48], "withholdReward": true, "trial_id": "mdp_376126356841", "block": "test2", "trialIndex": 55, "score": 64.5, "costs": -0.5, "simulationMode": [null, null, null], "rewards": [4, 8, 48], "path": ["0", "0", "1", "2", "4"], "rt": [1739, 45, 218], "actions": ["up", "up", "left"], "actionTimes": [2271, 2815, 3539], "queries": {"click": {"state": {"target": ["3", "4"], "time": [941, 1328]}, "edge": {"target": [], "time": []}}, "mouseover": {"state": {"target": ["1", "3", "2", "4", "11", "11"], "time": [651, 901, 1202, 1252, 1669, 1769]}, "edge": {"target": [], "time": []}}, "mouseout": {"state": {"target": ["1", "3", "2", "4", "11", "11", "0"], "time": [701, 1185, 1235, 1485, 1752, 7476, 7793]}, "edge": {"target": [], "time": []}}}, "displayed_time": "8.53", "trialTime": 9030, "trial_type": "mouselab-mdp", "trial_index": 67, "time_elapsed": 786969, "internal_node_id": "0.0-4.0-3.0-21.0"}}, {"uniqueid": "w24219690:a40779595", "current_trial": 68, "dateTime": 1664555664434, "trialdata": {"revealed_states": [], "num_clicks_accrued": [0, 0, 0, 0, 0, 0, 0, 0, 0, 0, 0, 0, 0], "stateRewards": ["", 2, -4, 24, 48, -2, 4, -48, -48, -4, 4, 24, -24], "withholdReward": true, "trial_id": "mdp_900363662757", "block": "test2", "trialIndex": 56, "score": 50.75, "costs": -0.25, "simulationMode": [null, null, null], "rewards": [2, -4, 48], "path": ["0", "0", "1", "2", "4"], "rt": [1335, 110, 53], "actions": ["up", "up", "left"], "actionTimes": [1770, 2374, 2918], "queries": {"click": {"state": {"target": ["4"], "time": [889]}, "edge": {"target": [], "time": []}}, "mouseover": {"state": {"target": ["1", "4", "2", "3"], "time": [646, 812, 1063, 1313]}, "edge": {"target": [], "time": []}}, "mouseout": {"state": {"target": ["0", "1", "4", "2", "3", "6"], "time": [579, 679, 1029, 1113, 9287, 9556]}, "edge": {"target": [], "time": []}}}, "displayed_time": "8.44", "trialTime": 9841, "trial_type": "mouselab-mdp", "trial_index": 68, "time_elapsed": 796879, "internal_node_id": "0.0-4.0-3.0-22.0"}}, {"uniqueid": "w24219690:a40779595", "current_trial": 69, "dateTime": 1664555677399, "trialdata": {"revealed_states": [], "num_clicks_accrued": [0, 0, 0, 0, 0, 0, 0, 0, 0, 0, 0, 0, 0], "stateRewards": ["", 4, 4, -48, -48, 4, 4, -24, -24, -4, 8, -48, 24], "withholdReward": true, "trial_id": "mdp_669785455541", "block": "test2", "trialIndex": 57, "score": 31.5, "costs": -1.5, "simulationMode": [null, null, null], "rewards": [-4, 8, 24], "path": ["0", "0", "9", "10", "12"], "rt": [2872, 11, 204], "actions": ["left", "left", "down"], "actionTimes": [3692, 4199, 4909], "queries": {"click": {"state": {"target": ["4", "3", "7", "8", "12", "11"], "time": [1142, 1561, 2121, 2464, 2875, 3172]}, "edge": {"target": [], "time": []}}, "mouseover": {"state": {"target": ["4", "2", "3", "7", "6", "8", "12", "10", "11"], "time": [1034, 1334, 1401, 1919, 2269, 2335, 2819, 3019, 3070]}, "edge": {"target": [], "time": []}}, "mouseout": {"state": {"target": ["0", "1", "0", "4", "2", "3", "7", "6", "8", "12", "10", "11", "2", "7", "6", "6", "7"], "time": [316, 700, 900, 1317, 1367, 1718, 2252, 2302, 2602, 3003, 3053, 6012, 6089, 6473, 6924, 11596, 11796]}, "edge": {"target": [], "time": []}}}, "displayed_time": "8.82", "trialTime": 12916, "trial_type": "mouselab-mdp", "trial_index": 69, "time_elapsed": 809844, "internal_node_id": "0.0-4.0-3.0-23.0"}}, {"uniqueid": "w24219690:a40779595", "current_trial": 70, "dateTime": 1664555687531, "trialdata": {"revealed_states": [], "num_clicks_accrued": [0, 0, 0, 0, 0, 0, 0, 0, 0, 0, 0, 0, 0], "stateRewards": ["", -2, -8, -24, -48, -2, -4, 48, -48, 4, 4, -48, 48], "withholdReward": true, "trial_id": "mdp_156977432949", "block": "test2", "trialIndex": 58, "score": 60.5, "costs": -0.5, "simulationMode": [null, null, null], "rewards": [4, 4, 48], "path": ["0", "0", "9", "10", "12"], "rt": [1792, 30, 10], "actions": ["left", "left", "down"], "actionTimes": [2556, 3081, 3579], "queries": {"click": {"state": {"target": ["11", "12"], "time": [1122, 1495]}, "edge": {"target": [], "time": []}}, "mouseover": {"state": {"target": ["11", "10", "12", "10", "4"], "time": [949, 1316, 1416, 1633, 1851]}, "edge": {"target": [], "time": []}}, "mouseout": {"state": {"target": ["8", "6", "11", "10", "12", "10", "4", "2", "1", "0"], "time": [432, 465, 1283, 1366, 1600, 1651, 1950, 8908, 8991, 9042]}, "edge": {"target": [], "time": []}}}, "displayed_time": "9.77", "trialTime": 10082, "trial_type": "mouselab-mdp", "trial_index": 70, "time_elapsed": 819976, "internal_node_id": "0.0-4.0-3.0-24.0"}}, {"uniqueid": "w24219690:a40779595", "current_trial": 71, "dateTime": 1664555696464, "trialdata": {"revealed_states": [], "num_clicks_accrued": [0, 0, 0, 0, 0, 0, 0, 0, 0, 0, 0, 0, 0], "stateRewards": ["", 2, 4, 48, 24, -4, 8, 48, 48, 2, -4, -48, -24], "withholdReward": true, "trial_id": "mdp_822099887466", "block": "test2", "trialIndex": 59, "score": 58, "costs": -1, "simulationMode": [null, null, null], "rewards": [2, 4, 48], "path": ["0", "0", "1", "2", "3"], "rt": [2453, 129, 85], "actions": ["up", "up", "right"], "actionTimes": [2924, 3544, 4117], "queries": {"click": {"state": {"target": ["11", "12", "4", "3"], "time": [828, 1164, 1521, 1997]}, "edge": {"target": [], "time": []}}, "mouseover": {"state": {"target": ["11", "10", "12", "4", "2", "3", "7"], "time": [745, 995, 1029, 1395, 1696, 1929, 2347]}, "edge": {"target": [], "time": []}}, "mouseout": {"state": {"target": ["9", "11", "10", "12", "4", "2", "3", "7", "5"], "time": [294, 962, 1012, 1312, 1662, 1862, 2213, 2363, 6334]}, "edge": {"target": [], "time": []}}}, "displayed_time": "8.47", "trialTime": 8883, "trial_type": "mouselab-mdp", "trial_index": 71, "time_elapsed": 828909, "internal_node_id": "0.0-4.0-3.0-25.0"}}, {"uniqueid": "w24219690:a40779595", "current_trial": 72, "dateTime": 1664555706319, "trialdata": {"revealed_states": [], "num_clicks_accrued": [0, 0, 0, 0, 0, 0, 0, 0, 0, 0, 0, 0, 0], "stateRewards": ["", 2, 4, -48, 48, -4, 8, -48, -24, -4, -4, 48, 48], "withholdReward": false, "trial_id": "mdp_613582696541", "block": "test2", "trialIndex": 60, "score": 58.5, "costs": -0.5, "simulationMode": [null, null, null], "rewards": [2, 4, 48], "path": ["0", "0", "1", "2", "4"], "rt": [1784, 4, 19], "actions": ["up", "up", "left"], "actionTimes": [2286, 2791, 3323], "queries": {"click": {"state": {"target": ["3", "4"], "time": [852, 1422]}, "edge": {"target": [], "time": []}}, "mouseover": {"state": {"target": ["3", "4", "7", "7"], "time": [785, 1202, 1602, 1718]}, "edge": {"target": [], "time": []}}, "mouseout": {"state": {"target": ["5", "1", "3", "4", "7", "7", "0"], "time": [167, 367, 1034, 1535, 1619, 8626, 8693]}, "edge": {"target": [], "time": []}}}, "displayed_time": "9.50", "trialTime": 9801, "trial_type": "mouselab-mdp", "trial_index": 72, "time_elapsed": 838764, "internal_node_id": "0.0-4.0-3.0-26.0"}}, {"uniqueid": "w24219690:a40779595", "current_trial": 73, "dateTime": 1664555716092, "trialdata": {"revealed_states": [], "num_clicks_accrued": [0, 0, 0, 0, 0, 0, 0, 0, 0, 0, 0, 0, 0], "stateRewards": ["", -4, 4, -24, 24, -2, -4, 48, 24, 2, 8, -48, 24], "withholdReward": false, "trial_id": "mdp_150340189492", "block": "test2", "trialIndex": 61, "score": 46.25, "costs": -0.75, "simulationMode": [null, null, null], "rewards": [-2, -4, 48], "path": ["0", "0", "5", "6", "7"], "rt": [1943, 199, 83], "actions": ["right", "right", "up"], "actionTimes": [2347, 3044, 3629], "queries": {"click": {"state": {"target": ["4", "3", "7"], "time": [726, 1124, 1468]}, "edge": {"target": [], "time": []}}, "mouseover": {"state": {"target": ["4", "2", "3", "7", "6", "8"], "time": [592, 910, 943, 1310, 1610, 1660]}, "edge": {"target": [], "time": []}}, "mouseout": {"state": {"target": ["0", "4", "2", "3", "7", "6", "8", "8", "8"], "time": [325, 893, 927, 1260, 1593, 1627, 1843, 7483, 9285]}, "edge": {"target": [], "time": []}}}, "displayed_time": "9.41", "trialTime": 9721, "trial_type": "mouselab-mdp", "trial_index": 73, "time_elapsed": 848537, "internal_node_id": "0.0-4.0-3.0-27.0"}}, {"uniqueid": "w24219690:a40779595", "current_trial": 74, "dateTime": 1664555726310, "trialdata": {"revealed_states": [], "num_clicks_accrued": [0, 0, 0, 0, 0, 0, 0, 0, 0, 0, 0, 0, 0], "stateRewards": ["", -4, -8, 48, -24, 4, -8, 48, 48, -2, 4, -48, -24], "withholdReward": false, "trial_id": "mdp_925905402462", "block": "test2", "trialIndex": 62, "score": 40.5, "costs": -0.5, "simulationMode": [null, null, null], "rewards": [-4, -8, 48], "path": ["0", "0", "1", "2", "3"], "rt": [1880, 86, 106], "actions": ["up", "up", "right"], "actionTimes": [3269, 3854, 4458], "queries": {"click": {"state": {"target": ["4", "3"], "time": [1728, 2148]}, "edge": {"target": [], "time": []}}, "mouseover": {"state": {"target": ["4", "2", "3", "7"], "time": [1682, 1916, 2132, 2333]}, "edge": {"target": [], "time": []}}, "mouseout": {"state": {"target": ["4", "4", "2", "3", "7"], "time": [1231, 1866, 1982, 2300, 9858]}, "edge": {"target": [], "time": []}}}, "displayed_time": "9.39", "trialTime": 10167, "trial_type": "mouselab-mdp", "trial_index": 74, "time_elapsed": 858755, "internal_node_id": "0.0-4.0-3.0-28.0"}}, {"uniqueid": "w24219690:a40779595", "current_trial": 75, "dateTime": 1664555735180, "trialdata": {"revealed_states": [], "num_clicks_accrued": [0, 0, 0, 0, 0, 0, 0, 0, 0, 0, 0, 0, 0], "stateRewards": ["", 2, -8, -24, 48, -4, -8, 24, -48, 4, -8, -24, -24], "withholdReward": true, "trial_id": "mdp_928911266656", "block": "test2", "trialIndex": 63, "score": 46.75, "costs": -0.25, "simulationMode": [null, null, null], "rewards": [2, -8, 48], "path": ["0", "0", "1", "2", "4"], "rt": [1331, 410, 53], "actions": ["up", "up", "left"], "actionTimes": [1745, 2645, 3189], "queries": {"click": {"state": {"target": ["4"], "time": [840]}, "edge": {"target": [], "time": []}}, "mouseover": {"state": {"target": ["1", "2", "4", "2", "3"], "time": [549, 616, 750, 1017, 1067]}, "edge": {"target": [], "time": []}}, "mouseout": {"state": {"target": ["5", "1", "2", "4", "2", "3", "3", "5"], "time": [265, 583, 716, 983, 1050, 7524, 7690, 7824]}, "edge": {"target": [], "time": []}}}, "displayed_time": "8.42", "trialTime": 8794, "trial_type": "mouselab-mdp", "trial_index": 75, "time_elapsed": 867625, "internal_node_id": "0.0-4.0-3.0-29.0"}}, {"uniqueid": "w24219690:a40779595", "current_trial": 76, "dateTime": 1664555736035, "trialdata": {"rt": 852, "stimulus": "<h1> End of block! </h1>\n\nYou have reached the end of the block 2/4. If you need a short break, feel free to take one now before moving on.\n\n<br><br>\nIn the next block, you will complete another 30 rounds of this game.\n\n<br><br>\n<div style='text-align: center;'>Press <code>space</code> to begin.</div>\n<br><br>\n<div style='text-align: center;'>(If the experiment doesn't continue, try clicking on the text and then pressing <code>space</code>.)</div>", "response": " ", "trial_id": "mdp_ready_3", "trial_type": "html-keyboard-response", "trial_index": 76, "time_elapsed": 868480, "internal_node_id": "0.0-4.0-4.0"}}, {"uniqueid": "w24219690:a40779595", "current_trial": 77, "dateTime": 1664555749076, "trialdata": {"revealed_states": [], "num_clicks_accrued": [0, 0, 0, 0, 0, 0, 0, 0, 0, 0, 0, 0, 0], "stateRewards": ["", -2, -4, -48, 48, -2, -4, 24, 48, -4, -8, -24, 24], "withholdReward": true, "trial_id": "mdp_917590390609", "block": "test3", "trialIndex": 64, "score": 46.75, "costs": -0.25, "simulationMode": [null, null, null], "rewards": [-2, -4, 48], "path": ["0", "0", "1", "2", "4"], "rt": [1605, 103, 169], "actions": ["up", "up", "left"], "actionTimes": [2721, 3323, 3990], "queries": {"click": {"state": {"target": ["4"], "time": [1894]}, "edge": {"target": [], "time": []}}, "mouseover": {"state": {"target": ["4", "4", "2", "3"], "time": [1652, 1802, 2036, 2102]}, "edge": {"target": [], "time": []}}, "mouseout": {"state": {"target": ["2", "1", "4", "4", "2", "3"], "time": [283, 374, 1718, 2019, 2069, 12147]}, "edge": {"target": [], "time": []}}}, "displayed_time": "10.12", "trialTime": 12980, "trial_type": "mouselab-mdp", "trial_index": 77, "time_elapsed": 881521, "internal_node_id": "0.0-4.0-5.0-0.0"}}, {"uniqueid": "w24219690:a40779595", "current_trial": 78, "dateTime": 1664555757953, "trialdata": {"revealed_states": [], "num_clicks_accrued": [0, 0, 0, 0, 0, 0, 0, 0, 0, 0, 0, 0, 0], "stateRewards": ["", -2, 8, -24, 24, 2, -8, 48, -24, 2, 8, -24, -24], "withholdReward": true, "trial_id": "mdp_674708270444", "block": "test3", "trialIndex": 65, "score": 46.25, "costs": -0.75, "simulationMode": [null, null, null], "rewards": [2, -8, 48], "path": ["0", "0", "5", "6", "7"], "rt": [2079, 123, 91], "actions": ["right", "right", "up"], "actionTimes": [2533, 3154, 3747], "queries": {"click": {"state": {"target": ["4", "3", "7"], "time": [961, 1310, 1729]}, "edge": {"target": [], "time": []}}, "mouseover": {"state": {"target": ["1", "2", "4", "2", "3", "7", "7", "6", "8", "6"], "time": [678, 728, 895, 1129, 1195, 1547, 1662, 1863, 1930, 2130]}, "edge": {"target": [], "time": []}}, "mouseout": {"state": {"target": ["0", "1", "2", "4", "2", "3", "7", "7", "6", "8", "6"], "time": [93, 695, 745, 1096, 1162, 1446, 1579, 1830, 1897, 2079, 6501]}, "edge": {"target": [], "time": []}}}, "displayed_time": "8.46", "trialTime": 8820, "trial_type": "mouselab-mdp", "trial_index": 78, "time_elapsed": 890398, "internal_node_id": "0.0-4.0-5.0-1.0"}}, {"uniqueid": "w24219690:a40779595", "current_trial": 79, "dateTime": 1664555767786, "trialdata": {"revealed_states": [], "num_clicks_accrued": [0, 0, 0, 0, 0, 0, 0, 0, 0, 0, 0, 0, 0], "stateRewards": ["", -2, 8, 24, -48, -2, -4, 24, 48, 2, 8, -48, -48], "withholdReward": true, "trial_id": "mdp_562228697607", "block": "test3", "trialIndex": 66, "score": 46, "costs": -1, "simulationMode": [null, null, null], "rewards": [-2, -4, 48], "path": ["0", "0", "5", "6", "8"], "rt": [2070, 22, 94], "actions": ["right", "right", "down"], "actionTimes": [2945, 3469, 4058], "queries": {"click": {"state": {"target": ["4", "3", "7", "8"], "time": [1148, 1503, 1860, 2146]}, "edge": {"target": [], "time": []}}, "mouseover": {"state": {"target": ["4", "2", "3", "7", "6", "8"], "time": [1077, 1311, 1444, 1678, 1979, 2029]}, "edge": {"target": [], "time": []}}, "mouseout": {"state": {"target": ["0", "1", "4", "2", "3", "7", "6", "8", "0", "7"], "time": [92, 326, 1278, 1361, 1628, 1962, 2012, 2279, 4982, 5015]}, "edge": {"target": [], "time": []}}}, "displayed_time": "8.88", "trialTime": 9775, "trial_type": "mouselab-mdp", "trial_index": 79, "time_elapsed": 900231, "internal_node_id": "0.0-4.0-5.0-2.0"}}, {"uniqueid": "w24219690:a40779595", "current_trial": 80, "dateTime": 1664555779005, "trialdata": {"revealed_states": [], "num_clicks_accrued": [0, 0, 0, 0, 0, 0, 0, 0, 0, 0, 0, 0, 0], "stateRewards": ["", -2, 4, -48, -48, 4, 4, 48, -48, 2, 8, 24, 48], "withholdReward": true, "trial_id": "mdp_686771069745", "block": "test3", "trialIndex": 67, "score": 62.25, "costs": -0.75, "simulationMode": [null, null, null], "rewards": [2, 8, 48], "path": ["0", "0", "9", "10", "12"], "rt": [2069, 18, 41], "actions": ["left", "left", "down"], "actionTimes": [2782, 3287, 3843], "queries": {"click": {"state": {"target": ["4", "11", "12"], "time": [1255, 1619, 1996]}, "edge": {"target": [], "time": []}}, "mouseover": {"state": {"target": ["1", "4", "11", "10", "12", "8"], "time": [832, 1083, 1483, 1784, 1883, 2384]}, "edge": {"target": [], "time": []}}, "mouseout": {"state": {"target": ["1", "4", "11", "10", "12", "8"], "time": [850, 1416, 1766, 1817, 2151, 2401]}, "edge": {"target": [], "time": []}}}, "displayed_time": "8.71", "trialTime": 11155, "trial_type": "mouselab-mdp", "trial_index": 80, "time_elapsed": 911450, "internal_node_id": "0.0-4.0-5.0-3.0"}}, {"uniqueid": "w24219690:a40779595", "current_trial": 81, "dateTime": 1664555790466, "trialdata": {"revealed_states": [], "num_clicks_accrued": [0, 0, 0, 0, 0, 0, 0, 0, 0, 0, 0, 0, 0], "stateRewards": ["", 2, 4, 48, -48, 2, 4, 24, -24, 2, -4, -24, -48], "withholdReward": true, "trial_id": "mdp_706591889062", "block": "test3", "trialIndex": 68, "score": 58.5, "costs": -0.5, "simulationMode": [null, null, null], "rewards": [2, 4, 48], "path": ["0", "0", "1", "2", "3"], "rt": [1694, 34, 64], "actions": ["up", "up", "right"], "actionTimes": [2247, 2771, 3334], "queries": {"click": {"state": {"target": ["4", "3"], "time": [1006, 1355]}, "edge": {"target": [], "time": []}}, "mouseover": {"state": {"target": ["4", "2", "3"], "time": [901, 1184, 1255]}, "edge": {"target": [], "time": []}}, "mouseout": {"state": {"target": ["5", "4", "2", "3", "7", "8"], "time": [316, 1151, 1218, 1501, 4538, 10761]}, "edge": {"target": [], "time": []}}}, "displayed_time": "9.55", "trialTime": 11405, "trial_type": "mouselab-mdp", "trial_index": 81, "time_elapsed": 922911, "internal_node_id": "0.0-4.0-5.0-4.0"}}, {"uniqueid": "w24219690:a40779595", "current_trial": 82, "dateTime": 1664555799562, "trialdata": {"revealed_states": [], "num_clicks_accrued": [0, 0, 0, 0, 0, 0, 0, 0, 0, 0, 0, 0, 0], "stateRewards": ["", -2, -8, 48, 24, 2, 8, -48, 24, -4, 8, 48, 48], "withholdReward": false, "trial_id": "mdp_875436109858", "block": "test3", "trialIndex": 69, "score": 42.5, "costs": -0.5, "simulationMode": [null, null, null], "rewards": [-2, -8, 48], "path": ["0", "0", "1", "2", "3"], "rt": [1798, 36, 583], "actions": ["up", "up", "right"], "actionTimes": [2467, 2992, 4073], "queries": {"click": {"state": {"target": ["4", "3"], "time": [1245, 1594]}, "edge": {"target": [], "time": []}}, "mouseover": {"state": {"target": ["1", "4", "2", "3", "7"], "time": [803, 1071, 1404, 1471, 1888]}, "edge": {"target": [], "time": []}}, "mouseout": {"state": {"target": ["0", "1", "4", "2", "3"], "time": [736, 837, 1371, 1438, 1804]}, "edge": {"target": [], "time": []}}}, "displayed_time": "8.67", "trialTime": 9041, "trial_type": "mouselab-mdp", "trial_index": 82, "time_elapsed": 932007, "internal_node_id": "0.0-4.0-5.0-5.0"}}, {"uniqueid": "w24219690:a40779595", "current_trial": 83, "dateTime": 1664555810563, "trialdata": {"revealed_states": [], "num_clicks_accrued": [0, 0, 0, 0, 0, 0, 0, 0, 0, 0, 0, 0, 0], "stateRewards": ["", 4, -8, 24, 48, -2, -4, -48, 24, 2, 4, -48, -24], "withholdReward": true, "trial_id": "mdp_749974461966", "block": "test3", "trialIndex": 70, "score": 48, "costs": -1, "simulationMode": [null, null, null], "rewards": [4, -8, 48], "path": ["0", "0", "1", "2", "4"], "rt": [2492, 53, 57], "actions": ["up", "up", "left"], "actionTimes": [3947, 4491, 5063], "queries": {"click": {"state": {"target": ["8", "7", "3", "4"], "time": [1918, 2274, 2654, 3043]}, "edge": {"target": [], "time": []}}, "mouseover": {"state": {"target": ["5", "8", "8", "6", "7", "3", "2", "4", "11"], "time": [1585, 1635, 1818, 2019, 2052, 2603, 2803, 2869, 3270]}, "edge": {"target": [], "time": []}}, "mouseout": {"state": {"target": ["7", "5", "5", "8", "8", "6", "7", "3", "2", "4", "11", "1", "1", "0"], "time": [784, 934, 1619, 1653, 2003, 2036, 2569, 2786, 2836, 3187, 3337, 10212, 10328, 10361]}, "edge": {"target": [], "time": []}}}, "displayed_time": "9.46", "trialTime": 10946, "trial_type": "mouselab-mdp", "trial_index": 83, "time_elapsed": 943008, "internal_node_id": "0.0-4.0-5.0-6.0"}}, {"uniqueid": "w24219690:a40779595", "current_trial": 84, "dateTime": 1664555821066, "trialdata": {"revealed_states": [], "num_clicks_accrued": [0, 0, 0, 0, 0, 0, 0, 0, 0, 0, 0, 0, 0], "stateRewards": ["", -2, -8, -24, -48, -2, -4, 48, -48, 4, 4, -48, 48], "withholdReward": true, "trial_id": "mdp_156977432949", "block": "test3", "trialIndex": 71, "score": 60, "costs": -1, "simulationMode": [null, null, null], "rewards": [4, 4, 48], "path": ["0", "0", "9", "10", "12"], "rt": [2940, 29, 28], "actions": ["left", "left", "down"], "actionTimes": [4004, 4529, 5046], "queries": {"click": {"state": {"target": ["4", "3", "11", "12"], "time": [1424, 2093, 2655, 3190]}, "edge": {"target": [], "time": []}}, "mouseover": {"state": {"target": ["4", "2", "3", "3", "3", "9", "10", "11", "10", "12", "8"], "time": [1329, 1613, 1646, 1864, 2047, 2347, 2381, 2581, 2832, 3098, 3465]}, "edge": {"target": [], "time": []}}, "mouseout": {"state": {"target": ["0", "0", "4", "2", "3", "3", "3", "9", "10", "11", "10", "12", "8"], "time": [695, 895, 1596, 1630, 1664, 1946, 2247, 2364, 2397, 2814, 2882, 3365, 3483]}, "edge": {"target": [], "time": []}}}, "displayed_time": "10.06", "trialTime": 10447, "trial_type": "mouselab-mdp", "trial_index": 84, "time_elapsed": 953511, "internal_node_id": "0.0-4.0-5.0-7.0"}}, {"uniqueid": "w24219690:a40779595", "current_trial": 85, "dateTime": 1664555829936, "trialdata": {"revealed_states": [], "num_clicks_accrued": [0, 0, 0, 0, 0, 0, 0, 0, 0, 0, 0, 0, 0], "stateRewards": ["", -4, -8, -48, 48, -2, -8, -48, -24, 4, 8, 24, -48], "withholdReward": true, "trial_id": "mdp_509977295685", "block": "test3", "trialIndex": 72, "score": 40.75, "costs": -0.25, "simulationMode": [null, null, null], "rewards": [-4, -8, 48], "path": ["0", "0", "1", "2", "4"], "rt": [1495, 23, 22], "actions": ["up", "up", "left"], "actionTimes": [1939, 2463, 2995], "queries": {"click": {"state": {"target": ["4"], "time": [894]}, "edge": {"target": [], "time": []}}, "mouseover": {"state": {"target": ["4"], "time": [837]}, "edge": {"target": [], "time": []}}, "mouseout": {"state": {"target": ["0", "4", "3"], "time": [553, 1070, 6106]}, "edge": {"target": [], "time": []}}}, "displayed_time": "8.44", "trialTime": 8813, "trial_type": "mouselab-mdp", "trial_index": 85, "time_elapsed": 962381, "internal_node_id": "0.0-4.0-5.0-8.0"}}, {"uniqueid": "w24219690:a40779595", "current_trial": 86, "dateTime": 1664555845635, "trialdata": {"revealed_states": [], "num_clicks_accrued": [0, 0, 0, 0, 0, 0, 0, 0, 0, 0, 0, 0, 0], "stateRewards": ["", 2, 8, 24, -48, 4, 8, 24, 24, 4, -8, 48, 48], "withholdReward": true, "trial_id": "mdp_646103824875", "block": "test3", "trialIndex": 73, "score": 47.5, "costs": -1.5, "simulationMode": [null, null, null], "rewards": [4, -8, 48], "path": ["0", "0", "9", "10", "12"], "rt": [2732, 73, 53], "actions": ["left", "left", "down"], "actionTimes": [3204, 3770, 4318], "queries": {"click": {"state": {"target": ["4", "3", "7", "8", "12", "11"], "time": [762, 1096, 1494, 1806, 2380, 2597]}, "edge": {"target": [], "time": []}}, "mouseover": {"state": {"target": ["4", "2", "3", "7", "6", "8", "9", "10", "12", "10", "11"], "time": [660, 927, 1027, 1360, 1628, 1661, 2162, 2195, 2278, 2462, 2579]}, "edge": {"target": [], "time": []}}, "mouseout": {"state": {"target": ["0", "0", "4", "2", "3", "7", "6", "8", "8", "9", "10", "12", "10", "11", "5"], "time": [159, 527, 893, 977, 1311, 1579, 1645, 2028, 2129, 2179, 2229, 2445, 2495, 2762, 15226]}, "edge": {"target": [], "time": []}}}, "displayed_time": "9.47", "trialTime": 15642, "trial_type": "mouselab-mdp", "trial_index": 86, "time_elapsed": 978080, "internal_node_id": "0.0-4.0-5.0-9.0"}}, {"uniqueid": "w24219690:a40779595", "current_trial": 87, "dateTime": 1664555855560, "trialdata": {"revealed_states": [], "num_clicks_accrued": [0, 0, 0, 0, 0, 0, 0, 0, 0, 0, 0, 0, 0], "stateRewards": ["", 4, -8, -48, -24, 2, -8, -48, 48, -4, 8, 48, -48], "withholdReward": true, "trial_id": "mdp_605757196263", "block": "test3", "trialIndex": 74, "score": 46, "costs": -1, "simulationMode": [null, null, null], "rewards": [2, -8, 48], "path": ["0", "0", "5", "6", "8"], "rt": [2499, 27, 55], "actions": ["right", "right", "down"], "actionTimes": [3027, 3551, 4113], "queries": {"click": {"state": {"target": ["4", "3", "7", "8"], "time": [950, 1353, 1678, 2159]}, "edge": {"target": [], "time": []}}, "mouseover": {"state": {"target": ["4", "2", "3", "7", "6", "8"], "time": [854, 1138, 1204, 1538, 1805, 2055]}, "edge": {"target": [], "time": []}}, "mouseout": {"state": {"target": ["0", "4", "2", "3", "7", "6", "8"], "time": [654, 1121, 1171, 1488, 1772, 1838, 2272]}, "edge": {"target": [], "time": []}}}, "displayed_time": "8.53", "trialTime": 9861, "trial_type": "mouselab-mdp", "trial_index": 87, "time_elapsed": 988005, "internal_node_id": "0.0-4.0-5.0-10.0"}}, {"uniqueid": "w24219690:a40779595", "current_trial": 88, "dateTime": 1664555865495, "trialdata": {"revealed_states": [], "num_clicks_accrued": [0, 0, 0, 0, 0, 0, 0, 0, 0, 0, 0, 0, 0], "stateRewards": ["", 2, 8, -48, 48, -4, -8, 24, 24, -2, -8, 24, -24], "withholdReward": true, "trial_id": "mdp_910248289075", "block": "test3", "trialIndex": 75, "score": 62.25, "costs": -0.75, "simulationMode": [null, null, null], "rewards": [2, 8, 48], "path": ["0", "0", "1", "2", "4"], "rt": [2435, 64, 27], "actions": ["up", "up", "left"], "actionTimes": [2917, 3480, 3994], "queries": {"click": {"state": {"target": ["8", "7", "4"], "time": [1032, 1445, 1983]}, "edge": {"target": [], "time": []}}, "mouseover": {"state": {"target": ["0", "8", "8", "6", "7", "7", "1", "2", "4", "11", "2", "3"], "time": [696, 863, 929, 1164, 1213, 1380, 1730, 1781, 1964, 2164, 2431, 2465]}, "edge": {"target": [], "time": []}}, "mouseout": {"state": {"target": ["0", "0", "8", "8", "6", "7", "7", "1", "2", "4", "11", "2"], "time": [428, 729, 896, 1146, 1196, 1263, 1580, 1764, 1847, 2097, 2381, 2448]}, "edge": {"target": [], "time": []}}}, "displayed_time": "9.48", "trialTime": 9877, "trial_type": "mouselab-mdp", "trial_index": 88, "time_elapsed": 997940, "internal_node_id": "0.0-4.0-5.0-11.0"}}, {"uniqueid": "w24219690:a40779595", "current_trial": 89, "dateTime": 1664555875830, "trialdata": {"revealed_states": [], "num_clicks_accrued": [0, 0, 0, 0, 0, 0, 0, 0, 0, 0, 0, 0, 0], "stateRewards": ["", -4, 8, 24, 24, 2, 4, -48, 24, -2, -4, -24, -24], "withholdReward": true, "trial_id": "mdp_752328329546", "block": "test3", "trialIndex": 76, "score": 31.5, "costs": -1.5, "simulationMode": [null, null, null], "rewards": [-4, 8, 24], "path": ["0", "0", "1", "2", "3"], "rt": [3525, 75, 112], "actions": ["up", "up", "right"], "actionTimes": [4187, 4753, 5357], "queries": {"click": {"state": {"target": ["4", "3", "7", "8", "11", "12"], "time": [919, 1283, 2335, 2653, 3214, 3588]}, "edge": {"target": [], "time": []}}, "mouseover": {"state": {"target": ["1", "4", "2", "3", "7", "7", "6", "7", "6", "8", "5", "0", "9", "10", "11", "10", "12", "5", "6"], "time": [758, 807, 1073, 1223, 1708, 1959, 2141, 2291, 2475, 2541, 2859, 2876, 2909, 2958, 3142, 3343, 3509, 3743, 3777]}, "edge": {"target": [], "time": []}}, "mouseout": {"state": {"target": ["3", "1", "0", "1", "4", "2", "3", "7", "7", "6", "7", "6", "8", "5", "0", "9", "10", "11", "10", "12", "5", "6"], "time": [206, 457, 724, 774, 1057, 1107, 1440, 1758, 2108, 2258, 2459, 2508, 2825, 2875, 2892, 2925, 3125, 3326, 3476, 3693, 3760, 9282]}, "edge": {"target": [], "time": []}}}, "displayed_time": "9.66", "trialTime": 10278, "trial_type": "mouselab-mdp", "trial_index": 89, "time_elapsed": 1008275, "internal_node_id": "0.0-4.0-5.0-12.0"}}, {"uniqueid": "w24219690:a40779595", "current_trial": 90, "dateTime": 1664555889535, "trialdata": {"revealed_states": [], "num_clicks_accrued": [0, 0, 0, 0, 0, 0, 0, 0, 0, 0, 0, 0, 0], "stateRewards": ["", -4, 8, -48, -48, -2, -8, -24, -48, 2, -4, -48, 24], "withholdReward": true, "trial_id": "mdp_743906784415", "block": "test3", "trialIndex": 77, "score": 25.5, "costs": -1.5, "simulationMode": [null, null, null], "rewards": [2, -4, 24], "path": ["0", "0", "9", "10", "12"], "rt": [3945, 132, 131], "actions": ["left", "left", "down"], "actionTimes": [4347, 4976, 5609], "queries": {"click": {"state": {"target": ["3", "4", "11", "12", "8", "7"], "time": [1121, 1523, 2151, 2511, 3017, 3599]}, "edge": {"target": [], "time": []}}, "mouseover": {"state": {"target": ["1", "2", "3", "3", "3", "4", "11", "11", "10", "12", "8", "6", "7"], "time": [538, 588, 772, 937, 1072, 1439, 1806, 2056, 2323, 2423, 2941, 3225, 3525]}, "edge": {"target": [], "time": []}}, "mouseout": {"state": {"target": ["1", "1", "2", "3", "3", "3", "4", "11", "11", "10", "12", "8", "6", "7", "0"], "time": [271, 556, 755, 836, 1006, 1289, 1656, 1839, 2290, 2374, 2691, 3191, 3275, 3758, 11000]}, "edge": {"target": [], "time": []}}}, "displayed_time": "9.40", "trialTime": 13621, "trial_type": "mouselab-mdp", "trial_index": 90, "time_elapsed": 1021980, "internal_node_id": "0.0-4.0-5.0-13.0"}}, {"uniqueid": "w24219690:a40779595", "current_trial": 91, "dateTime": 1664555901074, "trialdata": {"revealed_states": [], "num_clicks_accrued": [0, 0, 0, 0, 0, 0, 0, 0, 0, 0, 0, 0, 0], "stateRewards": ["", -4, -8, 24, 48, 2, -4, -24, 24, -4, 8, 48, 48], "withholdReward": true, "trial_id": "mdp_496672670022", "block": "test3", "trialIndex": 78, "score": 40.75, "costs": -0.25, "simulationMode": [null, null, null], "rewards": [-4, -8, 48], "path": ["0", "0", "1", "2", "4"], "rt": [1348, 62, 130], "actions": ["up", "up", "left"], "actionTimes": [2115, 2678, 3296], "queries": {"click": {"state": {"target": ["4"], "time": [1221]}, "edge": {"target": [], "time": []}}, "mouseover": {"state": {"target": ["1", "2", "4", "2", "3"], "time": [947, 997, 1114, 1381, 1464]}, "edge": {"target": [], "time": []}}, "mouseout": {"state": {"target": ["0", "1", "2", "4", "2", "3"], "time": [847, 980, 1047, 1347, 1431, 11058]}, "edge": {"target": [], "time": []}}}, "displayed_time": "9.77", "trialTime": 11486, "trial_type": "mouselab-mdp", "trial_index": 91, "time_elapsed": 1033519, "internal_node_id": "0.0-4.0-5.0-14.0"}}, {"uniqueid": "w24219690:a40779595", "current_trial": 92, "dateTime": 1664555916638, "trialdata": {"rev