{"condition": 1, "counterbalance": 0, "assignmentId": "a19447346", "workerId": "w79717929", "hitId": "h32113416", "currenttrial": 29, "bonus": 0, "data": [{"uniqueid": "w79717929:a19447346", "current_trial": 0, "dateTime": 1664463914427, "trialdata": {"success": true, "trial_type": "fullscreen", "trial_index": 0, "time_elapsed": 8249, "internal_node_id": "0.0-0.0"}}, {"uniqueid": "w79717929:a19447346", "current_trial": 1, "dateTime": 1664463932277, "trialdata": {"view_history": [{"page_index": 0, "viewing_time": 17838}], "rt": 17840, "trial_id": "exp_instructions_no_distractor", "trial_type": "instructions", "trial_index": 1, "time_elapsed": 26099, "internal_node_id": "0.0-1.0"}}, {"uniqueid": "w79717929:a19447346", "current_trial": 2, "dateTime": 1664463936948, "trialdata": {"success": true, "trial_type": "fullscreen", "trial_index": 2, "time_elapsed": 30770, "internal_node_id": "0.0-2.0-0.0"}}, {"uniqueid": "w79717929:a19447346", "current_trial": 3, "dateTime": 1664464028595, "trialdata": {"view_history": [{"page_index": 0, "viewing_time": 32021}, {"page_index": 1, "viewing_time": 24998}, {"page_index": 2, "viewing_time": 8912}, {"page_index": 3, "viewing_time": 11611}, {"page_index": 4, "viewing_time": 14101}], "rt": 91643, "trial_id": "mouselab_instructions_1", "trial_type": "instructions", "trial_index": 3, "time_elapsed": 122417, "internal_node_id": "0.0-2.0-1.0"}}, {"uniqueid": "w79717929:a19447346", "current_trial": 4, "dateTime": 1664464051330, "trialdata": {"revealed_states": [], "num_clicks_accrued": [0, 0, 0, 0, 0, 0, 0, 0, 0, 0, 0, 0, 0], "stateRewards": ["", -10, 10, -10, -10, 10, 10, -10, 10, 10, 10, -10, 10], "withholdReward": false, "trial_id": "practice_1", "block": "test", "trialIndex": 0, "score": 31.25, "costs": -0.75, "simulationMode": [null, null, null], "rewards": [10, 10, 10], "path": ["0", "0", "5", "6", "8"], "rt": [15450, 545, 445], "actions": ["right", "right", "down"], "actionTimes": [17363, 18425, 19362], "queries": {"click": {"state": {"target": ["5", "6", "7"], "time": [5734, 8353, 9766]}, "edge": {"target": [], "time": []}}, "mouseover": {"state": {"target": ["5", "6", "7", "0"], "time": [5287, 7783, 9381, 11796]}, "edge": {"target": [], "time": []}}, "mouseout": {"state": {"target": ["0", "5", "6", "7", "6", "5", "0", "5", "6"], "time": [1650, 7588, 9261, 11030, 11729, 11762, 14549, 15750, 15982]}, "edge": {"target": [], "time": []}}}, "displayed_time": "19.87", "trialTime": 22438, "trial_type": "mouselab-mdp", "trial_index": 4, "time_elapsed": 145150, "internal_node_id": "0.0-2.0-2.0-0.0"}}, {"uniqueid": "w79717929:a19447346", "current_trial": 5, "dateTime": 1664464063480, "trialdata": {"revealed_states": [], "num_clicks_accrued": [0, 0, 0, 0, 0, 0, 0, 0, 0, 0, 0, 0, 0], "stateRewards": ["", 10, 10, 10, -10, 10, -10, 10, -10, 10, -10, -10, -10], "withholdReward": false, "trial_id": "practice_2", "block": "test", "trialIndex": 1, "score": 31.25, "costs": -0.75, "simulationMode": [null, null, null], "rewards": [10, 10, 10], "path": ["0", "0", "1", "2", "3"], "rt": [6657, 222, 607], "actions": ["up", "up", "right"], "actionTimes": [8441, 9169, 10274], "queries": {"click": {"state": {"target": ["1", "2", "3"], "time": [3219, 4739, 5824]}, "edge": {"target": [], "time": []}}, "mouseover": {"state": {"target": ["1", "2", "3"], "time": [2948, 4399, 5596]}, "edge": {"target": [], "time": []}}, "mouseout": {"state": {"target": ["5", "0", "1", "2", "3"], "time": [1331, 2732, 4282, 5547, 7246]}, "edge": {"target": [], "time": []}}}, "displayed_time": "10.78", "trialTime": 12056, "trial_type": "mouselab-mdp", "trial_index": 5, "time_elapsed": 157302, "internal_node_id": "0.0-2.0-2.0-1.0"}}, {"uniqueid": "w79717929:a19447346", "current_trial": 6, "dateTime": 1664464114629, "trialdata": {"view_history": [{"page_index": 0, "viewing_time": 28017}, {"page_index": 1, "viewing_time": 14550}, {"page_index": 2, "viewing_time": 8572}], "rt": 51140, "trial_id": "mouselab_instructions_2_scarce", "trial_type": "instructions", "trial_index": 6, "time_elapsed": 208450, "internal_node_id": "0.0-2.0-3.0"}}, {"uniqueid": "w79717929:a19447346", "current_trial": 7, "dateTime": 1664464161577, "trialdata": {"rt": 46932, "response": {"Q0": "$-48 to $48", "Q1": "The cost is always $0.25.", "Q2": "The better I perform the higher my bonus will be.", "Q3": "No, the structure of the web will be different each time.", "Q4": "The values of the nodes walked through from start to finish.", "Q5": "Yes."}, "question_order": [0, 1, 2, 3, 4, 5], "correct": {"Q0": "$-48 to $48", "Q1": "The cost is always $0.25.", "Q2": "The better I perform the higher my bonus will be.", "Q3": "No, the amount of cash at each node of the web may be different each time.", "Q4": "The values of the nodes walked through from start to finish.", "Q5": "No, the spider might forget to count the money on some rounds."}, "trial_id": "mouselab_quiz_scarce", "trial_type": "survey-multi-choice", "trial_index": 7, "time_elapsed": 255399, "internal_node_id": "0.0-2.0-4.0"}}, {"uniqueid": "w79717929:a19447346", "current_trial": 8, "dateTime": 1664464169591, "trialdata": {"success": true, "trial_type": "fullscreen", "trial_index": 8, "time_elapsed": 263413, "internal_node_id": "0.0-2.1-0.1"}}, {"uniqueid": "w79717929:a19447346", "current_trial": 9, "dateTime": 1664464229504, "trialdata": {"view_history": [{"page_index": 0, "viewing_time": 27656}, {"page_index": 1, "viewing_time": 14895}, {"page_index": 2, "viewing_time": 7095}, {"page_index": 3, "viewing_time": 5272}, {"page_index": 4, "viewing_time": 4989}], "rt": 59907, "trial_id": "mouselab_instructions_1", "trial_type": "instructions", "trial_index": 9, "time_elapsed": 323326, "internal_node_id": "0.0-2.1-1.1"}}, {"uniqueid": "w79717929:a19447346", "current_trial": 10, "dateTime": 1664464238990, "trialdata": {"revealed_states": [], "num_clicks_accrued": [0, 0, 0, 0, 0, 0, 0, 0, 0, 0, 0, 0, 0], "stateRewards": ["", -10, 10, -10, -10, 10, 10, -10, 10, 10, 10, -10, 10], "withholdReward": false, "trial_id": "practice_1", "block": "test", "trialIndex": 2, "score": 31.25, "costs": -0.75, "simulationMode": [null, null, null], "rewards": [10, 10, 10], "path": ["0", "0", "5", "6", "8"], "rt": [4853, 223, 100], "actions": ["right", "right", "down"], "actionTimes": [6168, 6895, 7504], "queries": {"click": {"state": {"target": ["5", "6", "8"], "time": [2204, 3446, 4311]}, "edge": {"target": [], "time": []}}, "mouseover": {"state": {"target": ["5", "6", "8", "0"], "time": [1890, 2804, 3955, 5139]}, "edge": {"target": [], "time": []}}, "mouseout": {"state": {"target": ["5", "6", "8"], "time": [2657, 3887, 5091]}, "edge": {"target": [], "time": []}}}, "displayed_time": "8.02", "trialTime": 9415, "trial_type": "mouselab-mdp", "trial_index": 10, "time_elapsed": 332812, "internal_node_id": "0.0-2.1-2.1-0.1"}}, {"uniqueid": "w79717929:a19447346", "current_trial": 11, "dateTime": 1664464253580, "trialdata": {"revealed_states": [], "num_clicks_accrued": [0, 0, 0, 0, 0, 0, 0, 0, 0, 0, 0, 0, 0], "stateRewards": ["", 10, 10, 10, -10, 10, -10, 10, -10, 10, -10, -10, -10], "withholdReward": false, "trial_id": "practice_2", "block": "test", "trialIndex": 3, "score": 30.75, "costs": -1.25, "simulationMode": [null, null, null], "rewards": [10, 10, 10], "path": ["0", "0", "1", "2", "3"], "rt": [9237, 179, 530], "actions": ["up", "up", "right"], "actionTimes": [10904, 11586, 12635], "queries": {"click": {"state": {"target": ["9", "10", "1", "2", "3"], "time": [4327, 5163, 7871, 9098, 9858]}, "edge": {"target": [], "time": []}}, "mouseover": {"state": {"target": ["9", "10", "11", "1", "2", "3"], "time": [3906, 5021, 6927, 7560, 8804, 9654]}, "edge": {"target": [], "time": []}}, "mouseout": {"state": {"target": ["0", "9", "10", "11", "1", "2", "3"], "time": [3888, 4875, 6742, 7058, 8771, 9592, 13859]}, "edge": {"target": [], "time": []}}}, "displayed_time": "13.12", "trialTime": 14541, "trial_type": "mouselab-mdp", "trial_index": 11, "time_elapsed": 347402, "internal_node_id": "0.0-2.1-2.1-1.1"}}, {"uniqueid": "w79717929:a19447346", "current_trial": 12, "dateTime": 1664464279711, "trialdata": {"view_history": [{"page_index": 0, "viewing_time": 17344}, {"page_index": 1, "viewing_time": 6649}, {"page_index": 2, "viewing_time": 2134}], "rt": 26129, "trial_id": "mouselab_instructions_2_scarce", "trial_type": "instructions", "trial_index": 12, "time_elapsed": 373533, "internal_node_id": "0.0-2.1-3.1"}}, {"uniqueid": "w79717929:a19447346", "current_trial": 13, "dateTime": 1664464353014, "trialdata": {"rt": 73293, "response": {"Q0": "$-48 to $48", "Q1": "The cost is always $0.25.", "Q2": "The better I perform the higher my bonus will be.", "Q3": "No, the structure of the web will be different each time.", "Q4": "The values of the nodes walked through from start to finish.", "Q5": "No, the spider might forget to count the money on some rounds."}, "question_order": [0, 1, 2, 3, 4, 5], "correct": {"Q0": "$-48 to $48", "Q1": "The cost is always $0.25.", "Q2": "The better I perform the higher my bonus will be.", "Q3": "No, the amount of cash at each node of the web may be different each time.", "Q4": "The values of the nodes walked through from start to finish.", "Q5": "No, the spider might forget to count the money on some rounds."}, "trial_id": "mouselab_quiz_scarce", "trial_type": "survey-multi-choice", "trial_index": 13, "time_elapsed": 446836, "internal_node_id": "0.0-2.1-4.1"}}, {"uniqueid": "w79717929:a19447346", "current_trial": 14, "dateTime": 1664464378295, "trialdata": {"success": true, "trial_type": "fullscreen", "trial_index": 14, "time_elapsed": 472117, "internal_node_id": "0.0-2.2-0.2"}}, {"uniqueid": "w79717929:a19447346", "current_trial": 15, "dateTime": 1664464407775, "trialdata": {"view_history": [{"page_index": 0, "viewing_time": 22908}, {"page_index": 1, "viewing_time": 2387}, {"page_index": 2, "viewing_time": 1301}, {"page_index": 3, "viewing_time": 1485}, {"page_index": 4, "viewing_time": 1393}], "rt": 29474, "trial_id": "mouselab_instructions_1", "trial_type": "instructions", "trial_index": 15, "time_elapsed": 501597, "internal_node_id": "0.0-2.2-1.2"}}, {"uniqueid": "w79717929:a19447346", "current_trial": 16, "dateTime": 1664464415125, "trialdata": {"revealed_states": [], "num_clicks_accrued": [0, 0, 0, 0, 0, 0, 0, 0, 0, 0, 0, 0, 0], "stateRewards": ["", -10, 10, -10, -10, 10, 10, -10, 10, 10, 10, -10, 10], "withholdReward": false, "trial_id": "practice_1", "block": "test", "trialIndex": 4, "score": 32, "costs": 0, "simulationMode": [null, null, null], "rewards": [10, 10, 10], "path": ["0", "0", "5", "6", "8"], "rt": [1788, 111, 750], "actions": ["right", "right", "down"], "actionTimes": [2786, 3385, 4641], "queries": {"click": {"state": {"target": [], "time": []}, "edge": {"target": [], "time": []}}, "mouseover": {"state": {"target": ["5"], "time": [1609]}, "edge": {"target": [], "time": []}}, "mouseout": {"state": {"target": ["0"], "time": [1543]}, "edge": {"target": [], "time": []}}}, "displayed_time": "5.14", "trialTime": 7257, "trial_type": "mouselab-mdp", "trial_index": 16, "time_elapsed": 508946, "internal_node_id": "0.0-2.2-2.2-0.2"}}, {"uniqueid": "w79717929:a19447346", "current_trial": 17, "dateTime": 1664464423026, "trialdata": {"revealed_states": [], "num_clicks_accrued": [0, 0, 0, 0, 0, 0, 0, 0, 0, 0, 0, 0, 0], "stateRewards": ["", 10, 10, 10, -10, 10, -10, 10, -10, 10, -10, -10, -10], "withholdReward": false, "trial_id": "practice_2", "block": "test", "trialIndex": 5, "score": 32, "costs": 0, "simulationMode": [null, null, null], "rewards": [10, 10, 10], "path": ["0", "0", "1", "2", "3"], "rt": [1822, 723, 344], "actions": ["up", "up", "right"], "actionTimes": [3891, 5111, 5949], "queries": {"click": {"state": {"target": [], "time": []}, "edge": {"target": [], "time": []}}, "mouseover": {"state": {"target": [], "time": []}, "edge": {"target": [], "time": []}}, "mouseout": {"state": {"target": ["5"], "time": [1388]}, "edge": {"target": [], "time": []}}}, "displayed_time": "6.46", "trialTime": 7823, "trial_type": "mouselab-mdp", "trial_index": 17, "time_elapsed": 516848, "internal_node_id": "0.0-2.2-2.2-1.2"}}, {"uniqueid": "w79717929:a19447346", "current_trial": 18, "dateTime": 1664464509591, "trialdata": {"view_history": [{"page_index": 0, "viewing_time": 49708}, {"page_index": 1, "viewing_time": 10144}, {"page_index": 0, "viewing_time": 2085}, {"page_index": 1, "viewing_time": 10338}, {"page_index": 0, "viewing_time": 5456}, {"page_index": 1, "viewing_time": 7254}, {"page_index": 2, "viewing_time": 1574}], "rt": 86560, "trial_id": "mouselab_instructions_2_scarce", "trial_type": "instructions", "trial_index": 18, "time_elapsed": 603413, "internal_node_id": "0.0-2.2-3.2"}}, {"uniqueid": "w79717929:a19447346", "current_trial": 19, "dateTime": 1664464561364, "trialdata": {"rt": 51768, "response": {"Q0": "$-48 to $48", "Q1": "The cost is always $0.25.", "Q2": "The better I perform the higher my bonus will be.", "Q3": "No, the structure of the web will be different each time.", "Q4": "The score for a round is random.", "Q5": "No, the spider might forget to count the money on some rounds."}, "question_order": [0, 1, 2, 3, 4, 5], "correct": {"Q0": "$-48 to $48", "Q1": "The cost is always $0.25.", "Q2": "The better I perform the higher my bonus will be.", "Q3": "No, the amount of cash at each node of the web may be different each time.", "Q4": "The values of the nodes walked through from start to finish.", "Q5": "No, the spider might forget to count the money on some rounds."}, "trial_id": "mouselab_quiz_scarce", "trial_type": "survey-multi-choice", "trial_index": 19, "time_elapsed": 655186, "internal_node_id": "0.0-2.2-4.2"}}, {"uniqueid": "w79717929:a19447346", "current_trial": 20, "dateTime": 1664464605757, "trialdata": {"success": true, "trial_type": "fullscreen", "trial_index": 20, "time_elapsed": 699578, "internal_node_id": "0.0-2.3-0.3"}}, {"uniqueid": "w79717929:a19447346", "current_trial": 21, "dateTime": 1664464686389, "trialdata": {"view_history": [{"page_index": 0, "viewing_time": 1442}, {"page_index": 1, "viewing_time": 6495}, {"page_index": 2, "viewing_time": 48854}, {"page_index": 3, "viewing_time": 5121}, {"page_index": 2, "viewing_time": 15603}, {"page_index": 3, "viewing_time": 1704}, {"page_index": 4, "viewing_time": 1405}], "rt": 80626, "trial_id": "mouselab_instructions_1", "trial_type": "instructions", "trial_index": 21, "time_elapsed": 780211, "internal_node_id": "0.0-2.3-1.3"}}, {"uniqueid": "w79717929:a19447346", "current_trial": 22, "dateTime": 1664464695453, "trialdata": {"revealed_states": [], "num_clicks_accrued": [0, 0, 0, 0, 0, 0, 0, 0, 0, 0, 0, 0, 0], "stateRewards": ["", -10, 10, -10, -10, 10, 10, -10, 10, 10, 10, -10, 10], "withholdReward": false, "trial_id": "practice_1", "block": "test", "trialIndex": 6, "score": 22, "costs": 0, "simulationMode": [null, null, null, null, null, null, null], "rewards": [10, 10, 10, -10], "path": ["0", "0", "5", "5", "6", "7"], "rt": [3542, 586, 619, 119, 682, 175, 198], "actions": ["right", "right", "right", "right", "right", "right", "up"], "actionTimes": [586, 588, 1213, 1215, 1902, 1905, 2613], "queries": {"click": {"state": {"target": [], "time": []}, "edge": {"target": [], "time": []}}, "mouseover": {"state": {"target": ["5"], "time": [null]}, "edge": {"target": [], "time": []}}, "mouseout": {"state": {"target": ["0"], "time": [null]}, "edge": {"target": [], "time": []}}}, "displayed_time": "3.13", "trialTime": 4839, "trial_type": "mouselab-mdp", "trial_index": 22, "time_elapsed": 789275, "internal_node_id": "0.0-2.3-2.3-0.3"}}, {"uniqueid": "w79717929:a19447346", "current_trial": 23, "dateTime": 1664464703943, "trialdata": {"revealed_states": [], "num_clicks_accrued": [0, 0, 0, 0, 0, 0, 0, 0, 0, 0, 0, 0, 0], "stateRewards": ["", 10, 10, 10, -10, 10, -10, 10, -10, 10, -10, -10, -10], "withholdReward": false, "trial_id": "practice_2", "block": "test", "trialIndex": 7, "score": 32, "costs": 0, "simulationMode": [null, null, null], "rewards": [10, 10, 10], "path": ["0", "0", "1", "2", "3"], "rt": [2458, 308, 95], "actions": ["up", "up", "right"], "actionTimes": [5870, 6700, 7308], "queries": {"click": {"state": {"target": [], "time": []}, "edge": {"target": [], "time": []}}, "mouseover": {"state": {"target": [], "time": []}, "edge": {"target": [], "time": []}}, "mouseout": {"state": {"target": ["5"], "time": [2958]}, "edge": {"target": [], "time": []}}}, "displayed_time": "7.82", "trialTime": 8392, "trial_type": "mouselab-mdp", "trial_index": 23, "time_elapsed": 797764, "internal_node_id": "0.0-2.3-2.3-1.3"}}, {"uniqueid": "w79717929:a19447346", "current_trial": 24, "dateTime": 1664464750247, "trialdata": {"view_history": [{"page_index": 0, "viewing_time": 37464}, {"page_index": 1, "viewing_time": 6804}, {"page_index": 2, "viewing_time": 2027}], "rt": 46297, "trial_id": "mouselab_instructions_2_scarce", "trial_type": "instructions", "trial_index": 24, "time_elapsed": 844068, "internal_node_id": "0.0-2.3-3.3"}}, {"uniqueid": "w79717929:a19447346", "current_trial": 25, "dateTime": 1664464803961, "trialdata": {"rt": 53704, "response": {"Q0": "$-48 to $48", "Q1": "The cost is always $0.25.", "Q2": "The better I perform the higher my bonus will be.", "Q3": "No, the structure of the web will be different each time.", "Q4": "The score for a round is random.", "Q5": "No, the spider might forget to count the money on some rounds."}, "question_order": [0, 1, 2, 3, 4, 5], "correct": {"Q0": "$-48 to $48", "Q1": "The cost is always $0.25.", "Q2": "The better I perform the higher my bonus will be.", "Q3": "No, the amount of cash at each node of the web may be different each time.", "Q4": "The values of the nodes walked through from start to finish.", "Q5": "No, the spider might forget to count the money on some rounds."}, "trial_id": "mouselab_quiz_scarce", "trial_type": "survey-multi-choice", "trial_index": 25, "time_elapsed": 897782, "internal_node_id": "0.0-2.3-4.3"}}, {"uniqueid": "w79717929:a19447346", "current_trial": 26, "dateTime": 1664464847788, "trialdata": {"rt": 43783, "response": {"Q0": "no", "Q1": "27", "Q2": "female", "Q3": "no", "Q4": "no"}, "trial_id": "finish_fail_nodistractor", "trial_type": "survey-text", "trial_index": 26, "time_elapsed": 941610, "internal_node_id": "0.0-3.0-0.0"}}, {"uniqueid": "w79717929:a19447346", "current_trial": 27, "dateTime": 1664464861555, "trialdata": {"rt": 13753, "stimulus": "Press 'Finish HIT' in order to reach the completion code. Once the data has been saved, you will receive the code either in this window or in the original browser window where you started the experiment.\n", "response": 0, "trial_type": "html-button-response", "trial_index": 27, "time_elapsed": 955377, "internal_node_id": "0.0-6.0"}}, {"uniqueid": "w79717929:a19447346", "current_trial": 28, "dateTime": 1664464862563, "trialdata": {"success": true, "trial_type": "fullscreen", "trial_index": 28, "time_elapsed": 956385, "internal_node_id": "0.0-7.0"}}], "questiondata": {"params": {"CODE": "C6DMOQA6", "MIN_TIME": 7, "inspectCost": 0.25, "startTime": "Thu Sep 29 2022 17:05:05 GMT+0200 (k\u00f6z\u00e9p-eur\u00f3pai ny\u00e1ri id\u0151)", "bonusRate": 0.002, "variance": "2_4_24", "branching": "312"}, "final_score": 0}, "eventdata": [{"eventtype": "initialized", "value": null, "timestamp": 1664463905214, "interval": 0}, {"eventtype": "window_resize", "value": [1024, 767], "timestamp": 1664463905214, "interval": 0}, {"eventtype": "window_resize", "value": [1024, 767], "timestamp": 1664463905568, "interval": 354}, {"eventtype": "window_resize", "value": [1600, 900], "timestamp": 1664463913645, "interval": 8077}, {"eventtype": "focus", "value": "off", "timestamp": 1664464165487, "interval": 251842}, {"eventtype": "focus", "value": "on", "timestamp": 1664464165489, "interval": 2}, {"eventtype": "window_resize", "value": [1024, 767], "timestamp": 1664464165709, "interval": 220}, {"eventtype": "window_resize", "value": [1600, 900], "timestamp": 1664464168857, "interval": 3148}, {"eventtype": "focus", "value": "off", "timestamp": 1664464375766, "interval": 206909}, {"eventtype": "focus", "value": "on", "timestamp": 1664464375767, "interval": 1}, {"eventtype": "window_resize", "value": [1024, 767], "timestamp": 1664464375995, "interval": 228}, {"eventtype": "window_resize", "value": [1600, 900], "timestamp": 1664464377562, "interval": 1567}, {"eventtype": "focus", "value": "off", "timestamp": 1664464603323, "interval": 225761}, {"eventtype": "focus", "value": "on", "timestamp": 1664464603324, "interval": 1}, {"eventtype": "window_resize", "value": [1024, 767], "timestamp": 1664464603546, "interval": 222}, {"eventtype": "window_resize", "value": [1600, 900], "timestamp": 1664464605010, "interval": 1464}, {"eventtype": "window_resize", "value": [1024, 767], "timestamp": 1664464861809, "interval": 256799}], "useragent": "Mozilla/5.0 (Windows NT 10.0; Win64; x64) AppleWebKit/537.36 (KHTML, like Gecko) Chrome/105.0.0.0 Safari/537.36", "mode": "live", "id": "w79717929:a19447346", "status": "user data saved", "Beginhit": "2022-09-29 15:05:04.515864", "Beginexp": "2022-09-29 15:05:15.135039", "Endhit": "2022-09-29 15:21:03.871062", "psiturkStatus": 3, "browser": "<redacted>", "platform": "windows", "language": "hu-HU"}