{"condition": 0, "counterbalance": 0, "assignmentId": "a89498118", "workerId": "w30845020", "hitId": "h66197930", "currenttrial": 959, "bonus": 0, "data": [{"uniqueid": "w30845020:a89498118", "current_trial": 0, "dateTime": 1664368667868, "trialdata": {"success": true, "trial_type": "fullscreen", "trial_index": 0, "time_elapsed": 5158, "internal_node_id": "0.0-0.0"}}, {"uniqueid": "w30845020:a89498118", "current_trial": 1, "dateTime": 1664368699892, "trialdata": {"view_history": [{"page_index": 0, "viewing_time": 32020}], "rt": 32021, "trial_id": "exp_instructions_distractor", "trial_type": "instructions", "trial_index": 1, "time_elapsed": 37183, "internal_node_id": "0.0-1.0"}}, {"uniqueid": "w30845020:a89498118", "current_trial": 2, "dateTime": 1664368732764, "trialdata": {"view_history": [{"page_index": 0, "viewing_time": 32869}], "rt": 32869, "trial_id": "color_game_instructions", "trial_type": "instructions", "trial_index": 2, "time_elapsed": 70055, "internal_node_id": "0.0-2.0"}}, {"uniqueid": "w30845020:a89498118", "current_trial": 3, "dateTime": 1664368739952, "trialdata": {"rt": 7185, "stimulus": "<h1> Get ready to start the game! </h1>\n\nThank you for reading the instructions. Get ready start with the first of 5 block(s) of this game.\n<br><br>\nIn this first block, you will complete 90 rounds of this game before moving on.\n<br><br>\nRemember, the better you perform, the bigger your bonus will be!\n<br><br>\n<div style='text-align: center;'>Press <code>space</code> to begin.</div>", "response": " ", "trial_id": "stroop_1_ready_1", "trial_type": "html-keyboard-response", "trial_index": 3, "time_elapsed": 77243, "internal_node_id": "0.0-3.0"}}, {"uniqueid": "w30845020:a89498118", "current_trial": 4, "dateTime": 1664368741976, "trialdata": {"rt": 2019, "stimulus": "<p id='stroop-text' class='stroop-red'>RED</p>", "response": "r", "stimulus-type": "congruent", "word": "red", "color": "red", "correct_response": "r", "trial_id": "stroop-trial-1-congruent-29", "trial_type": "html-keyboard-response", "trial_index": 4, "time_elapsed": 79266, "internal_node_id": "0.0-4.0-0.0"}}, {"uniqueid": "w30845020:a89498118", "current_trial": 5, "dateTime": 1664368744779, "trialdata": {"rt": 2286, "stimulus": "<p id='stroop-text' class='stroop-blue'>YELLOW</p>", "response": "b", "stimulus-type": "incongruent", "word": "yellow", "color": "blue", "correct_response": "b", "trial_id": "stroop-trial-1-incongruent-9", "trial_type": "html-keyboard-response", "trial_index": 5, "time_elapsed": 82069, "internal_node_id": "0.0-4.0-1.0"}}, {"uniqueid": "w30845020:a89498118", "current_trial": 6, "dateTime": 1664368746307, "trialdata": {"rt": 1024, "stimulus": "<p id='stroop-text' class='stroop-green'>GREEN</p>", "response": "g", "stimulus-type": "congruent", "word": "green", "color": "green", "correct_response": "g", "trial_id": "stroop-trial-1-congruent-28", "trial_type": "html-keyboard-response", "trial_index": 6, "time_elapsed": 83597, "internal_node_id": "0.0-4.0-2.0"}}, {"uniqueid": "w30845020:a89498118", "current_trial": 7, "dateTime": 1664368747885, "trialdata": {"rt": 1075, "stimulus": "<p id='stroop-text' class='stroop-blue'>BLUE</p>", "response": "b", "stimulus-type": "congruent", "word": "blue", "color": "blue", "correct_response": "b", "trial_id": "stroop-trial-1-congruent-14", "trial_type": "html-keyboard-response", "trial_index": 7, "time_elapsed": 85175, "internal_node_id": "0.0-4.0-3.0"}}, {"uniqueid": "w30845020:a89498118", "current_trial": 8, "dateTime": 1664368750011, "trialdata": {"rt": 1622, "stimulus": "<p id='stroop-text' class='stroop-yellow'>BLUE</p>", "response": "y", "stimulus-type": "incongruent", "word": "blue", "color": "yellow", "correct_response": "y", "trial_id": "stroop-trial-1-incongruent-21", "trial_type": "html-keyboard-response", "trial_index": 8, "time_elapsed": 87301, "internal_node_id": "0.0-4.0-4.0"}}, {"uniqueid": "w30845020:a89498118", "current_trial": 9, "dateTime": 1664368751264, "trialdata": {"rt": 750, "stimulus": "<p id='stroop-text' class='stroop-yellow'>YELLOW</p>", "response": "y", "stimulus-type": "congruent", "word": "yellow", "color": "yellow", "correct_response": "y", "trial_id": "stroop-trial-1-congruent-13", "trial_type": "html-keyboard-response", "trial_index": 9, "time_elapsed": 88555, "internal_node_id": "0.0-4.0-5.0"}}, {"uniqueid": "w30845020:a89498118", "current_trial": 10, "dateTime": 1664368752524, "trialdata": {"rt": 756, "stimulus": "<p id='stroop-text' class='stroop-blue'>BLUE</p>", "response": "b", "stimulus-type": "congruent", "word": "blue", "color": "blue", "correct_response": "b", "trial_id": "stroop-trial-1-congruent-18", "trial_type": "html-keyboard-response", "trial_index": 10, "time_elapsed": 89814, "internal_node_id": "0.0-4.0-6.0"}}, {"uniqueid": "w30845020:a89498118", "current_trial": 11, "dateTime": 1664368754686, "trialdata": {"rt": 1660, "stimulus": "<p id='stroop-text' class='stroop-green'>BRIDGE</p>", "response": "g", "stimulus-type": "unrelated", "word": "BRIDGE", "color": "green", "correct_response": "g", "trial_id": "stroop-trial-1-unrelated-27", "trial_type": "html-keyboard-response", "trial_index": 11, "time_elapsed": 91977, "internal_node_id": "0.0-4.0-7.0"}}, {"uniqueid": "w30845020:a89498118", "current_trial": 12, "dateTime": 1664368756772, "trialdata": {"rt": 1584, "stimulus": "<p id='stroop-text' class='stroop-red'>YELLOW</p>", "response": "r", "stimulus-type": "incongruent", "word": "yellow", "color": "red", "correct_response": "r", "trial_id": "stroop-trial-1-incongruent-18", "trial_type": "html-keyboard-response", "trial_index": 12, "time_elapsed": 94063, "internal_node_id": "0.0-4.0-8.0"}}, {"uniqueid": "w30845020:a89498118", "current_trial": 13, "dateTime": 1664368758463, "trialdata": {"rt": 1188, "stimulus": "<p id='stroop-text' class='stroop-blue'>WINDOW</p>", "response": "b", "stimulus-type": "unrelated", "word": "WINDOW", "color": "blue", "correct_response": "b", "trial_id": "stroop-trial-1-unrelated-19", "trial_type": "html-keyboard-response", "trial_index": 13, "time_elapsed": 95753, "internal_node_id": "0.0-4.0-9.0"}}, {"uniqueid": "w30845020:a89498118", "current_trial": 14, "dateTime": 1664368759705, "trialdata": {"rt": 740, "stimulus": "<p id='stroop-text' class='stroop-red'>WINDOW</p>", "response": "r", "stimulus-type": "unrelated", "word": "WINDOW", "color": "red", "correct_response": "r", "trial_id": "stroop-trial-1-unrelated-26", "trial_type": "html-keyboard-response", "trial_index": 14, "time_elapsed": 96996, "internal_node_id": "0.0-4.0-10.0"}}, {"uniqueid": "w30845020:a89498118", "current_trial": 15, "dateTime": 1664368761221, "trialdata": {"rt": 1014, "stimulus": "<p id='stroop-text' class='stroop-green'>GREEN</p>", "response": "g", "stimulus-type": "congruent", "word": "green", "color": "green", "correct_response": "g", "trial_id": "stroop-trial-1-congruent-16", "trial_type": "html-keyboard-response", "trial_index": 15, "time_elapsed": 98512, "internal_node_id": "0.0-4.0-11.0"}}, {"uniqueid": "w30845020:a89498118", "current_trial": 16, "dateTime": 1664368762804, "trialdata": {"rt": 1081, "stimulus": "<p id='stroop-text' class='stroop-blue'>DOG</p>", "response": "b", "stimulus-type": "unrelated", "word": "DOG", "color": "blue", "correct_response": "b", "trial_id": "stroop-trial-1-unrelated-16", "trial_type": "html-keyboard-response", "trial_index": 16, "time_elapsed": 100095, "internal_node_id": "0.0-4.0-12.0"}}, {"uniqueid": "w30845020:a89498118", "current_trial": 17, "dateTime": 1664368764422, "trialdata": {"rt": 1114, "stimulus": "<p id='stroop-text' class='stroop-yellow'>RED</p>", "response": "y", "stimulus-type": "incongruent", "word": "red", "color": "yellow", "correct_response": "y", "trial_id": "stroop-trial-1-incongruent-17", "trial_type": "html-keyboard-response", "trial_index": 17, "time_elapsed": 101712, "internal_node_id": "0.0-4.0-13.0"}}, {"uniqueid": "w30845020:a89498118", "current_trial": 18, "dateTime": 1664368765941, "trialdata": {"rt": 1014, "stimulus": "<p id='stroop-text' class='stroop-green'>STONE</p>", "response": "g", "stimulus-type": "unrelated", "word": "STONE", "color": "green", "correct_response": "g", "trial_id": "stroop-trial-1-unrelated-28", "trial_type": "html-keyboard-response", "trial_index": 18, "time_elapsed": 103231, "internal_node_id": "0.0-4.0-14.0"}}, {"uniqueid": "w30845020:a89498118", "current_trial": 19, "dateTime": 1664368767305, "trialdata": {"rt": 861, "stimulus": "<p id='stroop-text' class='stroop-red'>FORK</p>", "response": "r", "stimulus-type": "unrelated", "word": "FORK", "color": "red", "correct_response": "r", "trial_id": "stroop-trial-1-unrelated-30", "trial_type": "html-keyboard-response", "trial_index": 19, "time_elapsed": 104595, "internal_node_id": "0.0-4.0-15.0"}}, {"uniqueid": "w30845020:a89498118", "current_trial": 20, "dateTime": 1664368769251, "trialdata": {"rt": 1443, "stimulus": "<p id='stroop-text' class='stroop-red'>GREEN</p>", "response": "r", "stimulus-type": "incongruent", "word": "green", "color": "red", "correct_response": "r", "trial_id": "stroop-trial-1-incongruent-27", "trial_type": "html-keyboard-response", "trial_index": 20, "time_elapsed": 106542, "internal_node_id": "0.0-4.0-16.0"}}, {"uniqueid": "w30845020:a89498118", "current_trial": 21, "dateTime": 1664368770893, "trialdata": {"rt": 1139, "stimulus": "<p id='stroop-text' class='stroop-blue'>BLUE</p>", "response": "b", "stimulus-type": "congruent", "word": "blue", "color": "blue", "correct_response": "b", "trial_id": "stroop-trial-1-congruent-4", "trial_type": "html-keyboard-response", "trial_index": 21, "time_elapsed": 108184, "internal_node_id": "0.0-4.0-17.0"}}, {"uniqueid": "w30845020:a89498118", "current_trial": 22, "dateTime": 1664368772088, "trialdata": {"rt": 691, "stimulus": "<p id='stroop-text' class='stroop-blue'>BLUE</p>", "response": "b", "stimulus-type": "congruent", "word": "blue", "color": "blue", "correct_response": "b", "trial_id": "stroop-trial-1-congruent-10", "trial_type": "html-keyboard-response", "trial_index": 22, "time_elapsed": 109379, "internal_node_id": "0.0-4.0-18.0"}}, {"uniqueid": "w30845020:a89498118", "current_trial": 23, "dateTime": 1664368773462, "trialdata": {"rt": 871, "stimulus": "<p id='stroop-text' class='stroop-green'>DOG</p>", "response": "g", "stimulus-type": "unrelated", "word": "DOG", "color": "green", "correct_response": "g", "trial_id": "stroop-trial-1-unrelated-11", "trial_type": "html-keyboard-response", "trial_index": 23, "time_elapsed": 110752, "internal_node_id": "0.0-4.0-19.0"}}, {"uniqueid": "w30845020:a89498118", "current_trial": 24, "dateTime": 1664368774673, "trialdata": {"rt": 709, "stimulus": "<p id='stroop-text' class='stroop-green'>WINDOW</p>", "response": "g", "stimulus-type": "unrelated", "word": "WINDOW", "color": "green", "correct_response": "g", "trial_id": "stroop-trial-1-unrelated-8", "trial_type": "html-keyboard-response", "trial_index": 24, "time_elapsed": 111964, "internal_node_id": "0.0-4.0-20.0"}}, {"uniqueid": "w30845020:a89498118", "current_trial": 25, "dateTime": 1664368775792, "trialdata": {"rt": 616, "stimulus": "<p id='stroop-text' class='stroop-green'>GREEN</p>", "response": "g", "stimulus-type": "congruent", "word": "green", "color": "green", "correct_response": "g", "trial_id": "stroop-trial-1-congruent-24", "trial_type": "html-keyboard-response", "trial_index": 25, "time_elapsed": 113083, "internal_node_id": "0.0-4.0-21.0"}}, {"uniqueid": "w30845020:a89498118", "current_trial": 26, "dateTime": 1664368777414, "trialdata": {"rt": 1120, "stimulus": "<p id='stroop-text' class='stroop-yellow'>BLUE</p>", "response": "y", "stimulus-type": "incongruent", "word": "blue", "color": "yellow", "correct_response": "y", "trial_id": "stroop-trial-1-incongruent-11", "trial_type": "html-keyboard-response", "trial_index": 26, "time_elapsed": 114705, "internal_node_id": "0.0-4.0-22.0"}}, {"uniqueid": "w30845020:a89498118", "current_trial": 27, "dateTime": 1664368778809, "trialdata": {"rt": 892, "stimulus": "<p id='stroop-text' class='stroop-red'>BLUE</p>", "response": "r", "stimulus-type": "incongruent", "word": "blue", "color": "red", "correct_response": "r", "trial_id": "stroop-trial-1-incongruent-14", "trial_type": "html-keyboard-response", "trial_index": 27, "time_elapsed": 116100, "internal_node_id": "0.0-4.0-23.0"}}, {"uniqueid": "w30845020:a89498118", "current_trial": 28, "dateTime": 1664368780607, "trialdata": {"rt": 1295, "stimulus": "<p id='stroop-text' class='stroop-blue'>CHAIR</p>", "response": "b", "stimulus-type": "unrelated", "word": "CHAIR", "color": "blue", "correct_response": "b", "trial_id": "stroop-trial-1-unrelated-21", "trial_type": "html-keyboard-response", "trial_index": 28, "time_elapsed": 117897, "internal_node_id": "0.0-4.0-24.0"}}, {"uniqueid": "w30845020:a89498118", "current_trial": 29, "dateTime": 1664368781975, "trialdata": {"rt": 865, "stimulus": "<p id='stroop-text' class='stroop-yellow'>YELLOW</p>", "response": "y", "stimulus-type": "congruent", "word": "yellow", "color": "yellow", "correct_response": "y", "trial_id": "stroop-trial-1-congruent-1", "trial_type": "html-keyboard-response", "trial_index": 29, "time_elapsed": 119266, "internal_node_id": "0.0-4.0-25.0"}}, {"uniqueid": "w30845020:a89498118", "current_trial": 30, "dateTime": 1664368783200, "trialdata": {"rt": 722, "stimulus": "<p id='stroop-text' class='stroop-red'>BRIDGE</p>", "response": "r", "stimulus-type": "unrelated", "word": "BRIDGE", "color": "red", "correct_response": "r", "trial_id": "stroop-trial-1-unrelated-12", "trial_type": "html-keyboard-response", "trial_index": 30, "time_elapsed": 120491, "internal_node_id": "0.0-4.0-26.0"}}, {"uniqueid": "w30845020:a89498118", "current_trial": 31, "dateTime": 1664368784484, "trialdata": {"rt": 782, "stimulus": "<p id='stroop-text' class='stroop-red'>RED</p>", "response": "r", "stimulus-type": "congruent", "word": "red", "color": "red", "correct_response": "r", "trial_id": "stroop-trial-1-congruent-25", "trial_type": "html-keyboard-response", "trial_index": 31, "time_elapsed": 121775, "internal_node_id": "0.0-4.0-27.0"}}, {"uniqueid": "w30845020:a89498118", "current_trial": 32, "dateTime": 1664368786257, "trialdata": {"rt": 1270, "stimulus": "<p id='stroop-text' class='stroop-blue'>BLUE</p>", "response": "b", "stimulus-type": "congruent", "word": "blue", "color": "blue", "correct_response": "b", "trial_id": "stroop-trial-1-congruent-23", "trial_type": "html-keyboard-response", "trial_index": 32, "time_elapsed": 123547, "internal_node_id": "0.0-4.0-28.0"}}, {"uniqueid": "w30845020:a89498118", "current_trial": 33, "dateTime": 1664368787322, "trialdata": {"rt": 562, "stimulus": "<p id='stroop-text' class='stroop-blue'>BOAT</p>", "response": "b", "stimulus-type": "unrelated", "word": "BOAT", "color": "blue", "correct_response": "b", "trial_id": "stroop-trial-1-unrelated-20", "trial_type": "html-keyboard-response", "trial_index": 33, "time_elapsed": 124612, "internal_node_id": "0.0-4.0-29.0"}}, {"uniqueid": "w30845020:a89498118", "current_trial": 34, "dateTime": 1664368788592, "trialdata": {"rt": 767, "stimulus": "<p id='stroop-text' class='stroop-yellow'>RED</p>", "response": "y", "stimulus-type": "incongruent", "word": "red", "color": "yellow", "correct_response": "y", "trial_id": "stroop-trial-1-incongruent-16", "trial_type": "html-keyboard-response", "trial_index": 34, "time_elapsed": 125883, "internal_node_id": "0.0-4.0-30.0"}}, {"uniqueid": "w30845020:a89498118", "current_trial": 35, "dateTime": 1664368789642, "trialdata": {"rt": 547, "stimulus": "<p id='stroop-text' class='stroop-green'>GREEN</p>", "response": "g", "stimulus-type": "congruent", "word": "green", "color": "green", "correct_response": "g", "trial_id": "stroop-trial-1-congruent-12", "trial_type": "html-keyboard-response", "trial_index": 35, "time_elapsed": 126933, "internal_node_id": "0.0-4.0-31.0"}}, {"uniqueid": "w30845020:a89498118", "current_trial": 36, "dateTime": 1664368790741, "trialdata": {"rt": 596, "stimulus": "<p id='stroop-text' class='stroop-yellow'>YELLOW</p>", "response": "y", "stimulus-type": "congruent", "word": "yellow", "color": "yellow", "correct_response": "y", "trial_id": "stroop-trial-1-congruent-30", "trial_type": "html-keyboard-response", "trial_index": 36, "time_elapsed": 128031, "internal_node_id": "0.0-4.0-32.0"}}, {"uniqueid": "w30845020:a89498118", "current_trial": 37, "dateTime": 1664368792041, "trialdata": {"rt": 797, "stimulus": "<p id='stroop-text' class='stroop-blue'>RED</p>", "response": "b", "stimulus-type": "incongruent", "word": "red", "color": "blue", "correct_response": "b", "trial_id": "stroop-trial-1-incongruent-29", "trial_type": "html-keyboard-response", "trial_index": 37, "time_elapsed": 129331, "internal_node_id": "0.0-4.0-33.0"}}, {"uniqueid": "w30845020:a89498118", "current_trial": 38, "dateTime": 1664368793166, "trialdata": {"rt": 622, "stimulus": "<p id='stroop-text' class='stroop-blue'>BOTTLE</p>", "response": "b", "stimulus-type": "unrelated", "word": "BOTTLE", "color": "blue", "correct_response": "b", "trial_id": "stroop-trial-1-unrelated-24", "trial_type": "html-keyboard-response", "trial_index": 38, "time_elapsed": 130456, "internal_node_id": "0.0-4.0-34.0"}}, {"uniqueid": "w30845020:a89498118", "current_trial": 39, "dateTime": 1664368794541, "trialdata": {"rt": 862, "stimulus": "<p id='stroop-text' class='stroop-yellow'>BLUE</p>", "response": "y", "stimulus-type": "incongruent", "word": "blue", "color": "yellow", "correct_response": "y", "trial_id": "stroop-trial-1-incongruent-6", "trial_type": "html-keyboard-response", "trial_index": 39, "time_elapsed": 131831, "internal_node_id": "0.0-4.0-35.0"}}, {"uniqueid": "w30845020:a89498118", "current_trial": 40, "dateTime": 1664368795934, "trialdata": {"rt": 890, "stimulus": "<p id='stroop-text' class='stroop-green'>SHIP</p>", "response": "g", "stimulus-type": "unrelated", "word": "SHIP", "color": "green", "correct_response": "g", "trial_id": "stroop-trial-1-unrelated-18", "trial_type": "html-keyboard-response", "trial_index": 40, "time_elapsed": 133225, "internal_node_id": "0.0-4.0-36.0"}}, {"uniqueid": "w30845020:a89498118", "current_trial": 41, "dateTime": 1664368797177, "trialdata": {"rt": 740, "stimulus": "<p id='stroop-text' class='stroop-blue'>GREEN</p>", "response": "r", "stimulus-type": "incongruent", "word": "green", "color": "blue", "correct_response": "b", "trial_id": "stroop-trial-1-incongruent-23", "trial_type": "html-keyboard-response", "trial_index": 41, "time_elapsed": 134468, "internal_node_id": "0.0-4.0-37.0"}}, {"uniqueid": "w30845020:a89498118", "current_trial": 42, "dateTime": 1664368799338, "trialdata": {"rt": 1657, "stimulus": "<p id='stroop-text' class='stroop-blue'>MONKEY</p>", "response": "b", "stimulus-type": "unrelated", "word": "MONKEY", "color": "blue", "correct_response": "b", "trial_id": "stroop-trial-1-unrelated-23", "trial_type": "html-keyboard-response", "trial_index": 42, "time_elapsed": 136629, "internal_node_id": "0.0-4.0-38.0"}}, {"uniqueid": "w30845020:a89498118", "current_trial": 43, "dateTime": 1664368800911, "trialdata": {"rt": 1070, "stimulus": "<p id='stroop-text' class='stroop-red'>YELLOW</p>", "response": "r", "stimulus-type": "incongruent", "word": "yellow", "color": "red", "correct_response": "r", "trial_id": "stroop-trial-1-incongruent-1", "trial_type": "html-keyboard-response", "trial_index": 43, "time_elapsed": 138201, "internal_node_id": "0.0-4.0-39.0"}}, {"uniqueid": "w30845020:a89498118", "current_trial": 44, "dateTime": 1664368801957, "trialdata": {"rt": 543, "stimulus": "<p id='stroop-text' class='stroop-red'>BLUE</p>", "response": "r", "stimulus-type": "incongruent", "word": "blue", "color": "red", "correct_response": "r", "trial_id": "stroop-trial-1-incongruent-10", "trial_type": "html-keyboard-response", "trial_index": 44, "time_elapsed": 139247, "internal_node_id": "0.0-4.0-40.0"}}, {"uniqueid": "w30845020:a89498118", "current_trial": 45, "dateTime": 1664368803336, "trialdata": {"rt": 875, "stimulus": "<p id='stroop-text' class='stroop-blue'>WINDOW</p>", "response": "b", "stimulus-type": "unrelated", "word": "WINDOW", "color": "blue", "correct_response": "b", "trial_id": "stroop-trial-1-unrelated-15", "trial_type": "html-keyboard-response", "trial_index": 45, "time_elapsed": 140626, "internal_node_id": "0.0-4.0-41.0"}}, {"uniqueid": "w30845020:a89498118", "current_trial": 46, "dateTime": 1664368804380, "trialdata": {"rt": 542, "stimulus": "<p id='stroop-text' class='stroop-red'>BOAT</p>", "response": "r", "stimulus-type": "unrelated", "word": "BOAT", "color": "red", "correct_response": "r", "trial_id": "stroop-trial-1-unrelated-7", "trial_type": "html-keyboard-response", "trial_index": 46, "time_elapsed": 141671, "internal_node_id": "0.0-4.0-42.0"}}, {"uniqueid": "w30845020:a89498118", "current_trial": 47, "dateTime": 1664368805567, "trialdata": {"rt": 684, "stimulus": "<p id='stroop-text' class='stroop-yellow'>YELLOW</p>", "response": "y", "stimulus-type": "congruent", "word": "yellow", "color": "yellow", "correct_response": "y", "trial_id": "stroop-trial-1-congruent-17", "trial_type": "html-keyboard-response", "trial_index": 47, "time_elapsed": 142857, "internal_node_id": "0.0-4.0-43.0"}}, {"uniqueid": "w30845020:a89498118", "current_trial": 48, "dateTime": 1664368806563, "trialdata": {"rt": 493, "stimulus": "<p id='stroop-text' class='stroop-yellow'>YELLOW</p>", "response": "y", "stimulus-type": "congruent", "word": "yellow", "color": "yellow", "correct_response": "y", "trial_id": "stroop-trial-1-congruent-2", "trial_type": "html-keyboard-response", "trial_index": 48, "time_elapsed": 143853, "internal_node_id": "0.0-4.0-44.0"}}, {"uniqueid": "w30845020:a89498118", "current_trial": 49, "dateTime": 1664368807720, "trialdata": {"rt": 654, "stimulus": "<p id='stroop-text' class='stroop-green'>BLUE</p>", "response": "g", "stimulus-type": "incongruent", "word": "blue", "color": "green", "correct_response": "g", "trial_id": "stroop-trial-1-incongruent-24", "trial_type": "html-keyboard-response", "trial_index": 49, "time_elapsed": 145011, "internal_node_id": "0.0-4.0-45.0"}}, {"uniqueid": "w30845020:a89498118", "current_trial": 50, "dateTime": 1664368808706, "trialdata": {"rt": 483, "stimulus": "<p id='stroop-text' class='stroop-green'>BRAIN</p>", "response": "g", "stimulus-type": "unrelated", "word": "BRAIN", "color": "green", "correct_response": "g", "trial_id": "stroop-trial-1-unrelated-6", "trial_type": "html-keyboard-response", "trial_index": 50, "time_elapsed": 145997, "internal_node_id": "0.0-4.0-46.0"}}, {"uniqueid": "w30845020:a89498118", "current_trial": 51, "dateTime": 1664368810021, "trialdata": {"rt": 811, "stimulus": "<p id='stroop-text' class='stroop-yellow'>SHIP</p>", "response": "y", "stimulus-type": "unrelated", "word": "SHIP", "color": "yellow", "correct_response": "y", "trial_id": "stroop-trial-1-unrelated-9", "trial_type": "html-keyboard-response", "trial_index": 51, "time_elapsed": 147312, "internal_node_id": "0.0-4.0-47.0"}}, {"uniqueid": "w30845020:a89498118", "current_trial": 52, "dateTime": 1664368811196, "trialdata": {"rt": 671, "stimulus": "<p id='stroop-text' class='stroop-green'>CHAIR</p>", "response": "g", "stimulus-type": "unrelated", "word": "CHAIR", "color": "green", "correct_response": "g", "trial_id": "stroop-trial-1-unrelated-29", "trial_type": "html-keyboard-response", "trial_index": 52, "time_elapsed": 148486, "internal_node_id": "0.0-4.0-48.0"}}, {"uniqueid": "w30845020:a89498118", "current_trial": 53, "dateTime": 1664368812788, "trialdata": {"rt": 1089, "stimulus": "<p id='stroop-text' class='stroop-green'>RED</p>", "response": "g", "stimulus-type": "incongruent", "word": "red", "color": "green", "correct_response": "g", "trial_id": "stroop-trial-1-incongruent-26", "trial_type": "html-keyboard-response", "trial_index": 53, "time_elapsed": 150079, "internal_node_id": "0.0-4.0-49.0"}}, {"uniqueid": "w30845020:a89498118", "current_trial": 54, "dateTime": 1664368814177, "trialdata": {"rt": 886, "stimulus": "<p id='stroop-text' class='stroop-blue'>BLUE</p>", "response": "b", "stimulus-type": "congruent", "word": "blue", "color": "blue", "correct_response": "b", "trial_id": "stroop-trial-1-congruent-9", "trial_type": "html-keyboard-response", "trial_index": 54, "time_elapsed": 151468, "internal_node_id": "0.0-4.0-50.0"}}, {"uniqueid": "w30845020:a89498118", "current_trial": 55, "dateTime": 1664368815382, "trialdata": {"rt": 703, "stimulus": "<p id='stroop-text' class='stroop-green'>FORK</p>", "response": "g", "stimulus-type": "unrelated", "word": "FORK", "color": "green", "correct_response": "g", "trial_id": "stroop-trial-1-unrelated-3", "trial_type": "html-keyboard-response", "trial_index": 55, "time_elapsed": 152673, "internal_node_id": "0.0-4.0-51.0"}}, {"uniqueid": "w30845020:a89498118", "current_trial": 56, "dateTime": 1664368816921, "trialdata": {"rt": 1036, "stimulus": "<p id='stroop-text' class='stroop-yellow'>BLUE</p>", "response": "y", "stimulus-type": "incongruent", "word": "blue", "color": "yellow", "correct_response": "y", "trial_id": "stroop-trial-1-incongruent-25", "trial_type": "html-keyboard-response", "trial_index": 56, "time_elapsed": 154211, "internal_node_id": "0.0-4.0-52.0"}}, {"uniqueid": "w30845020:a89498118", "current_trial": 57, "dateTime": 1664368818324, "trialdata": {"rt": 901, "stimulus": "<p id='stroop-text' class='stroop-green'>GREEN</p>", "response": "g", "stimulus-type": "congruent", "word": "green", "color": "green", "correct_response": "g", "trial_id": "stroop-trial-1-congruent-15", "trial_type": "html-keyboard-response", "trial_index": 57, "time_elapsed": 155615, "internal_node_id": "0.0-4.0-53.0"}}, {"uniqueid": "w30845020:a89498118", "current_trial": 58, "dateTime": 1664368819474, "trialdata": {"rt": 647, "stimulus": "<p id='stroop-text' class='stroop-red'>BRIDGE</p>", "response": "r", "stimulus-type": "unrelated", "word": "BRIDGE", "color": "red", "correct_response": "r", "trial_id": "stroop-trial-1-unrelated-14", "trial_type": "html-keyboard-response", "trial_index": 58, "time_elapsed": 156764, "internal_node_id": "0.0-4.0-54.0"}}, {"uniqueid": "w30845020:a89498118", "current_trial": 59, "dateTime": 1664368820818, "trialdata": {"rt": 842, "stimulus": "<p id='stroop-text' class='stroop-blue'>MONKEY</p>", "response": "b", "stimulus-type": "unrelated", "word": "MONKEY", "color": "blue", "correct_response": "b", "trial_id": "stroop-trial-1-unrelated-25", "trial_type": "html-keyboard-response", "trial_index": 59, "time_elapsed": 158108, "internal_node_id": "0.0-4.0-55.0"}}, {"uniqueid": "w30845020:a89498118", "current_trial": 60, "dateTime": 1664368821953, "trialdata": {"rt": 632, "stimulus": "<p id='stroop-text' class='stroop-red'>CHAIR</p>", "response": "r", "stimulus-type": "unrelated", "word": "CHAIR", "color": "red", "correct_response": "r", "trial_id": "stroop-trial-1-unrelated-4", "trial_type": "html-keyboard-response", "trial_index": 60, "time_elapsed": 159243, "internal_node_id": "0.0-4.0-56.0"}}, {"uniqueid": "w30845020:a89498118", "current_trial": 61, "dateTime": 1664368823252, "trialdata": {"rt": 796, "stimulus": "<p id='stroop-text' class='stroop-blue'>WINDOW</p>", "response": "b", "stimulus-type": "unrelated", "word": "WINDOW", "color": "blue", "correct_response": "b", "trial_id": "stroop-trial-1-unrelated-2", "trial_type": "html-keyboard-response", "trial_index": 61, "time_elapsed": 160543, "internal_node_id": "0.0-4.0-57.0"}}, {"uniqueid": "w30845020:a89498118", "current_trial": 62, "dateTime": 1664368824432, "trialdata": {"rt": 674, "stimulus": "<p id='stroop-text' class='stroop-green'>GREEN</p>", "response": "g", "stimulus-type": "congruent", "word": "green", "color": "green", "correct_response": "g", "trial_id": "stroop-trial-1-congruent-6", "trial_type": "html-keyboard-response", "trial_index": 62, "time_elapsed": 161723, "internal_node_id": "0.0-4.0-58.0"}}, {"uniqueid": "w30845020:a89498118", "current_trial": 63, "dateTime": 1664368825964, "trialdata": {"rt": 1029, "stimulus": "<p id='stroop-text' class='stroop-green'>BLUE</p>", "response": "g", "stimulus-type": "incongruent", "word": "blue", "color": "green", "correct_response": "g", "trial_id": "stroop-trial-1-incongruent-13", "trial_type": "html-keyboard-response", "trial_index": 63, "time_elapsed": 163255, "internal_node_id": "0.0-4.0-59.0"}}, {"uniqueid": "w30845020:a89498118", "current_trial": 64, "dateTime": 1664368827059, "trialdata": {"rt": 591, "stimulus": "<p id='stroop-text' class='stroop-red'>GREEN</p>", "response": "r", "stimulus-type": "incongruent", "word": "green", "color": "red", "correct_response": "r", "trial_id": "stroop-trial-1-incongruent-8", "trial_type": "html-keyboard-response", "trial_index": 64, "time_elapsed": 164350, "internal_node_id": "0.0-4.0-60.0"}}, {"uniqueid": "w30845020:a89498118", "current_trial": 65, "dateTime": 1664368828214, "trialdata": {"rt": 652, "stimulus": "<p id='stroop-text' class='stroop-green'>GREEN</p>", "response": "g", "stimulus-type": "congruent", "word": "green", "color": "green", "correct_response": "g", "trial_id": "stroop-trial-1-congruent-22", "trial_type": "html-keyboard-response", "trial_index": 65, "time_elapsed": 165505, "internal_node_id": "0.0-4.0-61.0"}}, {"uniqueid": "w30845020:a89498118", "current_trial": 66, "dateTime": 1664368829614, "trialdata": {"rt": 897, "stimulus": "<p id='stroop-text' class='stroop-blue'>YELLOW</p>", "response": "b", "stimulus-type": "incongruent", "word": "yellow", "color": "blue", "correct_response": "b", "trial_id": "stroop-trial-1-incongruent-2", "trial_type": "html-keyboard-response", "trial_index": 66, "time_elapsed": 166905, "internal_node_id": "0.0-4.0-62.0"}}, {"uniqueid": "w30845020:a89498118", "current_trial": 67, "dateTime": 1664368830644, "trialdata": {"rt": 527, "stimulus": "<p id='stroop-text' class='stroop-blue'>GREEN</p>", "response": "b", "stimulus-type": "incongruent", "word": "green", "color": "blue", "correct_response": "b", "trial_id": "stroop-trial-1-incongruent-12", "trial_type": "html-keyboard-response", "trial_index": 67, "time_elapsed": 167934, "internal_node_id": "0.0-4.0-63.0"}}, {"uniqueid": "w30845020:a89498118", "current_trial": 68, "dateTime": 1664368831531, "trialdata": {"rt": 383, "stimulus": "<p id='stroop-text' class='stroop-blue'>GREEN</p>", "response": "b", "stimulus-type": "incongruent", "word": "green", "color": "blue", "correct_response": "b", "trial_id": "stroop-trial-1-incongruent-20", "trial_type": "html-keyboard-response", "trial_index": 68, "time_elapsed": 168821, "internal_node_id": "0.0-4.0-64.0"}}, {"uniqueid": "w30845020:a89498118", "current_trial": 69, "dateTime": 1664368832368, "trialdata": {"rt": 334, "stimulus": "<p id='stroop-text' class='stroop-blue'>GREEN</p>", "response": "b", "stimulus-type": "incongruent", "word": "green", "color": "blue", "correct_response": "b", "trial_id": "stroop-trial-1-incongruent-15", "trial_type": "html-keyboard-response", "trial_index": 69, "time_elapsed": 169659, "internal_node_id": "0.0-4.0-65.0"}}, {"uniqueid": "w30845020:a89498118", "current_trial": 70, "dateTime": 1664368833413, "trialdata": {"rt": 541, "stimulus": "<p id='stroop-text' class='stroop-red'>WINDOW</p>", "response": "r", "stimulus-type": "unrelated", "word": "WINDOW", "color": "red", "correct_response": "r", "trial_id": "stroop-trial-1-unrelated-5", "trial_type": "html-keyboard-response", "trial_index": 70, "time_elapsed": 170703, "internal_node_id": "0.0-4.0-66.0"}}, {"uniqueid": "w30845020:a89498118", "current_trial": 71, "dateTime": 1664368834353, "trialdata": {"rt": 436, "stimulus": "<p id='stroop-text' class='stroop-blue'>BLUE</p>", "response": "b", "stimulus-type": "congruent", "word": "blue", "color": "blue", "correct_response": "b", "trial_id": "stroop-trial-1-congruent-19", "trial_type": "html-keyboard-response", "trial_index": 71, "time_elapsed": 171643, "internal_node_id": "0.0-4.0-67.0"}}, {"uniqueid": "w30845020:a89498118", "current_trial": 72, "dateTime": 1664368835328, "trialdata": {"rt": 472, "stimulus": "<p id='stroop-text' class='stroop-blue'>BLUE</p>", "response": "b", "stimulus-type": "congruent", "word": "blue", "color": "blue", "correct_response": "b", "trial_id": "stroop-trial-1-congruent-3", "trial_type": "html-keyboard-response", "trial_index": 72, "time_elapsed": 172619, "internal_node_id": "0.0-4.0-68.0"}}, {"uniqueid": "w30845020:a89498118", "current_trial": 73, "dateTime": 1664368836299, "trialdata": {"rt": 468, "stimulus": "<p id='stroop-text' class='stroop-red'>RED</p>", "response": "r", "stimulus-type": "congruent", "word": "red", "color": "red", "correct_response": "r", "trial_id": "stroop-trial-1-congruent-26", "trial_type": "html-keyboard-response", "trial_index": 73, "time_elapsed": 173590, "internal_node_id": "0.0-4.0-69.0"}}, {"uniqueid": "w30845020:a89498118", "current_trial": 74, "dateTime": 1664368837204, "trialdata": {"rt": 401, "stimulus": "<p id='stroop-text' class='stroop-blue'>RED</p>", "response": "b", "stimulus-type": "incongruent", "word": "red", "color": "blue", "correct_response": "b", "trial_id": "stroop-trial-1-incongruent-30", "trial_type": "html-keyboard-response", "trial_index": 74, "time_elapsed": 174495, "internal_node_id": "0.0-4.0-70.0"}}, {"uniqueid": "w30845020:a89498118", "current_trial": 75, "dateTime": 1664368838081, "trialdata": {"rt": 375, "stimulus": "<p id='stroop-text' class='stroop-blue'>BLUE</p>", "response": "r", "stimulus-type": "congruent", "word": "blue", "color": "blue", "correct_response": "b", "trial_id": "stroop-trial-1-congruent-5", "trial_type": "html-keyboard-response", "trial_index": 75, "time_elapsed": 175372, "internal_node_id": "0.0-4.0-71.0"}}, {"uniqueid": "w30845020:a89498118", "current_trial": 76, "dateTime": 1664368839454, "trialdata": {"rt": 870, "stimulus": "<p id='stroop-text' class='stroop-yellow'>YELLOW</p>", "response": "y", "stimulus-type": "congruent", "word": "yellow", "color": "yellow", "correct_response": "y", "trial_id": "stroop-trial-1-congruent-20", "trial_type": "html-keyboard-response", "trial_index": 76, "time_elapsed": 176745, "internal_node_id": "0.0-4.0-72.0"}}, {"uniqueid": "w30845020:a89498118", "current_trial": 77, "dateTime": 1664368840655, "trialdata": {"rt": 698, "stimulus": "<p id='stroop-text' class='stroop-red'>RED</p>", "response": "r", "stimulus-type": "congruent", "word": "red", "color": "red", "correct_response": "r", "trial_id": "stroop-trial-1-congruent-7", "trial_type": "html-keyboard-response", "trial_index": 77, "time_elapsed": 177946, "internal_node_id": "0.0-4.0-73.0"}}, {"uniqueid": "w30845020:a89498118", "current_trial": 78, "dateTime": 1664368842039, "trialdata": {"rt": 881, "stimulus": "<p id='stroop-text' class='stroop-yellow'>RED</p>", "response": "y", "stimulus-type": "incongruent", "word": "red", "color": "yellow", "correct_response": "y", "trial_id": "stroop-trial-1-incongruent-7", "trial_type": "html-keyboard-response", "trial_index": 78, "time_elapsed": 179330, "internal_node_id": "0.0-4.0-74.0"}}, {"uniqueid": "w30845020:a89498118", "current_trial": 79, "dateTime": 1664368843368, "trialdata": {"rt": 825, "stimulus": "<p id='stroop-text' class='stroop-blue'>BRAIN</p>", "response": "b", "stimulus-type": "unrelated", "word": "BRAIN", "color": "blue", "correct_response": "b", "trial_id": "stroop-trial-1-unrelated-22", "trial_type": "html-keyboard-response", "trial_index": 79, "time_elapsed": 180659, "internal_node_id": "0.0-4.0-75.0"}}, {"uniqueid": "w30845020:a89498118", "current_trial": 80, "dateTime": 1664368844492, "trialdata": {"rt": 620, "stimulus": "<p id='stroop-text' class='stroop-red'>BLUE</p>", "response": "r", "stimulus-type": "incongruent", "word": "blue", "color": "red", "correct_response": "r", "trial_id": "stroop-trial-1-incongruent-3", "trial_type": "html-keyboard-response", "trial_index": 80, "time_elapsed": 181783, "internal_node_id": "0.0-4.0-76.0"}}, {"uniqueid": "w30845020:a89498118", "current_trial": 81, "dateTime": 1664368845573, "trialdata": {"rt": 578, "stimulus": "<p id='stroop-text' class='stroop-green'>YELLOW</p>", "response": "g", "stimulus-type": "incongruent", "word": "yellow", "color": "green", "correct_response": "g", "trial_id": "stroop-trial-1-incongruent-4", "trial_type": "html-keyboard-response", "trial_index": 81, "time_elapsed": 182863, "internal_node_id": "0.0-4.0-77.0"}}, {"uniqueid": "w30845020:a89498118", "current_trial": 82, "dateTime": 1664368846951, "trialdata": {"rt": 875, "stimulus": "<p id='stroop-text' class='stroop-red'>YELLOW</p>", "response": "r", "stimulus-type": "incongruent", "word": "yellow", "color": "red", "correct_response": "r", "trial_id": "stroop-trial-1-incongruent-22", "trial_type": "html-keyboard-response", "trial_index": 82, "time_elapsed": 184242, "internal_node_id": "0.0-4.0-78.0"}}, {"uniqueid": "w30845020:a89498118", "current_trial": 83, "dateTime": 1664368848156, "trialdata": {"rt": 702, "stimulus": "<p id='stroop-text' class='stroop-yellow'>YELLOW</p>", "response": "y", "stimulus-type": "congruent", "word": "yellow", "color": "yellow", "correct_response": "y", "trial_id": "stroop-trial-1-congruent-21", "trial_type": "html-keyboard-response", "trial_index": 83, "time_elapsed": 185447, "internal_node_id": "0.0-4.0-79.0"}}, {"uniqueid": "w30845020:a89498118", "current_trial": 84, "dateTime": 1664368849480, "trialdata": {"rt": 820, "stimulus": "<p id='stroop-text' class='stroop-red'>BRAIN</p>", "response": "r", "stimulus-type": "unrelated", "word": "BRAIN", "color": "red", "correct_response": "r", "trial_id": "stroop-trial-1-unrelated-10", "trial_type": "html-keyboard-response", "trial_index": 84, "time_elapsed": 186771, "internal_node_id": "0.0-4.0-80.0"}}, {"uniqueid": "w30845020:a89498118", "current_trial": 85, "dateTime": 1664368850501, "trialdata": {"rt": 518, "stimulus": "<p id='stroop-text' class='stroop-red'>BOTTLE</p>", "response": "r", "stimulus-type": "unrelated", "word": "BOTTLE", "color": "red", "correct_response": "r", "trial_id": "stroop-trial-1-unrelated-1", "trial_type": "html-keyboard-response", "trial_index": 85, "time_elapsed": 187791, "internal_node_id": "0.0-4.0-81.0"}}, {"uniqueid": "w30845020:a89498118", "current_trial": 86, "dateTime": 1664368851711, "trialdata": {"rt": 708, "stimulus": "<p id='stroop-text' class='stroop-blue'>BLUE</p>", "response": "b", "stimulus-type": "congruent", "word": "blue", "color": "blue", "correct_response": "b", "trial_id": "stroop-trial-1-congruent-8", "trial_type": "html-keyboard-response", "trial_index": 86, "time_elapsed": 189002, "internal_node_id": "0.0-4.0-82.0"}}, {"uniqueid": "w30845020:a89498118", "current_trial": 87, "dateTime": 1664368853040, "trialdata": {"rt": 826, "stimulus": "<p id='stroop-text' class='stroop-red'>YELLOW</p>", "response": "r", "stimulus-type": "incongruent", "word": "yellow", "color": "red", "correct_response": "r", "trial_id": "stroop-trial-1-incongruent-28", "trial_type": "html-keyboard-response", "trial_index": 87, "time_elapsed": 190331, "internal_node_id": "0.0-4.0-83.0"}}, {"uniqueid": "w30845020:a89498118", "current_trial": 88, "dateTime": 1664368853951, "trialdata": {"rt": 408, "stimulus": "<p id='stroop-text' class='stroop-red'>BLUE</p>", "response": "r", "stimulus-type": "incongruent", "word": "blue", "color": "red", "correct_response": "r", "trial_id": "stroop-trial-1-incongruent-5", "trial_type": "html-keyboard-response", "trial_index": 88, "time_elapsed": 191241, "internal_node_id": "0.0-4.0-84.0"}}, {"uniqueid": "w30845020:a89498118", "current_trial": 89, "dateTime": 1664368855131, "trialdata": {"rt": 677, "stimulus": "<p id='stroop-text' class='stroop-green'>GREEN</p>", "response": "g", "stimulus-type": "congruent", "word": "green", "color": "green", "correct_response": "g", "trial_id": "stroop-trial-1-congruent-11", "trial_type": "html-keyboard-response", "trial_index": 89, "time_elapsed": 192421, "internal_node_id": "0.0-4.0-85.0"}}, {"uniqueid": "w30845020:a89498118", "current_trial": 90, "dateTime": 1664368856241, "trialdata": {"rt": 607, "stimulus": "<p id='stroop-text' class='stroop-green'>WINDOW</p>", "response": "g", "stimulus-type": "unrelated", "word": "WINDOW", "color": "green", "correct_response": "g", "trial_id": "stroop-trial-1-unrelated-13", "trial_type": "html-keyboard-response", "trial_index": 90, "time_elapsed": 193531, "internal_node_id": "0.0-4.0-86.0"}}, {"uniqueid": "w30845020:a89498118", "current_trial": 91, "dateTime": 1664368857395, "trialdata": {"rt": 651, "stimulus": "<p id='stroop-text' class='stroop-yellow'>CHAIR</p>", "response": "y", "stimulus-type": "unrelated", "word": "CHAIR", "color": "yellow", "correct_response": "y", "trial_id": "stroop-trial-1-unrelated-17", "trial_type": "html-keyboard-response", "trial_index": 91, "time_elapsed": 194686, "internal_node_id": "0.0-4.0-87.0"}}, {"uniqueid": "w30845020:a89498118", "current_trial": 92, "dateTime": 1664368858864, "trialdata": {"rt": 959, "stimulus": "<p id='stroop-text' class='stroop-green'>BLUE</p>", "response": "g", "stimulus-type": "incongruent", "word": "blue", "color": "green", "correct_response": "g", "trial_id": "stroop-trial-1-incongruent-19", "trial_type": "html-keyboard-response", "trial_index": 92, "time_elapsed": 196155, "internal_node_id": "0.0-4.0-88.0"}}, {"uniqueid": "w30845020:a89498118", "current_trial": 93, "dateTime": 1664368859924, "trialdata": {"rt": 556, "stimulus": "<p id='stroop-text' class='stroop-red'>RED</p>", "response": "r", "stimulus-type": "congruent", "word": "red", "color": "red", "correct_response": "r", "trial_id": "stroop-trial-1-congruent-27", "trial_type": "html-keyboard-response", "trial_index": 93, "time_elapsed": 197215, "internal_node_id": "0.0-4.0-89.0"}}, {"uniqueid": "w30845020:a89498118", "current_trial": 94, "dateTime": 1664368876550, "trialdata": {"rt": 16120, "stimulus": "  <h1> End of block! </h1>\n\n  You have reached the end of the block 1/5. If you need a short break, feel free to take one now before moving on.\n\n  <br><br>\n  In the next block, you will complete another 90 rounds of this game.\n\n  <br><br>\n  <div style='text-align: center;'>Press <code>space</code> to begin.</div>\n  <br><br>\n<div style='text-align: center;'>(If the experiment doesn't continue, try clicking on the text and then pressing <code>space</code>.)</div>", "response": " ", "trial_id": "stroop_1_ready_2", "trial_type": "html-keyboard-response", "trial_index": 94, "time_elapsed": 213841, "internal_node_id": "0.0-5.0"}}, {"uniqueid": "w30845020:a89498118", "current_trial": 95, "dateTime": 1664368877662, "trialdata": {"rt": 1108, "stimulus": "<p id='stroop-text' class='stroop-red'>MONKEY</p>", "response": "r", "stimulus-type": "unrelated", "word": "MONKEY", "color": "red", "correct_response": "r", "trial_id": "stroop-trial-1-unrelated-1", "trial_type": "html-keyboard-response", "trial_index": 95, "time_elapsed": 214953, "internal_node_id": "0.0-6.0-0.0"}}, {"uniqueid": "w30845020:a89498118", "current_trial": 96, "dateTime": 1664368878969, "trialdata": {"rt": 803, "stimulus": "<p id='stroop-text' class='stroop-yellow'>YELLOW</p>", "response": "y", "stimulus-type": "congruent", "word": "yellow", "color": "yellow", "correct_response": "y", "trial_id": "stroop-trial-1-congruent-17", "trial_type": "html-keyboard-response", "trial_index": 96, "time_elapsed": 216260, "internal_node_id": "0.0-6.0-1.0"}}, {"uniqueid": "w30845020:a89498118", "current_trial": 97, "dateTime": 1664368880154, "trialdata": {"rt": 682, "stimulus": "<p id='stroop-text' class='stroop-blue'>BLUE</p>", "response": "b", "stimulus-type": "congruent", "word": "blue", "color": "blue", "correct_response": "b", "trial_id": "stroop-trial-1-congruent-21", "trial_type": "html-keyboard-response", "trial_index": 97, "time_elapsed": 217445, "internal_node_id": "0.0-6.0-2.0"}}, {"uniqueid": "w30845020:a89498118", "current_trial": 98, "dateTime": 1664368881404, "trialdata": {"rt": 746, "stimulus": "<p id='stroop-text' class='stroop-yellow'>BLUE</p>", "response": "y", "stimulus-type": "incongruent", "word": "blue", "color": "yellow", "correct_response": "y", "trial_id": "stroop-trial-1-incongruent-3", "trial_type": "html-keyboard-response", "trial_index": 98, "time_elapsed": 218694, "internal_node_id": "0.0-6.0-3.0"}}, {"uniqueid": "w30845020:a89498118", "current_trial": 99, "dateTime": 1664368882604, "trialdata": {"rt": 696, "stimulus": "<p id='stroop-text' class='stroop-green'>YELLOW</p>", "response": "g", "stimulus-type": "incongruent", "word": "yellow", "color": "green", "correct_response": "g", "trial_id": "stroop-trial-1-incongruent-14", "trial_type": "html-keyboard-response", "trial_index": 99, "time_elapsed": 219895, "internal_node_id": "0.0-6.0-4.0"}}, {"uniqueid": "w30845020:a89498118", "current_trial": 100, "dateTime": 1664368883922, "trialdata": {"rt": 814, "stimulus": "<p id='stroop-text' class='stroop-yellow'>BOAT</p>", "response": "y", "stimulus-type": "unrelated", "word": "BOAT", "color": "yellow", "correct_response": "y", "trial_id": "stroop-trial-1-unrelated-18", "trial_type": "html-keyboard-response", "trial_index": 100, "time_elapsed": 221213, "internal_node_id": "0.0-6.0-5.0"}}, {"uniqueid": "w30845020:a89498118", "current_trial": 101, "dateTime": 1664368884967, "trialdata": {"rt": 542, "stimulus": "<p id='stroop-text' class='stroop-red'>YELLOW</p>", "response": "r", "stimulus-type": "incongruent", "word": "yellow", "color": "red", "correct_response": "r", "trial_id": "stroop-trial-1-incongruent-10", "trial_type": "html-keyboard-response", "trial_index": 101, "time_elapsed": 222258, "internal_node_id": "0.0-6.0-6.0"}}, {"uniqueid": "w30845020:a89498118", "current_trial": 102, "dateTime": 1664368886002, "trialdata": {"rt": 531, "stimulus": "<p id='stroop-text' class='stroop-green'>SHIP</p>", "response": "g", "stimulus-type": "unrelated", "word": "SHIP", "color": "green", "correct_response": "g", "trial_id": "stroop-trial-1-unrelated-24", "trial_type": "html-keyboard-response", "trial_index": 102, "time_elapsed": 223293, "internal_node_id": "0.0-6.0-7.0"}}, {"uniqueid": "w30845020:a89498118", "current_trial": 103, "dateTime": 1664368886889, "trialdata": {"rt": 384, "stimulus": "<p id='stroop-text' class='stroop-green'>GREEN</p>", "response": "g", "stimulus-type": "congruent", "word": "green", "color": "green", "correct_response": "g", "trial_id": "stroop-trial-1-congruent-28", "trial_type": "html-keyboard-response", "trial_index": 103, "time_elapsed": 224180, "internal_node_id": "0.0-6.0-8.0"}}, {"uniqueid": "w30845020:a89498118", "current_trial": 104, "dateTime": 1664368887974, "trialdata": {"rt": 582, "stimulus": "<p id='stroop-text' class='stroop-red'>BRIDGE</p>", "response": "r", "stimulus-type": "unrelated", "word": "BRIDGE", "color": "red", "correct_response": "r", "trial_id": "stroop-trial-1-unrelated-27", "trial_type": "html-keyboard-response", "trial_index": 104, "time_elapsed": 225265, "internal_node_id": "0.0-6.0-9.0"}}, {"uniqueid": "w30845020:a89498118", "current_trial": 105, "dateTime": 1664368888890, "trialdata": {"rt": 412, "stimulus": "<p id='stroop-text' class='stroop-red'>MONKEY</p>", "response": "r", "stimulus-type": "unrelated", "word": "MONKEY", "color": "red", "correct_response": "r", "trial_id": "stroop-trial-1-unrelated-6", "trial_type": "html-keyboard-response", "trial_index": 105, "time_elapsed": 226181, "internal_node_id": "0.0-6.0-10.0"}}, {"uniqueid": "w30845020:a89498118", "current_trial": 106, "dateTime": 1664368889755, "trialdata": {"rt": 362, "stimulus": "<p id='stroop-text' class='stroop-red'>RED</p>", "response": "r", "stimulus-type": "congruent", "word": "red", "color": "red", "correct_response": "r", "trial_id": "stroop-trial-1-congruent-7", "trial_type": "html-keyboard-response", "trial_index": 106, "time_elapsed": 227046, "internal_node_id": "0.0-6.0-11.0"}}, {"uniqueid": "w30845020:a89498118", "current_trial": 107, "dateTime": 1664368890631, "trialdata": {"rt": 369, "stimulus": "<p id='stroop-text' class='stroop-red'>GREEN</p>", "response": "r", "stimulus-type": "incongruent", "word": "green", "color": "red", "correct_response": "r", "trial_id": "stroop-trial-1-incongruent-19", "trial_type": "html-keyboard-response", "trial_index": 107, "time_elapsed": 227922, "internal_node_id": "0.0-6.0-12.0"}}, {"uniqueid": "w30845020:a89498118", "current_trial": 108, "dateTime": 1664368891464, "trialdata": {"rt": 330, "stimulus": "<p id='stroop-text' class='stroop-red'>GREEN</p>", "response": "r", "stimulus-type": "incongruent", "word": "green", "color": "red", "correct_response": "r", "trial_id": "stroop-trial-1-incongruent-15", "trial_type": "html-keyboard-response", "trial_index": 108, "time_elapsed": 228754, "internal_node_id": "0.0-6.0-13.0"}}, {"uniqueid": "w30845020:a89498118", "current_trial": 109, "dateTime": 1664368892753, "trialdata": {"rt": 786, "stimulus": "<p id='stroop-text' class='stroop-blue'>YELLOW</p>", "response": "b", "stimulus-type": "incongruent", "word": "yellow", "color": "blue", "correct_response": "b", "trial_id": "stroop-trial-1-incongruent-2", "trial_type": "html-keyboard-response", "trial_index": 109, "time_elapsed": 230044, "internal_node_id": "0.0-6.0-14.0"}}, {"uniqueid": "w30845020:a89498118", "current_trial": 110, "dateTime": 1664368893843, "trialdata": {"rt": 586, "stimulus": "<p id='stroop-text' class='stroop-yellow'>YELLOW</p>", "response": "y", "stimulus-type": "congruent", "word": "yellow", "color": "yellow", "correct_response": "y", "trial_id": "stroop-trial-1-congruent-25", "trial_type": "html-keyboard-response", "trial_index": 110, "time_elapsed": 231134, "internal_node_id": "0.0-6.0-15.0"}}, {"uniqueid": "w30845020:a89498118", "current_trial": 111, "dateTime": 1664368894838, "trialdata": {"rt": 490, "stimulus": "<p id='stroop-text' class='stroop-red'>RED</p>", "response": "r", "stimulus-type": "congruent", "word": "red", "color": "red", "correct_response": "r", "trial_id": "stroop-trial-1-congruent-4", "trial_type": "html-keyboard-response", "trial_index": 111, "time_elapsed": 232129, "internal_node_id": "0.0-6.0-16.0"}}, {"uniqueid": "w30845020:a89498118", "current_trial": 112, "dateTime": 1664368895825, "trialdata": {"rt": 483, "stimulus": "<p id='stroop-text' class='stroop-blue'>BRAIN</p>", "response": "g", "stimulus-type": "unrelated", "word": "BRAIN", "color": "blue", "correct_response": "b", "trial_id": "stroop-trial-1-unrelated-17", "trial_type": "html-keyboard-response", "trial_index": 112, "time_elapsed": 233115, "internal_node_id": "0.0-6.0-17.0"}}, {"uniqueid": "w30845020:a89498118", "current_trial": 113, "dateTime": 1664368897074, "trialdata": {"rt": 746, "stimulus": "<p id='stroop-text' class='stroop-blue'>GREEN</p>", "response": "b", "stimulus-type": "incongruent", "word": "green", "color": "blue", "correct_response": "b", "trial_id": "stroop-trial-1-incongruent-4", "trial_type": "html-keyboard-response", "trial_index": 113, "time_elapsed": 234365, "internal_node_id": "0.0-6.0-18.0"}}, {"uniqueid": "w30845020:a89498118", "current_trial": 114, "dateTime": 1664368898273, "trialdata": {"rt": 695, "stimulus": "<p id='stroop-text' class='stroop-yellow'>YELLOW</p>", "response": "y", "stimulus-type": "congruent", "word": "yellow", "color": "yellow", "correct_response": "y", "trial_id": "stroop-trial-1-congruent-15", "trial_type": "html-keyboard-response", "trial_index": 114, "time_elapsed": 235564, "internal_node_id": "0.0-6.0-19.0"}}, {"uniqueid": "w30845020:a89498118", "current_trial": 115, "dateTime": 1664368899483, "trialdata": {"rt": 705, "stimulus": "<p id='stroop-text' class='stroop-green'>GREEN</p>", "response": "g", "stimulus-type": "congruent", "word": "green", "color": "green", "correct_response": "g", "trial_id": "stroop-trial-1-congruent-26", "trial_type": "html-keyboard-response", "trial_index": 115, "time_elapsed": 236773, "internal_node_id": "0.0-6.0-20.0"}}, {"uniqueid": "w30845020:a89498118", "current_trial": 116, "dateTime": 1664368900508, "trialdata": {"rt": 522, "stimulus": "<p id='stroop-text' class='stroop-green'>BLUE</p>", "response": "g", "stimulus-type": "incongruent", "word": "blue", "color": "green", "correct_response": "g", "trial_id": "stroop-trial-1-incongruent-6", "trial_type": "html-keyboard-response", "trial_index": 116, "time_elapsed": 237798, "internal_node_id": "0.0-6.0-21.0"}}, {"uniqueid": "w30845020:a89498118", "current_trial": 117, "dateTime": 1664368901558, "trialdata": {"rt": 548, "stimulus": "<p id='stroop-text' class='stroop-red'>DOG</p>", "response": "r", "stimulus-type": "unrelated", "word": "DOG", "color": "red", "correct_response": "r", "trial_id": "stroop-trial-1-unrelated-14", "trial_type": "html-keyboard-response", "trial_index": 117, "time_elapsed": 238849, "internal_node_id": "0.0-6.0-22.0"}}, {"uniqueid": "w30845020:a89498118", "current_trial": 118, "dateTime": 1664368902828, "trialdata": {"rt": 765, "stimulus": "<p id='stroop-text' class='stroop-blue'>STONE</p>", "response": "b", "stimulus-type": "unrelated", "word": "STONE", "color": "blue", "correct_response": "b", "trial_id": "stroop-trial-1-unrelated-12", "trial_type": "html-keyboard-response", "trial_index": 118, "time_elapsed": 240118, "internal_node_id": "0.0-6.0-23.0"}}, {"uniqueid": "w30845020:a89498118", "current_trial": 119, "dateTime": 1664368904352, "trialdata": {"rt": 1021, "stimulus": "<p id='stroop-text' class='stroop-red'>GREEN</p>", "response": "r", "stimulus-type": "incongruent", "word": "green", "color": "red", "correct_response": "r", "trial_id": "stroop-trial-1-incongruent-5", "trial_type": "html-keyboard-response", "trial_index": 119, "time_elapsed": 241642, "internal_node_id": "0.0-6.0-24.0"}}, {"uniqueid": "w30845020:a89498118", "current_trial": 120, "dateTime": 1664368905636, "trialdata": {"rt": 780, "stimulus": "<p id='stroop-text' class='stroop-green'>BRAIN</p>", "response": "g", "stimulus-type": "unrelated", "word": "BRAIN", "color": "green", "correct_response": "g", "trial_id": "stroop-trial-1-unrelated-11", "trial_type": "html-keyboard-response", "trial_index": 120, "time_elapsed": 242926, "internal_node_id": "0.0-6.0-25.0"}}, {"uniqueid": "w30845020:a89498118", "current_trial": 121, "dateTime": 1664368906796, "trialdata": {"rt": 658, "stimulus": "<p id='stroop-text' class='stroop-red'>GREEN</p>", "response": "r", "stimulus-type": "incongruent", "word": "green", "color": "red", "correct_response": "r", "trial_id": "stroop-trial-1-incongruent-28", "trial_type": "html-keyboard-response", "trial_index": 121, "time_elapsed": 244087, "internal_node_id": "0.0-6.0-26.0"}}, {"uniqueid": "w30845020:a89498118", "current_trial": 122, "dateTime": 1664368908308, "trialdata": {"rt": 1009, "stimulus": "<p id='stroop-text' class='stroop-yellow'>BRAIN</p>", "response": "y", "stimulus-type": "unrelated", "word": "BRAIN", "color": "yellow", "correct_response": "y", "trial_id": "stroop-trial-1-unrelated-29", "trial_type": "html-keyboard-response", "trial_index": 122, "time_elapsed": 245599, "internal_node_id": "0.0-6.0-27.0"}}, {"uniqueid": "w30845020:a89498118", "current_trial": 123, "dateTime": 1664368909717, "trialdata": {"rt": 906, "stimulus": "<p id='stroop-text' class='stroop-red'>RED</p>", "response": "r", "stimulus-type": "congruent", "word": "red", "color": "red", "correct_response": "r", "trial_id": "stroop-trial-1-congruent-27", "trial_type": "html-keyboard-response", "trial_index": 123, "time_elapsed": 247008, "internal_node_id": "0.0-6.0-28.0"}}, {"uniqueid": "w30845020:a89498118", "current_trial": 124, "dateTime": 1664368910643, "trialdata": {"rt": 422, "stimulus": "<p id='stroop-text' class='stroop-red'>GREEN</p>", "response": "r", "stimulus-type": "incongruent", "word": "green", "color": "red", "correct_response": "r", "trial_id": "stroop-trial-1-incongruent-25", "trial_type": "html-keyboard-response", "trial_index": 124, "time_elapsed": 247933, "internal_node_id": "0.0-6.0-29.0"}}, {"uniqueid": "w30845020:a89498118", "current_trial": 125, "dateTime": 1664368911693, "trialdata": {"rt": 547, "stimulus": "<p id='stroop-text' class='stroop-blue'>BLUE</p>", "response": "b", "stimulus-type": "congruent", "word": "blue", "color": "blue", "correct_response": "b", "trial_id": "stroop-trial-1-congruent-10", "trial_type": "html-keyboard-response", "trial_index": 125, "time_elapsed": 248984, "internal_node_id": "0.0-6.0-30.0"}}, {"uniqueid": "w30845020:a89498118", "current_trial": 126, "dateTime": 1664368912962, "trialdata": {"rt": 766, "stimulus": "<p id='stroop-text' class='stroop-yellow'>BLUE</p>", "response": "y", "stimulus-type": "incongruent", "word": "blue", "color": "yellow", "correct_response": "y", "trial_id": "stroop-trial-1-incongruent-26", "trial_type": "html-keyboard-response", "trial_index": 126, "time_elapsed": 250253, "internal_node_id": "0.0-6.0-31.0"}}, {"uniqueid": "w30845020:a89498118", "current_trial": 127, "dateTime": 1664368914366, "trialdata": {"rt": 901, "stimulus": "<p id='stroop-text' class='stroop-green'>GREEN</p>", "response": "g", "stimulus-type": "congruent", "word": "green", "color": "green", "correct_response": "g", "trial_id": "stroop-trial-1-congruent-24", "trial_type": "html-keyboard-response", "trial_index": 127, "time_elapsed": 251657, "internal_node_id": "0.0-6.0-32.0"}}, {"uniqueid": "w30845020:a89498118", "current_trial": 128, "dateTime": 1664368915466, "trialdata": {"rt": 597, "stimulus": "<p id='stroop-text' class='stroop-red'>BRIDGE</p>", "response": "r", "stimulus-type": "unrelated", "word": "BRIDGE", "color": "red", "correct_response": "r", "trial_id": "stroop-trial-1-unrelated-10", "trial_type": "html-keyboard-response", "trial_index": 128, "time_elapsed": 252757, "internal_node_id": "0.0-6.0-33.0"}}, {"uniqueid": "w30845020:a89498118", "current_trial": 129, "dateTime": 1664368916532, "trialdata": {"rt": 562, "stimulus": "<p id='stroop-text' class='stroop-red'>GREEN</p>", "response": "r", "stimulus-type": "incongruent", "word": "green", "color": "red", "correct_response": "r", "trial_id": "stroop-trial-1-incongruent-17", "trial_type": "html-keyboard-response", "trial_index": 129, "time_elapsed": 253823, "internal_node_id": "0.0-6.0-34.0"}}, {"uniqueid": "w30845020:a89498118", "current_trial": 130, "dateTime": 1664368917772, "trialdata": {"rt": 735, "stimulus": "<p id='stroop-text' class='stroop-green'>BLUE</p>", "response": "g", "stimulus-type": "incongruent", "word": "blue", "color": "green", "correct_response": "g", "trial_id": "stroop-trial-1-incongruent-8", "trial_type": "html-keyboard-response", "trial_index": 130, "time_elapsed": 255062, "internal_node_id": "0.0-6.0-35.0"}}, {"uniqueid": "w30845020:a89498118", "current_trial": 131, "dateTime": 1664368919568, "trialdata": {"rt": 1294, "stimulus": "<p id='stroop-text' class='stroop-blue'>BRAIN</p>", "response": "b", "stimulus-type": "unrelated", "word": "BRAIN", "color": "blue", "correct_response": "b", "trial_id": "stroop-trial-1-unrelated-5", "trial_type": "html-keyboard-response", "trial_index": 131, "time_elapsed": 256859, "internal_node_id": "0.0-6.0-36.0"}}, {"uniqueid": "w30845020:a89498118", "current_trial": 132, "dateTime": 1664368920647, "trialdata": {"rt": 575, "stimulus": "<p id='stroop-text' class='stroop-red'>RED</p>", "response": "r", "stimulus-type": "congruent", "word": "red", "color": "red", "correct_response": "r", "trial_id": "stroop-trial-1-congruent-12", "trial_type": "html-keyboard-response", "trial_index": 132, "time_elapsed": 257938, "internal_node_id": "0.0-6.0-37.0"}}, {"uniqueid": "w30845020:a89498118", "current_trial": 133, "dateTime": 1664368921722, "trialdata": {"rt": 573, "stimulus": "<p id='stroop-text' class='stroop-red'>RED</p>", "response": "r", "stimulus-type": "congruent", "word": "red", "color": "red", "correct_response": "r", "trial_id": "stroop-trial-1-congruent-13", "trial_type": "html-keyboard-response", "trial_index": 133, "time_elapsed": 259013, "internal_node_id": "0.0-6.0-38.0"}}, {"uniqueid": "w30845020:a89498118", "current_trial": 134, "dateTime": 1664368922619, "trialdata": {"rt": 395, "stimulus": "<p id='stroop-text' class='stroop-red'>RED</p>", "response": "r", "stimulus-type": "congruent", "word": "red", "color": "red", "correct_response": "r", "trial_id": "stroop-trial-1-congruent-23", "trial_type": "html-keyboard-response", "trial_index": 134, "time_elapsed": 259910, "internal_node_id": "0.0-6.0-39.0"}}, {"uniqueid": "w30845020:a89498118", "current_trial": 135, "dateTime": 1664368924137, "trialdata": {"rt": 1014, "stimulus": "<p id='stroop-text' class='stroop-green'>YELLOW</p>", "response": "g", "stimulus-type": "incongruent", "word": "yellow", "color": "green", "correct_response": "g", "trial_id": "stroop-trial-1-incongruent-1", "trial_type": "html-keyboard-response", "trial_index": 135, "time_elapsed": 261428, "internal_node_id": "0.0-6.0-40.0"}}, {"uniqueid": "w30845020:a89498118", "current_trial": 136, "dateTime": 1664368925382, "trialdata": {"rt": 740, "stimulus": "<p id='stroop-text' class='stroop-blue'>DOG</p>", "response": "b", "stimulus-type": "unrelated", "word": "DOG", "color": "blue", "correct_response": "b", "trial_id": "stroop-trial-1-unrelated-21", "trial_type": "html-keyboard-response", "trial_index": 136, "time_elapsed": 262673, "internal_node_id": "0.0-6.0-41.0"}}, {"uniqueid": "w30845020:a89498118", "current_trial": 137, "dateTime": 1664368926641, "trialdata": {"rt": 756, "stimulus": "<p id='stroop-text' class='stroop-green'>WINDOW</p>", "response": "g", "stimulus-type": "unrelated", "word": "WINDOW", "color": "green", "correct_response": "g", "trial_id": "stroop-trial-1-unrelated-8", "trial_type": "html-keyboard-response", "trial_index": 137, "time_elapsed": 263932, "internal_node_id": "0.0-6.0-42.0"}}, {"uniqueid": "w30845020:a89498118", "current_trial": 138, "dateTime": 1664368927841, "trialdata": {"rt": 696, "stimulus": "<p id='stroop-text' class='stroop-red'>BLUE</p>", "response": "r", "stimulus-type": "incongruent", "word": "blue", "color": "red", "correct_response": "r", "trial_id": "stroop-trial-1-incongruent-30", "trial_type": "html-keyboard-response", "trial_index": 138, "time_elapsed": 265131, "internal_node_id": "0.0-6.0-43.0"}}, {"uniqueid": "w30845020:a89498118", "current_trial": 139, "dateTime": 1664368929215, "trialdata": {"rt": 871, "stimulus": "<p id='stroop-text' class='stroop-green'>GREEN</p>", "response": "g", "stimulus-type": "congruent", "word": "green", "color": "green", "correct_response": "g", "trial_id": "stroop-trial-1-congruent-3", "trial_type": "html-keyboard-response", "trial_index": 139, "time_elapsed": 266506, "internal_node_id": "0.0-6.0-44.0"}}, {"uniqueid": "w30845020:a89498118", "current_trial": 140, "dateTime": 1664368930464, "trialdata": {"rt": 744, "stimulus": "<p id='stroop-text' class='stroop-red'>RED</p>", "response": "r", "stimulus-type": "congruent", "word": "red", "color": "red", "correct_response": "r", "trial_id": "stroop-trial-1-congruent-16", "trial_type": "html-keyboard-response", "trial_index": 140, "time_elapsed": 267755, "internal_node_id": "0.0-6.0-45.0"}}, {"uniqueid": "w30845020:a89498118", "current_trial": 141, "dateTime": 1664368931545, "trialdata": {"rt": 577, "stimulus": "<p id='stroop-text' class='stroop-red'>GREEN</p>", "response": "r", "stimulus-type": "incongruent", "word": "green", "color": "red", "correct_response": "r", "trial_id": "stroop-trial-1-incongruent-9", "trial_type": "html-keyboard-response", "trial_index": 141, "time_elapsed": 268835, "internal_node_id": "0.0-6.0-46.0"}}, {"uniqueid": "w30845020:a89498118", "current_trial": 142, "dateTime": 1664368932768, "trialdata": {"rt": 720, "stimulus": "<p id='stroop-text' class='stroop-green'>GREEN</p>", "response": "g", "stimulus-type": "congruent", "word": "green", "color": "green", "correct_response": "g", "trial_id": "stroop-trial-1-congruent-29", "trial_type": "html-keyboard-response", "trial_index": 142, "time_elapsed": 270059, "internal_node_id": "0.0-6.0-47.0"}}, {"uniqueid": "w30845020:a89498118", "current_trial": 143, "dateTime": 1664368933789, "trialdata": {"rt": 516, "stimulus": "<p id='stroop-text' class='stroop-green'>BOTTLE</p>", "response": "g", "stimulus-type": "unrelated", "word": "BOTTLE", "color": "green", "correct_response": "g", "trial_id": "stroop-trial-1-unrelated-22", "trial_type": "html-keyboard-response", "trial_index": 143, "time_elapsed": 271080, "internal_node_id": "0.0-6.0-48.0"}}, {"uniqueid": "w30845020:a89498118", "current_trial": 144, "dateTime": 1664368934864, "trialdata": {"rt": 572, "stimulus": "<p id='stroop-text' class='stroop-red'>WINDOW</p>", "response": "r", "stimulus-type": "unrelated", "word": "WINDOW", "color": "red", "correct_response": "r", "trial_id": "stroop-trial-1-unrelated-20", "trial_type": "html-keyboard-response", "trial_index": 144, "time_elapsed": 272155, "internal_node_id": "0.0-6.0-49.0"}}, {"uniqueid": "w30845020:a89498118", "current_trial": 145, "dateTime": 1664368935860, "trialdata": {"rt": 492, "stimulus": "<p id='stroop-text' class='stroop-red'>BLUE</p>", "response": "r", "stimulus-type": "incongruent", "word": "blue", "color": "red", "correct_response": "r", "trial_id": "stroop-trial-1-incongruent-7", "trial_type": "html-keyboard-response", "trial_index": 145, "time_elapsed": 273151, "internal_node_id": "0.0-6.0-50.0"}}, {"uniqueid": "w30845020:a89498118", "current_trial": 146, "dateTime": 1664368936771, "trialdata": {"rt": 406, "stimulus": "<p id='stroop-text' class='stroop-red'>BRIDGE</p>", "response": "r", "stimulus-type": "unrelated", "word": "BRIDGE", "color": "red", "correct_response": "r", "trial_id": "stroop-trial-1-unrelated-16", "trial_type": "html-keyboard-response", "trial_index": 146, "time_elapsed": 274062, "internal_node_id": "0.0-6.0-51.0"}}, {"uniqueid": "w30845020:a89498118", "current_trial": 147, "dateTime": 1664368938031, "trialdata": {"rt": 756, "stimulus": "<p id='stroop-text' class='stroop-yellow'>BLUE</p>", "response": "y", "stimulus-type": "incongruent", "word": "blue", "color": "yellow", "correct_response": "y", "trial_id": "stroop-trial-1-incongruent-21", "trial_type": "html-keyboard-response", "trial_index": 147, "time_elapsed": 275322, "internal_node_id": "0.0-6.0-52.0"}}, {"uniqueid": "w30845020:a89498118", "current_trial": 148, "dateTime": 1664368939130, "trialdata": {"rt": 596, "stimulus": "<p id='stroop-text' class='stroop-green'>BLUE</p>", "response": "g", "stimulus-type": "incongruent", "word": "blue", "color": "green", "correct_response": "g", "trial_id": "stroop-trial-1-incongruent-27", "trial_type": "html-keyboard-response", "trial_index": 148, "time_elapsed": 276421, "internal_node_id": "0.0-6.0-53.0"}}, {"uniqueid": "w30845020:a89498118", "current_trial": 149, "dateTime": 1664368940151, "trialdata": {"rt": 515, "stimulus": "<p id='stroop-text' class='stroop-red'>STONE</p>", "response": "r", "stimulus-type": "unrelated", "word": "STONE", "color": "red", "correct_response": "r", "trial_id": "stroop-trial-1-unrelated-4", "trial_type": "html-keyboard-response", "trial_index": 149, "time_elapsed": 277441, "internal_node_id": "0.0-6.0-54.0"}}, {"uniqueid": "w30845020:a89498118", "current_trial": 150, "dateTime": 1664368941236, "trialdata": {"rt": 582, "stimulus": "<p id='stroop-text' class='stroop-green'>GREEN</p>", "response": "g", "stimulus-type": "congruent", "word": "green", "color": "green", "correct_response": "g", "trial_id": "stroop-trial-1-congruent-30", "trial_type": "html-keyboard-response", "trial_index": 150, "time_elapsed": 278527, "internal_node_id": "0.0-6.0-55.0"}}, {"uniqueid": "w30845020:a89498118", "current_trial": 151, "dateTime": 1664368942425, "trialdata": {"rt": 685, "stimulus": "<p id='stroop-text' class='stroop-blue'>YELLOW</p>", "response": "b", "stimulus-type": "incongruent", "word": "yellow", "color": "blue", "correct_response": "b", "trial_id": "stroop-trial-1-incongruent-20", "trial_type": "html-keyboard-response", "trial_index": 151, "time_elapsed": 279716, "internal_node_id": "0.0-6.0-56.0"}}, {"uniqueid": "w30845020:a89498118", "current_trial": 152, "dateTime": 1664368943689, "trialdata": {"rt": 759, "stimulus": "<p id='stroop-text' class='stroop-yellow'>RED</p>", "response": "y", "stimulus-type": "incongruent", "word": "red", "color": "yellow", "correct_response": "y", "trial_id": "stroop-trial-1-incongruent-11", "trial_type": "html-keyboard-response", "trial_index": 152, "time_elapsed": 280980, "internal_node_id": "0.0-6.0-57.0"}}, {"uniqueid": "w30845020:a89498118", "current_trial": 153, "dateTime": 1664368944710, "trialdata": {"rt": 517, "stimulus": "<p id='stroop-text' class='stroop-yellow'>BRIDGE</p>", "response": "g", "stimulus-type": "unrelated", "word": "BRIDGE", "color": "yellow", "correct_response": "y", "trial_id": "stroop-trial-1-unrelated-28", "trial_type": "html-keyboard-response", "trial_index": 153, "time_elapsed": 282001, "internal_node_id": "0.0-6.0-58.0"}}, {"uniqueid": "w30845020:a89498118", "current_trial": 154, "dateTime": 1664368945815, "trialdata": {"rt": 601, "stimulus": "<p id='stroop-text' class='stroop-blue'>YELLOW</p>", "response": "b", "stimulus-type": "incongruent", "word": "yellow", "color": "blue", "correct_response": "b", "trial_id": "stroop-trial-1-incongruent-24", "trial_type": "html-keyboard-response", "trial_index": 154, "time_elapsed": 283106, "internal_node_id": "0.0-6.0-59.0"}}, {"uniqueid": "w30845020:a89498118", "current_trial": 155, "dateTime": 1664368947000, "trialdata": {"rt": 679, "stimulus": "<p id='stroop-text' class='stroop-blue'>BLUE</p>", "response": "b", "stimulus-type": "congruent", "word": "blue", "color": "blue", "correct_response": "b", "trial_id": "stroop-trial-1-congruent-1", "trial_type": "html-keyboard-response", "trial_index": 155, "time_elapsed": 284290, "internal_node_id": "0.0-6.0-60.0"}}, {"uniqueid": "w30845020:a89498118", "current_trial": 156, "dateTime": 1664368948070, "trialdata": {"rt": 566, "stimulus": "<p id='stroop-text' class='stroop-red'>RED</p>", "response": "r", "stimulus-type": "congruent", "word": "red", "color": "red", "correct_response": "r", "trial_id": "stroop-trial-1-congruent-2", "trial_type": "html-keyboard-response", "trial_index": 156, "time_elapsed": 285360, "internal_node_id": "0.0-6.0-61.0"}}, {"uniqueid": "w30845020:a89498118", "current_trial": 157, "dateTime": 1664368949607, "trialdata": {"rt": 1033, "stimulus": "<p id='stroop-text' class='stroop-blue'>BLUE</p>", "response": "b", "stimulus-type": "congruent", "word": "blue", "color": "blue", "correct_response": "b", "trial_id": "stroop-trial-1-congruent-19", "trial_type": "html-keyboard-response", "trial_index": 157, "time_elapsed": 286898, "internal_node_id": "0.0-6.0-62.0"}}, {"uniqueid": "w30845020:a89498118", "current_trial": 158, "dateTime": 1664368950503, "trialdata": {"rt": 392, "stimulus": "<p id='stroop-text' class='stroop-blue'>RED</p>", "response": "b", "stimulus-type": "incongruent", "word": "red", "color": "blue", "correct_response": "b", "trial_id": "stroop-trial-1-incongruent-23", "trial_type": "html-keyboard-response", "trial_index": 158, "time_elapsed": 287794, "internal_node_id": "0.0-6.0-63.0"}}, {"uniqueid": "w30845020:a89498118", "current_trial": 159, "dateTime": 1664368951429, "trialdata": {"rt": 422, "stimulus": "<p id='stroop-text' class='stroop-blue'>GREEN</p>", "response": "b", "stimulus-type": "incongruent", "word": "green", "color": "blue", "correct_response": "b", "trial_id": "stroop-trial-1-incongruent-12", "trial_type": "html-keyboard-response", "trial_index": 159, "time_elapsed": 288720, "internal_node_id": "0.0-6.0-64.0"}}, {"uniqueid": "w30845020:a89498118", "current_trial": 160, "dateTime": 1664368952600, "trialdata": {"rt": 665, "stimulus": "<p id='stroop-text' class='stroop-red'>SHIP</p>", "response": "r", "stimulus-type": "unrelated", "word": "SHIP", "color": "red", "correct_response": "r", "trial_id": "stroop-trial-1-unrelated-7", "trial_type": "html-keyboard-response", "trial_index": 160, "time_elapsed": 289890, "internal_node_id": "0.0-6.0-65.0"}}, {"uniqueid": "w30845020:a89498118", "current_trial": 161, "dateTime": 1664368953629, "trialdata": {"rt": 526, "stimulus": "<p id='stroop-text' class='stroop-yellow'>YELLOW</p>", "response": "y", "stimulus-type": "congruent", "word": "yellow", "color": "yellow", "correct_response": "y", "trial_id": "stroop-trial-1-congruent-22", "trial_type": "html-keyboard-response", "trial_index": 161, "time_elapsed": 290920, "internal_node_id": "0.0-6.0-66.0"}}, {"uniqueid": "w30845020:a89498118", "current_trial": 162, "dateTime": 1664368954741, "trialdata": {"rt": 607, "stimulus": "<p id='stroop-text' class='stroop-blue'>BLUE</p>", "response": "b", "stimulus-type": "congruent", "word": "blue", "color": "blue", "correct_response": "b", "trial_id": "stroop-trial-1-congruent-18", "trial_type": "html-keyboard-response", "trial_index": 162, "time_elapsed": 292032, "internal_node_id": "0.0-6.0-67.0"}}, {"uniqueid": "w30845020:a89498118", "current_trial": 163, "dateTime": 1664368955954, "trialdata": {"rt": 709, "stimulus": "<p id='stroop-text' class='stroop-red'>GREEN</p>", "response": "r", "stimulus-type": "incongruent", "word": "green", "color": "red", "correct_response": "r", "trial_id": "stroop-trial-1-incongruent-22", "trial_type": "html-keyboard-response", "trial_index": 163, "time_elapsed": 293244, "internal_node_id": "0.0-6.0-68.0"}}, {"uniqueid": "w30845020:a89498118", "current_trial": 164, "dateTime": 1664368957258, "trialdata": {"rt": 800, "stimulus": "<p id='stroop-text' class='stroop-yellow'>BOAT</p>", "response": "y", "stimulus-type": "unrelated", "word": "BOAT", "color": "yellow", "correct_response": "y", "trial_id": "stroop-trial-1-unrelated-23", "trial_type": "html-keyboard-response", "trial_index": 164, "time_elapsed": 294548, "internal_node_id": "0.0-6.0-69.0"}}, {"uniqueid": "w30845020:a89498118", "current_trial": 165, "dateTime": 1664368958373, "trialdata": {"rt": 611, "stimulus": "<p id='stroop-text' class='stroop-red'>BRAIN</p>", "response": "r", "stimulus-type": "unrelated", "word": "BRAIN", "color": "red", "correct_response": "r", "trial_id": "stroop-trial-1-unrelated-26", "trial_type": "html-keyboard-response", "trial_index": 165, "time_elapsed": 295664, "internal_node_id": "0.0-6.0-70.0"}}, {"uniqueid": "w30845020:a89498118", "current_trial": 166, "dateTime": 1664368959863, "trialdata": {"rt": 985, "stimulus": "<p id='stroop-text' class='stroop-yellow'>SHIP</p>", "response": "y", "stimulus-type": "unrelated", "word": "SHIP", "color": "yellow", "correct_response": "y", "trial_id": "stroop-trial-1-unrelated-19", "trial_type": "html-keyboard-response", "trial_index": 166, "time_elapsed": 297153, "internal_node_id": "0.0-6.0-71.0"}}, {"uniqueid": "w30845020:a89498118", "current_trial": 167, "dateTime": 1664368960922, "trialdata": {"rt": 556, "stimulus": "<p id='stroop-text' class='stroop-yellow'>CHAIR</p>", "response": "y", "stimulus-type": "unrelated", "word": "CHAIR", "color": "yellow", "correct_response": "y", "trial_id": "stroop-trial-1-unrelated-15", "trial_type": "html-keyboard-response", "trial_index": 167, "time_elapsed": 298212, "internal_node_id": "0.0-6.0-72.0"}}, {"uniqueid": "w30845020:a89498118", "current_trial": 168, "dateTime": 1664368962097, "trialdata": {"rt": 669, "stimulus": "<p id='stroop-text' class='stroop-red'>RED</p>", "response": "r", "stimulus-type": "congruent", "word": "red", "color": "red", "correct_response": "r", "trial_id": "stroop-trial-1-congruent-6", "trial_type": "html-keyboard-response", "trial_index": 168, "time_elapsed": 299387, "internal_node_id": "0.0-6.0-73.0"}}, {"uniqueid": "w30845020:a89498118", "current_trial": 169, "dateTime": 1664368963162, "trialdata": {"rt": 561, "stimulus": "<p id='stroop-text' class='stroop-blue'>BLUE</p>", "response": "b", "stimulus-type": "congruent", "word": "blue", "color": "blue", "correct_response": "b", "trial_id": "stroop-trial-1-congruent-8", "trial_type": "html-keyboard-response", "trial_index": 169, "time_elapsed": 300452, "internal_node_id": "0.0-6.0-74.0"}}, {"uniqueid": "w30845020:a89498118", "current_trial": 170, "dateTime": 1664368964213, "trialdata": {"rt": 547, "stimulus": "<p id='stroop-text' class='stroop-green'>YELLOW</p>", "response": "g", "stimulus-type": "incongruent", "word": "yellow", "color": "green", "correct_response": "g", "trial_id": "stroop-trial-1-incongruent-13", "trial_type": "html-keyboard-response", "trial_index": 170, "time_elapsed": 301504, "internal_node_id": "0.0-6.0-75.0"}}, {"uniqueid": "w30845020:a89498118", "current_trial": 171, "dateTime": 1664368965277, "trialdata": {"rt": 559, "stimulus": "<p id='stroop-text' class='stroop-blue'>BLUE</p>", "response": "b", "stimulus-type": "congruent", "word": "blue", "color": "blue", "correct_response": "b", "trial_id": "stroop-trial-1-congruent-5", "trial_type": "html-keyboard-response", "trial_index": 171, "time_elapsed": 302568, "internal_node_id": "0.0-6.0-76.0"}}, {"uniqueid": "w30845020:a89498118", "current_trial": 172, "dateTime": 1664368966357, "trialdata": {"rt": 567, "stimulus": "<p id='stroop-text' class='stroop-yellow'>YELLOW</p>", "response": "y", "stimulus-type": "congruent", "word": "yellow", "color": "yellow", "correct_response": "y", "trial_id": "stroop-trial-1-congruent-9", "trial_type": "html-keyboard-response", "trial_index": 172, "time_elapsed": 303647, "internal_node_id": "0.0-6.0-77.0"}}, {"uniqueid": "w30845020:a89498118", "current_trial": 173, "dateTime": 1664368967662, "trialdata": {"rt": 800, "stimulus": "<p id='stroop-text' class='stroop-blue'>BRAIN</p>", "response": "b", "stimulus-type": "unrelated", "word": "BRAIN", "color": "blue", "correct_response": "b", "trial_id": "stroop-trial-1-unrelated-3", "trial_type": "html-keyboard-response", "trial_index": 173, "time_elapsed": 304952, "internal_node_id": "0.0-6.0-78.0"}}, {"uniqueid": "w30845020:a89498118", "current_trial": 174, "dateTime": 1664368968696, "trialdata": {"rt": 529, "stimulus": "<p id='stroop-text' class='stroop-red'>RED</p>", "response": "r", "stimulus-type": "congruent", "word": "red", "color": "red", "correct_response": "r", "trial_id": "stroop-trial-1-congruent-11", "trial_type": "html-keyboard-response", "trial_index": 174, "time_elapsed": 305987, "internal_node_id": "0.0-6.0-79.0"}}, {"uniqueid": "w30845020:a89498118", "current_trial": 175, "dateTime": 1664368969792, "trialdata": {"rt": 592, "stimulus": "<p id='stroop-text' class='stroop-green'>GREEN</p>", "response": "g", "stimulus-type": "congruent", "word": "green", "color": "green", "correct_response": "g", "trial_id": "stroop-trial-1-congruent-14", "trial_type": "html-keyboard-response", "trial_index": 175, "time_elapsed": 307082, "internal_node_id": "0.0-6.0-80.0"}}, {"uniqueid": "w30845020:a89498118", "current_trial": 176, "dateTime": 1664368970956, "trialdata": {"rt": 659, "stimulus": "<p id='stroop-text' class='stroop-yellow'>SHIP</p>", "response": "y", "stimulus-type": "unrelated", "word": "SHIP", "color": "yellow", "correct_response": "y", "trial_id": "stroop-trial-1-unrelated-2", "trial_type": "html-keyboard-response", "trial_index": 176, "time_elapsed": 308247, "internal_node_id": "0.0-6.0-81.0"}}, {"uniqueid": "w30845020:a89498118", "current_trial": 177, "dateTime": 1664368972395, "trialdata": {"rt": 936, "stimulus": "<p id='stroop-text' class='stroop-red'>GREEN</p>", "response": "r", "stimulus-type": "incongruent", "word": "green", "color": "red", "correct_response": "r", "trial_id": "stroop-trial-1-incongruent-29", "trial_type": "html-keyboard-response", "trial_index": 177, "time_elapsed": 309686, "internal_node_id": "0.0-6.0-82.0"}}, {"uniqueid": "w30845020:a89498118", "current_trial": 178, "dateTime": 1664368973326, "trialdata": {"rt": 426, "stimulus": "<p id='stroop-text' class='stroop-red'>GREEN</p>", "response": "r", "stimulus-type": "incongruent", "word": "green", "color": "red", "correct_response": "r", "trial_id": "stroop-trial-1-incongruent-16", "trial_type": "html-keyboard-response", "trial_index": 178, "time_elapsed": 310616, "internal_node_id": "0.0-6.0-83.0"}}, {"uniqueid": "w30845020:a89498118", "current_trial": 179, "dateTime": 1664368974863, "trialdata": {"rt": 1033, "stimulus": "<p id='stroop-text' class='stroop-green'>DOG</p>", "response": "g", "stimulus-type": "unrelated", "word": "DOG", "color": "green", "correct_response": "g", "trial_id": "stroop-trial-1-unrelated-13", "trial_type": "html-keyboard-response", "trial_index": 179, "time_elapsed": 312154, "internal_node_id": "0.0-6.0-84.0"}}, {"uniqueid": "w30845020:a89498118", "current_trial": 180, "dateTime": 1664368975973, "trialdata": {"rt": 607, "stimulus": "<p id='stroop-text' class='stroop-blue'>BRIDGE</p>", "response": "b", "stimulus-type": "unrelated", "word": "BRIDGE", "color": "blue", "correct_response": "b", "trial_id": "stroop-trial-1-unrelated-9", "trial_type": "html-keyboard-response", "trial_index": 180, "time_elapsed": 313264, "internal_node_id": "0.0-6.0-85.0"}}, {"uniqueid": "w30845020:a89498118", "current_trial": 181, "dateTime": 1664368976889, "trialdata": {"rt": 410, "stimulus": "<p id='stroop-text' class='stroop-blue'>GREEN</p>", "response": "b", "stimulus-type": "incongruent", "word": "green", "color": "blue", "correct_response": "b", "trial_id": "stroop-trial-1-incongruent-18", "trial_type": "html-keyboard-response", "trial_index": 181, "time_elapsed": 314179, "internal_node_id": "0.0-6.0-86.0"}}, {"uniqueid": "w30845020:a89498118", "current_trial": 182, "dateTime": 1664368978014, "trialdata": {"rt": 621, "stimulus": "<p id='stroop-text' class='stroop-green'>BRIDGE</p>", "response": "g", "stimulus-type": "unrelated", "word": "BRIDGE", "color": "green", "correct_response": "g", "trial_id": "stroop-trial-1-unrelated-30", "trial_type": "html-keyboard-response", "trial_index": 182, "time_elapsed": 315304, "internal_node_id": "0.0-6.0-87.0"}}, {"uniqueid": "w30845020:a89498118", "current_trial": 183, "dateTime": 1664368979069, "trialdata": {"rt": 552, "stimulus": "<p id='stroop-text' class='stroop-red'>RED</p>", "response": "r", "stimulus-type": "congruent", "word": "red", "color": "red", "correct_response": "r", "trial_id": "stroop-trial-1-congruent-20", "trial_type": "html-keyboard-response", "trial_index": 183, "time_elapsed": 316360, "internal_node_id": "0.0-6.0-88.0"}}, {"uniqueid": "w30845020:a89498118", "current_trial": 184, "dateTime": 1664368980209, "trialdata": {"rt": 635, "stimulus": "<p id='stroop-text' class='stroop-blue'>BOTTLE</p>", "response": "b", "stimulus-type": "unrelated", "word": "BOTTLE", "color": "blue", "correct_response": "b", "trial_id": "stroop-trial-1-unrelated-25", "trial_type": "html-keyboard-response", "trial_index": 184, "time_elapsed": 317500, "internal_node_id": "0.0-6.0-89.0"}}, {"uniqueid": "w30845020:a89498118", "current_trial": 185, "dateTime": 1664369045596, "trialdata": {"rt": 64884, "stimulus": "  <h1> End of block! </h1>\n\n  You have reached the end of the block 2/5. If you need a short break, feel free to take one now before moving on.\n\n  <br><br>\n  In the next block, you will complete another 90 rounds of this game.\n\n  <br><br>\n  <div style='text-align: center;'>Press <code>space</code> to begin.</div>\n  <br><br>\n<div style='text-align: center;'>(If the experiment doesn't continue, try clicking on the text and then pressing <code>space</code>.)</div>", "response": " ", "trial_id": "stroop_1_ready_3", "trial_type": "html-keyboard-response", "trial_index": 185, "time_elapsed": 382887, "internal_node_id": "0.0-7.0"}}, {"uniqueid": "w30845020:a89498118", "current_trial": 186, "dateTime": 1664369046507, "trialdata": {"rt": 906, "stimulus": "<p id='stroop-text' class='stroop-green'>BLUE</p>", "response": "g", "stimulus-type": "incongruent", "word": "blue", "color": "green", "correct_response": "g", "trial_id": "stroop-trial-1-incongruent-6", "trial_type": "html-keyboard-response", "trial_index": 186, "time_elapsed": 383798, "internal_node_id": "0.0-8.0-0.0"}}, {"uniqueid": "w30845020:a89498118", "current_trial": 187, "dateTime": 1664369047741, "trialdata": {"rt": 729, "stimulus": "<p id='stroop-text' class='stroop-blue'>CHAIR</p>", "response": "b", "stimulus-type": "unrelated", "word": "CHAIR", "color": "blue", "correct_response": "b", "trial_id": "stroop-trial-1-unrelated-10", "trial_type": "html-keyboard-response", "trial_index": 187, "time_elapsed": 385032, "internal_node_id": "0.0-8.0-1.0"}}, {"uniqueid": "w30845020:a89498118", "current_trial": 188, "dateTime": 1664369049051, "trialdata": {"rt": 807, "stimulus": "<p id='stroop-text' class='stroop-blue'>RED</p>", "response": "b", "stimulus-type": "incongruent", "word": "red", "color": "blue", "correct_response": "b", "trial_id": "stroop-trial-1-incongruent-21", "trial_type": "html-keyboard-response", "trial_index": 188, "time_elapsed": 386341, "internal_node_id": "0.0-8.0-2.0"}}, {"uniqueid": "w30845020:a89498118", "current_trial": 189, "dateTime": 1664369050508, "trialdata": {"rt": 953, "stimulus": "<p id='stroop-text' class='stroop-yellow'>SHIP</p>", "response": "y", "stimulus-type": "unrelated", "word": "SHIP", "color": "yellow", "correct_response": "y", "trial_id": "stroop-trial-1-unrelated-8", "trial_type": "html-keyboard-response", "trial_index": 189, "time_elapsed": 387799, "internal_node_id": "0.0-8.0-3.0"}}, {"uniqueid": "w30845020:a89498118", "current_trial": 190, "dateTime": 1664369051629, "trialdata": {"rt": 616, "stimulus": "<p id='stroop-text' class='stroop-red'>RED</p>", "response": "r", "stimulus-type": "congruent", "word": "red", "color": "red", "correct_response": "r", "trial_id": "stroop-trial-1-congruent-19", "trial_type": "html-keyboard-response", "trial_index": 190, "time_elapsed": 388920, "internal_node_id": "0.0-8.0-4.0"}}, {"uniqueid": "w30845020:a89498118", "current_trial": 191, "dateTime": 1664369052734, "trialdata": {"rt": 600, "stimulus": "<p id='stroop-text' class='stroop-blue'>BLUE</p>", "response": "b", "stimulus-type": "congruent", "word": "blue", "color": "blue", "correct_response": "b", "trial_id": "stroop-trial-1-congruent-10", "trial_type": "html-keyboard-response", "trial_index": 191, "time_elapsed": 390025, "internal_node_id": "0.0-8.0-5.0"}}, {"uniqueid": "w30845020:a89498118", "current_trial": 192, "dateTime": 1664369053948, "trialdata": {"rt": 710, "stimulus": "<p id='stroop-text' class='stroop-red'>GREEN</p>", "response": "r", "stimulus-type": "incongruent", "word": "green", "color": "red", "correct_response": "r", "trial_id": "stroop-trial-1-incongruent-14", "trial_type": "html-keyboard-response", "trial_index": 192, "time_elapsed": 391238, "internal_node_id": "0.0-8.0-6.0"}}, {"uniqueid": "w30845020:a89498118", "current_trial": 193, "dateTime": 1664369055004, "trialdata": {"rt": 551, "stimulus": "<p id='stroop-text' class='stroop-blue'>RED</p>", "response": "b", "stimulus-type": "incongruent", "word": "red", "color": "blue", "correct_response": "b", "trial_id": "stroop-trial-1-incongruent-9", "trial_type": "html-keyboard-response", "trial_index": 193, "time_elapsed": 392294, "internal_node_id": "0.0-8.0-7.0"}}, {"uniqueid": "w30845020:a89498118", "current_trial": 194, "dateTime": 1664369056024, "trialdata": {"rt": 516, "stimulus": "<p id='stroop-text' class='stroop-yellow'>YELLOW</p>", "response": "y", "stimulus-type": "congruent", "word": "yellow", "color": "yellow", "correct_response": "y", "trial_id": "stroop-trial-1-congruent-15", "trial_type": "html-keyboard-response", "trial_index": 194, "time_elapsed": 393315, "internal_node_id": "0.0-8.0-8.0"}}, {"uniqueid": "w30845020:a89498118", "current_trial": 195, "dateTime": 1664369056979, "trialdata": {"rt": 451, "stimulus": "<p id='stroop-text' class='stroop-yellow'>YELLOW</p>", "response": "y", "stimulus-type": "congruent", "word": "yellow", "color": "yellow", "correct_response": "y", "trial_id": "stroop-trial-1-congruent-27", "trial_type": "html-keyboard-response", "trial_index": 195, "time_elapsed": 394270, "internal_node_id": "0.0-8.0-9.0"}}, {"uniqueid": "w30845020:a89498118", "current_trial": 196, "dateTime": 1664369057885, "trialdata": {"rt": 400, "stimulus": "<p id='stroop-text' class='stroop-yellow'>DOG</p>", "response": "y", "stimulus-type": "unrelated", "word": "DOG", "color": "yellow", "correct_response": "y", "trial_id": "stroop-trial-1-unrelated-11", "trial_type": "html-keyboard-response", "trial_index": 196, "time_elapsed": 395175, "internal_node_id": "0.0-8.0-10.0"}}, {"uniqueid": "w30845020:a89498118", "current_trial": 197, "dateTime": 1664369059050, "trialdata": {"rt": 659, "stimulus": "<p id='stroop-text' class='stroop-green'>GREEN</p>", "response": "g", "stimulus-type": "congruent", "word": "green", "color": "green", "correct_response": "g", "trial_id": "stroop-trial-1-congruent-16", "trial_type": "html-keyboard-response", "trial_index": 197, "time_elapsed": 396341, "internal_node_id": "0.0-8.0-11.0"}}, {"uniqueid": "w30845020:a89498118", "current_trial": 198, "dateTime": 1664369060235, "trialdata": {"rt": 680, "stimulus": "<p id='stroop-text' class='stroop-red'>DOG</p>", "response": "r", "stimulus-type": "unrelated", "word": "DOG", "color": "red", "correct_response": "r", "trial_id": "stroop-trial-1-unrelated-26", "trial_type": "html-keyboard-response", "trial_index": 198, "time_elapsed": 397526, "internal_node_id": "0.0-8.0-12.0"}}, {"uniqueid": "w30845020:a89498118", "current_trial": 199, "dateTime": 1664369061156, "trialdata": {"rt": 417, "stimulus": "<p id='stroop-text' class='stroop-red'>BLUE</p>", "response": "r", "stimulus-type": "incongruent", "word": "blue", "color": "red", "correct_response": "r", "trial_id": "stroop-trial-1-incongruent-22", "trial_type": "html-keyboard-response", "trial_index": 199, "time_elapsed": 398446, "internal_node_id": "0.0-8.0-13.0"}}, {"uniqueid": "w30845020:a89498118", "current_trial": 200, "dateTime": 1664369062671, "trialdata": {"rt": 1011, "stimulus": "<p id='stroop-text' class='stroop-green'>RED</p>", "response": "g", "stimulus-type": "incongruent", "word": "red", "color": "green", "correct_response": "g", "trial_id": "stroop-trial-1-incongruent-25", "trial_type": "html-keyboard-response", "trial_index": 200, "time_elapsed": 399962, "internal_node_id": "0.0-8.0-14.0"}}, {"uniqueid": "w30845020:a89498118", "current_trial": 201, "dateTime": 1664369063684, "trialdata": {"rt": 511, "stimulus": "<p id='stroop-text' class='stroop-yellow'>YELLOW</p>", "response": "y", "stimulus-type": "congruent", "word": "yellow", "color": "yellow", "correct_response": "y", "trial_id": "stroop-trial-1-congruent-26", "trial_type": "html-keyboard-response", "trial_index": 201, "time_elapsed": 400975, "internal_node_id": "0.0-8.0-15.0"}}, {"uniqueid": "w30845020:a89498118", "current_trial": 202, "dateTime": 1664369064874, "trialdata": {"rt": 686, "stimulus": "<p id='stroop-text' class='stroop-green'>GREEN</p>", "response": "g", "stimulus-type": "congruent", "word": "green", "color": "green", "correct_response": "g", "trial_id": "stroop-trial-1-congruent-24", "trial_type": "html-keyboard-response", "trial_index": 202, "time_elapsed": 402165, "internal_node_id": "0.0-8.0-16.0"}}, {"uniqueid": "w30845020:a89498118", "current_trial": 203, "dateTime": 1664369066138, "trialdata": {"rt": 759, "stimulus": "<p id='stroop-text' class='stroop-red'>GREEN</p>", "response": "r", "stimulus-type": "incongruent", "word": "green", "color": "red", "correct_response": "r", "trial_id": "stroop-trial-1-incongruent-16", "trial_type": "html-keyboard-response", "trial_index": 203, "time_elapsed": 403428, "internal_node_id": "0.0-8.0-17.0"}}, {"uniqueid": "w30845020:a89498118", "current_trial": 204, "dateTime": 1664369067220, "trialdata": {"rt": 579, "stimulus": "<p id='stroop-text' class='stroop-red'>STONE</p>", "response": "r", "stimulus-type": "unrelated", "word": "STONE", "color": "red", "correct_response": "r", "trial_id": "stroop-trial-1-unrelated-24", "trial_type": "html-keyboard-response", "trial_index": 204, "time_elapsed": 404511, "internal_node_id": "0.0-8.0-18.0"}}, {"uniqueid": "w30845020:a89498118", "current_trial": 205, "dateTime": 1664369068339, "trialdata": {"rt": 614, "stimulus": "<p id='stroop-text' class='stroop-blue'>BRAIN</p>", "response": "b", "stimulus-type": "unrelated", "word": "BRAIN", "color": "blue", "correct_response": "b", "trial_id": "stroop-trial-1-unrelated-16", "trial_type": "html-keyboard-response", "trial_index": 205, "time_elapsed": 405629, "internal_node_id": "0.0-8.0-19.0"}}, {"uniqueid": "w30845020:a89498118", "current_trial": 206, "dateTime": 1664369069473, "trialdata": {"rt": 630, "stimulus": "<p id='stroop-text' class='stroop-green'>YELLOW</p>", "response": "y", "stimulus-type": "incongruent", "word": "yellow", "color": "green", "correct_response": "g", "trial_id": "stroop-trial-1-incongruent-19", "trial_type": "html-keyboard-response", "trial_index": 206, "time_elapsed": 406764, "internal_node_id": "0.0-8.0-20.0"}}, {"uniqueid": "w30845020:a89498118", "current_trial": 207, "dateTime": 1664369070567, "trialdata": {"rt": 590, "stimulus": "<p id='stroop-text' class='stroop-green'>CHAIR</p>", "response": "g", "stimulus-type": "unrelated", "word": "CHAIR", "color": "green", "correct_response": "g", "trial_id": "stroop-trial-1-unrelated-17", "trial_type": "html-keyboard-response", "trial_index": 207, "time_elapsed": 407858, "internal_node_id": "0.0-8.0-21.0"}}, {"uniqueid": "w30845020:a89498118", "current_trial": 208, "dateTime": 1664369071459, "trialdata": {"rt": 387, "stimulus": "<p id='stroop-text' class='stroop-green'>BLUE</p>", "response": "g", "stimulus-type": "incongruent", "word": "blue", "color": "green", "correct_response": "g", "trial_id": "stroop-trial-1-incongruent-4", "trial_type": "html-keyboard-response", "trial_index": 208, "time_elapsed": 408750, "internal_node_id": "0.0-8.0-22.0"}}, {"uniqueid": "w30845020:a89498118", "current_trial": 209, "dateTime": 1664369072553, "trialdata": {"rt": 590, "stimulus": "<p id='stroop-text' class='stroop-red'>RED</p>", "response": "r", "stimulus-type": "congruent", "word": "red", "color": "red", "correct_response": "r", "trial_id": "stroop-trial-1-congruent-6", "trial_type": "html-keyboard-response", "trial_index": 209, "time_elapsed": 409844, "internal_node_id": "0.0-8.0-23.0"}}, {"uniqueid": "w30845020:a89498118", "current_trial": 210, "dateTime": 1664369073549, "trialdata": {"rt": 491, "stimulus": "<p id='stroop-text' class='stroop-yellow'>YELLOW</p>", "response": "y", "stimulus-type": "congruent", "word": "yellow", "color": "yellow", "correct_response": "y", "trial_id": "stroop-trial-1-congruent-23", "trial_type": "html-keyboard-response", "trial_index": 210, "time_elapsed": 410840, "internal_node_id": "0.0-8.0-24.0"}}, {"uniqueid": "w30845020:a89498118", "current_trial": 211, "dateTime": 1664369074579, "trialdata": {"rt": 526, "stimulus": "<p id='stroop-text' class='stroop-yellow'>BOTTLE</p>", "response": "y", "stimulus-type": "unrelated", "word": "BOTTLE", "color": "yellow", "correct_response": "y", "trial_id": "stroop-trial-1-unrelated-9", "trial_type": "html-keyboard-response", "trial_index": 211, "time_elapsed": 411870, "internal_node_id": "0.0-8.0-25.0"}}, {"uniqueid": "w30845020:a89498118", "current_trial": 212, "dateTime": 1664369075451, "trialdata": {"rt": 366, "stimulus": "<p id='stroop-text' class='stroop-yellow'>YELLOW</p>", "response": "y", "stimulus-type": "congruent", "word": "yellow", "color": "yellow", "correct_response": "y", "trial_id": "stroop-trial-1-congruent-1", "trial_type": "html-keyboard-response", "trial_index": 212, "time_elapsed": 412742, "internal_node_id": "0.0-8.0-26.0"}}, {"uniqueid": "w30845020:a89498118", "current_trial": 213, "dateTime": 1664369076337, "trialdata": {"rt": 382, "stimulus": "<p id='stroop-text' class='stroop-yellow'>YELLOW</p>", "response": "y", "stimulus-type": "congruent", "word": "yellow", "color": "yellow", "correct_response": "y", "trial_id": "stroop-trial-1-congruent-21", "trial_type": "html-keyboard-response", "trial_index": 213, "time_elapsed": 413628, "internal_node_id": "0.0-8.0-27.0"}}, {"uniqueid": "w30845020:a89498118", "current_trial": 214, "dateTime": 1664369077188, "trialdata": {"rt": 345, "stimulus": "<p id='stroop-text' class='stroop-yellow'>YELLOW</p>", "response": "y", "stimulus-type": "congruent", "word": "yellow", "color": "yellow", "correct_response": "y", "trial_id": "stroop-trial-1-congruent-11", "trial_type": "html-keyboard-response", "trial_index": 214, "time_elapsed": 414478, "internal_node_id": "0.0-8.0-28.0"}}, {"uniqueid": "w30845020:a89498118", "current_trial": 215, "dateTime": 1664369078069, "trialdata": {"rt": 377, "stimulus": "<p id='stroop-text' class='stroop-yellow'>YELLOW</p>", "response": "y", "stimulus-type": "congruent", "word": "yellow", "color": "yellow", "correct_response": "y", "trial_id": "stroop-trial-1-congruent-22", "trial_type": "html-keyboard-response", "trial_index": 215, "time_elapsed": 415360, "internal_node_id": "0.0-8.0-29.0"}}, {"uniqueid": "w30845020:a89498118", "current_trial": 216, "dateTime": 1664369079299, "trialdata": {"rt": 726, "stimulus": "<p id='stroop-text' class='stroop-green'>YELLOW</p>", "response": "g", "stimulus-type": "incongruent", "word": "yellow", "color": "green", "correct_response": "g", "trial_id": "stroop-trial-1-incongruent-23", "trial_type": "html-keyboard-response", "trial_index": 216, "time_elapsed": 416590, "internal_node_id": "0.0-8.0-30.0"}}, {"uniqueid": "w30845020:a89498118", "current_trial": 217, "dateTime": 1664369080393, "trialdata": {"rt": 589, "stimulus": "<p id='stroop-text' class='stroop-red'>GREEN</p>", "response": "r", "stimulus-type": "incongruent", "word": "green", "color": "red", "correct_response": "r", "trial_id": "stroop-trial-1-incongruent-12", "trial_type": "html-keyboard-response", "trial_index": 217, "time_elapsed": 417684, "internal_node_id": "0.0-8.0-31.0"}}, {"uniqueid": "w30845020:a89498118", "current_trial": 218, "dateTime": 1664369081697, "trialdata": {"rt": 800, "stimulus": "<p id='stroop-text' class='stroop-yellow'>BLUE</p>", "response": "y", "stimulus-type": "incongruent", "word": "blue", "color": "yellow", "correct_response": "y", "trial_id": "stroop-trial-1-incongruent-5", "trial_type": "html-keyboard-response", "trial_index": 218, "time_elapsed": 418988, "internal_node_id": "0.0-8.0-32.0"}}, {"uniqueid": "w30845020:a89498118", "current_trial": 219, "dateTime": 1664369082817, "trialdata": {"rt": 615, "stimulus": "<p id='stroop-text' class='stroop-green'>CHAIR</p>", "response": "g", "stimulus-type": "unrelated", "word": "CHAIR", "color": "green", "correct_response": "g", "trial_id": "stroop-trial-1-unrelated-4", "trial_type": "html-keyboard-response", "trial_index": 219, "time_elapsed": 420107, "internal_node_id": "0.0-8.0-33.0"}}, {"uniqueid": "w30845020:a89498118", "current_trial": 220, "dateTime": 1664369083773, "trialdata": {"rt": 452, "stimulus": "<p id='stroop-text' class='stroop-green'>GREEN</p>", "response": "g", "stimulus-type": "congruent", "word": "green", "color": "green", "correct_response": "g", "trial_id": "stroop-trial-1-congruent-7", "trial_type": "html-keyboard-response", "trial_index": 220, "time_elapsed": 421064, "internal_node_id": "0.0-8.0-34.0"}}, {"uniqueid": "w30845020:a89498118", "current_trial": 221, "dateTime": 1664369084897, "trialdata": {"rt": 618, "stimulus": "<p id='stroop-text' class='stroop-yellow'>YELLOW</p>", "response": "y", "stimulus-type": "congruent", "word": "yellow", "color": "yellow", "correct_response": "y", "trial_id": "stroop-trial-1-congruent-14", "trial_type": "html-keyboard-response", "trial_index": 221, "time_elapsed": 422188, "internal_node_id": "0.0-8.0-35.0"}}, {"uniqueid": "w30845020:a89498118", "current_trial": 222, "dateTime": 1664369085843, "trialdata": {"rt": 442, "stimulus": "<p id='stroop-text' class='stroop-green'>BOAT</p>", "response": "g", "stimulus-type": "unrelated", "word": "BOAT", "color": "green", "correct_response": "g", "trial_id": "stroop-trial-1-unrelated-25", "trial_type": "html-keyboard-response", "trial_index": 222, "time_elapsed": 423134, "i