{"condition": 1, "counterbalance": 0, "assignmentId": "a60383824", "workerId": "w48294494", "hitId": "h66121469", "currenttrial": 137, "bonus": 0, "data": [{"uniqueid": "w48294494:a60383824", "current_trial": 0, "dateTime": 1664463904971, "trialdata": {"success": true, "trial_type": "fullscreen", "trial_index": 0, "time_elapsed": 3595, "internal_node_id": "0.0-0.0"}}, {"uniqueid": "w48294494:a60383824", "current_trial": 1, "dateTime": 1664463935318, "trialdata": {"view_history": [{"page_index": 0, "viewing_time": 30336}], "rt": 30337, "trial_id": "exp_instructions_no_distractor", "trial_type": "instructions", "trial_index": 1, "time_elapsed": 33941, "internal_node_id": "0.0-1.0"}}, {"uniqueid": "w48294494:a60383824", "current_trial": 2, "dateTime": 1664463939065, "trialdata": {"success": true, "trial_type": "fullscreen", "trial_index": 2, "time_elapsed": 37689, "internal_node_id": "0.0-2.0-0.0"}}, {"uniqueid": "w48294494:a60383824", "current_trial": 3, "dateTime": 1664464078703, "trialdata": {"view_history": [{"page_index": 0, "viewing_time": 54735}, {"page_index": 1, "viewing_time": 37517}, {"page_index": 2, "viewing_time": 10236}, {"page_index": 3, "viewing_time": 14602}, {"page_index": 4, "viewing_time": 22539}], "rt": 139629, "trial_id": "mouselab_instructions_1", "trial_type": "instructions", "trial_index": 3, "time_elapsed": 177327, "internal_node_id": "0.0-2.0-1.0"}}, {"uniqueid": "w48294494:a60383824", "current_trial": 4, "dateTime": 1664464106853, "trialdata": {"revealed_states": [], "num_clicks_accrued": [0, 0, 0, 0, 0, 0, 0, 0, 0, 0, 0, 0, 0], "stateRewards": ["", 10, 10, -10, -10, 10, -10, 10, 10, -10, -10, 10, 10], "withholdReward": false, "trial_id": "practice_1", "block": "test", "trialIndex": 0, "score": 10.75, "costs": -1.25, "simulationMode": [null, null, null], "rewards": [10, -10, 10], "path": ["0", "0", "5", "6", "8"], "rt": [19036, 516, 367], "actions": ["right", "right", "down"], "actionTimes": [21279, 22316, 23208], "queries": {"click": {"state": {"target": ["1", "5", "9", "3", "8"], "time": [11014, 13320, 15538, 17068, 19007]}, "edge": {"target": [], "time": []}}, "mouseover": {"state": {"target": ["10", "11", "9", "1", "5", "0", "9", "3", "2", "4", "8"], "time": [6738, 7788, 9038, 10557, 12793, 13739, 13872, 16740, 17656, 17891, 18638]}, "edge": {"target": [], "time": []}}, "mouseout": {"state": {"target": ["0", "10", "11", "9", "1", "5", "0", "9", "5", "3", "2", "4", "5", "8"], "time": [5675, 7675, 8958, 10337, 11977, 13724, 13788, 16141, 16529, 17630, 17705, 18216, 18459, 19956]}, "edge": {"target": [], "time": []}}}, "displayed_time": "23.73", "trialTime": 27480, "trial_type": "mouselab-mdp", "trial_index": 4, "time_elapsed": 205477, "internal_node_id": "0.0-2.0-2.0-0.0"}}, {"uniqueid": "w48294494:a60383824", "current_trial": 5, "dateTime": 1664464118340, "trialdata": {"revealed_states": [], "num_clicks_accrued": [0, 0, 0, 0, 0, 0, 0, 0, 0, 0, 0, 0, 0], "stateRewards": ["", 10, -10, 10, 10, 10, 10, 10, 10, -10, 10, 10, 10], "withholdReward": false, "trial_id": "practice_2", "block": "test", "trialIndex": 1, "score": 31.25, "costs": -0.75, "simulationMode": [null, null, null], "rewards": [10, 10, 10], "path": ["0", "0", "5", "6", "7"], "rt": [5402, 125, 192], "actions": ["right", "right", "up"], "actionTimes": [7415, 8063, 8764], "queries": {"click": {"state": {"target": ["5", "7", "6"], "time": [3232, 4813, 6359]}, "edge": {"target": [], "time": []}}, "mouseover": {"state": {"target": ["5", "6", "7", "6"], "time": [2784, 4367, 4419, 6076]}, "edge": {"target": [], "time": []}}, "mouseout": {"state": {"target": ["0", "5", "6", "7", "6", "8"], "time": [2697, 4253, 4385, 5272, 6752, 10287]}, "edge": {"target": [], "time": []}}}, "displayed_time": "9.27", "trialTime": 11329, "trial_type": "mouselab-mdp", "trial_index": 5, "time_elapsed": 216964, "internal_node_id": "0.0-2.0-2.0-1.0"}}, {"uniqueid": "w48294494:a60383824", "current_trial": 6, "dateTime": 1664464204633, "trialdata": {"view_history": [{"page_index": 0, "viewing_time": 63427}, {"page_index": 1, "viewing_time": 15887}, {"page_index": 2, "viewing_time": 6973}], "rt": 86287, "trial_id": "mouselab_instructions_2_scarce", "trial_type": "instructions", "trial_index": 6, "time_elapsed": 303256, "internal_node_id": "0.0-2.0-3.0"}}, {"uniqueid": "w48294494:a60383824", "current_trial": 7, "dateTime": 1664464245585, "trialdata": {"rt": 40925, "response": {"Q0": "$-48 to $48", "Q1": "The cost is always $0.25.", "Q2": "The better I perform the higher my bonus will be.", "Q3": "No, the amount of cash at each node of the web may be different each time.", "Q4": "The values of the nodes walked through from start to finish.", "Q5": "No, the spider might forget to count the money on some rounds."}, "question_order": [0, 1, 2, 3, 4, 5], "correct": {"Q0": "$-48 to $48", "Q1": "The cost is always $0.25.", "Q2": "The better I perform the higher my bonus will be.", "Q3": "No, the amount of cash at each node of the web may be different each time.", "Q4": "The values of the nodes walked through from start to finish.", "Q5": "No, the spider might forget to count the money on some rounds."}, "trial_id": "mouselab_quiz_scarce", "trial_type": "survey-multi-choice", "trial_index": 7, "time_elapsed": 344209, "internal_node_id": "0.0-2.0-4.0"}}, {"uniqueid": "w48294494:a60383824", "current_trial": 8, "dateTime": 1664464259091, "trialdata": {"rt": 13495, "stimulus": "\n<h1> Get ready to start the game! </h1>\n\nThank you for reading the instructions. Get ready start with the first of 4 block(s) of this game.\n<br><br>\nIn this first block, you will complete 30 rounds of this game before moving on.\n<br><br>\nRemember, the more money the spider gets, the bigger your bonus will be!\n<br><br>\n<div style='text-align: center;'>Press <code>space</code> to begin.</div>\n\n<br><br>\n(If, at any point, the <code>space</code> key does not take you to the next page, click once on the text and try again.)", "response": " ", "trial_id": "mdp_ready_1", "trial_type": "html-keyboard-response", "trial_index": 8, "time_elapsed": 357714, "internal_node_id": "0.0-4.0-0.0"}}, {"uniqueid": "w48294494:a60383824", "current_trial": 9, "dateTime": 1664464275664, "trialdata": {"revealed_states": [], "num_clicks_accrued": [0, 0, 0, 0, 0, 0, 0, 0, 0, 0, 0, 0, 0], "stateRewards": ["", 2, -4, 48, -48, -2, 8, -48, 24, -2, -8, 48, 48], "withholdReward": true, "trial_id": "mdp_949326095747", "block": "test1", "trialIndex": 2, "score": 42.25, "costs": -0.75, "simulationMode": [null, null, null], "rewards": [-2, -8, 48], "path": ["0", "0", "9", "10", "12"], "rt": [8254, 62, 1123], "actions": ["left", "left", "down"], "actionTimes": [9952, 10524, 12167], "queries": {"click": {"state": {"target": ["5", "4", "12"], "time": [3069, 6021, 8173]}, "edge": {"target": [], "time": []}}, "mouseover": {"state": {"target": ["5", "1", "4", "1", "4", "9", "12"], "time": [2495, 3808, 4045, 5210, 5579, 6891, 7707]}, "edge": {"target": [], "time": []}}, "mouseout": {"state": {"target": ["0", "5", "1", "4", "1", "4", "9"], "time": [1228, 3760, 3858, 5030, 5534, 6751, 7593]}, "edge": {"target": [], "time": []}}}, "displayed_time": "12.68", "trialTime": 16401, "trial_type": "mouselab-mdp", "trial_index": 9, "time_elapsed": 374288, "internal_node_id": "0.0-4.0-1.0-0.0"}}, {"uniqueid": "w48294494:a60383824", "current_trial": 10, "dateTime": 1664464287326, "trialdata": {"revealed_states": [], "num_clicks_accrued": [0, 0, 0, 0, 0, 0, 0, 0, 0, 0, 0, 0, 0], "stateRewards": ["", -2, 8, -48, 48, -4, 8, -24, 24, 4, -4, 24, -48], "withholdReward": true, "trial_id": "mdp_904238083902", "block": "test1", "trialIndex": 3, "score": 28.5, "costs": -0.5, "simulationMode": [null, null, null], "rewards": [4, -4, 24], "path": ["0", "0", "9", "10", "11"], "rt": [4964, 138, 16], "actions": ["left", "left", "up"], "actionTimes": [6408, 7055, 7585], "queries": {"click": {"state": {"target": ["9", "11"], "time": [2307, 4736]}, "edge": {"target": [], "time": []}}, "mouseover": {"state": {"target": ["9", "11", "5", "6", "5", "0", "11"], "time": [1986, 3002, 3364, 3400, 3814, 4001, 4268]}, "edge": {"target": [], "time": []}}, "mouseout": {"state": {"target": ["12", "0", "9", "11", "5", "6", "5", "0", "11"], "time": [583, 1973, 2893, 3289, 3381, 3810, 3831, 4018, 9255]}, "edge": {"target": [], "time": []}}}, "displayed_time": "10.56", "trialTime": 11518, "trial_type": "mouselab-mdp", "trial_index": 10, "time_elapsed": 385949, "internal_node_id": "0.0-4.0-1.0-1.0"}}, {"uniqueid": "w48294494:a60383824", "current_trial": 11, "dateTime": 1664464298095, "trialdata": {"revealed_states": [], "num_clicks_accrued": [0, 0, 0, 0, 0, 0, 0, 0, 0, 0, 0, 0, 0], "stateRewards": ["", 4, -8, 48, -24, 4, -4, -48, -48, 4, -4, 24, 24], "withholdReward": true, "trial_id": "mdp_221562928904", "block": "test1", "trialIndex": 4, "score": 48.5, "costs": -0.5, "simulationMode": [null, null, null], "rewards": [4, -8, 48], "path": ["0", "0", "1", "2", "3"], "rt": [3175, 73, 160], "actions": ["up", "up", "right"], "actionTimes": [4395, 4988, 5686], "queries": {"click": {"state": {"target": ["1", "3"], "time": [1984, 2900]}, "edge": {"target": [], "time": []}}, "mouseover": {"state": {"target": ["1", "3", "5"], "time": [1642, 2473, 3674]}, "edge": {"target": [], "time": []}}, "mouseout": {"state": {"target": ["5", "0", "1", "3"], "time": [760, 1604, 2458, 3590]}, "edge": {"target": [], "time": []}}}, "displayed_time": "9.28", "trialTime": 10646, "trial_type": "mouselab-mdp", "trial_index": 11, "time_elapsed": 396719, "internal_node_id": "0.0-4.0-1.0-2.0"}}, {"uniqueid": "w48294494:a60383824", "current_trial": 12, "dateTime": 1664464311952, "trialdata": {"revealed_states": [], "num_clicks_accrued": [0, 0, 0, 0, 0, 0, 0, 0, 0, 0, 0, 0, 0], "stateRewards": ["", -4, -8, 48, 48, -4, 4, 48, -24, 4, 8, -24, -48], "withholdReward": true, "trial_id": "mdp_142906093415", "block": "test1", "trialIndex": 5, "score": 39.75, "costs": -1.25, "simulationMode": [null, null, null], "rewards": [-4, -8, 48], "path": ["0", "0", "1", "2", "4"], "rt": [9108, 75, 142], "actions": ["up", "up", "left"], "actionTimes": [10294, 10879, 11545], "queries": {"click": {"state": {"target": ["1", "5", "11", "12", "4"], "time": [2297, 3571, 5224, 6935, 8094]}, "edge": {"target": [], "time": []}}, "mouseover": {"state": {"target": ["1", "5", "9", "10", "11", "9", "12", "4"], "time": [1946, 3080, 4197, 4314, 4865, 6080, 6346, 7597]}, "edge": {"target": [], "time": []}}, "mouseout": {"state": {"target": ["5", "0", "1", "5", "9", "10", "11", "9", "12", "4", "1", "0"], "time": [681, 1916, 2981, 4100, 4246, 4648, 5969, 6165, 7529, 8660, 12759, 12797]}, "edge": {"target": [], "time": []}}}, "displayed_time": "12.08", "trialTime": 13726, "trial_type": "mouselab-mdp", "trial_index": 12, "time_elapsed": 410575, "internal_node_id": "0.0-4.0-1.0-3.0"}}, {"uniqueid": "w48294494:a60383824", "current_trial": 13, "dateTime": 1664464324065, "trialdata": {"revealed_states": [], "num_clicks_accrued": [0, 0, 0, 0, 0, 0, 0, 0, 0, 0, 0, 0, 0], "stateRewards": ["", 2, 4, 48, -48, 2, 8, -24, 48, 4, 8, 48, -48], "withholdReward": true, "trial_id": "mdp_110142964375", "block": "test1", "trialIndex": 6, "score": 58.5, "costs": -0.5, "simulationMode": [null, null, null], "rewards": [2, 4, 48], "path": ["0", "0", "1", "2", "3"], "rt": [3624, 184, 105], "actions": ["up", "up", "right"], "actionTimes": [6028, 6730, 7352], "queries": {"click": {"state": {"target": ["1", "3"], "time": [3330, 4393]}, "edge": {"target": [], "time": []}}, "mouseover": {"state": {"target": ["1", "3", "7"], "time": [3001, 4048, 5039]}, "edge": {"target": [], "time": []}}, "mouseout": {"state": {"target": ["0", "1", "3", "7"], "time": [1928, 3837, 5028, 5054]}, "edge": {"target": [], "time": []}}}, "displayed_time": "11.49", "trialTime": 11970, "trial_type": "mouselab-mdp", "trial_index": 13, "time_elapsed": 422689, "internal_node_id": "0.0-4.0-1.0-4.0"}}, {"uniqueid": "w48294494:a60383824", "current_trial": 14, "dateTime": 1664464337974, "trialdata": {"revealed_states": [], "num_clicks_accrued": [0, 0, 0, 0, 0, 0, 0, 0, 0, 0, 0, 0, 0], "stateRewards": ["", -2, -4, -48, -48, -2, -8, 48, -48, 4, -8, -48, 24], "withholdReward": true, "trial_id": "mdp_468495641521", "block": "test1", "trialIndex": 7, "score": 23.75, "costs": -1.25, "simulationMode": [null, null, null], "rewards": [4, -8, 24], "path": ["0", "0", "9", "10", "12"], "rt": [8234, 607, 188], "actions": ["left", "left", "down"], "actionTimes": [9684, 10821, 11519], "queries": {"click": {"state": {"target": ["1", "8", "11", "12", "9"], "time": [2518, 4327, 5968, 7690, 8505]}, "edge": {"target": [], "time": []}}, "mouseover": {"state": {"target": ["1", "5", "6", "8", "6", "5", "9", "11", "9", "12", "9"], "time": [2093, 3160, 3272, 3979, 4975, 5083, 5127, 5698, 6474, 7231, 8142]}, "edge": {"target": [], "time": []}}, "mouseout": {"state": {"target": ["0", "1", "5", "6", "8", "6", "5", "9", "11", "9", "12", "9", "0"], "time": [2048, 3135, 3192, 3877, 4919, 5025, 5103, 5226, 6400, 7094, 8092, 8982, 12663]}, "edge": {"target": [], "time": []}}}, "displayed_time": "12.03", "trialTime": 13775, "trial_type": "mouselab-mdp", "trial_index": 14, "time_elapsed": 436597, "internal_node_id": "0.0-4.0-1.0-5.0"}}, {"uniqueid": "w48294494:a60383824", "current_trial": 15, "dateTime": 1664464354434, "trialdata": {"revealed_states": [], "num_clicks_accrued": [0, 0, 0, 0, 0, 0, 0, 0, 0, 0, 0, 0, 0], "stateRewards": ["", -2, -4, -24, -48, -4, -8, -48, 24, -4, -8, -24, -48], "withholdReward": true, "trial_id": "mdp_475782454549", "block": "test1", "trialIndex": 8, "score": 15.25, "costs": -1.75, "simulationMode": [null, null, null], "rewards": [-4, -8, 24], "path": ["0", "0", "5", "6", "8"], "rt": [9986, 421, 939], "actions": ["right", "right", "down"], "actionTimes": [11369, 12320, 13790], "queries": {"click": {"state": {"target": ["1", "4", "9", "3", "7", "11", "8"], "time": [2292, 3365, 4456, 5458, 6389, 7976, 10428]}, "edge": {"target": [], "time": []}}, "mouseover": {"state": {"target": ["1", "4", "9", "0", "5", "3", "7", "7", "6", "8", "10", "11", "8"], "time": [1947, 3064, 3952, 4904, 5011, 5136, 5932, 6084, 6841, 6884, 7381, 7722, 10149]}, "edge": {"target": [], "time": []}}, "mouseout": {"state": {"target": ["0", "1", "4", "9", "0", "5", "3", "7", "7", "6", "8", "9", "10", "11", "8"], "time": [1863, 2981, 3917, 4892, 4931, 5039, 5865, 5980, 6829, 6864, 7320, 7366, 7413, 8461, 10771]}, "edge": {"target": [], "time": []}}}, "displayed_time": "14.30", "trialTime": 16322, "trial_type": "mouselab-mdp", "trial_index": 15, "time_elapsed": 453058, "internal_node_id": "0.0-4.0-1.0-6.0"}}, {"uniqueid": "w48294494:a60383824", "current_trial": 16, "dateTime": 1664464365893, "trialdata": {"revealed_states": [], "num_clicks_accrued": [0, 0, 0, 0, 0, 0, 0, 0, 0, 0, 0, 0, 0], "stateRewards": ["", 2, 8, -48, -24, 4, 4, 24, 48, 4, -4, -48, 48], "withholdReward": true, "trial_id": "mdp_665096999232", "block": "test1", "trialIndex": 9, "score": 52, "costs": -1, "simulationMode": [null, null, null], "rewards": [4, -4, 48], "path": ["0", "0", "9", "10", "12"], "rt": [5916, 561, 1032], "actions": ["left", "left", "down"], "actionTimes": [7253, 8328, 9883], "queries": {"click": {"state": {"target": ["1", "3", "4", "12"], "time": [2151, 3043, 4532, 5870]}, "edge": {"target": [], "time": []}}, "mouseover": {"state": {"target": ["1", "3", "2", "4", "9", "12"], "time": [1792, 2731, 3866, 4253, 5273, 5581]}, "edge": {"target": [], "time": []}}, "mouseout": {"state": {"target": ["0", "1", "3", "2", "4", "9", "12"], "time": [886, 2668, 3852, 3897, 5085, 5504, 6474]}, "edge": {"target": [], "time": []}}}, "displayed_time": "10.49", "trialTime": 11330, "trial_type": "mouselab-mdp", "trial_index": 16, "time_elapsed": 464517, "internal_node_id": "0.0-4.0-1.0-7.0"}}, {"uniqueid": "w48294494:a60383824", "current_trial": 17, "dateTime": 1664464375905, "trialdata": {"revealed_states": [], "num_clicks_accrued": [0, 0, 0, 0, 0, 0, 0, 0, 0, 0, 0, 0, 0], "stateRewards": ["", -2, 4, 24, 48, 2, 4, -48, -48, -2, 8, 48, -24], "withholdReward": true, "trial_id": "mdp_305701202606", "block": "test1", "trialIndex": 10, "score": 54, "costs": -1, "simulationMode": [null, null, null], "rewards": [-2, 4, 48], "path": ["0", "0", "1", "2", "4"], "rt": [5041, 480, 101], "actions": ["up", "up", "left"], "actionTimes": [6184, 7191, 7810], "queries": {"click": {"state": {"target": ["8", "7", "4", "1"], "time": [2010, 2882, 3878, 5008]}, "edge": {"target": [], "time": []}}, "mouseover": {"state": {"target": ["8", "7", "2", "4", "9", "1"], "time": [1591, 2508, 3474, 3574, 4571, 4665]}, "edge": {"target": [], "time": []}}, "mouseout": {"state": {"target": ["0", "8", "7", "2", "4", "9", "1"], "time": [1526, 2480, 3411, 3507, 4346, 4609, 5368]}, "edge": {"target": [], "time": []}}}, "displayed_time": "9.24", "trialTime": 9870, "trial_type": "mouselab-mdp", "trial_index": 17, "time_elapsed": 474529, "internal_node_id": "0.0-4.0-1.0-8.0"}}, {"uniqueid": "w48294494:a60383824", "current_trial": 18, "dateTime": 1664464386763, "trialdata": {"revealed_states": [], "num_clicks_accrued": [0, 0, 0, 0, 0, 0, 0, 0, 0, 0, 0, 0, 0], "stateRewards": ["", 4, -4, 48, -48, -4, -4, 48, -48, 4, 4, -48, -24], "withholdReward": true, "trial_id": "mdp_490058671112", "block": "test1", "trialIndex": 11, "score": 52, "costs": -1, "simulationMode": [null, null, null], "rewards": [4, -4, 48], "path": ["0", "0", "1", "2", "3"], "rt": [5624, 50, 23], "actions": ["up", "up", "right"], "actionTimes": [6805, 7361, 7901], "queries": {"click": {"state": {"target": ["9", "12", "11", "3"], "time": [1885, 3512, 4506, 5415]}, "edge": {"target": [], "time": []}}, "mouseover": {"state": {"target": ["9", "12", "10", "11", "2", "3"], "time": [1642, 2850, 4125, 4191, 5008, 5043]}, "edge": {"target": [], "time": []}}, "mouseout": {"state": {"target": ["0", "9", "12", "10", "11", "2", "3"], "time": [1581, 2396, 4118, 4147, 4971, 5025, 6008]}, "edge": {"target": [], "time": []}}}, "displayed_time": "10.34", "trialTime": 10727, "trial_type": "mouselab-mdp", "trial_index": 18, "time_elapsed": 485386, "internal_node_id": "0.0-4.0-1.0-9.0"}}, {"uniqueid": "w48294494:a60383824", "current_trial": 19, "dateTime": 1664464400108, "trialdata": {"revealed_states": [], "num_clicks_accrued": [0, 0, 0, 0, 0, 0, 0, 0, 0, 0, 0, 0, 0], "stateRewards": ["", 2, -8, 24, -24, -2, 8, -48, -48, 2, -8, -24, -48], "withholdReward": false, "trial_id": "mdp_744278669205", "block": "test1", "trialIndex": 12, "score": 21, "costs": -2, "simulationMode": [null, null, null], "rewards": [2, -8, 24], "path": ["0", "0", "1", "2", "3"], "rt": [9225, 68, 65], "actions": ["up", "up", "right"], "actionTimes": [10631, 11216, 11800], "queries": {"click": {"state": {"target": ["4", "7", "8", "3", "12", "11", "9", "1"], "time": [2215, 3506, 4485, 5435, 6500, 7334, 8210, 9052]}, "edge": {"target": [], "time": []}}, "mouseover": {"state": {"target": ["4", "2", "3", "7", "6", "8", "6", "3", "1", "9", "10", "12", "10", "11", "9", "1"], "time": [1880, 2751, 2798, 3097, 4079, 4161, 4929, 5134, 5963, 6014, 6063, 6193, 6945, 7080, 7813, 8781]}, "edge": {"target": [], "time": []}}, "mouseout": {"state": {"target": ["0", "4", "2", "3", "7", "6", "8", "6", "3", "1", "9", "10", "12", "10", "11", "9", "1"], "time": [1737, 2731, 2773, 3048, 4057, 4111, 4915, 4946, 5935, 5979, 6029, 6080, 6931, 6995, 7783, 8593, 9368]}, "edge": {"target": [], "time": []}}}, "displayed_time": "12.31", "trialTime": 13207, "trial_type": "mouselab-mdp", "trial_index": 19, "time_elapsed": 498730, "internal_node_id": "0.0-4.0-1.0-10.0"}}, {"uniqueid": "w48294494:a60383824", "current_trial": 20, "dateTime": 1664464412342, "trialdata": {"revealed_states": [], "num_clicks_accrued": [0, 0, 0, 0, 0, 0, 0, 0, 0, 0, 0, 0, 0], "stateRewards": ["", 2, -4, -48, 24, 4, 4, 48, -48, -2, -4, -24, -48], "withholdReward": true, "trial_id": "mdp_858916930936", "block": "test1", "trialIndex": 13, "score": 60.25, "costs": -0.75, "simulationMode": [null, null, null], "rewards": [4, 4, 48], "path": ["0", "0", "5", "6", "7"], "rt": [5017, 38, 31], "actions": ["right", "right", "up"], "actionTimes": [7812, 8366, 8908], "queries": {"click": {"state": {"target": ["3", "12", "7"], "time": [3781, 5340, 6660]}, "edge": {"target": [], "time": []}}, "mouseover": {"state": {"target": ["1", "3", "2", "9", "10", "12", "8", "6", "7"], "time": [3334, 3375, 4408, 4708, 4957, 5025, 6093, 6209, 6291]}, "edge": {"target": [], "time": []}}, "mouseout": {"state": {"target": ["0", "1", "3", "2", "9", "10", "12", "8", "6", "7", "8"], "time": [2411, 3349, 4383, 4457, 4774, 5012, 5958, 6179, 6240, 7281, 11642]}, "edge": {"target": [], "time": []}}}, "displayed_time": "10.91", "trialTime": 12072, "trial_type": "mouselab-mdp", "trial_index": 20, "time_elapsed": 510966, "internal_node_id": "0.0-4.0-1.0-11.0"}}, {"uniqueid": "w48294494:a60383824", "current_trial": 21, "dateTime": 1664464423428, "trialdata": {"revealed_states": [], "num_clicks_accrued": [0, 0, 0, 0, 0, 0, 0, 0, 0, 0, 0, 0, 0], "stateRewards": ["", -2, -8, 48, 24, 2, 4, 24, -24, -2, -4, 48, -48], "withholdReward": true, "trial_id": "mdp_411152402386", "block": "test1", "trialIndex": 14, "score": 18.5, "costs": -0.5, "simulationMode": [null, null, null], "rewards": [-2, -8, 24], "path": ["0", "0", "1", "2", "4"], "rt": [2910, 485, 887], "actions": ["up", "up", "left"], "actionTimes": [4257, 5272, 6672], "queries": {"click": {"state": {"target": ["1", "4"], "time": [2156, 3023]}, "edge": {"target": [], "time": []}}, "mouseover": {"state": {"target": ["1", "4", "9"], "time": [1815, 2748, 3581]}, "edge": {"target": [], "time": []}}, "mouseout": {"state": {"target": ["0", "1", "4", "9"], "time": [1785, 2706, 3551, 3598]}, "edge": {"target": [], "time": []}}}, "displayed_time": "10.44", "trialTime": 10947, "trial_type": "mouselab-mdp", "trial_index": 21, "time_elapsed": 522052, "internal_node_id": "0.0-4.0-1.0-12.0"}}, {"uniqueid": "w48294494:a60383824", "current_trial": 22, "dateTime": 1664464435761, "trialdata": {"revealed_states": [], "num_clicks_accrued": [0, 0, 0, 0, 0, 0, 0, 0, 0, 0, 0, 0, 0], "stateRewards": ["", -2, -8, 48, 24, 2, 8, -48, 24, -4, 8, 48, 48], "withholdReward": false, "trial_id": "mdp_875436109858", "block": "test1", "trialIndex": 15, "score": 56.5, "costs": -0.5, "simulationMode": [null, null, null], "rewards": [-4, 8, 48], "path": ["0", "0", "9", "10", "12"], "rt": [2646, 488, 676], "actions": ["left", "left", "down"], "actionTimes": [4056, 5055, 6247], "queries": {"click": {"state": {"target": ["9", "12"], "time": [2162, 2929]}, "edge": {"target": [], "time": []}}, "mouseover": {"state": {"target": ["9", "12"], "time": [1847, 2650]}, "edge": {"target": [], "time": []}}, "mouseout": {"state": {"target": ["0", "9", "12"], "time": [1797, 2564, 3425]}, "edge": {"target": [], "time": []}}}, "displayed_time": "11.54", "trialTime": 12195, "trial_type": "mouselab-mdp", "trial_index": 22, "time_elapsed": 534385, "internal_node_id": "0.0-4.0-1.0-13.0"}}, {"uniqueid": "w48294494:a60383824", "current_trial": 23, "dateTime": 1664464446253, "trialdata": {"revealed_states": [], "num_clicks_accrued": [0, 0, 0, 0, 0, 0, 0, 0, 0, 0, 0, 0, 0], "stateRewards": ["", -2, -8, -48, 24, 2, -4, -48, 48, 2, 4, 24, -24], "withholdReward": true, "trial_id": "mdp_849341543762", "block": "test1", "trialIndex": 16, "score": 50.75, "costs": -0.25, "simulationMode": [null, null, null], "rewards": [2, -4, 48], "path": ["0", "0", "5", "6", "8"], "rt": [2704, 175, 227], "actions": ["right", "right", "down"], "actionTimes": [3934, 4631, 5371], "queries": {"click": {"state": {"target": ["8"], "time": [2679]}, "edge": {"target": [], "time": []}}, "mouseover": {"state": {"target": ["5", "6", "8"], "time": [1676, 1721, 2390]}, "edge": {"target": [], "time": []}}, "mouseout": {"state": {"target": ["0", "5", "6", "8"], "time": [1650, 1704, 1860, 6538]}, "edge": {"target": [], "time": []}}}, "displayed_time": "9.30", "trialTime": 10359, "trial_type": "mouselab-mdp", "trial_index": 23, "time_elapsed": 544876, "internal_node_id": "0.0-4.0-1.0-14.0"}}, {"uniqueid": "w48294494:a60383824", "current_trial": 24, "dateTime": 1664464457905, "trialdata": {"revealed_states": [], "num_clicks_accrued": [0, 0, 0, 0, 0, 0, 0, 0, 0, 0, 0, 0, 0], "stateRewards": ["", 2, -8, 24, -48, 2, 4, 48, -48, -2, -8, -48, 48], "withholdReward": true, "trial_id": "mdp_629420544881", "block": "test1", "trialIndex": 17, "score": 58.5, "costs": -0.5, "simulationMode": [null, null, null], "rewards": [2, 4, 48], "path": ["0", "0", "5", "6", "7"], "rt": [3956, 92, 69], "actions": ["right", "right", "up"], "actionTimes": [5373, 5983, 6571], "queries": {"click": {"state": {"target": ["7", "5"], "time": [2341, 4397]}, "edge": {"target": [], "time": []}}, "mouseover": {"state": {"target": ["7", "5", "5"], "time": [1883, 3035, 4084]}, "edge": {"target": [], "time": []}}, "mouseout": {"state": {"target": ["0", "7", "5", "5"], "time": [1804, 3026, 3053, 4779]}, "edge": {"target": [], "time": []}}}, "displayed_time": "10.52", "trialTime": 11524, "trial_type": "mouselab-mdp", "trial_index": 24, "time_elapsed": 556528, "internal_node_id": "0.0-4.0-1.0-15.0"}}, {"uniqueid": "w48294494:a60383824", "current_trial": 25, "dateTime": 1664464468609, "trialdata": {"revealed_states": [], "num_clicks_accrued": [0, 0, 0, 0, 0, 0, 0, 0, 0, 0, 0, 0, 0], "stateRewards": ["", -4, 4, -24, 24, -2, -4, 48, 24, 2, 8, -48, 24], "withholdReward": true, "trial_id": "mdp_150340189492", "block": "test1", "trialIndex": 18, "score": 46.5, "costs": -0.5, "simulationMode": [null, null, null], "rewards": [-2, -4, 48], "path": ["0", "0", "5", "6", "7"], "rt": [3297, 61, 65], "actions": ["right", "right", "up"], "actionTimes": [4752, 5329, 5899], "queries": {"click": {"state": {"target": ["4", "7"], "time": [2205, 3664]}, "edge": {"target": [], "time": []}}, "mouseover": {"state": {"target": ["4", "3", "7"], "time": [1868, 3001, 3334]}, "edge": {"target": [], "time": []}}, "mouseout": {"state": {"target": ["0", "0", "4", "3", "7"], "time": [816, 1765, 2803, 3251, 4065]}, "edge": {"target": [], "time": []}}}, "displayed_time": "9.55", "trialTime": 10556, "trial_type": "mouselab-mdp", "trial_index": 25, "time_elapsed": 567231, "internal_node_id": "0.0-4.0-1.0-16.0"}}, {"uniqueid": "w48294494:a60383824", "current_trial": 26, "dateTime": 1664464483472, "trialdata": {"revealed_states": [], "num_clicks_accrued": [0, 0, 0, 0, 0, 0, 0, 0, 0, 0, 0, 0, 0], "stateRewards": ["", 2, -4, 48, -48, 2, 4, -24, 24, -4, -8, 24, -48], "withholdReward": true, "trial_id": "mdp_238810765895", "block": "test1", "trialIndex": 19, "score": 49, "costs": -2, "simulationMode": [null, null, null], "rewards": [2, -4, 48], "path": ["0", "0", "1", "2", "3"], "rt": [10726, 57, 14], "actions": ["up", "up", "right"], "actionTimes": [11937, 12500, 13025], "queries": {"click": {"state": {"target": ["4", "6", "7", "8", "12", "11", "3", "1"], "time": [2215, 3357, 4283, 5170, 6658, 7580, 8409, 10317]}, "edge": {"target": [], "time": []}}, "mouseover": {"state": {"target": ["1", "4", "4", "2", "7", "6", "7", "8", "12", "10", "11", "2", "3", "0", "1", "2"], "time": [1598, 1752, 1890, 2661, 2724, 2897, 3876, 4774, 6376, 7157, 7258, 7991, 8090, 8821, 9843, 10841]}, "edge": {"target": [], "time": []}}, "mouseout": {"state": {"target": ["0", "1", "4", "4", "2", "7", "6", "7", "6", "8", "12", "10", "11", "2", "3", "0", "1", "2", "1", "0"], "time": [1565, 1612, 1782, 2658, 2675, 2741, 3845, 4715, 4757, 5717, 7140, 7224, 7974, 8025, 8710, 9683, 10694, 11203, 11241, 14262]}, "edge": {"target": [], "time": []}}}, "displayed_time": "13.53", "trialTime": 14729, "trial_type": "mouselab-mdp", "trial_index": 26, "time_elapsed": 582095, "internal_node_id": "0.0-4.0-1.0-17.0"}}, {"uniqueid": "w48294494:a60383824", "current_trial": 27, "dateTime": 1664464495138, "trialdata": {"revealed_states": [], "num_clicks_accrued": [0, 0, 0, 0, 0, 0, 0, 0, 0, 0, 0, 0, 0], "stateRewards": ["", -2, 8, 48, -24, 2, 4, -48, -24, -4, 8, -48, -48], "withholdReward": true, "trial_id": "mdp_539167561933", "block": "test1", "trialIndex": 20, "score": 57.75, "costs": -1.25, "simulationMode": [null, null, null], "rewards": [-2, 8, 48], "path": ["0", "0", "1", "2", "3"], "rt": [5530, 13, 501], "actions": ["up", "up", "right"], "actionTimes": [6994, 7516, 8520], "queries": {"click": {"state": {"target": ["12", "11", "8", "7", "3"], "time": [2189, 3131, 4103, 4923, 5667]}, "edge": {"target": [], "time": []}}, "mouseover": {"state": {"target": ["12", "10", "11", "8", "6", "7", "3", "1"], "time": [1901, 2735, 2849, 3648, 4557, 4667, 5361, 6250]}, "edge": {"target": [], "time": []}}, "mouseout": {"state": {"target": ["0", "12", "10", "11", "8", "6", "7", "3", "1", "0"], "time": [1794, 2720, 2799, 3569, 4535, 4584, 5335, 6198, 6265, 9683]}, "edge": {"target": [], "time": []}}}, "displayed_time": "10.63", "trialTime": 11537, "trial_type": "mouselab-mdp", "trial_index": 27, "time_elapsed": 593762, "internal_node_id": "0.0-4.0-1.0-18.0"}}, {"uniqueid": "w48294494:a60383824", "current_trial": 28, "dateTime": 1664464504209, "trialdata": {"revealed_states": [], "num_clicks_accrued": [0, 0, 0, 0, 0, 0, 0, 0, 0, 0, 0, 0, 0], "stateRewards": ["", 4, -8, 24, 48, -2, -4, -48, 24, 2, 4, -48, -24], "withholdReward": true, "trial_id": "mdp_749974461966", "block": "test1", "trialIndex": 21, "score": 48.75, "costs": -0.25, "simulationMode": [null, null, null], "rewards": [4, -8, 48], "path": ["0", "0", "1", "2", "4"], "rt": [2292, 543, 207], "actions": ["up", "up", "left"], "actionTimes": [3341, 4416, 5131], "queries": {"click": {"state": {"target": ["4"], "time": [2192]}, "edge": {"target": [], "time": []}}, "mouseover": {"state": {"target": ["4", "4"], "time": [1489, 1947]}, "edge": {"target": [], "time": []}}, "mouseout": {"state": {"target": ["0", "4", "4"], "time": [1431, 1526, 2684]}, "edge": {"target": [], "time": []}}}, "displayed_time": "8.11", "trialTime": 8929, "trial_type": "mouselab-mdp", "trial_index": 28, "time_elapsed": 602833, "internal_node_id": "0.0-4.0-1.0-19.0"}}, {"uniqueid": "w48294494:a60383824", "current_trial": 29, "dateTime": 1664464515365, "trialdata": {"revealed_states": [], "num_clicks_accrued": [0, 0, 0, 0, 0, 0, 0, 0, 0, 0, 0, 0, 0], "stateRewards": ["", -2, 4, -24, -48, -4, 8, -24, 48, 4, 4, -48, 24], "withholdReward": true, "trial_id": "mdp_341117665701", "block": "test1", "trialIndex": 22, "score": 56.25, "costs": -0.75, "simulationMode": [null, null, null], "rewards": [-4, 8, 48], "path": ["0", "0", "5", "6", "8"], "rt": [3938, 447, 149], "actions": ["right", "right", "down"], "actionTimes": [5224, 6207, 6879], "queries": {"click": {"state": {"target": ["11", "12", "8"], "time": [2130, 3168, 4037]}, "edge": {"target": [], "time": []}}, "mouseover": {"state": {"target": ["11", "10", "12", "8"], "time": [1928, 2693, 2891, 3691]}, "edge": {"target": [], "time": []}}, "mouseout": {"state": {"target": ["0", "11", "10", "12", "8"], "time": [940, 2661, 2791, 3557, 4461]}, "edge": {"target": [], "time": []}}}, "displayed_time": "10.44", "trialTime": 11021, "trial_type": "mouselab-mdp", "trial_index": 29, "time_elapsed": 613989, "internal_node_id": "0.0-4.0-1.0-20.0"}}, {"uniqueid": "w48294494:a60383824", "current_trial": 30, "dateTime": 1664464525486, "trialdata": {"revealed_states": [], "num_clicks_accrued": [0, 0, 0, 0, 0, 0, 0, 0, 0, 0, 0, 0, 0], "stateRewards": ["", -2, 8, 48, -48, 4, -8, 24, 24, 4, 4, -48, -24], "withholdReward": true, "trial_id": "mdp_746937869927", "block": "test1", "trialIndex": 23, "score": 58.5, "costs": -0.5, "simulationMode": [null, null, null], "rewards": [-2, 8, 48], "path": ["0", "0", "1", "2", "3"], "rt": [3204, 391, 89], "actions": ["up", "up", "right"], "actionTimes": [4390, 5288, 5905], "queries": {"click": {"state": {"target": ["4", "3"], "time": [2296, 3242]}, "edge": {"target": [], "time": []}}, "mouseover": {"state": {"target": ["1", "4", "3"], "time": [1635, 1947, 2772]}, "edge": {"target": [], "time": []}}, "mouseout": {"state": {"target": ["1", "4", "3", "5"], "time": [1726, 2730, 3714, 6928]}, "edge": {"target": [], "time": []}}}, "displayed_time": "9.28", "trialTime": 9977, "trial_type": "mouselab-mdp", "trial_index": 30, "time_elapsed": 624109, "internal_node_id": "0.0-4.0-1.0-21.0"}}, {"uniqueid": "w48294494:a60383824", "current_trial": 31, "dateTime": 1664464537297, "trialdata": {"revealed_states": [], "num_clicks_accrued": [0, 0, 0, 0, 0, 0, 0, 0, 0, 0, 0, 0, 0], "stateRewards": ["", 4, -4, 48, -48, 4, -4, 24, -24, 4, 8, -24, -48], "withholdReward": false, "trial_id": "mdp_433630527224", "block": "test1", "trialIndex": 24, "score": 52, "costs": -1, "simulationMode": [null, null, null], "rewards": [4, -4, 48], "path": ["0", "0", "1", "2", "3"], "rt": [7386, 481, 53], "actions": ["up", "up", "right"], "actionTimes": [8435, 9436, 10009], "queries": {"click": {"state": {"target": ["11", "8", "7", "3"], "time": [2761, 4473, 5436, 6257]}, "edge": {"target": [], "time": []}}, "mouseover": {"state": {"target": ["11", "5", "8", "8", "6", "7", "3"], "time": [2549, 3232, 3283, 4252, 4986, 5019, 5966]}, "edge": {"target": [], "time": []}}, "mouseout": {"state": {"target": ["0", "11", "5", "8", "8", "6", "7", "3", "0"], "time": [1506, 3186, 3251, 3366, 4969, 5008, 5918, 6715, 11118]}, "edge": {"target": [], "time": []}}}, "displayed_time": "10.52", "trialTime": 11677, "trial_type": "mouselab-mdp", "trial_index": 31, "time_elapsed": 635920, "internal_node_id": "0.0-4.0-1.0-22.0"}}, {"uniqueid": "w48294494:a60383824", "current_trial": 32, "dateTime": 1664464548216, "trialdata": {"revealed_states": [], "num_clicks_accrued": [0, 0, 0, 0, 0, 0, 0, 0, 0, 0, 0, 0, 0], "stateRewards": ["", -4, 4, 48, 24, -4, 4, -24, 48, -2, -8, 24, -48], "withholdReward": false, "trial_id": "mdp_261501605436", "block": "test1", "trialIndex": 25, "score": 52, "costs": -1, "simulationMode": [null, null, null], "rewards": [-4, 4, 48], "path": ["0", "0", "5", "6", "8"], "rt": [4969, 568, 546], "actions": ["right", "right", "down"], "actionTimes": [6353, 7450, 8528], "queries": {"click": {"state": {"target": ["4", "12", "7", "8"], "time": [2178, 3393, 4346, 5222]}, "edge": {"target": [], "time": []}}, "mouseover": {"state": {"target": ["4", "9", "12", "9", "7", "8"], "time": [1897, 2816, 3185, 3861, 4063, 4928]}, "edge": {"target": [], "time": []}}, "mouseout": {"state": {"target": ["0", "4", "9", "12", "9", "7", "8"], "time": [1774, 2799, 2862, 3848, 3878, 4873, 5744]}, "edge": {"target": [], "time": []}}}, "displayed_time": "9.47", "trialTime": 10774, "trial_type": "mouselab-mdp", "trial_index": 32, "time_elapsed": 646839, "internal_node_id": "0.0-4.0-1.0-23.0"}}, {"uniqueid": "w48294494:a60383824", "current_trial": 33, "dateTime": 1664464558094, "trialdata": {"revealed_states": [], "num_clicks_accrued": [0, 0, 0, 0, 0, 0, 0, 0, 0, 0, 0, 0, 0], "stateRewards": ["", -4, -8, 48, -48, 2, -4, 48, -24, 2, -8, -48, -48], "withholdReward": true, "trial_id": "mdp_624553692913", "block": "test1", "trialIndex": 26, "score": 40.5, "costs": -0.5, "simulationMode": [null, null, null], "rewards": [-4, -8, 48], "path": ["0", "0", "1", "2", "3"], "rt": [3211, 18, 34], "actions": ["up", "up", "right"], "actionTimes": [4387, 4927, 5477], "queries": {"click": {"state": {"target": ["11", "3"], "time": [1904, 3174]}, "edge": {"target": [], "time": []}}, "mouseover": {"state": {"target": ["11", "2", "3", "3"], "time": [1575, 2434, 2476, 2917]}, "edge": {"target": [], "time": []}}, "mouseout": {"state": {"target": ["0", "11", "2", "3", "3"], "time": [1546, 2407, 2456, 2613, 3543]}, "edge": {"target": [], "time": []}}}, "displayed_time": "9.25", "trialTime": 9744, "trial_type": "mouselab-mdp", "trial_index": 33, "time_elapsed": 656717, "internal_node_id": "0.0-4.0-1.0-24.0"}}, {"uniqueid": "w48294494:a60383824", "current_trial": 34, "dateTime": 1664464568596, "trialdata": {"revealed_states": [], "num_clicks_accrued": [0, 0, 0, 0, 0, 0, 0, 0, 0, 0, 0, 0, 0], "stateRewards": ["", 2, 4, 48, -24, 2, -8, -24, -24, 2, -8, -24, -48], "withholdReward": false, "trial_id": "mdp_274832552938", "block": "test1", "trialIndex": 27, "score": 58, "costs": -1, "simulationMode": [null, null, null], "rewards": [2, 4, 48], "path": ["0", "0", "1", "2", "3"], "rt": [5145, 66, 11], "actions": ["up", "up", "right"], "actionTimes": [6322, 6906, 7436], "queries": {"click": {"state": {"target": ["12", "8", "7", "3"], "time": [1916, 2839, 4463, 5201]}, "edge": {"target": [], "time": []}}, "mouseover": {"state": {"target": ["0", "12", "8", "6", "7", "7", "3", "1"], "time": [1497, 1660, 2506, 3341, 3422, 4205, 4954, 5685]}, "edge": {"target": [], "time": []}}, "mouseout": {"state": {"target": ["5", "0", "12", "8", "6", "7", "7", "3", "1", "0"], "time": [755, 1524, 2399, 3327, 3371, 3506, 4940, 5652, 9492, 9524]}, "edge": {"target": [], "time": []}}}, "displayed_time": "9.26", "trialTime": 10364, "trial_type": "mouselab-mdp", "trial_index": 34, "time_elapsed": 667219, "internal_node_id": "0.0-4.0-1.0-25.0"}}, {"uniqueid": "w48294494:a60383824", "current_trial": 35, "dateTime": 1664464580360, "trialdata": {"revealed_states": [], "num_clicks_accrued": [0, 0, 0, 0, 0, 0, 0, 0, 0, 0, 0, 0, 0], "stateRewards": ["", -4, -4, -48, -24, 2, 8, 24, -48, 4, 4, 48, 48], "withholdReward": false, "trial_id": "mdp_693501840209", "block": "test1", "trialIndex": 28, "score": 59.75, "costs": -1.25, "simulationMode": [null, null, null], "rewards": [4, 4, 48], "path": ["0", "0", "9", "10", "11"], "rt": [6906, 481, 43], "actions": ["left", "left", "up"], "actionTimes": [8160, 9168, 9731], "queries": {"click": {"state": {"target": ["4", "3", "7", "8", "11"], "time": [1948, 2765, 4492, 5305, 7019]}, "edge": {"target": [], "time": []}}, "mouseover": {"state": {"target": ["4", "3", "7", "6", "7", "6", "8", "9", "11", "11"], "time": [1685, 2486, 3918, 4023, 4158, 4855, 4990, 5839, 6046, 6787]}, "edge": {"target": [], "time": []}}, "mouseout": {"state": {"target": ["0", "4", "3", "7", "6", "7", "6", "8", "9", "11", "11"], "time": [1550, 2447, 3192, 3969, 4134, 4841, 4885, 5819, 5935, 6121, 7480]}, "edge": {"target": [], "time": []}}}, "displayed_time": "10.33", "trialTime": 11637, "trial_type": "mouselab-mdp", "trial_index": 35, "time_elapsed": 678983, "internal_node_id": "0.0-4.0-1.0-26.0"}}, {"uniqueid": "w48294494:a60383824", "current_trial": 36, "dateTime": 1664464591253, "trialdata": {"revealed_states": [], "num_clicks_accrued": [0, 0, 0, 0, 0, 0, 0, 0, 0, 0, 0, 0, 0], "stateRewards": ["", 4, 4, -24, -48, -4, 4, -48, 24, 4, -8, -48, 48], "withholdReward": true, "trial_id": "mdp_566768794366", "block": "test1", "trialIndex": 29, "score": 48.25, "costs": -0.75, "simulationMode": [null, null, null], "rewards": [4, -8, 48], "path": ["0", "0", "9", "10", "12"], "rt": [4897, 32, 19], "actions": ["left", "left", "down"], "actionTimes": [6094, 6661, 7195], "queries": {"click": {"state": {"target": ["11", "7", "12"], "time": [2762, 3977, 5081]}, "edge": {"target": [], "time": []}}, "mouseover": {"state": {"target": ["11", "11", "1", "7", "7", "0", "12"], "time": [1673, 2531, 3244, 3293, 3478, 4480, 4808]}, "edge": {"target": [], "time": []}}, "mouseout": {"state": {"target": ["0", "11", "11", "1", "7", "7", "0", "12"], "time": [1584, 1723, 3228, 3260, 3364, 4447, 4506, 5455]}, "edge": {"target": [], "time": []}}}, "displayed_time": "10.34", "trialTime": 10754, "trial_type": "mouselab-mdp", "trial_index": 36, "time_elapsed": 689877, "internal_node_id": "0.0-4.0-1.0-27.0"}}, {"uniqueid": "w48294494:a60383824", "current_trial": 37, "dateTime": 1664464602698, "trialdata": {"revealed_states": [], "num_clicks_accrued": [0, 0, 0, 0, 0, 0, 0, 0, 0, 0, 0, 0, 0], "stateRewards": ["", -2, 8, -48, 48, -4, -8, 24, 24, -2, -4, 48, -48], "withholdReward": false, "trial_id": "mdp_867247318592", "block": "test1", "trialIndex": 30, "score": 58.75, "costs": -0.25, "simulationMode": [null, null, null], "rewards": [-2, 8, 48], "path": ["0", "0", "1", "2", "4"], "rt": [1793, 326, 18], "actions": ["up", "up", "left"], "actionTimes": [3096, 3950, 4479], "queries": {"click": {"state": {"target": ["4"], "time": [1990]}, "edge": {"target": [], "time": []}}, "mouseover": {"state": {"target": ["4"], "time": [1742]}, "edge": {"target": [], "time": []}}, "mouseout": {"state": {"target": ["0", "4"], "time": [894, 2510]}, "edge": {"target": [], "time": []}}}, "displayed_time": "10.41", "trialTime": 11296, "trial_type": "mouselab-mdp", "trial_index": 37, "time_elapsed": 701322, "internal_node_id": "0.0-4.0-1.0-28.0"}}, {"uniqueid": "w48294494:a60383824", "current_trial": 38, "dateTime": 1664464612524, "trialdata": {"revealed_states": [], "num_clicks_accrued": [0, 0, 0, 0, 0, 0, 0, 0, 0, 0, 0, 0, 0], "stateRewards": ["", -4, 8, -24, 48, 2, -8, 24, 48, 2, -8, -24, -48], "withholdReward": false, "trial_id": "mdp_493778446445", "block": "test1", "trialIndex": 31, "score": 46.5, "costs": -0.5, "simulationMode": [null, null, null], "rewards": [2, -8, 48], "path": ["0", "0", "5", "6", "8"], "rt": [3217, 440, 446], "actions": ["right", "right", "down"], "actionTimes": [4806, 5761, 6731], "queries": {"click": {"state": {"target": ["12", "8"], "time": [2597, 3807]}, "edge": {"target": [], "time": []}}, "mouseover": {"state": {"target": ["12", "8"], "time": [2344, 3502]}, "edge": {"target": [], "time": []}}, "mouseout": {"state": {"target": ["0", "12", "8"], "time": [1917, 3091, 4273]}, "edge": {"target": [], "time": []}}}, "displayed_time": "8.64", "trialTime": 9697, "trial_type": "mouselab-mdp", "trial_index": 38, "time_elapsed": 711147, "internal_node_id": "0.0-4.0-1.0-29.0"}}, {"uniqueid": "w48294494:a60383824", "current_trial": 39, "dateTime": 1664464618513, "trialdata": {"rt": 5984, "stimulus": "<h1> End of block! </h1>\n\nYou have reached the end of the block 1/4. If you need a short break, feel free to take one now before moving on.\n\n<br><br>\nIn the next block, you will complete another 30 rounds of this game.\n\n<br><br>\n<div style='text-align: center;'>Press <code>space</code> to begin.</div>\n<br><br>\n<div style='text-align: center;'>(If the experiment doesn't continue, try clicking on the text and then pressing <code>space</code>.)</div>", "response": " ", "trial_id": "mdp_ready_2", "trial_type": "html-keyboard-response", "trial_index": 39, "time_elapsed": 717137, "internal_node_id": "0.0-4.0-2.0"}}, {"uniqueid": "w48294494:a60383824", "current_trial": 40, "dateTime": 1664464634152, "trialdata": {"revealed_states": [], "num_clicks_accrued": [0, 0, 0, 0, 0, 0, 0, 0, 0, 0, 0, 0, 0], "stateRewards": ["", -4, -4, -24, 24, 4, 4, -24, -24, -4, 4, 24, 24], "withholdReward": true, "trial_id": "mdp_787781487383", "block": "test2", "trialIndex": 32, "score": 26.75, "costs": -2.25, "simulationMode": [null, null, null], "rewards": [-4, 4, 24], "path": ["0", "0", "9", "10", "11"], "rt": [11161, 50, 410], "actions": ["left", "left", "up"], "actionTimes": [12500, 13068, 13999], "queries": {"click": {"state": {"target": ["11", "7", "8", "4", "3", "1", "9", "5", "12"], "time": [2200, 3457, 4242, 5642, 6591, 7335, 8127, 8901, 11017]}, "edge": {"target": [], "time": []}}, "mouseover": {"state": {"target": ["11", "1", "7", "6", "8", "5", "1", "4", "2", "3", "1", "9", "5", "12"], "time": [1987, 2815, 3203, 3810, 3950, 4715, 5221, 5417, 6195, 6299, 7015, 7866, 8633, 10734]}, "edge": {"target": [], "time": []}}, "mouseout": {"state": {"target": ["0", "11", "1", "7", "6", "8", "5", "1", "4", "2", "3", "1", "9", "5", "12"], "time": [1705, 2790, 2832, 3804, 3882, 4702, 5209, 5249, 6165, 6215, 6962, 7782, 8579, 9219, 11391]}, "edge": {"target": [], "time": []}}}, "displayed_time": "14.52", "trialTime": 15493, "trial_type": "mouselab-mdp", "trial_index": 40, "time_elapsed": 732776, "internal_node_id": "0.0-4.0-3.0-0.0"}}, {"uniqueid": "w48294494:a60383824", "current_trial": 41, "dateTime": 1664464647689, "trialdata": {"revealed_states": [], "num_clicks_accrued": [0, 0, 0, 0, 0, 0, 0, 0, 0, 0, 0, 0, 0], "stateRewards": ["", -4, -8, -24, -48, -2, -8, 24, -48, -4, -8, 24, -48], "withholdReward": false, "trial_id": "mdp_621812384092", "block": "test2", "trialIndex": 33, "score": 15.5, "costs": -1.5, "simulationMode": [null, null, null], "rewards": [-4, -8, 24], "path": ["0", "0", "9", "10", "11"], "rt": [8716, 312, 22], "actions": ["left", "left", "up"], "actionTimes": [10432, 11273, 11800], "queries": {"click": {"state": {"target": ["11", "8", "7", "3", "4", "12"], "time": [2537, 4698, 6052, 6949, 7761, 8564]}, "edge": {"target": [], "time": []}}, "mouseover": {"state": {"target": ["11", "0", "8", "7", "7", "3", "2", "4", "12"], "time": [2310, 3001, 4491, 5291, 5778, 6659, 7428, 7446, 8244]}, "edge": {"target": [], "time": []}}, "mouseout": {"state": {"target": ["0", "11", "0", "8", "7", "7", "3", "2", "4", "12"], "time": [958, 2975, 3019, 5247, 5341, 6609, 7414, 7444, 8126, 8983]}, "edge": {"target": [], "time": []}}}, "displayed_time": "12.31", "trialTime": 13388, "trial_type": "mouselab-mdp", "trial_index": 41, "time_elapsed": 746312, "internal_node_id": "0.0-4.0-3.0-1.0"}}, {"uniqueid": "w48294494:a60383824", "current_trial": 42, "dateTime": 1664464657958, "trialdata": {"revealed_states": [], "num_clicks_accrued": [0, 0, 0, 0, 0, 0, 0, 0, 0, 0, 0, 0, 0], "stateRewards": ["", -4, 4, -48, -48, -2, -8, -48, -24, 4, 8, -24, 24], "withholdReward": true, "trial_id": "mdp_449260894259", "block": "test2", "trialIndex": 34, "score": 39.5, "costs": -1.5, "simulationMode": [null, null, null], "rewards": [4, 8, 24], "path": ["0", "0", "9", "10", "12"], "rt": [6405, 53, 7], "actions": ["left", "left", "down"], "actionTimes": [7662, 8227, 8751], "queries": {"click": {"state": {"target": ["11", "8", "7", "3", "4", "12"], "time": [2037, 3184, 4072, 4928, 5680, 6450]}, "edge": {"target": [], "time": []}}, "mouseover": {"state": {"target": ["11", "1", "5", "8", "6", "7", "3", "2", "4", "12"], "time": [1758, 2514, 2545, 2881, 3716, 3829, 4621, 5379, 5422, 6154]}, "edge": {"target": [], "time": []}}, "mouseout": {"state": {"target": ["0", "11", "1", "5", "8", "6", "7", "3", "2", "4", "12"], "time": [905, 2454, 2542, 2557, 3693, 3754, 4590, 5363, 5406, 6010, 7004]}, "edge": {"target": [], "time": []}}}, "displayed_time": "9.32", "trialTime": 10136, "trial_type": "mouselab-mdp", "trial_index": 42, "time_elapsed": 756582, "internal_node_id": "0.0-4.0-3.0-2.0"}}, {"uniqueid": "w48294494:a60383824", "current_trial": 43, "dateTime": 1664464668878, "trialdata": {"revealed_states": [], "num_clicks_accrued": [0, 0, 0, 0, 0, 0, 0, 0, 0, 0, 0, 0, 0], "stateRewards": ["", 2, -8, 24, -24, -2, 8, -48, -48, 2, -8, -24, -48], "withholdReward": true, "trial_id": "mdp_744278669205", "block": "test2", "trialIndex": 35, "score": 21.5, "costs": -1.5, "simulationMode": [null, null, null], "rewards": [2, -8, 24], "path": ["0", "0", "1", "2", "3"], "rt": [6840, 16, 473], "actions": ["up", "up", "right"], "actionTimes": [7791, 8316, 9307], "queries": {"click": {"state": {"target": ["12", "11", "8", "7", "3", "4"], "time": [1638, 2537, 3490, 4298, 5038, 5824]}, "edge": {"target": [], "time": []}}, "mouseover": {"state": {"target": ["12", "10", "11", "0", "8", "6", "7", "3", "2", "4"], "time": [1368, 2205, 2281, 3006, 3211, 3936, 4030, 4800, 5486, 5533]}, "edge": {"target": [], "time": []}}, "mouseout": {"state": {"target": ["0", "12", "10", "11", "0", "8", "6", "7", "3", "2", "4"], "time": [631, 2191, 2249, 2981, 3033, 3911, 3998, 4767, 5461, 5503, 10168]}, "edge": {"target": [], "time": []}}}, "displayed_time": "9.82", "trialTime": 10782, "trial_type": "mouselab-mdp", "trial_index": 43, "time_elapsed": 767502, "internal_node_id": "0.0-4.0-3.0-3.0"}}, {"uniqueid": "w48294494:a60383824", "current_trial": 44, "dateTime": 1664464680403, "trialdata": {"revealed_states": [], "num_clicks_accrued": [0, 0, 0, 0, 0, 0, 0, 0, 0, 0, 0, 0, 0], "stateRewards": ["", -4, 4, -24, 48, -2, 8, -48, 24, 2, 4, 48, -48], "withholdReward": true, "trial_id": "mdp_366632183904", "block": "test2", "trialIndex": 36, "score": 58.75, "costs": -0.25, "simulationMode": [null, null, null], "rewards": [2, 4, 48], "path": ["0", "0", "9", "10", "11"], "rt": [1804, 13, 20], "actions": ["left", "left", "up"], "actionTimes": [3673, 4195, 4733], "queries": {"click": {"state": {"target": ["11"], "time": [2504]}, "edge": {"target": [], "time": []}}, "mouseover": {"state": {"target": ["11", "9"], "time": [2279, 3113]}, "edge": {"target": [], "time": []}}, "mouseout": {"state": {"target": ["0", "11", "9"], "time": [1530, 3079, 3134]}, "edge": {"target": [], "time": []}}}, "displayed_time": "10.97", "trialTime": 11387, "trial_type": "mouselab-mdp", "trial_index": 44, "time_elapsed": 779026, "internal_node_id": "0.0-4.0-3.0-4.0"}}, {"uniqueid": "w48294494:a60383824", "current_trial": 45, "dateTime": 1664464691541, "trialdata": {"revealed_states": [], "num_clicks_accrued": [0, 0, 0, 0, 0, 0, 0, 0, 0, 0, 0, 0, 0], "stateRewards": ["", -2, -8, 48, -24, 2, -4, -48, -24, -2, -4, -48, 48], "withholdReward": false, "trial_id": "mdp_143798438087", "block": "test2", "trialIndex": 37, "score": 46.25, "costs": -0.75, "simulationMode": [null, null, null], "rewards": [-2, -4, 48], "path": ["0", "0", "9", "10", "12"], "rt": [4197, 8, 572], "actions": ["left", "left", "down"], "actionTimes": [5199, 5718, 6806], "queries": {"click": {"state": {"target": ["4", "7", "12"], "time": [2014, 2921, 3965]}, "edge": {"target": [], "time": []}}, "mouseover": {"state": {"target": ["4", "7", "6", "5", "12"], "time": [1787, 2574, 3320, 3390, 3704]}, "edge": {"target": [], "time": []}}, "mouseout": {"state": {"target": ["0", "4", "7", "6", "5", "12"], "time": [1366, 2489, 3286, 3373, 3409, 4558]}, "edge": {"target": [], "time": []}}}, "displayed_time": "10.10", "trialTime": 11003, "trial_type": "mouselab-mdp", "trial_index": 45, "time_elapsed": 790163, "internal_node_id": "0.0-4.0-3.0-5.0"}}, {"uniqueid": "w48294494:a60383824", "current_trial": 46, "dateTime": 1664464705333, "trialdata": {"revealed_states": [], "num_clicks_accrued": [0, 0, 0, 0, 0, 0, 0, 0, 0, 0, 0, 0, 0], "stateRewards": ["", -2, 8, 48, 48, 4, -8, -48, 48, 2, -4, -48, 48], "withholdReward": false, "trial_id": "mdp_132958048709", "block": "test2", "trialIndex": 38, "score": 48.5, "costs": -0.5, "simulationMode": [null, null, null], "rewards": [4, -8, 48], "path": ["0", "0", "5", "6", "8"], "rt": [2881, 9, 40], "actions": ["right", "right", "down"], "actionTimes": [4027, 4541, 5106], "queries": {"click": {"state": {"target": ["11", "8"], "time": [1991, 2793]}, "edge": {"target": [], "time": []}}, "mouseover": {"state": {"target": ["11", "5", "8"], "time": [1664, 2436, 2497]}, "edge": {"target": [], "time": []}}, "mouseout": {"state": {"target": ["0", "11", "5", "8"], "time": [1587, 2415, 2464, 3329]}, "edge": {"target": [], "time": []}}}, "displayed_time": "10.22", "trialTime": 13666, "trial_type": "mouselab-mdp", "trial_index": 46, "time_elapsed": 803955, "internal_node_id": "0.0-4.0-3.0-6.0"}}, {"uniqueid": "w48294494:a60383824", "current_trial": 47, "dateTime": 1664464721662, "trialdata": {"revealed_states": [], "num_clicks_accrued": [0, 0, 0, 0, 0, 0, 0, 0, 0, 0, 0, 0, 0], "stateRewards": ["", -4, -8, 24, 48, 2, -4, -24, 24, -4, 8, 48, 48], "withholdReward": true, "trial_id": "mdp_496672670022", "block": "test2", "trialIndex": 39, "score": 55.25, "costs": -1.75, "simulationMode": [null, null, null], "rewards": [-4, 8, 48], "path": ["0", "0", "9", "10", "12"], "rt": [9481, 90, 110], "actions": ["left", "left", "down"], "actionTimes": [10575, 11196, 11819], "queries": {"click": {"state": {"target": ["12", "9", "8", "4", "1", "2", "10"], "time": [1938, 2866, 3801, 5324, 6153, 7718, 9154]}, "edge": {"target": [], "time": []}}, "mouseover": {"state": {"target": ["12", "9", "8", "5", "2", "4", "1", "2", "10"], "time": [1706, 2552, 3488, 4320, 4870, 5059, 5913, 7292, 8390]}, "edge": {"target": [], "time": []}}, "mouseout": {"state": {"target": ["0", "12", "9", "8", "5", "2", "4", "1", "2", "10"], "time": [1510, 2482, 3304, 4257, 4740, 4987, 5774, 6736, 8130, 9540]}, "edge": {"target": [], "time": []}}}, "displayed_time": "12.34", "trialTime": 16185, "trial_type": "mouselab-mdp", "trial_index": 47, "time_elapsed": 820286, "internal_node_id": "0.0-4.0-3.0-7.0"}}, {"uniqueid": "w48294494:a60383824", "current_trial": 48, "dateTime": 1664464731785, "trialdata": {"revealed_states": [], "num_clicks_accrued": [0, 0, 0, 0, 0, 0, 0, 0, 0, 0, 0, 0, 0], "stateRewards": ["", 4, -8, 48, 48, 2, 4, 48, -48, 4, -4, -48, 48], "withholdReward": true, "trial_id": "mdp_519605841135", "block": "test2", "trialIndex": 40, "score": 52.5, "costs": -0.5, "simulationMode": [null, null, null], "rewards": [4, -4, 48], "path": ["0", "0", "9", "10", "12"], "rt": [5052, 30, 23], "actions": ["left", "left", "down"], "actionTimes": [6363, 6900, 7441], "queries": {"click": {"state": {"target": ["12", "9"], "time": [2288, 4824]}, "edge": {"target": [], "time": []}}, "mouseover": {"state": {"target": ["12", "9", "9"], "time": [2006, 3334, 4594]}, "edge": {"target": [], "time": []}}, "mouseout": {"state": {"target": ["0", "12", "9", "9"], "time": [1725, 2928, 3451, 5389]}, "edge": {"target": [], "time": []}}}, "displayed_time": "9.38", "trialTime": 9988, "trial_type": "mouselab-mdp", "trial_index": 48, "time_elapsed": 830408, "internal_node_id": "0.0-4.0-3.0-8.0"}}, {"uniqueid": "w48294494:a60383824", "current_trial": 49, "dateTime": 1664464745148, "trialdata": {"revealed_states": [], "num_clicks_accrued": [0, 0, 0, 0, 0, 0, 0, 0, 0, 0, 0, 0, 0], "stateRewards": ["", 4, -8, -48, -24, 2, -8, -48, 48, -4, 8, 48, -48], "withholdReward": true, "trial_id": "mdp_605757196263", "block": "test2", "trialIndex": 41, "score": 45.5, "costs": -1.5, "simulationMode": [null, null, null], "rewards": [2, -8, 48], "path": ["0", "0", "5", "6", "8"], "rt": [9159, 377, 33], "actions": ["right", "right", "down"], "actionTimes": [10190, 11083, 11651], "queries": {"click": {"state": {"target": ["4", "12", "7", "8", "3", "5"], "time": [2535, 4089, 4958, 5795, 7411, 9471]}, "edge": {"target": [], "time": []}}, "mouseover": {"state": {"target": ["1", "4", "12", "7", "6", "8", "5", "1", "2", "3", "11", "5"], "time": [1451, 2341, 3900, 4664, 5466, 5532, 6667, 6866, 6948, 7062, 8709, 9149]}, "edge": {"target": [], "time": []}}, "mouseout": {"state": {"target": ["0", "1", "4", "12", "7", "6", "8", "5", "1", "2", "3", "11", "5"], "time": [1395, 1899, 2998, 4485, 5437, 5515, 6337, 6835, 6883, 6968, 7838, 8868, 12796]}, "edge": {"target": [], "time": []}}}, "displayed_time": "12.17", "trialTime": 13232, "trial_type": "mouselab-mdp", "trial_index": 49, "time_elapsed": 843772, "internal_node_id": "0.0-4.0-3.0-9.0"}}, {"uniqueid": "w48294494:a60383824", "current_trial": 50, "dateTime": 1664464759087, "trialdata": {"revealed_states": [], "num_clicks_accrued": [0, 0, 0, 0, 0, 0, 0, 0, 0, 0, 0, 0, 0], "stateRewards": ["", -2, 8, -24, 48, -4, 4, -48, 24, 4, -8, 48, -24], "withholdReward": true, "trial_id": "mdp_425320427962", "block": "test2", "trialIndex": 42, "score": 47, "costs": -2, "simulationMode": [null, null, null], "rewards": [4, -8, 48], "path": ["0", "0", "9", "10", "11"], "rt": [9586, 36, 411], "actions": ["left", "left", "up"], "actionTimes": [10872, 11427, 12355], "queries": {"click": {"state": {"target": ["12", "3", "7", "4", "8", "11", "1", "9"], "time": [1998, 3670, 4402, 5170, 6790, 7702, 8857, 9802]}, "edge": {"target": [], "time": []}}, "mouseover": {"state": {"target": ["9", "12", "8", "8", "5", "3", "7", "2", "4", "0", "0", "8", "9", "11", "9", "0", "1", "9", "9"], "time": [1639, 1737, 2506, 3193, 3226, 3375, 4135, 4837, 4856, 5927, 6257, 6557, 7287, 7439, 8022, 8423, 8521, 9288, 9493]}, "edge": {"target": [], "time": []}}, "mouseout": {"state": {"target": ["0", "9", "12", "8", "8", "5", "3", "7", "2", "4", "0", "0", "8", "9", "11", "9", "0", "1", "9", "9"], "time": [953, 1652, 2383, 2555, 3223, 3239, 4099, 4800, 4855, 5559, 5941, 6274, 7245, 7322, 7995, 8038, 8438, 9240, 9388, 10305]}, "edge": {"target": [], "time": []}}}, "displayed_time": "12.87", "trialTime": 13792, "trial_type": "mouselab-mdp", "trial_index": 50, "time_elapsed": 857710, "internal_node_id": "0.0-4.0-3.0-10.0"}}, {"uniqueid": "w48294494:a60383824", "current_trial": 51, "dateTime": 1664464768864, "trialdata": {"revealed_states": [], "num_clicks_accrued": [0, 0, 0, 0, 0, 0, 0, 0, 0, 0, 0, 0, 0], "stateRewards": ["", -2, -4, -48, -48, 4, -4, 48, 24, 4, 4, 48, 48], "withholdReward": false, "trial_id": "mdp_950960813932", "block": "test2", "trialIndex": 43, "score": 60.5, "costs": -0.5, "simulationMode": [null, null, null], "rewards": [4, 4, 48], "path": ["0", "0", "9", "10", "11"], "rt": [3462, 16, 19], "actions": ["left", "left", "up"], "actionTimes": [4657, 5192, 5721], "queries": {"click": {"state": {"target": ["10", "11"], "time": [1898, 3148]}, "edge": {"target": [], "time": []}}, "mouseover": {"state": {"target": ["9", "10", "11", "9"], "time": [1539, 1670, 2825, 3651]}, "edge": {"target": [], "time": []}}, "mouseout": {"state": {"target": ["0", "9", "10", "11", "9"], "time": [850, 1598, 2507, 3631, 3669]}, "edge": {"target": [], "time": []}}}, "displayed_time": "9.29", "trialTime": 9647, "trial_type": "mouselab-mdp", "trial_index": 51, "time_elapsed": 867485, "internal_node_id": "0.0-4.0-3.0-11.0"}}, {"uniqueid": "w48294494:a60383824", "current_trial": 52, "dateTime": 1664464783820, "trialdata": {"revealed_states": [], "num_clicks_accrued": [0, 0, 0, 0, 0, 0, 0, 0, 0, 0, 0, 0, 0], "stateRewards": ["", 2, -4, 24, 24, 4, -4, -24, 24, -4, -4, 48, 48], "withholdReward": false, "trial_id": "mdp_566306223773", "block": "test2", "trialIndex": 44, "score": 43.5, "costs": -1.5, "simulationMode": [null, null, null], "rewards": [-4, -4, 48], "path": ["0", "0", "9", "10", "11"], "rt": [10393, 373, 13], "actions": ["left", "left", "up"], "actionTimes": [11743, 12646, 13177], "queries": {"click": {"state": {"target": ["11", "10", "4", "8", "7", "3"], "time": [2149, 3886, 5115, 6790, 7746, 8619]}, "edge": {"target": [], "time": []}}, "mouseover": {"state": {"target": ["11", "9", "9", "10", "9", "4", "1", "5", "6", "8", "6", "7", "3", "0"], "time": [1883, 2651, 3040, 3594, 4398, 4757, 5594, 6116, 6294, 6481, 7312, 7445, 8344, 9130]}, "edge": {"target": [], "time": []}}, "mouseout": {"state": {"target": ["0", "11", "9", "9", "10", "9", "4", "1", "5", "6", "8", "6", "7", "3", "0"], "time": [1736, 2634, 2678, 3511, 4381, 4484, 5557, 5931, 6162, 6466, 7290, 7344, 8312, 9099, 9146]}, "edge": {"target": [], "time": []}}}, "displayed_time": "13.68", "trialTime": 14813, "trial_type": "mouselab-mdp", "trial_index": 52, "time_elapsed": 882444, "internal_node_id": "0.0-4.0-3.0-12.0"}}, {"uniqueid": "w48294494:a60383824", "current_trial": 53, "dateTime": 1664464795228, "trialdata": {"revealed_states": [], "num_clicks_accrued": [0, 0, 0, 0, 0, 0, 0, 0, 0, 0, 0, 0, 0], "stateRewards": ["", 2, -4, -48, 24, 4, 4, 48, -48, -2, -4, -24, -48], "withholdReward": true, "trial_id": "mdp_858916930936", "block": "test2", "trialIndex": 45, "score": 59.5, "costs": -1.5, "simulationMode": [null, null, null], "rewards": [4, 4, 48], "path": ["0", "0", "5", "6", "7"], "rt": [6560, 490, 434], "actions": ["right", "right", "up"], "actionTimes": [7837, 8841, 9785], "queries": {"click": {"state": {"target": ["11", "8", "3", "4", "12", "7"], "time": [1903, 3087, 3987, 4679, 5506, 6412]}, "edge": {"target": [], "time": []}}, "mouseover": {"state": {"target": ["11", "0", "8", "5", "2", "3", "2", "4", "12", "0", "5", "7", "6"], "time": [1720, 2369, 2819, 3472, 3546, 3779, 4381, 4429, 5147, 5846, 5881, 6109, 6964]}, "edge": {"target": [], "time": []}}, "mouseout": {"state": {"target": ["0", "11", "0", "8", "5", "2", "3", "2", "4", "12", "0", "5", "7", "6"], "time": [1587, 2346, 2383, 3462, 3499, 3667, 4355, 4413, 4996, 5803, 5864, 5914, 6933, 10831]}, "edge": {"target": [], "time": []}}}, "displayed_time": "10.30", "trialTime": 11273, "trial_type": "mouselab-mdp", "trial_index": 53, "time_elapsed": 893851, "internal_node_id": "0.0-4.0-3.0-13.0"}}, {"uniqueid": "w48294494:a60383824", "current_trial": 54, "dateTime": 1664464811403, "trialdata": {"revealed_states": [], "num_clicks_accrued": [0, 0, 0, 0, 0, 0, 0, 0, 0, 0, 0, 0, 0], "stateRewards": ["", -4, -4, 24, -48, -2, 8, -24, -48, -4, 4, 24, -48], "withholdReward": true, "trial_id": "mdp_934626330092", "block": "test2", "trialIndex": 46, "score": 26.5, "costs": -2.5, "simulationMode": [null, null, null], "rewards": [-4, 4, 24], "path": ["0", "0", "9", "10", "11"], "rt": [12022, 67, 25], "actions": ["left", "left", "up"], "actionTimes": [13451, 14043, 14586], "queries": {"click": {"state": {"target": ["11", "7", "3", "4", "12", "8", "1", "9", "10", "2"], "time": [2935, 3985, 4733, 5529, 6326, 7171, 8984, 10494, 11333, 12109]}, "edge": {"target": [], "time": []}}, "mouseover": {"state": {"target": ["9", "10", "11", "9", "5", "7", "3", "2", "4", "12", "8", "0", "1", "9", "10", "9", "10", "2", "0"], "time": [1791, 2675, 2706, 3390, 3469, 3635, 4489, 5190, 5230, 6039, 6859, 8423, 8610, 9438, 9969, 10174, 11090, 11845, 12490]}, "edge": {"target": [], "time": []}}, "mouseout": {"state": {"target": ["0", "9", "10", "11", "9", "5", "7", "3", "2", "4", "12", "8", "0", "1", "9", "10", "9", "10", "2", "1", "0"], "time": [1105, 1825, 2689, 3358, 3407, 3507, 4466, 5176, 5205, 5792, 6648, 7744, 8441, 9377, 9457, 10144, 10996, 11644, 12415, 12456, 12539]}, "edge": {"target": [], "time": []}}}, "displayed_time": "15.10", "trialTime": 16041, "trial_type": "mouselab-mdp", "trial_index": 54, "time_elapsed": 910027, "internal_node_id": "0.0-4.0-3.0-14.0"}}, {"uniqueid": "w48294494:a60383824", "current_trial": 55, "dateTime": 1664464823167, "trialdata": {"revealed_states": [], "num_clicks_accrued": [0, 0, 0, 0, 0, 0, 0, 0, 0, 0, 0, 0, 0], "stateRewards": ["", -2, -8, 48, 24, 4, -8, 24, 48, 4, -4, 24, -48], "withholdReward": true, "trial_id": "mdp_871576155740", "block": "test2", "trialIndex": 47, "score": 48, "costs": -1, "simulationMode": [null, null, null], "rewards": [4, -8, 48], "path": ["0", "0", "5", "6", "8"], "rt": [4833, 480, 456], "actions": ["right", "right", "down"], "actionTimes": [5785, 6783, 7760], "queries": {"click": {"state": {"target": ["11", "8", "7", "5"], "time": [1574, 2536, 3362, 4950]}, "edge": {"target": [], "time": []}}, "mouseover": {"state": {"target": ["11", "5", "8", "7", "6", "5"], "time": [1403, 2017, 2269, 3051, 4119, 4685]}, "edge": {"target": [], "time": []}}, "mouseout": {"state": {"target": ["0", "11", "5", "8", "7", "6", "5"], "time": [1257, 1959, 2067, 2934, 3866, 4670, 8736]}, "edge": {"target": [], "time": []}}}, "displayed_time": "11.06", "trialTime": 11633, "trial_type": "mouselab-mdp", "trial_index": 55, "time_elapsed": 921791, "internal_node_id": "0.0-4.0-3.0-15.0"}}, {"uniqueid": "w48294494:a60383824", "current_trial": 56, "dateTime": 1664464834318, "trialdata": {"revealed_states": [], "num_clicks_accrued": [0, 0, 0, 0, 0, 0, 0, 0, 0, 0, 0, 0, 0], "stateRewards": ["", 4, -8, 48, -24, -4, 4, 24, 24, -2, -4, 24, 24], "withholdReward": true, "trial_id": "mdp_542168715839", "block": "test2", "trialIndex": 48, "score": 47.5, "costs": -1.5, "simulationMode": [null, null, null], "rewards": [4, -8, 48], "path": ["0", "0", "1", "2", "3"], "rt": [7082, 490, 31], "actions": ["up", "up", "right"], "actionTimes": [8018, 9013, 9555], "queries": {"click": {"state": {"target": ["4", "12", "11", "8", "7", "3"], "time": [1646, 2572, 3384, 4285, 5019, 6274]}, "edge": {"target": [], "time": []}}, "mouseover": {"state": {"target": ["4", "12", "10", "11", "9", "0", "8", "6", "7", "3"], "time": [1443, 2321, 2973, 3172, 3787, 3807, 3926, 4710, 4805, 6055]}, "edge": {"target": [], "time": []}}, "mouseout": {"state": {"target": ["4", "12", "10", "11", "9", "0", "8", "6", "7", "3", "0"], "time": [2030, 2943, 3039, 3773, 3803, 3828, 4696, 4740, 5382, 6788, 10807]}, "edge": {"target": [], "time": []}}}, "displayed_time": "10.09", "trialTime": 11021, "trial_type": "mouselab-mdp", "trial_index": 56, "time_elapsed": 932942, "internal_node_id": "0.0-4.0-3.0-16.0"}}, {"uniqueid": "w48294494:a60383824", "current_trial": 57, "dateTime": 1664464845811, "trialdata": {"revealed_states": [], "num_clicks_accrued": [0, 0, 0, 0, 0, 0, 0, 0, 0, 0, 0, 0, 0], "stateRewards": ["", -4, 4, -24, -24, -4, -8, 24, 48, 4, -4, 24, 48], "withholdReward": false, "trial_id": "mdp_175395325183", "block": "test2", "trialIndex": 49, "score": 51.75, "costs": -1.25, "simulationMode": [null, null, null], "rewards": [4, -4, 48], "path": ["0", "0", "9", "10", "12"], "rt": [5597, 406, 28], "actions": ["left", "left", "down"], "actionTimes": [7320, 8258, 8796], "queries": {"click": {"state": {"target": ["11", "12", "8", "5", "9"], "time": [2418, 3139, 4280, 5359, 6108]}, "edge": {"target": [], "time": []}}, "mouseover": {"state": {"target": ["9", "11", "10", "12", "8", "6", "5", "9"], "time": [2116, 2229, 2813, 2909, 3687, 4731, 5048, 5782]}, "edge": {"target": [], "time": []}}, "mouseout": {"state": {"target": ["0", "9", "11", "10", "12", "8", "6", "5", "9"], "time": [2097, 2130, 2784, 2830, 3471, 4715, 4986, 5733, 6757]}, "edge": {"target": [], "time": []}}}, "displayed_time": "9.79", "trialTime": 11338, "trial_type": "mouselab-mdp", "trial_index": 57, "time_elapsed": 944433, "internal_node_id": "0.0-4.0-3.0-17.0"}}, {"uniqueid": "w48294494:a60383824", "current_trial": 58, "dateTime": 1664464858420, "trialdata": {"revealed_states": [], "num_clicks_accrued": [0, 0, 0, 0, 0, 0, 0, 0, 0, 0, 0, 0, 0], "stateRewards": ["", -2, -8, -24, -48, 4, -8, 48, 24, 2, 4, -48, -48], "withholdReward": true, "trial_id": "mdp_898082967464", "block": "test2", "trialIndex": 50, "score": 47.5, "costs": -1.5, "simulationMode": [null, null, null], "rewards": [4, -8, 48], "path": ["0", "0", "5", "6", "7"], "rt": [7374, 421, 83], "actions": ["right", "right", "up"], "actionTimes": [9311, 10241, 10852], "queries": {"click": {"state": {"target": ["12", "11", "8", "7", "3", "4"], "time": [3493, 4281, 5085, 6126, 7335, 7985]}, "edge": {"target": [], "time": []}}, "mouseover": {"state": {"target": ["12", "10", "11", "0", "8", "7", "3", "2", "4", "1", "5", "6"], "time": [3223, 3951, 4033, 4666, 4738, 5860, 7118, 7715, 7750, 8353, 8375, 8418]}, "edge": {"target": [], "time": []}}, "mouseout": {"state": {"target": ["0", "12", "10", "11", "0", "8", "7", "3", "2", "4", "1", "5", "6", "8"], "time": [2317, 3934, 3971, 4631, 4682, 5459, 6560, 7665, 7729, 8323, 8373, 8402, 8885, 11968]}, "edge": {"target": [], "time": []}}}, "displayed_time": "11.37", "trialTime": 12476, "trial_type": "mouselab-mdp", "trial_index": 58, "time_elapsed": 957040, "internal_node_id": "0.0-4.0-3.0-18.0"}}, {"uniqueid": "w48294494:a60383824", "current_trial": 59, "dateTime": 1664464869500, "trialdata": {"revealed_states": [], "num_clicks_accrued": [0, 0, 0, 0, 0, 0, 0, 0, 0, 0, 0, 0, 0], "stateRewards": ["", -4, 4, -24, 24, -2, -4, 48, 24, 2, 8, -48, 24], "withholdReward": true, "trial_id": "mdp_150340189492", "block": "test2", "trialIndex": 51, "score": 45.5, "costs": -1.5, "simulationMode": [null, null, null], "rewards": [-2, -4, 48], "path": ["0", "0", "5", "6", "7"], "rt": [7130, 319, 25], "actions": ["right", "right", "up"], "actionTimes": [8176, 9009, 9548], "queries": {"click": {"state": {"target": ["11", "12", "8", "7", "3", "4"], "time": [2534, 3339, 4317, 5113, 6308, 6935]}, "edge": {"target": [], "time": []}}, "mouseover": {"state": {"target": ["9", "10", "11", "11", "10", "12", "8", "6", "7", "3", "2", "4", "0"], "time": [1510, 1694, 1911, 2253, 2971, 3118, 4082, 4644, 4753, 5956, 6637, 6686, 7347]}, "edge": {"target": [], "time": []}}, "mouseout": {"state": {"target": ["0", "9", "10", "11", "11", "10", "12", "8", "6", "7", "3", "2", "4", "0"], "time": [1494, 1538, 1894, 1938, 2938, 2987, 3656, 4627, 4671, 5527, 6621, 6670, 7313, 7386]}, "edge": {"target": [], "time": []}}}, "displayed_time": "10.06", "trialTime": 10931, "trial_type": "mouselab-mdp", "trial_index": 59, "time_elapsed": 968124, "internal_node_id": "0.0-4.0-3.0-19.0"}}, {"uniqueid": "w48294494:a60383824", "current_trial": 60, "dateTime": 1664464881995, "trialdata": {"revealed_states": [], "num_clicks_accrued": [0, 0, 0, 0, 0, 0, 0, 0, 0, 0, 0, 0, 0], "stateRewards": ["", 4, -4, 48, -48, 4, -4, 24, -24, 4, 8, -24, -48], "withholdReward": true, "trial_id": "mdp_433630527224", "block": "test2", "trialIndex": 52, "score": 51.5, "costs": -1.5, "simulationMode": [null, null, null], "rewards": [4, -4, 48], "path": ["0", "0", "1", "2", "3"], "rt": [5907, 405, 416], "actions": ["up", "up", "right"], "actionTimes": [7516, 8435, 9362], "queries": {"click": {"state": {"target": ["4", "12", "11", "8", "7", "3"], "time": [2443, 3325, 4113, 4997, 5682, 6319]}, "edge": {"target": [], "time": []}}, "mouseover": {"state": {"target": ["4", "12", "10", "11", "8", "6", "7", "3", "5"], "time": [2042, 3028, 3761, 3826, 4563, 5377, 5414, 6093, 6626]}, "edge": {"target": [], "time": []}}, "mouseout": {"state": {"target": ["0", "4", "12", "10", "11", "8", "6", "7", "3", "5"], "time": [1964, 2831, 3745, 3778, 4431, 5360, 5396, 6062, 6593, 6642]}, "edge": {"target": [], "time": []}}}, "displayed_time": "11.71", "trialTime": 12350, "trial_type": "mouselab-mdp", "trial_index": 60, "time_elapsed": 980619, "internal_node_id": "0.0-4.0-3.0-20.0"}}, {"uniqueid": "w48294494:a60383824", "current_trial": 61, "dateTime": 1664464892181, "trialdata": {"revealed_states": [], "num_clicks_accrued": [0, 0, 0, 0, 0, 0, 0, 0, 0, 0, 0, 0, 0], "stateRewards": ["", 2, 8, 48, 24, -4, 4, -48, 24, 2, 8, 48, 48], "withholdReward": true, "trial_id": "mdp_367344599162", "block": "test2", "trialIndex": 53, "score": 62.5, "costs": -0.5, "simulationMode": [null, null, null], "rewards": [2, 8, 48], "path": ["0", "0", "9", "10", "11"], "rt": [4078, 407, 36], "actions": ["left", "left", "up"], "actionTimes": [5152, 6093, 6638], "queries": {"click": {"state": {"target": ["11", "12"], "time": [1822, 2722]}, "edge": {"target": [], "time": []}}, "mouseover": {"state": {"target": ["11", "10", "12", "10"], "time": [1585, 2255, 2467, 3315]}, "edge": {"target": [], "time": []}}, "mouseout": {"state": {"target": ["0", "11", "10", "12", "10"], "time": [699, 2239, 2315, 3267, 4152]}, "edge": {"target": [], "time": []}}}, "displayed_time": "9.21", "trialTime": 10041, "trial_type": "mouselab-mdp", "trial_index": 61, "time_elapsed": 990805, "internal_node_id": "0.0-4.0-3.0-21.0"}}, {"uniqueid": "w48294494:a60383824", "current_trial": 62, "dateTime": 1664464904798, "trialdata": {"revealed_states": [], "num_clicks_accrued": [0, 0, 0, 0, 0, 0, 0, 0, 0, 0, 0, 0, 0], "stateRewards": ["", 4, 4, 24, -48, 2, -8, -24, -48, 4, 8, 48, 48], "withholdReward": true, "trial_id": "mdp_592471239511", "block": "test2", "trialIndex": 54, "score": 63.5, "costs": -1.5, "simulationMode": [null, null, null], "rewards": [4, 8, 48], "path": ["0", "0", "9", "10", "12"], "rt": [7799, 338, 732], "actions": ["left", "left", "down"], "actionTimes": [8938, 9815, 11085], "queries": {"click": {"state": {"target": ["11", "8", "12", "7", "3", "4"], "time": [2552, 3430, 4578, 5416, 6230, 6911]}, "edge": {"target": [], "time": []}}, "mouseover": {"state": {"target": ["11", "11", "0", "8", "12", "12", "7", "3", "2", "4", "10"], "time": [1549, 2333, 2951, 3115, 3935, 4340, 5173, 5953, 6607, 6650, 7753]}, "edge": {"target": [], "time": []}}, "mouseout": {"state": {"target": ["0", "11", "11", "0", "8", "12", "12", "7", "3", "2", "4", "10"], "time": [1467, 1582, 2912, 2967, 3887, 4033, 4882, 5856, 6590, 6632, 7353, 8136]}, "edge": {"target": [], "time": []}}}, "displayed_time": "11.60", "trialTime": 12472, "trial_type": "mouselab-mdp", "trial_index": 62, "time_elapsed": 1003421, "internal_node_id": "0.0-4.0-3.0-22.0"}}, {"uniqueid": "w48294494:a60383824", "current_trial": 63, "dateTime": 1664464916570, "trialdata": {"revealed_states": [], "num_clicks_accrued": [0, 0, 0, 0, 0, 0, 0, 0, 0, 0, 0, 0, 0], "stateRewards": ["", -4, 8, 24, -24, -2, 4, -24, 48, -2, 8, -48, -24], "withholdReward": false, "trial_id": "mdp_799359103169", "block": "test2", "trialIndex": 55, "score": 53.5, "costs": -1.5, "simulationMode": [null, null, null], "rewards": [-2, 4, 48], "path": ["0", "0", "5", "6", "8"], "rt": [6893, 440, 53], "actions": ["right", "right", "down"], "actionTimes": [8546, 9511, 10070], "queries": {"click": {"state": {"target": ["11", "7", "4", "12", "3", "8"], "time": [2320, 3361, 4482, 5294, 6085, 7329]}, "edge": {"target": [], "time": []}}, "mouseover": {"state": {"target": ["9", "11", "1", "7", "2", "4", "10", "12", "9", "1", "3", "8", "8"], "time": [1982, 2122, 2915, 3051, 3880, 4183, 4965, 4999, 5672, 5702, 5739, 6531, 7106]}, "edge": {"target": [], "time": []}}, "mouseout": {"state": {"target": ["0", "9", "11", "1", "7", "2", "4", "10", "12", "9", "1", "3", "8", "8"], "time": [1969, 2000, 2879, 2972, 3824, 3930, 4902, 4982, 5659, 5699, 5725, 6398, 6581, 7817]}, "edge": {"target": [], "time": []}}}, "displayed_time": "10.80", "trialTime": 11625, "trial_type": "mouselab-mdp", "trial_index": 63, "time_elapsed": 1015193, "internal_node_id": "0.0-4.0-3.0-23.0"}}, {"uniqueid": "w48294494:a60383824", "current_trial": 64, "dateTime": 1664464927975, "trialdata": {"revealed_states": [], "num_clicks_accrued": [0, 0, 0, 0, 0, 0, 0, 0, 0, 0, 0, 0, 0], "stateRewards": ["", 2, 8, -24, -48, 2, 4, -24, 48, 2, -8, 48, -24], "withholdReward": true, "trial_id": "mdp_791659307216", "block": "test2", "trialIndex": 56, "score": 45.75, "costs": -1.25, "simulationMode": [null, null, null], "rewards": [2, -8, 48], "path": ["0", "0", "9", "10", "11"], "rt": [6010, 427, 180], "actions": ["left", "left", "up"], "actionTimes": [7474, 8410, 9099], "queries": {"click": {"state": {"target": ["12", "3", "7", "4", "11"], "time": [2153, 3330, 4283, 5362, 6052]}, "edge": {"target": [], "time": []}}, "mouseover": {"state": {"target": ["12", "9", "2", "3", "7", "4", "11", "8", "8"], "time": [1867, 2754, 2955, 3100, 4013, 5016, 5813, 6496, 6855]}, "edge": {"target": [], "time": []}}, "mouseout": {"state": {"target": ["0", "12", "9", "2", "3", "7", "4", "11", "8", "8"], "time": [1771, 2738, 2780, 2966, 3898, 4849, 5733, 6422, 6512, 6913]}, "edge": {"target": [], "time": []}}}, "displayed_time": "10.62", "trialTime": 11261, "trial_type": "mouselab-mdp", "trial_index": 64, "time_elapsed": 1026597, "internal_node_id": "0.0-4.0-3.0-24.0"}}, {"uniqueid": "w48294494:a60383824", "current_trial": 65, "dateTime": 1664464939651, "trialdata": {"revealed_states": [], "num_clicks_accrued": [0, 0, 0, 0, 0, 0, 0, 0, 0, 0, 0, 0, 0], "stateRewards": ["", -2, 8, 24, -48, -4, -8, -24, -48, -4, 8, -24, 48], "withholdReward": true, "trial_id": "mdp_464339499860", "block": "test2", "trialIndex": 57, "score": 55.75, "costs": -1.25, "simulationMode": [null, null, null], "rewards": [-4, 8, 48], "path": ["0", "0", "9", "10", "12"], "rt": [6828, 399, 450], "actions": ["left", "left", "down"], "actionTimes": [7897, 8807, 9774], "queries": {"click": {"state": {"target": ["12", "7", "4", "8", "3"], "time": [1781, 3260, 4485, 5966, 6779]}, "edge": {"target": [], "time": []}}, "mouseover": {"state": {"target": ["12", "10", "11", "1", "7", "4", "5", "8", "8", "3", "0"], "time": [1509, 2320, 2551, 2637, 2959, 3972, 4986, 5022, 5759, 6509, 7371]}, "edge": {"target": [], "time": []}}, "mouseout": {"state": {"target": ["0", "12", "10", "11", "1", "7", "4", "5", "8", "8", "3", "0"], "time": [771, 2303, 2404, 2565, 2654, 3761, 4957, 5005, 5206, 6349, 7320, 7388]}, "edge": {"target": [], "time": []}}}, "displayed_time": "11.18", "trialTime": 11545, "trial_type": "mouselab-mdp", "trial_index": 65, "time_elapsed": 1038275, "internal_node_id": "0.0-4.0-3.0-25.0"}}, {"uniqueid": "w48294494:a60383824", "current_trial": 66, "dateTime": 1664464960790, "trialdata": {"revealed_states": [], "num_clicks_accrued": [0, 0, 0, 0, 0, 0, 0, 0, 0, 0, 0, 0, 0], "stateRewards": ["", -4, 8, -24, 48, 2, -8, 24, 48, 2, -8, -24, -48], "withholdReward": true, "trial_id": "mdp_493778446445", "block": "test2", "trialIndex": 58, "score": 55.25, "costs": -1.75, "simulationMode": [null, null, null], "rewards": [-4, 8, 48], "path": ["0", "0", "1", "2", "4"], "rt": [16669, 403, 435], "actions": ["up", "up", "left"], "actionTimes": [17832, 18757, 19704], "queries": {"click": {"state": {"target": ["11", "8", "4", "1", "5", "6", "2"], "time": [2678, 3664, 5183, 6795, 7550, 8794, 9633]}, "edge": {"target": [], "time": []}}, "mouseover": {"state": {"target": ["11", "0", "8", "3", "4", "1", "0", "1", "5", "6", "2"], "time": [2448, 3095, 3439, 4583, 4850, 5666, 6332, 6434, 7283, 8488, 9317]}, "edge": {"target": [], "time": []}}, "mouseout": {"state": {"target": ["0", "11", "0", "8", "3", "4", "1", "0", "1", "5", "6", "2"], "time": [1498, 3060, 3115, 4350, 4633, 5638, 5767, 6349, 7149, 7967, 9175, 10034]}, "edge": {"target": [], "time": []}}}, "displayed_time": "20.23", "trialTime": 20995, "trial_type": "mouselab-mdp", "trial_index": 66, "time_elapsed": 1059413, "internal_node_id": "0.0-4.0-3.0-26.0"}}, {"uniqueid": "w48294494:a60383824", "current_trial": 67, "dateTime": 1664464971628, "trialdata": {"revealed_states": [], "num_clicks_accrued": [0, 0, 0, 0, 0, 0, 0, 0, 0, 0, 0, 0, 0], "stateRewards": ["", -2, -4, -24, -24, 4, 8, 24, 24, -2, 8, 48, 48], "withholdReward": false, "trial_id": "mdp_620787912291", "block": "test2", "trialIndex": 59, "score": 57.75, "costs": -1.25, "simulationMode": [null, null, null], "rewards": [-2, 8, 48], "path": ["0", "0", "9", "10", "11"], "rt": [5319, 11, 409], "actions": ["left", "left", "up"], "actionTimes": [6562, 7090, 8010], "queries": {"click": {"state": {"target": ["11", "8", "3", "4", "7"], "time": [2002, 2947, 3882, 4652, 5375]}, "edge": {"target": [], "time": []}}, "mouseover": {"state": {"target": ["11", "0", "8", "3", "2", "4", "7", "5"], "time": [1748, 2445, 2646, 3545, 4340, 4364, 5128, 5945]}, "edge": {"target": [], "time": []}}, "mouseout": {"state": {"target": ["0", "11", "0", "8", "3", "2", "4", "7", "5"], "time": [1537, 2431, 2479, 3450, 4329, 4362, 5020, 5910, 5997]}, "edge": {"target": [], "time": []}}}, "displayed_time": "10.31", "trialTime": 10677, "trial_type": "mouselab-mdp", "trial_index": 67, "time_elapsed": 1070251, "internal_node_id": "0.0-4.0-3.0-27.0"}}, {"uniqueid": "w48294494:a60383824", "current_trial": 68, "dateTime": 1664464983735, "trialdata": {"revealed_states": [], "num_clicks_accrued": [0, 0, 0, 0, 0, 0, 0, 0, 0, 0, 0, 0, 0], "stateRewards": ["", 2, 8, -48, 48, -4, -8, 24, 24, -2, -8, 24, -24], "withholdReward": true, "trial_id": "mdp_910248289075", "block": "test2", "trialIndex": 60, "score": 61.75, "costs": -1.25, "simulationMode": [null, null, null], "rewards": [2, 8, 48], "path": ["0", "0", "1", "2", "4"], "rt": [7013, 835, 321], "actions": ["up", "up", "left"], "actionTimes": [8255, 9609, 10439], "queries": {"click": {"state": {"target": ["4", "7", "12", "11", "8"], "time": [1959, 3256, 4391, 5309, 6860]}, "edge": {"target": [], "time": []}}, "mouseover": {"state": {"target": ["4", "2", "3", "7", "5", "12", "10", "11", "8", "8", "5"], "time": [1649, 2502, 2546, 2932, 3811, 4133, 4826, 5034, 5981, 6620, 7464]}, "edge": {"target": [], "time": []}}, "mouseout": {"state": {"target": ["0", "4", "2", "3", "7", "5", "12", "10", "11", "8", "8", "5"], "time": [947, 2388, 2521, 2597, 3658, 3857, 4811, 4911, 5674, 6098, 7381, 7482]}, "edge": {"target": [], "time": []}}}, "displayed_time": "10.97", "trialTime": 11971, "trial_type": "mouselab-mdp", "trial_index": 68, "time_elapsed": 1082358, "internal_node_id": "0.0-4.0-3.0-28.0"}}, {"uniqueid": "w48294494:a60383824", "current_trial": 69, "dateTime": 1664464997141, "trialdata": {"revealed_states": [], "num_clicks_accrued": [0, 0, 0, 0, 0, 0, 0, 0, 0, 0, 0, 0, 0], "stateRewards": ["", -2, -8, 48, 24, 2, 4, 24, -24, -2, -4, 48, -48], "withholdReward": true, "trial_id": "mdp_411152402386", "block": "test2", "trialIndex": 61, "score": 45.25, "costs": -1.75, "simulationMode": [null, null, null], "rewards": [-2, -4, 48], "path": ["0", "0", "9", "10", "11"], "rt": [9514, 37, 11], "actions": ["left", "left", "up"], "actionTimes": [10794, 11366, 11884], "queries": {"click": {"state": {"target": ["11", "7", "3", "4", "8", "2", "10"], "time": [2130, 3118, 3986, 4786, 5666, 6529, 7576]}, "edge": {"target": [], "time": []}}, "mouseover": {"state": {"target": ["11", "1", "7", "3", "4", "5", "8", "2", "9", "10", "0"], "time": [1923, 2561, 2841, 3724, 4447, 5175, 5236, 6226, 7020, 7326, 8887]}, "edge": {"target": [], "time": []}}, "mouseout": {"state": {"target": ["0", "11", "1", "7", "3", "4", "5", "8", "2", "9", "10", "0"], "time": [1609, 2533, 2580, 3619, 4360, 5149, 5205, 6075, 6897, 7038, 7991, 8904]}, "edge": {"target": [], "time": []}}}, "displayed_time": "12.41", "trialTime": 13264, "trial_type": "mouselab-mdp", "trial_index": 69, "time_elapsed": 1095764, "internal_node_id": "0.0-4.0-3.0-29.0"}}, {"uniqueid": "w48294494:a60383824", "current_trial": 70, "dateTime": 1664465003226, "trialdata": {"rt": 6072, "stimulus": "<h1> End of block! </h1>\n\nYou have reached the end of the block 2/4. If you need a short break, feel free to take one now before moving on.\n\n<br><br>\nIn the next block, you will complete another 30 rounds of this game.\n\n<br><br>\n<div style='text-align: center;'>Press <code>space</code> to begin.</div>\n<br><br>\n<div style='text-align: center;'>(If the experiment doesn't continue, try clicking on the text and then pressing <code>space</code>.)</div>", "response": " ", "trial_id": "mdp_ready_3", "trial_type": "html-keyboard-response", "trial_index": 70, "time_elapsed": 1101849, "internal_node_id": "0.0-4.0-4.0"}}, {"uniqueid": "w48294494:a60383824", "current_trial": 71, "dateTime": 1664465020684, "trialdata": {"revealed_states": [], "num_clicks_accrued": [0, 0, 0, 0, 0, 0, 0, 0, 0, 0, 0, 0, 0], "stateRewards": ["", 2, 4, -48, 24, -4, -4, -24, 24, 2, -4, 24, -24], "withholdReward": false, "trial_id": "mdp_163600331068", "block": "test3", "trialIndex": 62, "score": 32, "costs": -3, "simulationMode": [null, null, null], "rewards": [2, 4, 24], "path": ["0", "0", "1", "2", "4"], "rt": [13152, 13, 6], "actions": ["up", "up", "left"], "actionTimes": [14531, 15061, 15573], "queries": {"click": {"state": {"target": ["11", "12", "8", "7", "3", "4", "1", "9", "5", "6", "2", "10"], "time": [2122, 2851, 3939, 4714, 6034, 6722, 7835, 8585, 9353, 10078, 10980, 11945]}, "edge": {"target": [], "time": []}}, "mouseover": {"state": {"target": ["11", "10", "12", "8", "6", "7", "3", "3", "2", "4", "1", "9", "0", "5", "6", "2", "10"], "time": [1795, 2521, 2565, 3697, 4380, 4429, 5116, 5811, 6420, 6465, 7517, 8345, 8998, 9045, 9771, 10707, 11628]}, "edge": {"target": [], "time": []}}, "mouseout": {"state": {"target": ["0", "11", "10", "12", "8", "6", "7", "3", "3", "2", "4", "1", "9", "0", "5", "6", "2", "10", "9"], "time": [677, 2503, 2545, 3150, 4366, 4412, 5099, 5212, 6386, 6439, 7209, 8212, 8972, 9013, 9757, 10436, 11337, 12525, 12578]}, "edge": {"target": [], "time": []}}}, "displayed_time": "16.10", "trialTime": 17312, "trial_type": "mouselab-mdp", "trial_index": 71, "time_elapsed": 1119304, "internal_node_id": "0.0-4.0-5.0-0.0"}}, {"uniqueid": "w48294494:a60383824", "current_trial": 72, "dateTime": 1664465036344, "trialdata": {"revealed_states": [], "num_clicks_accrued": [0, 0, 0, 0, 0, 0, 0, 0, 0, 0, 0, 0, 0], "stateRewards": ["", -2, -8, 48, 24, -2, 8, -48, -24, -2, 4, -48, 48], "withholdReward": false, "trial_id": "mdp_295220852217", "block": "test3", "trialIndex": 63, "score": 52.75, "costs": -2.25, "simulationMode": [null, null, null], "rewards": [-2, 4, 48], "path": ["0", "0", "9", "10", "12"], "rt": [11036, 65, 45], "actions": ["left", "left", "down"], "actionTimes": [12982, 13576, 14149], "queries": {"click": {"state": {"target": ["11", "8", "7", "3", "12", "10", "2", "9", "1"], "time": [2612, 3447, 4838, 5553, 7217, 8804, 9736, 11260, 11977]}, "edge": {"target": [], "time": []}}, "mouseover": {"state": {"target": ["11", "8", "6", "7", "7", "3", "4", "10", "12", "9", "10", "2", "0", "9", "1", "0"], "time": [2350, 3134, 3885, 3921, 4619, 5318, 6018, 6833, 6951, 8001, 8216, 9419, 10167, 11053, 11750, 12410]}, "edge": {"target": [], "time": []}}, "mouseout": {"state": {"target": ["0", "11", "8", "6", "7", "7", "3", "4", "10", "12", "9", "10", "2", "0", "9", "1", "0"], "time": [2274, 3004, 3867, 3903, 3967, 5296, 5927, 6718, 6851, 7606, 8167, 9181, 10122, 10202, 11634, 12387, 12426]}, "edge": {"target": [], "time": []}}}, "displayed_time": "14.65", "trialTime": 15513, "trial_type": "mouselab-mdp", "trial_index": 72, "time_elapsed": 1134968, "internal_node_id": "0.0-4.0-5.0-1.0"}}, {"uniqueid": "w48294494:a60383824", "current_trial": 73, "dateTime": 1664465046523, "trialdata": {"revealed_states": [], "num_clicks_accrued": [0, 0, 0, 0, 0, 0, 0, 0, 0, 0, 0, 0, 0], "stateRewards": ["", 4, 8, -48, -48, 2, 4, -24, -48, 2, 8, 48, -48], "withholdReward": true, "trial_id": "mdp_902172716465", "block": "test3", "trialIndex": 64, "score": 61.75, "costs": -1.25, "simulationMode": [null, null, null], "rewards": [2, 8, 48], "path": ["0", "0", "9", "10", "11"], "rt": [5621, 419, 65], "actions": ["left", "left", "up"], "actionTimes": [6771, 7707, 8290], "queries": {"click": {"state": {"target": ["11", "8", "7", "3", "4"], "time": [1845, 3546, 4350, 5007, 5707]}, "edge": {"target": [], "time": []}}, "mouseover": {"state": {"target": ["11", "9", "0", "5", "8", "8", "6", "7", "3", "2", "4", "9"], "time": [1569, 2384, 2433, 2500, 2618, 3301, 3968, 4064, 4768, 5371, 5420, 6147]}, "edge": {"target": [], "time": []}}, "mouseout": {"state": {"target": ["11", "9", "0", "5", "8", "8", "6", "7", "3", "2", "4", "9"], "time": [2330, 2401, 2450, 2517, 2800, 3950, 4018, 4737, 5358, 5402, 6136, 6199]}, "edge": {"target": [], "time": []}}}, "displayed_time": "9.26", "trialTime": 10042, "trial_type": "mouselab-mdp", "trial_index": 73, "time_elapsed": 1145147, "internal_node_id": "0.0-4.0-5.0-2.0"}}, {"uniqueid": "w48294494:a60383824", "current_trial": 74, "dateTime": 1664465058387, "trialdata": {"revealed_states": [], "num_clicks_accrued": [0, 0, 0, 0, 0, 0, 0, 0, 0, 0, 0, 0, 0], "stateRewards": ["", -4, -4, 48, 24, -4, -4, -24, -48, -4, 4, 48, -24], "withholdReward": true, "trial_id": "mdp_896503755738", "block": "test3", "trialIndex": 65, "score": 51.75, "costs": -1.25, "simulationMode": [null, null, null], "rewards": [-4, 4, 48], "path": ["0", "0", "9", "10", "11"], "rt": [6140, 41, 423], "actions": ["left", "left", "up"], "actionTimes": [8233, 8791, 9723], "queries": {"click": {"state": {"target": ["11", "7", "3", "2", "10"], "time": [2764, 3637, 4368, 5943, 6737]}, "edge": {"target": [], "time": []}}, "mouseover": {"state": {"target": ["9", "11", "1", "7", "3", "2", "4", "2", "10"], "time": [2436, 2495, 3203, 3362, 4147, 4752, 4796, 5596, 6447]}, "edge": {"target": [], "time": []}}, "mouseout": {"state": {"target": ["0", "9", "11", "1", "7", "3", "2", "4", "2", "10"], "time": [2431, 2449, 3185, 3230, 4087, 4721, 4772, 5349, 6314, 7185]}, "edge": {"target": [], "time": []}}}, "displayed_time": "11.24", "trialTime": 11733, "trial_type": "mouselab-mdp", "trial_index": 74, "time_elapsed": 1157011, "internal_node_id": "0.0-4.0-5.0-3.0"}}, {"uniqueid": "w48294494:a60383824", "current_trial": 75, "dateTime": 1664465070489, "trialdata": {"revealed_states": [], "num_clicks_accrued": [0, 0, 0, 0, 0, 0, 0, 0, 0, 0, 0, 0, 0], "stateRewards": ["", 2, -4, 24, 24, 2, 4, 24, 24, -4, 8, 24, 48], "withholdReward": true, "trial_id": "mdp_268430387178", "block": "test3", "trialIndex": 66, "score": 31.75, "costs": -1.25, "simulationMode": [null, null, null], "rewards": [-4, 8, 24], "path": ["0", "0", "9", "10", "11"], "rt": [5979, 333, 436], "actions": ["left", "left", "up"], "actionTimes": [7003, 7869, 8828], "queries": {"click": {"state": {"target": ["11", "8", "3", "4", "10"], "time": [1693, 2535, 3351, 4084, 5904]}, "edge": {"target": [], "time": []}}, "mouseover": {"state": {"target": ["11", "5", "8", "3", "4", "9", "10", "1", "0"], "time": [1450, 2119, 2200, 3035, 3769, 5394, 5551, 6284, 6434]}, "edge": {"target": [], "time": []}}, "mouseout": {"state": {"target": ["0", "11", "5", "8", "3", "4", "9", "10", "1", "0"], "time": [1393, 2087, 2134, 2921, 3735, 4600, 5486, 6217, 6416, 6451]}, "edge": {"target": [], "time": []}}}, "displayed_time": "11.18", "trialTime": 11956, "trial_type": "mouselab-mdp", "trial_index": 75, "time_elapsed": 1169112, "internal_node_id": "0.0-4.0-5.0-4.0"}}, {"uniqueid": "w48294494:a60383824", "current_trial": 76, "dateTime": 1664465081821, "trialdata": {"revealed_states": [], "num_clicks_accrued": [0, 0, 0, 0, 0, 0, 0, 0, 0, 0, 0, 0, 0], "stateRewards": ["", -2, -4, -48, -48, -2, -8, 48, -48, 4, -8, -48, 24], "withholdReward": true, "trial_id": "mdp_468495641521", "block": "test3", "trialIndex": 67, "score": 41.5, "costs": -1.5, "simulationMode": [null, null, null], "rewards": [-2, -8, 48], "path": ["0", "0", "5", "6", "7"], "rt": [7449, 10, 10], "actions": ["right", "right", "up"], "actionTimes": [8467, 8985, 9518], "queries": {"click": {"state": {"target": ["11", "8", "7", "3", "4", "12"], "time": [2363, 3342, 4896, 5683, 6423, 7332]}, "edge": {"target": [], "time": []}}, "mouseover": {"state": {"target": ["11", "8", "6", "7", "7", "3", "4", "12"], "time": [2126, 3074, 3764, 3891, 4680, 5374, 6157, 7043]}, "edge": {"target": [], "time": []}}, "mouseout": {"state": {"target": ["0", "11", "8", "6", "7", "7", "3", "4", "12"], "time": [1357, 2775, 3742, 3807, 4027, 5283, 6084, 6765, 7742]}, "edge": {"target": [], "time": []}}}, "displayed_time": "10.04", "trialTime": 11210, "trial_type": "mouselab-mdp", "trial_index": 76, "time_elapsed": 1180445, "internal_node_id": "0.0-4.0-5.0-5.0"}}, {"uniqueid": "w48294494:a60383824", "current_trial": 77, "dateTime": 1664465093121, "trialdata": {"revealed_states": [], "num_clicks_accrued": [0, 0, 0, 0, 0, 0, 0, 0, 0, 0, 0, 0, 0], "stateRewards": ["", 2, -4, 48, 24, 2, 8, 24, 24, -2, 4, 24, 24], "withholdReward": true, "trial_id": "mdp_813974524300", "block": "test3", "trialIndex": 68, "score": 49.5, "costs": -1.5, "simulationMode": [null, null, null], "rewards": [2, -4, 48], "path": ["0", "0", "1", "2", "3"], "rt": [6774, 375, 395], "actions": ["up", "up", "right"], "actionTimes": [7873, 8767, 9670], "queries": {"click": {"state": {"target": ["11", "8", "7", "3", "12", "4"], "time": [1824, 2658, 3458, 4207, 6077, 6866]}, "edge": {"target": [], "time": []}}, "mouseover": {"state": {"target": ["11", "8", "6", "7", "3", "2", "1", "9", "12", "4"], "time": [1595, 2373, 3099, 3114, 3969, 4722, 5038, 5520, 5773, 6538]}, "edge": {"target": [], "time": []}}, "mouseout": {"state": {"target": ["0", "11", "8", "6", "7", "3", "2", "1", "9", "12", "4"], "time": [1413, 2162, 3094, 3111, 3907, 4657, 4857, 5420, 5538, 6389, 7155]}, "edge": {"target": [], "time": []}}}, "displayed_time": "10.20", "trialTime": 11157, "trial_type": "mouselab-mdp", "trial_index": 77, "time_elapsed": 1191745, "internal_node_id": "0.0-4.0-5.0-6.0"}}, {"uniqueid": "w48294494:a60383824", "current_trial": 78, "dateTime": 1664465103745, "trialdata": {"revealed_states": [], "num_clicks_accrued": [0, 0, 0, 0, 0, 0, 0, 0, 0, 0, 0, 0, 0], "stateRewards": ["", -2, 4, -24, -48, -4, 8, -24, 48, 4, 4, -48, 24], "withholdReward": false, "trial_id": "mdp_341117665701", "block": "test3", "trialIndex": 69, "score": 55.5, "costs": -1.5, "simulationMode": [null, null, null], "rewards": [-4, 8, 48], "path": ["0", "0", "5", "6", "8"], "rt": [6308, 571, 35], "actions": ["right", "right", "down"], "actionTimes": [7756, 8841, 9389], "queries": {"click": {"state": {"target": ["11", "12", "8", "7", "3", "4"], "time": [2462, 3263, 4170, 5075, 5741, 6414]}, "edge": {"target": [], "time": []}}, "mouseover": {"state": {"target": ["11", "10", "12", "8", "6", "7", "3", "2", "4", "9"], "time": [2187, 2858, 3009, 3855, 4544, 4645, 5485, 6094, 6136, 6776]}, "edge": {"target": [], "time": []}}, "mouseout": {"state": {"target": ["0", "11", "10", "12", "8", "6", "7", "3", "2", "4", "9"], "time": [755, 2847, 2944, 3588, 4525, 4570, 5455, 6090, 6119, 6703, 6801]}, "edge": {"target": [], "time": []}}}, "displayed_time": "9.91", "trialTime": 10479, "trial_type": "mouselab-mdp", "trial_index": 78, "time_elapsed": 1202369, "internal_node_id": "0.0-4.0-5.0-7.0"}}, {"uniqueid": "w48294494:a60383824", "current_trial": 79, "dateTime": 1664465115205, "trialdata": {"revealed_states": [], "num_clicks_accrued": [0, 0, 0, 0, 0, 0, 0, 0, 0, 0, 0, 0, 0], "stateRewards": ["", 2, 4, 48, 24, -4, 8, 48, 48, 2, -4, -48, -24], "withholdReward": true, "trial_id": "mdp_822099887466", "block": "test3", "trialIndex": 70, "score": 55.25, "costs": -1.75, "simulationMode": [null, null, null], "rewards": [-4, 8, 48], "path": ["0", "0", "5", "6", "8"], "rt": [7828, 16, 35], "actions": ["right", "right", "down"], "actionTimes": [8767, 9311, 9869], "queries": {"click": {"state": {"target": ["12", "8", "11", "4", "3", "2", "6"], "time": [1928, 2935, 4042, 4830, 5621, 6683, 7693]}, "edge": {"target": [], "time": []}}, "mouseover": {"state": {"target": ["12", "8", "6", "7", "11", "4", "2", "3", "1", "2", "6"], "time": [1697, 2628, 3443, 3542, 3744, 4561, 5219, 5303, 6196, 6235, 7328]}, "edge": {"target": [], "time": []}}, "mouseout": {"state": {"target": ["0", "12", "8", "6", "7", "11", "4", "2", "3", "1", "2", "6", "8"], "time": [1271, 2350, 3428, 3463, 3577, 4444, 5196, 5243, 6016, 6213, 7048, 8170, 10977]}, "edge": {"target": [], "time": []}}}, "displayed_time": "10.38", "trialTime": 11345, "trial_type": "mouselab-mdp", "trial_index": 79, "time_elapsed": 1213829, "internal_node_id": "0.0-4.0-5.0-8.0"}}, {"uniqueid": "w48294494:a60383824", "current_trial": 80, "dateTime": 1664465129378, "trialdata": {"revealed_states": [], "num_clicks_accrued": [0, 0, 0, 0, 0, 0, 0, 0, 0, 0, 0, 0, 0], "stateRewards": ["", -4, -8, -24, 24, 4, 4, -48, -48, -4, -4, 24, -48], "withholdReward": true, "trial_id": "mdp_431592223624", "block": "test3", "trialIndex": 71, "score": 19, "costs": -2, "simulationMode": [null, null, null], "rewards": [-4, -4, 24], "path": ["0", "0", "9", "10", "11"], "rt": [10099, 50, 377], "actions": ["left", "left", "up"], "actionTimes": [11245, 11808, 12704], "queries": {"click": {"state": {"target": ["11", "4", "12", "3", "7", "8", "2", "10"], "time": [1833, 2679, 3476, 4362, 5692, 6590, 8389, 9234]}, "edge": {"target": [], "time": []}}, "mouseover": {"state": {"target": ["11", "4", "12", "3", "7", "8", "1", "2", "10"], "time": [1572, 2438, 3205, 4118, 5464, 6194, 7923, 7956, 8956]}, "edge": {"target": [], "time": []}}, "mouseout": {"state": {"target": ["0", "11", "4", "12", "3", "7", "8", "1", "2", "10"], "time": [822, 2344, 3089, 3839, 4763, 6157, 7177, 7939, 8688, 9774]}, "edge": {"target": [], "time": []}}}, "displayed_time": "13.23", "trialTime": 14027, "trial_type": "mouselab-mdp", "trial_index": 80, "time_elapsed": 1227999, "internal_node_id": "0.0-4.0-5.0-9.0"}}, {"uniqueid": "w48294494:a60383824", "current_trial": 81, "dateTime": 1664465140331, "trialdata": {"revealed_states": [], "num_clicks_accrued": [0, 0, 0, 0, 0, 0, 0, 0, 0, 0, 0, 0, 0], "stateRewards": ["", -2, 8, 24, -48, -2, -4, 24, 48, 2, 8, -48, -48], "withholdReward": true, "trial_id": "mdp_562228697607", "block": "test3", "trialIndex": 72, "score": 45.5, "costs": -1.5, "simulationMode": [null, null, null], "rewards": [-2, -4, 48], "path": ["0", "0", "5", "6", "8"], "rt": [6410, 576, 9], "actions": ["right", "right", "down"], "actionTimes": [7750, 8846, 9378], "queries": {"click": {"state": {"target": ["11", "3", "7", "8", "12", "4"], "time": [1961, 2814, 3562, 4377, 5918, 6712]}, "edge": {"target": [], "time": []}}, "mouseover": {"state": {"target": ["11", "2", "3", "7", "6", "8", "12", "4"], "time": [1728, 2400, 2502, 3318, 4018, 4162, 5587, 6351]}, "edge": {"target": [], "time": []}}, "mouseout": {"state": {"target": ["0", "11", "2", "3", "7", "6", "8", "12", "4"], "time": [1053, 2371, 2436, 3228, 3991, 4084, 4795, 6237, 7057]}, "edge": {"target": [], "time": []}}}, "displayed_time": "9.90", "trialTime": 10793, "trial_type": "mouselab-mdp", "trial_index": 81, "time_elapsed": 1238954, "internal_node_id": "0.0-4.0-5.0-10.0"}}, {"uniqueid": "w48294494:a60383824", "current_trial": 82, "dateTime": 1664465157444, "trialdata": {"revealed_states": [], "num_clicks_accrued": [0, 0, 0, 0, 0, 0, 0, 0, 0, 0, 0, 0, 0], "stateRewards": ["", -2, -8, -24, 24, -2, -8, -48, 24, -2, -8, 24, 24], "withholdReward": false, "trial_id": "mdp_336617436097", "block": "test3", "trialIndex": 73, "score": 16.5, "costs": -2.5, "simulationMode": [null, null, null], "rewards": [-2, -8, 24], "path": ["0", "0", "9", "10", "11"], "rt": [10840, 385, 130], "actions": ["left", "left", "up"], "actionTimes": [12733, 13645, 14293], "queries": {"click": {"state": {"target": ["11", "7", "3", "4", "12", "8", "10", "2", "1", "9"], "time": [2566, 3426, 4162, 4868, 5659, 7086, 8790, 9690, 10544, 11144]}, "edge": {"target": [], "time": []}}, "mouseover": {"state": {"target": ["11", "1", "7", "3", "4", "12", "8", "0", "1", "1", "9", "10", "2", "1", "9"], "time": [2292, 2999, 3125, 3885, 4590, 5342, 6838, 8007, 8089, 8342, 8391, 8533, 9426, 10341, 10923]}, "edge": {"target": [], "time": []}}, "mouseout": {"state": {"target": ["0", "11", "1", "7", "3", "4", "12", "8", "0", "1", "1", "9", "10", "2", "1", "9", "0", "5"], "time": [2253, 2978, 3026, 3853, 4555, 5190, 5990, 7522, 8023, 8173, 8357, 8440, 9112, 10240, 10840, 11464, 15624, 16579]}, "edge": {"target": [], "time": []}}}, "displayed_time": "14.81", "trialTime": 16962, "trial_type": "mouselab-mdp", "trial_index": 82, "time_elapsed": 1256068, "internal_node_id": "0.0-4.0-5.0-11.0"}}, {"uniqueid": "w48294494:a60383824", "current_trial": 83, "dateTime": 1664465167493, "trialdata": {"revealed_states": [], "num_clicks_accrued": [0, 0, 0, 0, 0, 0, 0, 0, 0, 0, 0, 0, 0], "stateRewards": ["", 4, -8, 48, 24, 4, -4, 48, 48, -4, 8, -48, 24], "withholdReward": true, "trial_id": "mdp_303828806348", "block": "test3", "trialIndex": 74, "score": 52.25, "costs": -0.75, "simulationMode": [null, null, null], "rewards": [4, -4, 48], "path": ["0", "0", "5", "6", "8"], "rt": [3329, 340, 354], "actions": ["right", "right", "down"], "actionTimes": [4495, 5359, 6224], "queries": {"click": {"state": {"target": ["11", "12", "8"], "time": [1852, 2561, 3414]}, "edge": {"target": [], "time": []}}, "mouseover": {"state": {"target": ["11", "10", "12", "8", "6"], "time": [1568, 2229, 2332, 3051, 3779]}, "edge": {"target": [], "time": []}}, "mouseout": {"state": {"target": ["0", "11", "10", "12", "8", "6", "6"], "time": [1473, 2211, 2252, 2970, 3765, 3851, 7334]}, "edge": {"target": [], "time": []}}}, "displayed_time": "9.35", "trialTime": 9922, "trial_type": "mouselab-mdp", "trial_index": 83, "time_elapsed": 1266117, "internal_node_id": "0.0-4.0-5.0-12.0"}}, {"uniqueid": "w48294494:a60383824", "current_trial": 84, "dateTime": 1664465181677, "trialdata": {"revealed_states": [], "num_clicks_accrued": [0, 0, 0, 0, 0, 0, 0, 0, 0, 0, 0, 0, 0], "stateRewards": ["", -2, -4, -48, -48, 4, 8, 24, -48, 4, -8, 24, 24], "withholdReward": true, "trial_id": "mdp_749799219195", "block": "test3", "trialIndex": 75, "score": 39, "costs": -2, "simulationMode": [null, null, null], "rewards": [4, 8, 24], "path": ["0", "0", "5", "6", "7"], "rt": [8324, 427, 1670], "actions": ["right", "right", "up"], "actionTimes": [9408, 10372, 12562], "queries": {"click": {"state": {"target": ["11", "7", "3", "8", "12", "4", "6", "10"], "time": [1770, 2527, 3235, 4033, 5433, 6441, 7664, 8499]}, "edge": {"target": [], "time": []}}, "mouseover": {"state": {"target": ["11", "7", "3", "6", "8", "12", "12", "4", "4", "5", "6", "0", "10"], "time": [1523, 2273, 3007, 3625, 3690, 4507, 5211, 5837, 6119, 7173, 7377, 8024, 8207]}, "edge": {"target": [], "time": []}}, "mouseout": {"state": {"target": ["0", "11", "7", "3", "6", "8", "12", "12", "4", "4", "5", "6", "0", "10"], "time": [1395, 2191, 2939, 3541, 3641,