{"condition": 1, "counterbalance": 0, "assignmentId": "a73126510", "workerId": "w40760942", "hitId": "h43668171", "currenttrial": 143, "bonus": 0, "data": [{"uniqueid": "w40760942:a73126510", "current_trial": 0, "dateTime": 1664555028862, "trialdata": {"success": true, "trial_type": "fullscreen", "trial_index": 0, "time_elapsed": 4819, "internal_node_id": "0.0-0.0"}}, {"uniqueid": "w40760942:a73126510", "current_trial": 1, "dateTime": 1664555031547, "trialdata": {"view_history": [{"page_index": 0, "viewing_time": 2677}], "rt": 2677, "trial_id": "exp_instructions_no_distractor", "trial_type": "instructions", "trial_index": 1, "time_elapsed": 7504, "internal_node_id": "0.0-1.0"}}, {"uniqueid": "w40760942:a73126510", "current_trial": 2, "dateTime": 1664555036711, "trialdata": {"success": true, "trial_type": "fullscreen", "trial_index": 2, "time_elapsed": 12669, "internal_node_id": "0.0-2.0-0.0"}}, {"uniqueid": "w40760942:a73126510", "current_trial": 3, "dateTime": 1664555098202, "trialdata": {"view_history": [{"page_index": 0, "viewing_time": 15580}, {"page_index": 1, "viewing_time": 25666}, {"page_index": 2, "viewing_time": 11692}, {"page_index": 3, "viewing_time": 6429}, {"page_index": 4, "viewing_time": 2122}], "rt": 61489, "trial_id": "mouselab_instructions_1", "trial_type": "instructions", "trial_index": 3, "time_elapsed": 74160, "internal_node_id": "0.0-2.0-1.0"}}, {"uniqueid": "w40760942:a73126510", "current_trial": 4, "dateTime": 1664555114282, "trialdata": {"revealed_states": [], "num_clicks_accrued": [0, 0, 0, 0, 0, 0, 0, 0, 0, 0, 0, 0, 0], "stateRewards": ["", -10, -10, -10, -10, 10, -10, 10, -10, -10, 10, -10, -10], "withholdReward": false, "trial_id": "practice_1", "block": "test", "trialIndex": 0, "score": 11.5, "costs": -0.5, "simulationMode": [null, null, null], "rewards": [10, -10, 10], "path": ["0", "0", "5", "6", "7"], "rt": [7088, 251, 253], "actions": ["right", "right", "up"], "actionTimes": [10492, 11243, 11996], "queries": {"click": {"state": {"target": ["5", "8"], "time": [6209, 7810]}, "edge": {"target": [], "time": []}}, "mouseover": {"state": {"target": ["0", "5", "6", "8", "6"], "time": [5410, 5526, 7047, 7318, 8498]}, "edge": {"target": [], "time": []}}, "mouseout": {"state": {"target": ["2", "1", "0", "0", "0", "5", "5", "6", "8"], "time": [2450, 2471, 2499, 2825, 5422, 6589, 7026, 7178, 8450]}, "edge": {"target": [], "time": []}}}, "displayed_time": "12.49", "trialTime": 15859, "trial_type": "mouselab-mdp", "trial_index": 4, "time_elapsed": 90240, "internal_node_id": "0.0-2.0-2.0-0.0"}}, {"uniqueid": "w40760942:a73126510", "current_trial": 5, "dateTime": 1664555131478, "trialdata": {"revealed_states": [], "num_clicks_accrued": [0, 0, 0, 0, 0, 0, 0, 0, 0, 0, 0, 0, 0], "stateRewards": ["", 10, -10, 10, 10, 10, 10, 10, 10, 10, -10, -10, 10], "withholdReward": false, "trial_id": "practice_2", "block": "test", "trialIndex": 1, "score": -9.25, "costs": -1.25, "simulationMode": [null, null, null], "rewards": [10, -10, -10], "path": ["0", "0", "9", "10", "11"], "rt": [7996, 1809, 199], "actions": ["left", "left", "up"], "actionTimes": [10201, 12512, 13212], "queries": {"click": {"state": {"target": ["9", "5", "1", "3", "4"], "time": [3452, 4176, 4980, 6732, 7690]}, "edge": {"target": [], "time": []}}, "mouseover": {"state": {"target": ["9", "0", "5", "1", "2", "2", "3", "2", "4", "2"], "time": [2985, 3714, 3901, 4561, 5554, 5958, 6235, 7207, 7651, 8528]}, "edge": {"target": [], "time": []}}, "mouseout": {"state": {"target": ["6", "5", "0", "0", "9", "0", "5", "1", "2", "2", "3", "2", "4", "2", "1", "0"], "time": [1762, 1804, 1846, 2875, 3679, 3756, 4450, 5520, 5680, 6200, 7186, 7284, 7899, 15701, 15727, 15755]}, "edge": {"target": [], "time": []}}}, "displayed_time": "13.71", "trialTime": 17125, "trial_type": "mouselab-mdp", "trial_index": 5, "time_elapsed": 107436, "internal_node_id": "0.0-2.0-2.0-1.0"}}, {"uniqueid": "w40760942:a73126510", "current_trial": 6, "dateTime": 1664555154162, "trialdata": {"view_history": [{"page_index": 0, "viewing_time": 6747}, {"page_index": 1, "viewing_time": 11510}, {"page_index": 2, "viewing_time": 4422}], "rt": 22679, "trial_id": "mouselab_instructions_2_scarce", "trial_type": "instructions", "trial_index": 6, "time_elapsed": 130120, "internal_node_id": "0.0-2.0-3.0"}}, {"uniqueid": "w40760942:a73126510", "current_trial": 7, "dateTime": 1664555184575, "trialdata": {"rt": 30408, "response": {"Q0": "$-48 to $48", "Q1": "The cost is always $0.25.", "Q2": "The better I perform the higher my bonus will be.", "Q3": "No, the structure of the web will be different each time.", "Q4": "The values of the nodes walked through from start to finish.", "Q5": "Yes."}, "question_order": [0, 1, 2, 3, 4, 5], "correct": {"Q0": "$-48 to $48", "Q1": "The cost is always $0.25.", "Q2": "The better I perform the higher my bonus will be.", "Q3": "No, the amount of cash at each node of the web may be different each time.", "Q4": "The values of the nodes walked through from start to finish.", "Q5": "No, the spider might forget to count the money on some rounds."}, "trial_id": "mouselab_quiz_scarce", "trial_type": "survey-multi-choice", "trial_index": 7, "time_elapsed": 160533, "internal_node_id": "0.0-2.0-4.0"}}, {"uniqueid": "w40760942:a73126510", "current_trial": 8, "dateTime": 1664555191641, "trialdata": {"success": true, "trial_type": "fullscreen", "trial_index": 8, "time_elapsed": 167599, "internal_node_id": "0.0-2.1-0.1"}}, {"uniqueid": "w40760942:a73126510", "current_trial": 9, "dateTime": 1664555271446, "trialdata": {"view_history": [{"page_index": 0, "viewing_time": 19711}, {"page_index": 1, "viewing_time": 1042}, {"page_index": 0, "viewing_time": 628}, {"page_index": 1, "viewing_time": 46233}, {"page_index": 2, "viewing_time": 7632}, {"page_index": 3, "viewing_time": 2857}, {"page_index": 4, "viewing_time": 1700}], "rt": 79803, "trial_id": "mouselab_instructions_1", "trial_type": "instructions", "trial_index": 9, "time_elapsed": 247404, "internal_node_id": "0.0-2.1-1.1"}}, {"uniqueid": "w40760942:a73126510", "current_trial": 10, "dateTime": 1664555278508, "trialdata": {"revealed_states": [], "num_clicks_accrued": [0, 0, 0, 0, 0, 0, 0, 0, 0, 0, 0, 0, 0], "stateRewards": ["", -10, -10, -10, -10, 10, -10, 10, -10, -10, 10, -10, -10], "withholdReward": false, "trial_id": "practice_1", "block": "test", "trialIndex": 2, "score": -8, "costs": 0, "simulationMode": [null, null, null], "rewards": [10, -10, -10], "path": ["0", "0", "5", "6", "8"], "rt": [1760, 342, 10], "actions": ["right", "right", "down"], "actionTimes": [3624, 4468, 4976], "queries": {"click": {"state": {"target": [], "time": []}, "edge": {"target": [], "time": []}}, "mouseover": {"state": {"target": ["5", "5"], "time": [2243, 2577]}, "edge": {"target": [], "time": []}}, "mouseout": {"state": {"target": ["2", "1", "0", "5", "5"], "time": [1416, 1465, 2208, 2313, 2640]}, "edge": {"target": [], "time": []}}}, "displayed_time": "5.49", "trialTime": 6984, "trial_type": "mouselab-mdp", "trial_index": 10, "time_elapsed": 254465, "internal_node_id": "0.0-2.1-2.1-0.1"}}, {"uniqueid": "w40760942:a73126510", "current_trial": 11, "dateTime": 1664555288609, "trialdata": {"revealed_states": [], "num_clicks_accrued": [0, 0, 0, 0, 0, 0, 0, 0, 0, 0, 0, 0, 0], "stateRewards": ["", 10, -10, 10, 10, 10, 10, 10, 10, 10, -10, -10, 10], "withholdReward": false, "trial_id": "practice_2", "block": "test", "trialIndex": 3, "score": 31, "costs": -1, "simulationMode": [null, null, null], "rewards": [10, 10, 10], "path": ["0", "0", "5", "6", "8"], "rt": [5683, 19, 586], "actions": ["right", "right", "down"], "actionTimes": [6641, 7160, 8260], "queries": {"click": {"state": {"target": ["9", "1", "5", "6"], "time": [2791, 4082, 4611, 5581]}, "edge": {"target": [], "time": []}}, "mouseover": {"state": {"target": ["9", "10", "9", "1", "1", "5", "6"], "time": [1367, 1856, 2500, 3225, 3868, 4479, 5159]}, "edge": {"target": [], "time": []}}, "mouseout": {"state": {"target": ["5", "9", "10", "9", "1", "1", "5"], "time": [763, 1534, 2458, 3007, 3485, 4354, 5083]}, "edge": {"target": [], "time": []}}}, "displayed_time": "8.76", "trialTime": 10029, "trial_type": "mouselab-mdp", "trial_index": 11, "time_elapsed": 264566, "internal_node_id": "0.0-2.1-2.1-1.1"}}, {"uniqueid": "w40760942:a73126510", "current_trial": 12, "dateTime": 1664555336212, "trialdata": {"view_history": [{"page_index": 0, "viewing_time": 44093}, {"page_index": 1, "viewing_time": 2486}, {"page_index": 2, "viewing_time": 1021}], "rt": 47600, "trial_id": "mouselab_instructions_2_scarce", "trial_type": "instructions", "trial_index": 12, "time_elapsed": 312170, "internal_node_id": "0.0-2.1-3.1"}}, {"uniqueid": "w40760942:a73126510", "current_trial": 13, "dateTime": 1664555373279, "trialdata": {"rt": 37064, "response": {"Q0": "$-48 to $48", "Q1": "The cost is always $0.25.", "Q2": "The better I perform the higher my bonus will be.", "Q3": "No, the amount of cash at each node of the web may be different each time.", "Q4": "The values of the nodes walked through from start to finish.", "Q5": "No, the spider might forget to count the money on some rounds."}, "question_order": [0, 1, 2, 3, 4, 5], "correct": {"Q0": "$-48 to $48", "Q1": "The cost is always $0.25.", "Q2": "The better I perform the higher my bonus will be.", "Q3": "No, the amount of cash at each node of the web may be different each time.", "Q4": "The values of the nodes walked through from start to finish.", "Q5": "No, the spider might forget to count the money on some rounds."}, "trial_id": "mouselab_quiz_scarce", "trial_type": "survey-multi-choice", "trial_index": 13, "time_elapsed": 349237, "internal_node_id": "0.0-2.1-4.1"}}, {"uniqueid": "w40760942:a73126510", "current_trial": 14, "dateTime": 1664555377819, "trialdata": {"rt": 4530, "stimulus": "\n<h1> Get ready to start the game! </h1>\n\nThank you for reading the instructions. Get ready start with the first of 4 block(s) of this game.\n<br><br>\nIn this first block, you will complete 30 rounds of this game before moving on.\n<br><br>\nRemember, the more money the spider gets, the bigger your bonus will be!\n<br><br>\n<div style='text-align: center;'>Press <code>space</code> to begin.</div>\n\n<br><br>\n(If, at any point, the <code>space</code> key does not take you to the next page, click once on the text and try again.)", "response": " ", "trial_id": "mdp_ready_1", "trial_type": "html-keyboard-response", "trial_index": 14, "time_elapsed": 353777, "internal_node_id": "0.0-4.0-0.0"}}, {"uniqueid": "w40760942:a73126510", "current_trial": 15, "dateTime": 1664555391388, "trialdata": {"revealed_states": [], "num_clicks_accrued": [0, 0, 0, 0, 0, 0, 0, 0, 0, 0, 0, 0, 0], "stateRewards": ["", 2, -8, -24, -48, -2, -4, 48, 48, 4, 8, 48, 48], "withholdReward": true, "trial_id": "mdp_347285045422", "block": "test1", "trialIndex": 4, "score": 63.75, "costs": -1.25, "simulationMode": [null, null, null], "rewards": [4, 8, 48], "path": ["0", "0", "9", "10", "12"], "rt": [9818, 39, 136], "actions": ["left", "left", "down"], "actionTimes": [10788, 11323, 11962], "queries": {"click": {"state": {"target": ["5", "1", "2", "9", "12"], "time": [2186, 3448, 5891, 7015, 9422]}, "edge": {"target": [], "time": []}}, "mouseover": {"state": {"target": ["5", "5", "1", "9", "9", "2", "9", "10", "12", "12"], "time": [1458, 1944, 2756, 3791, 4687, 5617, 6638, 7562, 9062, 9278]}, "edge": {"target": [], "time": []}}, "mouseout": {"state": {"target": ["0", "5", "5", "1", "9", "9", "2", "9", "10", "12"], "time": [1305, 1721, 2513, 3687, 4291, 5291, 6472, 7423, 9020, 9097]}, "edge": {"target": [], "time": []}}}, "displayed_time": "12.46", "trialTime": 13503, "trial_type": "mouselab-mdp", "trial_index": 15, "time_elapsed": 367346, "internal_node_id": "0.0-4.0-1.0-0.0"}}, {"uniqueid": "w40760942:a73126510", "current_trial": 16, "dateTime": 1664555404797, "trialdata": {"revealed_states": [], "num_clicks_accrued": [0, 0, 0, 0, 0, 0, 0, 0, 0, 0, 0, 0, 0], "stateRewards": ["", -4, -4, -48, -24, 2, 8, 24, -48, 4, 4, 48, 48], "withholdReward": true, "trial_id": "mdp_693501840209", "block": "test1", "trialIndex": 5, "score": 60, "costs": -1, "simulationMode": [null, null, null], "rewards": [4, 4, 48], "path": ["0", "0", "9", "10", "11"], "rt": [5592, 315, 38], "actions": ["left", "left", "up"], "actionTimes": [7472, 8288, 8824], "queries": {"click": {"state": {"target": ["9", "1", "10", "11"], "time": [2915, 4223, 5462, 6477]}, "edge": {"target": [], "time": []}}, "mouseover": {"state": {"target": ["0", "9", "10", "1", "10", "11"], "time": [2495, 2744, 3500, 3945, 4764, 6368]}, "edge": {"target": [], "time": []}}, "mouseout": {"state": {"target": ["12", "0", "0", "9", "9", "10", "1", "9", "10"], "time": [1354, 1660, 2528, 3216, 3431, 3681, 4600, 4667, 6306]}, "edge": {"target": [], "time": []}}}, "displayed_time": "10.88", "trialTime": 13336, "trial_type": "mouselab-mdp", "trial_index": 16, "time_elapsed": 380755, "internal_node_id": "0.0-4.0-1.0-1.0"}}, {"uniqueid": "w40760942:a73126510", "current_trial": 17, "dateTime": 1664555416889, "trialdata": {"revealed_states": [], "num_clicks_accrued": [0, 0, 0, 0, 0, 0, 0, 0, 0, 0, 0, 0, 0], "stateRewards": ["", 2, 4, -48, -48, 2, 4, 48, -24, -2, 8, 48, -48], "withholdReward": true, "trial_id": "mdp_258528916140", "block": "test1", "trialIndex": 6, "score": -14, "costs": -1, "simulationMode": [null, null, null], "rewards": [2, 4, -24], "path": ["0", "0", "5", "6", "8"], "rt": [3878, 22, 1], "actions": ["right", "right", "down"], "actionTimes": [5571, 6090, 6603], "queries": {"click": {"state": {"target": ["9", "5", "6", "7"], "time": [2438, 3042, 4070, 4633]}, "edge": {"target": [], "time": []}}, "mouseover": {"state": {"target": ["9", "0", "5", "1", "6", "7"], "time": [2276, 2817, 2935, 3456, 3885, 4449]}, "edge": {"target": [], "time": []}}, "mouseout": {"state": {"target": ["11", "9", "0", "5", "1", "6"], "time": [1269, 2782, 2859, 3408, 3741, 4387]}, "edge": {"target": [], "time": []}}}, "displayed_time": "10.69", "trialTime": 12017, "trial_type": "mouselab-mdp", "trial_index": 17, "time_elapsed": 392847, "internal_node_id": "0.0-4.0-1.0-2.0"}}, {"uniqueid": "w40760942:a73126510", "current_trial": 18, "dateTime": 1664555428387, "trialdata": {"revealed_states": [], "num_clicks_accrued": [0, 0, 0, 0, 0, 0, 0, 0, 0, 0, 0, 0, 0], "stateRewards": ["", 2, -8, -24, 48, -4, -8, 24, -48, 4, -8, -24, -24], "withholdReward": true, "trial_id": "mdp_928911266656", "block": "test1", "trialIndex": 7, "score": 46, "costs": -1, "simulationMode": [null, null, null], "rewards": [2, -8, 48], "path": ["0", "0", "1", "2", "4"], "rt": [3891, 78, 1104], "actions": ["up", "up", "left"], "actionTimes": [5938, 6514, 8116], "queries": {"click": {"state": {"target": ["5", "9", "1", "10"], "time": [2460, 3144, 3562, 4577]}, "edge": {"target": [], "time": []}}, "mouseover": {"state": {"target": ["0", "5", "0", "9", "1", "10"], "time": [2254, 2303, 2782, 3032, 3448, 4136]}, "edge": {"target": [], "time": []}}, "mouseout": {"state": {"target": ["7", "0", "5", "0", "9", "1", "10", "1"], "time": [865, 2275, 2747, 2894, 3351, 3803, 5143, 5289]}, "edge": {"target": [], "time": []}}}, "displayed_time": "10.05", "trialTime": 11430, "trial_type": "mouselab-mdp", "trial_index": 18, "time_elapsed": 404345, "internal_node_id": "0.0-4.0-1.0-3.0"}}, {"uniqueid": "w40760942:a73126510", "current_trial": 19, "dateTime": 1664555439880, "trialdata": {"revealed_states": [], "num_clicks_accrued": [0, 0, 0, 0, 0, 0, 0, 0, 0, 0, 0, 0, 0], "stateRewards": ["", -4, 8, -24, -24, 4, -8, 48, -24, -4, -8, -24, -48], "withholdReward": true, "trial_id": "mdp_391766721791", "block": "test1", "trialIndex": 8, "score": 47.5, "costs": -1.5, "simulationMode": [null, null, null], "rewards": [4, -8, 48], "path": ["0", "0", "5", "6", "7"], "rt": [6799, 395, 47], "actions": ["right", "right", "up"], "actionTimes": [8240, 9135, 9683], "queries": {"click": {"state": {"target": ["1", "9", "5", "6", "7", "8"], "time": [4127, 4869, 5388, 5737, 6105, 7090]}, "edge": {"target": [], "time": []}}, "mouseover": {"state": {"target": ["1", "9", "0", "5", "6", "7", "8"], "time": [1996, 4739, 5211, 5267, 5635, 5940, 6927]}, "edge": {"target": [], "time": []}}, "mouseout": {"state": {"target": ["1", "0", "1", "9", "0", "5", "6", "7", "6"], "time": [1156, 1893, 4566, 5190, 5246, 5600, 5899, 6315, 6503]}, "edge": {"target": [], "time": []}}}, "displayed_time": "10.44", "trialTime": 11423, "trial_type": "mouselab-mdp", "trial_index": 19, "time_elapsed": 415838, "internal_node_id": "0.0-4.0-1.0-4.0"}}, {"uniqueid": "w40760942:a73126510", "current_trial": 20, "dateTime": 1664555451379, "trialdata": {"revealed_states": [], "num_clicks_accrued": [0, 0, 0, 0, 0, 0, 0, 0, 0, 0, 0, 0, 0], "stateRewards": ["", -4, 4, -24, 24, -2, -4, 48, 24, 2, 8, -48, 24], "withholdReward": true, "trial_id": "mdp_150340189492", "block": "test1", "trialIndex": 9, "score": 38.25, "costs": -0.75, "simulationMode": [null, null, null], "rewards": [2, 8, 24], "path": ["0", "0", "9", "10", "12"], "rt": [3918, 448, 16], "actions": ["left", "left", "down"], "actionTimes": [5460, 6407, 6920], "queries": {"click": {"state": {"target": ["9", "10", "11"], "time": [2216, 3112, 4360]}, "edge": {"target": [], "time": []}}, "mouseover": {"state": {"target": ["9", "10", "10", "11"], "time": [2104, 2715, 2890, 4271]}, "edge": {"target": [], "time": []}}, "mouseout": {"state": {"target": ["8", "5", "0", "9", "10", "10"], "time": [930, 1160, 2055, 2701, 2757, 4035]}, "edge": {"target": [], "time": []}}}, "displayed_time": "10.54", "trialTime": 11432, "trial_type": "mouselab-mdp", "trial_index": 20, "time_elapsed": 427337, "internal_node_id": "0.0-4.0-1.0-5.0"}}, {"uniqueid": "w40760942:a73126510", "current_trial": 21, "dateTime": 1664555463493, "trialdata": {"revealed_states": [], "num_clicks_accrued": [0, 0, 0, 0, 0, 0, 0, 0, 0, 0, 0, 0, 0], "stateRewards": ["", -2, 4, 24, 48, 2, 4, -48, -48, 2, 8, 48, -48], "withholdReward": false, "trial_id": "mdp_409609775558", "block": "test1", "trialIndex": 10, "score": 62.25, "costs": -0.75, "simulationMode": [null, null, null], "rewards": [2, 8, 48], "path": ["0", "0", "9", "10", "11"], "rt": [2903, 422, 1], "actions": ["left", "left", "up"], "actionTimes": [4413, 5337, 5839], "queries": {"click": {"state": {"target": ["9", "10", "11"], "time": [2299, 3047, 3484]}, "edge": {"target": [], "time": []}}, "mouseover": {"state": {"target": ["9", "10", "11"], "time": [1983, 2947, 3393]}, "edge": {"target": [], "time": []}}, "mouseout": {"state": {"target": ["11", "9", "10"], "time": [782, 2831, 3352]}, "edge": {"target": [], "time": []}}}, "displayed_time": "10.51", "trialTime": 12043, "trial_type": "mouselab-mdp", "trial_index": 21, "time_elapsed": 439451, "internal_node_id": "0.0-4.0-1.0-6.0"}}, {"uniqueid": "w40760942:a73126510", "current_trial": 22, "dateTime": 1664555474376, "trialdata": {"revealed_states": [], "num_clicks_accrued": [0, 0, 0, 0, 0, 0, 0, 0, 0, 0, 0, 0, 0], "stateRewards": ["", -4, 8, 24, 24, 2, 4, -48, 24, -2, -4, -24, -24], "withholdReward": true, "trial_id": "mdp_752328329546", "block": "test1", "trialIndex": 11, "score": 34, "costs": -1, "simulationMode": [null, null, null], "rewards": [2, 4, 24], "path": ["0", "0", "5", "6", "8"], "rt": [3518, 4, 430], "actions": ["right", "right", "down"], "actionTimes": [4377, 4878, 5820], "queries": {"click": {"state": {"target": ["9", "5", "6", "7"], "time": [1438, 2100, 2774, 3227]}, "edge": {"target": [], "time": []}}, "mouseover": {"state": {"target": ["9", "0", "5", "6", "7"], "time": [1290, 1825, 2020, 2582, 3144]}, "edge": {"target": [], "time": []}}, "mouseout": {"state": {"target": ["11", "9", "0", "9", "0", "5", "6"], "time": [435, 547, 1262, 1811, 1832, 2561, 3103]}, "edge": {"target": [], "time": []}}}, "displayed_time": "9.86", "trialTime": 10817, "trial_type": "mouselab-mdp", "trial_index": 22, "time_elapsed": 450334, "internal_node_id": "0.0-4.0-1.0-7.0"}}, {"uniqueid": "w40760942:a73126510", "current_trial": 23, "dateTime": 1664555484425, "trialdata": {"revealed_states": [], "num_clicks_accrued": [0, 0, 0, 0, 0, 0, 0, 0, 0, 0, 0, 0, 0], "stateRewards": ["", -4, 8, 24, 24, -2, 8, -48, 48, 4, -8, 48, -48], "withholdReward": false, "trial_id": "mdp_295249220524", "block": "test1", "trialIndex": 12, "score": 47.75, "costs": -1.25, "simulationMode": [null, null, null], "rewards": [4, -8, 48], "path": ["0", "0", "9", "10", "11"], "rt": [5040, 39, 34], "actions": ["left", "left", "up"], "actionTimes": [6351, 6886, 7416], "queries": {"click": {"state": {"target": ["9", "10", "5", "1", "11"], "time": [2422, 3285, 4217, 4696, 5405]}, "edge": {"target": [], "time": []}}, "mouseover": {"state": {"target": ["0", "9", "9", "10", "5", "5", "1", "11"], "time": [1805, 1867, 2331, 3006, 3888, 4076, 4605, 5270]}, "edge": {"target": [], "time": []}}, "mouseout": {"state": {"target": ["7", "0", "9", "9", "9", "10", "5", "5", "1"], "time": [665, 1832, 1916, 2714, 2957, 3604, 3971, 4541, 5110]}, "edge": {"target": [], "time": []}}}, "displayed_time": "9.31", "trialTime": 9978, "trial_type": "mouselab-mdp", "trial_index": 23, "time_elapsed": 460383, "internal_node_id": "0.0-4.0-1.0-8.0"}}, {"uniqueid": "w40760942:a73126510", "current_trial": 24, "dateTime": 1664555495393, "trialdata": {"revealed_states": [], "num_clicks_accrued": [0, 0, 0, 0, 0, 0, 0, 0, 0, 0, 0, 0, 0], "stateRewards": ["", -4, 8, 24, -24, 4, 8, -24, -48, 2, 4, 24, -24], "withholdReward": false, "trial_id": "mdp_782187007008", "block": "test1", "trialIndex": 13, "score": 34.25, "costs": -0.75, "simulationMode": [null, null, null], "rewards": [2, 4, 24], "path": ["0", "0", "9", "10", "11"], "rt": [2763, 75, 1], "actions": ["left", "left", "up"], "actionTimes": [4106, 4682, 5185], "queries": {"click": {"state": {"target": ["9", "10", "11"], "time": [1972, 2472, 2979]}, "edge": {"target": [], "time": []}}, "mouseover": {"state": {"target": ["9", "10", "11"], "time": [1772, 2384, 2856]}, "edge": {"target": [], "time": []}}, "mouseout": {"state": {"target": ["11", "9", "10"], "time": [807, 2342, 2814]}, "edge": {"target": [], "time": []}}}, "displayed_time": "10.34", "trialTime": 10893, "trial_type": "mouselab-mdp", "trial_index": 24, "time_elapsed": 471351, "internal_node_id": "0.0-4.0-1.0-9.0"}}, {"uniqueid": "w40760942:a73126510", "current_trial": 25, "dateTime": 1664555505328, "trialdata": {"revealed_states": [], "num_clicks_accrued": [0, 0, 0, 0, 0, 0, 0, 0, 0, 0, 0, 0, 0], "stateRewards": ["", 2, 4, -48, 24, -4, -4, -24, 24, 2, -4, 24, -24], "withholdReward": true, "trial_id": "mdp_163600331068", "block": "test1", "trialIndex": 14, "score": 26.25, "costs": -0.75, "simulationMode": [null, null, null], "rewards": [2, -4, 24], "path": ["0", "0", "9", "10", "11"], "rt": [3200, 404, 100], "actions": ["left", "left", "up"], "actionTimes": [4388, 5294, 5893], "queries": {"click": {"state": {"target": ["9", "10", "11"], "time": [1675, 2220, 2860]}, "edge": {"target": [], "time": []}}, "mouseover": {"state": {"target": ["0", "9", "10", "11"], "time": [1193, 1570, 2111, 2805]}, "edge": {"target": [], "time": []}}, "mouseout": {"state": {"target": ["11", "9", "0", "9", "10", "11"], "time": [729, 965, 1431, 2069, 2708, 3486]}, "edge": {"target": [], "time": []}}}, "displayed_time": "9.19", "trialTime": 9868, "trial_type": "mouselab-mdp", "trial_index": 25, "time_elapsed": 481286, "internal_node_id": "0.0-4.0-1.0-10.0"}}, {"uniqueid": "w40760942:a73126510", "current_trial": 26, "dateTime": 1664555515252, "trialdata": {"revealed_states": [], "num_clicks_accrued": [0, 0, 0, 0, 0, 0, 0, 0, 0, 0, 0, 0, 0], "stateRewards": ["", 2, 4, 48, 48, 4, -8, 24, -48, -4, -8, -24, -48], "withholdReward": true, "trial_id": "mdp_343818007251", "block": "test1", "trialIndex": 15, "score": 57.25, "costs": -1.75, "simulationMode": [null, null, null], "rewards": [2, 4, 48], "path": ["0", "0", "1", "2", "3"], "rt": [6104, 426, 73], "actions": ["up", "up", "right"], "actionTimes": [7068, 7991, 8562], "queries": {"click": {"state": {"target": ["9", "5", "6", "7", "1", "2", "3"], "time": [1609, 2265, 2871, 3469, 4952, 5508, 6216]}, "edge": {"target": [], "time": []}}, "mouseover": {"state": {"target": ["9", "0", "5", "6", "7", "1", "2", "3"], "time": [1488, 2051, 2121, 2766, 3398, 4857, 5433, 6147]}, "edge": {"target": [], "time": []}}, "mouseout": {"state": {"target": ["0", "9", "9", "0", "5", "5", "6", "7", "6", "6", "5", "1", "2"], "time": [780, 1801, 2030, 2086, 2585, 2724, 3169, 3690, 4093, 4280, 4759, 5190, 5794]}, "edge": {"target": [], "time": []}}}, "displayed_time": "9.06", "trialTime": 9856, "trial_type": "mouselab-mdp", "trial_index": 26, "time_elapsed": 491210, "internal_node_id": "0.0-4.0-1.0-11.0"}}, {"uniqueid": "w40760942:a73126510", "current_trial": 27, "dateTime": 1664555529854, "trialdata": {"revealed_states": [], "num_clicks_accrued": [0, 0, 0, 0, 0, 0, 0, 0, 0, 0, 0, 0, 0], "stateRewards": ["", 2, -8, 48, -24, 2, 8, 24, -24, 4, -4, -48, -48], "withholdReward": true, "trial_id": "mdp_130946197263", "block": "test1", "trialIndex": 16, "score": 37, "costs": -2, "simulationMode": [null, null, null], "rewards": [2, 8, 24], "path": ["0", "0", "5", "6", "7"], "rt": [10521, 409, 391], "actions": ["right", "right", "up"], "actionTimes": [11528, 12434, 13324], "queries": {"click": {"state": {"target": ["9", "10", "6", "2", "7", "12", "11", "8"], "time": [1560, 2166, 3056, 3873, 5377, 8124, 8556, 9372]}, "edge": {"target": [], "time": []}}, "mouseover": {"state": {"target": ["9", "10", "0", "5", "6", "6", "5", "1", "2", "7", "5", "12", "11", "5", "8", "5"], "time": [1392, 2100, 2558, 2593, 2697, 2919, 3482, 3662, 3732, 5260, 7690, 8023, 8482, 8989, 9259, 9896]}, "edge": {"target": [], "time": []}}, "mouseout": {"state": {"target": ["3", "9", "10", "9", "0", "5", "6", "6", "5", "1", "2", "7", "5", "12", "10", "11", "5", "6", "8"], "time": [679, 1982, 2503, 2544, 2572, 2620, 2783, 3419, 3509, 3683, 4253, 7656, 7697, 8419, 8461, 8912, 8996, 9016, 9745]}, "edge": {"target": [], "time": []}}}, "displayed_time": "13.82", "trialTime": 14528, "trial_type": "mouselab-mdp", "trial_index": 27, "time_elapsed": 505811, "internal_node_id": "0.0-4.0-1.0-12.0"}}, {"uniqueid": "w40760942:a73126510", "current_trial": 28, "dateTime": 1664555539487, "trialdata": {"revealed_states": [], "num_clicks_accrued": [0, 0, 0, 0, 0, 0, 0, 0, 0, 0, 0, 0, 0], "stateRewards": ["", 2, 8, 48, -48, -2, -4, -24, 24, 4, -4, 48, -48], "withholdReward": true, "trial_id": "mdp_105734044587", "block": "test1", "trialIndex": 17, "score": 52.25, "costs": -0.75, "simulationMode": [null, null, null], "rewards": [4, -4, 48], "path": ["0", "0", "9", "10", "11"], "rt": [2425, 39, 29], "actions": ["left", "left", "up"], "actionTimes": [3446, 3982, 4507], "queries": {"click": {"state": {"target": ["9", "10", "11"], "time": [1631, 2287, 2667]}, "edge": {"target": [], "time": []}}, "mouseover": {"state": {"target": ["9", "10", "11"], "time": [1491, 2018, 2602]}, "edge": {"target": [], "time": []}}, "mouseout": {"state": {"target": ["5", "0", "9", "10"], "time": [838, 1414, 1991, 2546]}, "edge": {"target": [], "time": []}}}, "displayed_time": "9.02", "trialTime": 9566, "trial_type": "mouselab-mdp", "trial_index": 28, "time_elapsed": 515445, "internal_node_id": "0.0-4.0-1.0-13.0"}}, {"uniqueid": "w40760942:a73126510", "current_trial": 29, "dateTime": 1664555549216, "trialdata": {"revealed_states": [], "num_clicks_accrued": [0, 0, 0, 0, 0, 0, 0, 0, 0, 0, 0, 0, 0], "stateRewards": ["", -2, -4, -24, 48, -4, 8, 48, 48, 2, 8, -48, -24], "withholdReward": false, "trial_id": "mdp_136376573354", "block": "test1", "trialIndex": 18, "score": 55.25, "costs": -1.75, "simulationMode": [null, null, null], "rewards": [-4, 8, 48], "path": ["0", "0", "5", "6", "7"], "rt": [5164, 54, 1], "actions": ["right", "right", "up"], "actionTimes": [6305, 6858, 7367], "queries": {"click": {"state": {"target": ["9", "10", "11", "12", "5", "6", "7"], "time": [1685, 2007, 2332, 3326, 4715, 5146, 5443]}, "edge": {"target": [], "time": []}}, "mouseover": {"state": {"target": ["9", "10", "11", "12", "0", "5", "6", "7", "8"], "time": [1574, 1907, 2269, 3178, 4289, 4532, 4970, 5372, 5741]}, "edge": {"target": [], "time": []}}, "mouseout": {"state": {"target": ["11", "11", "9", "9", "10", "11", "9", "12", "0", "5", "6", "7", "6"], "time": [657, 789, 949, 1865, 2234, 2900, 3109, 3900, 4407, 4907, 5332, 5616, 5685]}, "edge": {"target": [], "time": []}}}, "displayed_time": "9.14", "trialTime": 9664, "trial_type": "mouselab-mdp", "trial_index": 29, "time_elapsed": 525174, "internal_node_id": "0.0-4.0-1.0-14.0"}}, {"uniqueid": "w40760942:a73126510", "current_trial": 30, "dateTime": 1664555565592, "trialdata": {"revealed_states": [], "num_clicks_accrued": [0, 0, 0, 0, 0, 0, 0, 0, 0, 0, 0, 0, 0], "stateRewards": ["", -4, -8, -24, -48, -2, -8, 24, -48, -4, -8, 24, -48], "withholdReward": true, "trial_id": "mdp_621812384092", "block": "test1", "trialIndex": 19, "score": 16, "costs": -3, "simulationMode": [null, null, null], "rewards": [-2, -8, 24], "path": ["0", "0", "5", "6", "7"], "rt": [12189, 37, 511], "actions": ["right", "right", "up"], "actionTimes": [13425, 13961, 14976], "queries": {"click": {"state": {"target": ["10", "6", "2", "11", "7", "8", "3", "4", "12", "9", "5", "1"], "time": [2319, 2981, 3544, 4818, 5374, 6694, 7522, 8396, 8967, 9412, 9757, 10044]}, "edge": {"target": [], "time": []}}, "mouseover": {"state": {"target": ["10", "9", "5", "6", "2", "11", "1", "7", "8", "8", "5", "3", "4", "4", "12", "9", "0", "5", "1", "0"], "time": [2069, 2527, 2583, 2729, 3423, 4652, 5069, 5264, 5963, 6555, 6993, 7444, 8056, 8319, 8777, 9340, 9604, 9652, 9979, 10604]}, "edge": {"target": [], "time": []}}, "mouseout": {"state": {"target": ["8", "0", "10", "9", "5", "6", "2", "11", "1", "7", "6", "8", "6", "8", "5", "2", "3", "2", "4", "4", "12", "9", "0", "5", "1", "0"], "time": [277, 1597, 2514, 2541, 2625, 3222, 4034, 5015, 5090, 5625, 5770, 6298, 6493, 6958, 7013, 7382, 7681, 7777, 8090, 8625, 9166, 9590, 9625, 9910, 10556, 10632]}, "edge": {"target": [], "time": []}}}, "displayed_time": "15.47", "trialTime": 16306, "trial_type": "mouselab-mdp", "trial_index": 30, "time_elapsed": 541550, "internal_node_id": "0.0-4.0-1.0-15.0"}}, {"uniqueid": "w40760942:a73126510", "current_trial": 31, "dateTime": 1664555575682, "trialdata": {"revealed_states": [], "num_clicks_accrued": [0, 0, 0, 0, 0, 0, 0, 0, 0, 0, 0, 0, 0], "stateRewards": ["", 4, -4, 48, -48, 4, -4, 24, -24, 4, 8, -24, -48], "withholdReward": true, "trial_id": "mdp_433630527224", "block": "test1", "trialIndex": 20, "score": 27.25, "costs": -1.75, "simulationMode": [null, null, null], "rewards": [4, -4, 24], "path": ["0", "0", "5", "6", "7"], "rt": [6082, 18, 431], "actions": ["right", "right", "up"], "actionTimes": [6580, 7099, 8041], "queries": {"click": {"state": {"target": ["9", "11", "12", "6", "7", "8", "5"], "time": [1283, 1981, 2586, 3532, 3966, 4688, 5419]}, "edge": {"target": [], "time": []}}, "mouseover": {"state": {"target": ["9", "10", "11", "10", "12", "6", "6", "7", "8", "5"], "time": [1032, 1657, 1761, 2372, 2442, 3164, 3359, 3845, 4498, 5269]}, "edge": {"target": [], "time": []}}, "mouseout": {"state": {"target": ["0", "9", "10", "11", "10", "12", "6", "6", "7", "6", "8"], "time": [942, 1546, 1678, 2345, 2428, 3046, 3199, 3755, 4414, 4456, 5136]}, "edge": {"target": [], "time": []}}}, "displayed_time": "9.50", "trialTime": 10025, "trial_type": "mouselab-mdp", "trial_index": 31, "time_elapsed": 551640, "internal_node_id": "0.0-4.0-1.0-16.0"}}, {"uniqueid": "w40760942:a73126510", "current_trial": 32, "dateTime": 1664555589633, "trialdata": {"revealed_states": [], "num_clicks_accrued": [0, 0, 0, 0, 0, 0, 0, 0, 0, 0, 0, 0, 0], "stateRewards": ["", 4, 4, 24, 24, 4, -4, 48, 48, 4, 4, 24, -48], "withholdReward": false, "trial_id": "mdp_454251689008", "block": "test1", "trialIndex": 21, "score": 50, "costs": -3, "simulationMode": [null, null, null], "rewards": [4, -4, 48], "path": ["0", "0", "5", "6", "7"], "rt": [10049, 389, 259], "actions": ["right", "right", "up"], "actionTimes": [10755, 11644, 12403], "queries": {"click": {"state": {"target": ["10", "6", "2", "9", "1", "5", "3", "4", "11", "12", "7", "8"], "time": [1589, 2192, 2611, 3838, 4447, 5020, 5691, 6404, 6972, 7261, 8491, 8883]}, "edge": {"target": [], "time": []}}, "mouseover": {"state": {"target": ["9", "11", "10", "9", "0", "5", "6", "2", "11", "9", "0", "1", "5", "5", "3", "4", "11", "12", "7", "8"], "time": [1094, 1261, 1435, 1816, 1844, 1872, 2102, 2559, 3316, 3740, 4011, 4366, 4657, 4879, 5615, 6205, 6865, 7212, 8108, 8768]}, "edge": {"target": [], "time": []}}, "mouseout": {"state": {"target": ["5", "0", "9", "11", "10", "9", "0", "5", "6", "2", "11", "9", "0", "1", "5", "5", "2", "3", "2", "4", "11", "10", "12", "9", "1", "3", "7", "6", "8", "6", "7"], "time": [469, 1012, 1108, 1372, 1803, 1837, 1865, 1900, 2414, 3052, 3705, 3997, 4039, 4615, 4705, 5386, 5532, 5893, 6073, 6698, 7108, 7178, 7823, 7872, 7907, 8045, 8643, 8733, 9212, 9261, 9410]}, "edge": {"target": [], "time": []}}}, "displayed_time": "12.90", "trialTime": 13886, "trial_type": "mouselab-mdp", "trial_index": 32, "time_elapsed": 565591, "internal_node_id": "0.0-4.0-1.0-17.0"}}, {"uniqueid": "w40760942:a73126510", "current_trial": 33, "dateTime": 1664555599398, "trialdata": {"revealed_states": [], "num_clicks_accrued": [0, 0, 0, 0, 0, 0, 0, 0, 0, 0, 0, 0, 0], "stateRewards": ["", -2, -4, -24, -48, 2, -8, -24, -24, 4, -8, 48, 48], "withholdReward": false, "trial_id": "mdp_950599994674", "block": "test1", "trialIndex": 22, "score": 47.75, "costs": -1.25, "simulationMode": [null, null, null], "rewards": [4, -8, 48], "path": ["0", "0", "9", "10", "11"], "rt": [3829, 134, 78], "actions": ["left", "left", "up"], "actionTimes": [4970, 5602, 6178], "queries": {"click": {"state": {"target": ["9", "5", "1", "10", "11"], "time": [2324, 2630, 3098, 3593, 4003]}, "edge": {"target": [], "time": []}}, "mouseover": {"state": {"target": ["9", "10", "9", "0", "5", "1", "10", "11"], "time": [1634, 1690, 2162, 2460, 2551, 3060, 3461, 3884]}, "edge": {"target": [], "time": []}}, "mouseout": {"state": {"target": ["7", "1", "9", "10", "9", "0", "5", "1", "9", "10", "11", "5"], "time": [843, 981, 1669, 2093, 2433, 2502, 2919, 3358, 3440, 3836, 4190, 4343]}, "edge": {"target": [], "time": []}}}, "displayed_time": "9.14", "trialTime": 9697, "trial_type": "mouselab-mdp", "trial_index": 33, "time_elapsed": 575356, "internal_node_id": "0.0-4.0-1.0-18.0"}}, {"uniqueid": "w40760942:a73126510", "current_trial": 34, "dateTime": 1664555608860, "trialdata": {"revealed_states": [], "num_clicks_accrued": [0, 0, 0, 0, 0, 0, 0, 0, 0, 0, 0, 0, 0], "stateRewards": ["", 4, -4, 24, 48, 4, 8, -24, -24, -2, 4, 48, 48], "withholdReward": false, "trial_id": "mdp_624998450453", "block": "test1", "trialIndex": 23, "score": 50.5, "costs": -2.5, "simulationMode": [null, null, null], "rewards": [4, -4, 48], "path": ["0", "0", "1", "2", "4"], "rt": [6008, 81, 148], "actions": ["up", "up", "left"], "actionTimes": [6731, 7313, 7964], "queries": {"click": {"state": {"target": ["9", "10", "5", "6", "7", "8", "1", "2", "3", "4"], "time": [1436, 1882, 2450, 2682, 3504, 3857, 4748, 4952, 5328, 5721]}, "edge": {"target": [], "time": []}}, "mouseover": {"state": {"target": ["0", "9", "10", "0", "5", "6", "5", "6", "1", "7", "8", "1", "2", "3", "4"], "time": [975, 1092, 1682, 2071, 2099, 2134, 2349, 2600, 3016, 3377, 3794, 4669, 4905, 5203, 5592]}, "edge": {"target": [], "time": []}}, "mouseout": {"state": {"target": ["5", "0", "9", "10", "9", "0", "5", "6", "5", "6", "5", "1", "7", "6", "8", "5", "1", "2", "3", "2", "4"], "time": [447, 1064, 1641, 2037, 2064, 2085, 2113, 2273, 2564, 2891, 2932, 3321, 3669, 3752, 4370, 4433, 4863, 5148, 5530, 5571, 5974]}, "edge": {"target": [], "time": []}}}, "displayed_time": "8.74", "trialTime": 9395, "trial_type": "mouselab-mdp", "trial_index": 34, "time_elapsed": 584818, "internal_node_id": "0.0-4.0-1.0-19.0"}}, {"uniqueid": "w40760942:a73126510", "current_trial": 35, "dateTime": 1664555618384, "trialdata": {"revealed_states": [], "num_clicks_accrued": [0, 0, 0, 0, 0, 0, 0, 0, 0, 0, 0, 0, 0], "stateRewards": ["", -2, -4, -48, 48, -4, 4, -48, 24, -4, -8, 24, 48], "withholdReward": true, "trial_id": "mdp_264482284450", "block": "test1", "trialIndex": 24, "score": 45, "costs": -2, "simulationMode": [null, null, null], "rewards": [-2, -4, 48], "path": ["0", "0", "1", "2", "4"], "rt": [4475, 87, 22], "actions": ["up", "up", "left"], "actionTimes": [5505, 6092, 6611], "queries": {"click": {"state": {"target": ["9", "10", "5", "6", "1", "2", "3", "4"], "time": [1878, 2300, 2907, 3312, 3668, 3939, 4298, 4570]}, "edge": {"target": [], "time": []}}, "mouseover": {"state": {"target": ["9", "9", "10", "0", "5", "6", "1", "2", "3", "4", "7"], "time": [1470, 1782, 2164, 2553, 2803, 3122, 3608, 3914, 4227, 4497, 4831]}, "edge": {"target": [], "time": []}}, "mouseout": {"state": {"target": ["0", "9", "9", "10", "9", "0", "5", "6", "5", "1", "2", "3", "2", "4", "7", "5"], "time": [1435, 1546, 2095, 2498, 2539, 2574, 3047, 3484, 3525, 3852, 4192, 4435, 4484, 4754, 7817, 8164]}, "edge": {"target": [], "time": []}}}, "displayed_time": "9.03", "trialTime": 9457, "trial_type": "mouselab-mdp", "trial_index": 35, "time_elapsed": 594342, "internal_node_id": "0.0-4.0-1.0-20.0"}}, {"uniqueid": "w40760942:a73126510", "current_trial": 36, "dateTime": 1664555627453, "trialdata": {"revealed_states": [], "num_clicks_accrued": [0, 0, 0, 0, 0, 0, 0, 0, 0, 0, 0, 0, 0], "stateRewards": ["", 2, -4, 48, -48, -2, 8, -48, 24, -2, -8, 48, 48], "withholdReward": true, "trial_id": "mdp_949326095747", "block": "test1", "trialIndex": 25, "score": 42.25, "costs": -0.75, "simulationMode": [null, null, null], "rewards": [-2, -8, 48], "path": ["0", "0", "9", "10", "11"], "rt": [3022, 46, 1], "actions": ["left", "left", "up"], "actionTimes": [3425, 3971, 4474], "queries": {"click": {"state": {"target": ["9", "10", "11"], "time": [1040, 1276, 2327]}, "edge": {"target": [], "time": []}}, "mouseover": {"state": {"target": ["9", "10", "1", "2", "11", "6"], "time": [847, 1208, 1583, 1896, 2132, 2688]}, "edge": {"target": [], "time": []}}, "mouseout": {"state": {"target": ["0", "9", "10", "9", "1", "2", "11", "6"], "time": [820, 1174, 1507, 1542, 1736, 2056, 2451, 6473]}, "edge": {"target": [], "time": []}}}, "displayed_time": "8.40", "trialTime": 9008, "trial_type": "mouselab-mdp", "trial_index": 36, "time_elapsed": 603411, "internal_node_id": "0.0-4.0-1.0-21.0"}}, {"uniqueid": "w40760942:a73126510", "current_trial": 37, "dateTime": 1664555637017, "trialdata": {"revealed_states": [], "num_clicks_accrued": [0, 0, 0, 0, 0, 0, 0, 0, 0, 0, 0, 0, 0], "stateRewards": ["", -2, 8, -24, 48, -4, 4, -48, 24, 4, -8, 48, -24], "withholdReward": true, "trial_id": "mdp_425320427962", "block": "test1", "trialIndex": 26, "score": 47, "costs": -2, "simulationMode": [null, null, null], "rewards": [4, -8, 48], "path": ["0", "0", "9", "10", "11"], "rt": [4145, 60, 50], "actions": ["left", "left", "up"], "actionTimes": [5314, 5873, 6426], "queries": {"click": {"state": {"target": ["9", "10", "5", "6", "7", "8", "11", "12"], "time": [1815, 2070, 2463, 2742, 3069, 3718, 4232, 4479]}, "edge": {"target": [], "time": []}}, "mouseover": {"state": {"target": ["9", "10", "5", "6", "7", "8", "8", "8", "0", "11", "11", "12"], "time": [1694, 2034, 2347, 2659, 2999, 3285, 3486, 3659, 3902, 3958, 4098, 4423]}, "edge": {"target": [], "time": []}}, "mouseout": {"state": {"target": ["0", "9", "10", "9", "5", "6", "7", "6", "8", "8", "8", "5", "0", "11", "11", "10"], "time": [1659, 1986, 2196, 2270, 2618, 2965, 3201, 3263, 3333, 3520, 3854, 3895, 3910, 3999, 4333, 4395]}, "edge": {"target": [], "time": []}}}, "displayed_time": "9.17", "trialTime": 9494, "trial_type": "mouselab-mdp", "trial_index": 37, "time_elapsed": 612975, "internal_node_id": "0.0-4.0-1.0-22.0"}}, {"uniqueid": "w40760942:a73126510", "current_trial": 38, "dateTime": 1664555646695, "trialdata": {"revealed_states": [], "num_clicks_accrued": [0, 0, 0, 0, 0, 0, 0, 0, 0, 0, 0, 0, 0], "stateRewards": ["", -4, -8, 24, 48, 2, -4, -24, 24, -4, 8, 48, 48], "withholdReward": true, "trial_id": "mdp_496672670022", "block": "test1", "trialIndex": 27, "score": 56.75, "costs": -0.25, "simulationMode": [null, null, null], "rewards": [-4, 8, 48], "path": ["0", "0", "9", "10", "11"], "rt": [2356, 41, 35], "actions": ["left", "left", "up"], "actionTimes": [3418, 3959, 4500], "queries": {"click": {"state": {"target": ["11"], "time": [1788]}, "edge": {"target": [], "time": []}}, "mouseover": {"state": {"target": ["9", "11"], "time": [1485, 1652]}, "edge": {"target": [], "time": []}}, "mouseout": {"state": {"target": ["12", "0", "5", "0", "9", "11"], "time": [680, 742, 888, 1423, 1548, 1944]}, "edge": {"target": [], "time": []}}}, "displayed_time": "9.06", "trialTime": 9616, "trial_type": "mouselab-mdp", "trial_index": 38, "time_elapsed": 622653, "internal_node_id": "0.0-4.0-1.0-23.0"}}, {"uniqueid": "w40760942:a73126510", "current_trial": 39, "dateTime": 1664555657474, "trialdata": {"revealed_states": [], "num_clicks_accrued": [0, 0, 0, 0, 0, 0, 0, 0, 0, 0, 0, 0, 0], "stateRewards": ["", -4, -4, 24, -24, 4, 4, 24, 48, 4, -4, 48, -48], "withholdReward": true, "trial_id": "mdp_522385334882", "block": "test1", "trialIndex": 28, "score": 52.25, "costs": -0.75, "simulationMode": [null, null, null], "rewards": [4, -4, 48], "path": ["0", "0", "9", "10", "11"], "rt": [2784, 65, 61], "actions": ["left", "left", "up"], "actionTimes": [4060, 4641, 5200], "queries": {"click": {"state": {"target": ["11", "10", "9"], "time": [1970, 2969, 3230]}, "edge": {"target": [], "time": []}}, "mouseover": {"state": {"target": ["9", "11", "10", "12", "10", "9"], "time": [1672, 1895, 2165, 2256, 2839, 3179]}, "edge": {"target": [], "time": []}}, "mouseout": {"state": {"target": ["5", "9", "11", "10", "12", "10"], "time": [1050, 1679, 2131, 2214, 2707, 3096]}, "edge": {"target": [], "time": []}}}, "displayed_time": "10.28", "trialTime": 10714, "trial_type": "mouselab-mdp", "trial_index": 39, "time_elapsed": 633432, "internal_node_id": "0.0-4.0-1.0-24.0"}}, {"uniqueid": "w40760942:a73126510", "current_trial": 40, "dateTime": 1664555668304, "trialdata": {"revealed_states": [], "num_clicks_accrued": [0, 0, 0, 0, 0, 0, 0, 0, 0, 0, 0, 0, 0], "stateRewards": ["", 4, 8, 24, 24, 2, -4, 48, -24, -4, 8, -24, 24], "withholdReward": true, "trial_id": "mdp_932292142091", "block": "test1", "trialIndex": 29, "score": 50, "costs": -1, "simulationMode": [null, null, null], "rewards": [2, -4, 48], "path": ["0", "0", "5", "6", "7"], "rt": [3990, 23, 42], "actions": ["right", "right", "up"], "actionTimes": [4887, 5405, 5958], "queries": {"click": {"state": {"target": ["11", "7", "6", "5"], "time": [1951, 2442, 3795, 4016]}, "edge": {"target": [], "time": []}}, "mouseover": {"state": {"target": ["9", "11", "11", "1", "7", "6", "8", "5", "6", "5"], "time": [1180, 1398, 1853, 2229, 2312, 2659, 2735, 3270, 3708, 3937]}, "edge": {"target": [], "time": []}}, "mouseout": {"state": {"target": ["9", "0", "9", "11", "11", "1", "7", "6", "8", "5", "6"], "time": [756, 1138, 1242, 1611, 2152, 2249, 2631, 2694, 3208, 3486, 3916]}, "edge": {"target": [], "time": []}}}, "displayed_time": "9.90", "trialTime": 10760, "trial_type": "mouselab-mdp", "trial_index": 40, "time_elapsed": 644262, "internal_node_id": "0.0-4.0-1.0-25.0"}}, {"uniqueid": "w40760942:a73126510", "current_trial": 41, "dateTime": 1664555678986, "trialdata": {"revealed_states": [], "num_clicks_accrued": [0, 0, 0, 0, 0, 0, 0, 0, 0, 0, 0, 0, 0], "stateRewards": ["", -2, 4, -24, -24, -2, 4, 48, 24, -4, -8, 24, -48], "withholdReward": true, "trial_id": "mdp_191839460481", "block": "test1", "trialIndex": 30, "score": 54.5, "costs": -0.5, "simulationMode": [null, null, null], "rewards": [-2, 4, 48], "path": ["0", "0", "5", "6", "7"], "rt": [3079, 60, 418], "actions": ["right", "right", "up"], "actionTimes": [3991, 4549, 5462], "queries": {"click": {"state": {"target": ["11", "7"], "time": [1684, 2358]}, "edge": {"target": [], "time": []}}, "mouseover": {"state": {"target": ["9", "11", "9", "7", "6", "8", "5"], "time": [1390, 1648, 1904, 2300, 2522, 2599, 3134]}, "edge": {"target": [], "time": []}}, "mouseout": {"state": {"target": ["5", "0", "9", "11", "9", "7", "6", "8"], "time": [696, 1356, 1488, 1863, 1925, 2496, 2564, 3022]}, "edge": {"target": [], "time": []}}}, "displayed_time": "9.91", "trialTime": 10612, "trial_type": "mouselab-mdp", "trial_index": 41, "time_elapsed": 654944, "internal_node_id": "0.0-4.0-1.0-26.0"}}, {"uniqueid": "w40760942:a73126510", "current_trial": 42, "dateTime": 1664555688767, "trialdata": {"revealed_states": [], "num_clicks_accrued": [0, 0, 0, 0, 0, 0, 0, 0, 0, 0, 0, 0, 0], "stateRewards": ["", -4, -4, -24, 24, 4, 4, -24, -24, -4, 4, 24, 24], "withholdReward": true, "trial_id": "mdp_787781487383", "block": "test1", "trialIndex": 31, "score": 26.5, "costs": -2.5, "simulationMode": [null, null, null], "rewards": [-4, 4, 24], "path": ["0", "0", "9", "10", "12"], "rt": [6035, 77, 37], "actions": ["left", "left", "down"], "actionTimes": [6996, 7572, 8107], "queries": {"click": {"state": {"target": ["11", "7", "8", "12", "4", "3", "1", "2", "9", "10"], "time": [1749, 2419, 2771, 3302, 3916, 4219, 5008, 5206, 5533, 5788]}, "edge": {"target": [], "time": []}}, "mouseover": {"state": {"target": ["9", "11", "9", "5", "7", "6", "8", "12", "4", "2", "3", "1", "2", "9", "10"], "time": [1518, 1653, 2021, 2111, 2327, 2597, 2695, 3215, 3743, 4085, 4120, 4875, 5153, 5437, 5750]}, "edge": {"target": [], "time": []}}, "mouseout": {"state": {"target": ["5", "5", "0", "9", "11", "9", "5", "7", "6", "8", "12", "4", "2", "3", "1", "2", "9", "10"], "time": [523, 757, 1306, 1590, 1959, 2049, 2139, 2563, 2646, 2931, 3514, 4062, 4106, 4570, 5118, 5355, 5667, 5987]}, "edge": {"target": [], "time": []}}}, "displayed_time": "8.96", "trialTime": 9711, "trial_type": "mouselab-mdp", "trial_index": 42, "time_elapsed": 664725, "internal_node_id": "0.0-4.0-1.0-27.0"}}, {"uniqueid": "w40760942:a73126510", "current_trial": 43, "dateTime": 1664555697851, "trialdata": {"revealed_states": [], "num_clicks_accrued": [0, 0, 0, 0, 0, 0, 0, 0, 0, 0, 0, 0, 0], "stateRewards": ["", 2, 4, -24, -24, 4, 8, -48, 48, 2, 4, -24, -48], "withholdReward": false, "trial_id": "mdp_565165082781", "block": "test1", "trialIndex": 32, "score": 63.5, "costs": -1.5, "simulationMode": [null, null, null], "rewards": [4, 8, 48], "path": ["0", "0", "5", "6", "8"], "rt": [4448, 452, 145], "actions": ["right", "right", "down"], "actionTimes": [5385, 6338, 6982], "queries": {"click": {"state": {"target": ["9", "10", "11", "12", "8", "7"], "time": [1812, 2048, 2818, 3166, 4000, 4194]}, "edge": {"target": [], "time": []}}, "mouseover": {"state": {"target": ["9", "10", "0", "5", "5", "0", "11", "12", "6", "8", "6", "7"], "time": [1607, 1968, 2294, 2336, 2544, 2572, 2760, 3044, 3760, 3968, 4099, 4155]}, "edge": {"target": [], "time": []}}, "mouseout": {"state": {"target": ["9", "0", "9", "10", "9", "0", "5", "5", "0", "9", "10", "11", "10", "12", "6", "8", "6", "7"], "time": [739, 808, 1947, 2246, 2281, 2322, 2364, 2565, 2586, 2621, 2655, 2933, 3003, 3433, 3912, 4079, 4134, 4467]}, "edge": {"target": [], "time": []}}}, "displayed_time": "7.94", "trialTime": 9013, "trial_type": "mouselab-mdp", "trial_index": 43, "time_elapsed": 673809, "internal_node_id": "0.0-4.0-1.0-28.0"}}, {"uniqueid": "w40760942:a73126510", "current_trial": 44, "dateTime": 1664555708703, "trialdata": {"revealed_states": [], "num_clicks_accrued": [0, 0, 0, 0, 0, 0, 0, 0, 0, 0, 0, 0, 0], "stateRewards": ["", -4, 8, 48, -48, 2, -4, 24, -24, -2, 4, -24, -24], "withholdReward": true, "trial_id": "mdp_804988042722", "block": "test1", "trialIndex": 33, "score": 55.5, "costs": -1.5, "simulationMode": [null, null, null], "rewards": [-4, 8, 48], "path": ["0", "0", "1", "2", "3"], "rt": [3235, 553, 86], "actions": ["up", "up", "right"], "actionTimes": [4318, 5373, 5955], "queries": {"click": {"state": {"target": ["11", "12", "4", "3", "7", "8"], "time": [1502, 1844, 2270, 2643, 3042, 3378]}, "edge": {"target": [], "time": []}}, "mouseover": {"state": {"target": ["11", "10", "12", "4", "2", "3", "7", "6", "8"], "time": [1430, 1673, 1757, 2110, 2409, 2485, 2888, 3215, 3298]}, "edge": {"target": [], "time": []}}, "mouseout": {"state": {"target": ["0", "11", "10", "12", "4", "2", "3", "7", "6", "8"], "time": [1244, 1645, 1715, 1985, 2388, 2451, 2826, 3187, 3270, 9083]}, "edge": {"target": [], "time": []}}}, "displayed_time": "9.09", "trialTime": 10779, "trial_type": "mouselab-mdp", "trial_index": 44, "time_elapsed": 684661, "internal_node_id": "0.0-4.0-1.0-29.0"}}, {"uniqueid": "w40760942:a73126510", "current_trial": 45, "dateTime": 1664555716484, "trialdata": {"rt": 7775, "stimulus": "<h1> End of block! </h1>\n\nYou have reached the end of the block 1/4. If you need a short break, feel free to take one now before moving on.\n\n<br><br>\nIn the next block, you will complete another 30 rounds of this game.\n\n<br><br>\n<div style='text-align: center;'>Press <code>space</code> to begin.</div>\n<br><br>\n<div style='text-align: center;'>(If the experiment doesn't continue, try clicking on the text and then pressing <code>space</code>.)</div>", "response": " ", "trial_id": "mdp_ready_2", "trial_type": "html-keyboard-response", "trial_index": 45, "time_elapsed": 692441, "internal_node_id": "0.0-4.0-2.0"}}, {"uniqueid": "w40760942:a73126510", "current_trial": 46, "dateTime": 1664555726542, "trialdata": {"revealed_states": [], "num_clicks_accrued": [0, 0, 0, 0, 0, 0, 0, 0, 0, 0, 0, 0, 0], "stateRewards": ["", 4, -8, 48, 48, 2, 4, 48, -48, 4, -4, -48, 48], "withholdReward": true, "trial_id": "mdp_519605841135", "block": "test2", "trialIndex": 34, "score": 52.5, "costs": -0.5, "simulationMode": [null, null, null], "rewards": [4, -4, 48], "path": ["0", "0", "9", "10", "12"], "rt": [1829, 46, 413], "actions": ["left", "left", "down"], "actionTimes": [3327, 3875, 4804], "queries": {"click": {"state": {"target": ["11", "12"], "time": [2030, 2347]}, "edge": {"target": [], "time": []}}, "mouseover": {"state": {"target": ["9", "11", "10", "12", "0", "5"], "time": [1772, 1953, 2189, 2265, 2550, 2598]}, "edge": {"target": [], "time": []}}, "mouseout": {"state": {"target": ["9", "11", "10", "12", "0", "5"], "time": [1835, 2168, 2230, 2497, 2577, 2606]}, "edge": {"target": [], "time": []}}}, "displayed_time": "9.50", "trialTime": 9988, "trial_type": "mouselab-mdp", "trial_index": 46, "time_elapsed": 702500, "internal_node_id": "0.0-4.0-3.0-0.0"}}, {"uniqueid": "w40760942:a73126510", "current_trial": 47, "dateTime": 1664555739665, "trialdata": {"revealed_states": [], "num_clicks_accrued": [0, 0, 0, 0, 0, 0, 0, 0, 0, 0, 0, 0, 0], "stateRewards": ["", 4, 4, 24, 24, 4, -4, 48, 48, 4, 4, 24, -48], "withholdReward": true, "trial_id": "mdp_454251689008", "block": "test2", "trialIndex": 35, "score": 52, "costs": -1, "simulationMode": [null, null, null], "rewards": [4, -4, 48], "path": ["0", "0", "5", "6", "7"], "rt": [3891, 23, 54], "actions": ["right", "right", "up"], "actionTimes": [5025, 5549, 6115], "queries": {"click": {"state": {"target": ["11", "12", "7", "8"], "time": [1528, 1857, 2370, 2657]}, "edge": {"target": [], "time": []}}, "mouseover": {"state": {"target": ["9", "11", "10", "12", "5", "6", "7", "6", "8", "6", "5"], "time": [1317, 1421, 1678, 1748, 2143, 2171, 2310, 2518, 2595, 3949, 4060]}, "edge": {"target": [], "time": []}}, "mouseout": {"state": {"target": ["9", "11", "10", "12", "5", "6", "7", "6", "8", "6"], "time": [1331, 1650, 1720, 2067, 2157, 2199, 2491, 2567, 3803, 3984]}, "edge": {"target": [], "time": []}}}, "displayed_time": "10.13", "trialTime": 13038, "trial_type": "mouselab-mdp", "trial_index": 47, "time_elapsed": 715623, "internal_node_id": "0.0-4.0-3.0-1.0"}}, {"uniqueid": "w40760942:a73126510", "current_trial": 48, "dateTime": 1664555749543, "trialdata": {"revealed_states": [], "num_clicks_accrued": [0, 0, 0, 0, 0, 0, 0, 0, 0, 0, 0, 0, 0], "stateRewards": ["", -2, -8, 24, -48, -4, 8, -48, -24, 4, 8, -24, 24], "withholdReward": false, "trial_id": "mdp_940444641142", "block": "test2", "trialIndex": 36, "score": 38.5, "costs": -2.5, "simulationMode": [null, null, null], "rewards": [4, 8, 24], "path": ["0", "0", "9", "10", "12"], "rt": [6089, 93, 74], "actions": ["left", "left", "down"], "actionTimes": [7100, 7693, 8264], "queries": {"click": {"state": {"target": ["11", "12", "7", "8", "4", "3", "2", "10", "9", "1"], "time": [1528, 1810, 2532, 2901, 3587, 3886, 5151, 5594, 5877, 6157]}, "edge": {"target": [], "time": []}}, "mouseover": {"state": {"target": ["9", "10", "11", "10", "12", "6", "7", "6", "8", "5", "2", "4", "2", "3", "2", "1", "10", "9", "1"], "time": [1279, 1342, 1418, 1676, 1745, 2217, 2467, 2661, 2759, 3307, 3453, 3564, 3738, 3821, 4752, 5314, 5404, 5786, 6113]}, "edge": {"target": [], "time": []}}, "mouseout": {"state": {"target": ["5", "9", "10", "11", "10", "12", "6", "7", "6", "8", "5", "2", "4", "2", "3", "2", "1", "10", "9"], "time": [828, 1314, 1356, 1648, 1710, 1946, 2231, 2640, 2703, 3279, 3321, 3467, 3693, 3779, 4668, 5293, 5321, 5744, 6022]}, "edge": {"target": [], "time": []}}}, "displayed_time": "9.01", "trialTime": 9809, "trial_type": "mouselab-mdp", "trial_index": 48, "time_elapsed": 725501, "internal_node_id": "0.0-4.0-3.0-2.0"}}, {"uniqueid": "w40760942:a73126510", "current_trial": 49, "dateTime": 1664555759439, "trialdata": {"revealed_states": [], "num_clicks_accrued": [0, 0, 0, 0, 0, 0, 0, 0, 0, 0, 0, 0, 0], "stateRewards": ["", -4, 4, -24, 24, 2, 4, -24, 48, -4, 8, -48, 48], "withholdReward": true, "trial_id": "mdp_422109108860", "block": "test2", "trialIndex": 37, "score": 56.5, "costs": -0.5, "simulationMode": [null, null, null], "rewards": [-4, 8, 48], "path": ["0", "0", "9", "10", "12"], "rt": [2280, 23, 18], "actions": ["left", "left", "down"], "actionTimes": [3682, 4201, 4731], "queries": {"click": {"state": {"target": ["11", "12"], "time": [1776, 2123]}, "edge": {"target": [], "time": []}}, "mouseover": {"state": {"target": ["11", "10", "12", "0", "5", "5", "0", "10"], "time": [1698, 1948, 2010, 2323, 2427, 2550, 2573, 2802]}, "edge": {"target": [], "time": []}}, "mouseout": {"state": {"target": ["1", "11", "10", "12", "0", "5", "5", "0"], "time": [1221, 1920, 1976, 2261, 2344, 2476, 2556, 2587]}, "edge": {"target": [], "time": []}}}, "displayed_time": "9.41", "trialTime": 9824, "trial_type": "mouselab-mdp", "trial_index": 49, "time_elapsed": 735396, "internal_node_id": "0.0-4.0-3.0-3.0"}}, {"uniqueid": "w40760942:a73126510", "current_trial": 50, "dateTime": 1664555769328, "trialdata": {"revealed_states": [], "num_clicks_accrued": [0, 0, 0, 0, 0, 0, 0, 0, 0, 0, 0, 0, 0], "stateRewards": ["", -2, 8, -48, 48, 4, -8, -48, 48, 4, -4, -24, 48], "withholdReward": true, "trial_id": "mdp_144739116828", "block": "test2", "trialIndex": 38, "score": 52.5, "costs": -0.5, "simulationMode": [null, null, null], "rewards": [4, -4, 48], "path": ["0", "0", "9", "10", "12"], "rt": [2319, 52, 85], "actions": ["left", "left", "down"], "actionTimes": [3287, 3840, 4422], "queries": {"click": {"state": {"target": ["11", "12"], "time": [1333, 1648]}, "edge": {"target": [], "time": []}}, "mouseover": {"state": {"target": ["11", "10", "12", "5", "5", "0"], "time": [1231, 1516, 1572, 1912, 2231, 2266]}, "edge": {"target": [], "time": []}}, "mouseout": {"state": {"target": ["10", "9", "11", "10", "12", "5", "5", "0"], "time": [697, 766, 1489, 1551, 1801, 1988, 2238, 2287]}, "edge": {"target": [], "time": []}}}, "displayed_time": "8.97", "trialTime": 9817, "trial_type": "mouselab-mdp", "trial_index": 50, "time_elapsed": 745286, "internal_node_id": "0.0-4.0-3.0-4.0"}}, {"uniqueid": "w40760942:a73126510", "current_trial": 51, "dateTime": 1664555779559, "trialdata": {"revealed_states": [], "num_clicks_accrued": [0, 0, 0, 0, 0, 0, 0, 0, 0, 0, 0, 0, 0], "stateRewards": ["", 2, 8, -48, -24, 4, 4, 24, 48, 4, -4, -48, 48], "withholdReward": true, "trial_id": "mdp_665096999232", "block": "test2", "trialIndex": 39, "score": 52.5, "costs": -0.5, "simulationMode": [null, null, null], "rewards": [4, -4, 48], "path": ["0", "0", "9", "10", "12"], "rt": [1684, 69, 2], "actions": ["left", "left", "down"], "actionTimes": [2544, 3114, 3616], "queries": {"click": {"state": {"target": ["12", "11"], "time": [1591, 1892]}, "edge": {"target": [], "time": []}}, "mouseover": {"state": {"target": ["9", "10", "12", "10", "11"], "time": [1037, 1419, 1495, 1787, 1842]}, "edge": {"target": [], "time": []}}, "mouseout": {"state": {"target": ["0", "9", "10", "12", "10", "11"], "time": [1002, 1065, 1474, 1773, 1815, 5794]}, "edge": {"target": [], "time": []}}}, "displayed_time": "9.86", "trialTime": 10152, "trial_type": "mouselab-mdp", "trial_index": 51, "time_elapsed": 755517, "internal_node_id": "0.0-4.0-3.0-5.0"}}, {"uniqueid": "w40760942:a73126510", "current_trial": 52, "dateTime": 1664555789996, "trialdata": {"revealed_states": [], "num_clicks_accrued": [0, 0, 0, 0, 0, 0, 0, 0, 0, 0, 0, 0, 0], "stateRewards": ["", 2, 8, -48, 48, -4, -8, 24, 24, -2, -8, 24, -24], "withholdReward": false, "trial_id": "mdp_910248289075", "block": "test2", "trialIndex": 40, "score": 61.5, "costs": -1.5, "simulationMode": [null, null, null], "rewards": [2, 8, 48], "path": ["0", "0", "1", "2", "4"], "rt": [4523, 29, 311], "actions": ["up", "up", "left"], "actionTimes": [5613, 6143, 6964], "queries": {"click": {"state": {"target": ["11", "12", "7", "8", "4", "3"], "time": [1647, 1904, 2490, 2810, 4455, 4847]}, "edge": {"target": [], "time": []}}, "mouseover": {"state": {"target": ["9", "10", "11", "10", "12", "0", "5", "7", "6", "8", "5", "1", "4", "2", "3"], "time": [1298, 1360, 1562, 1791, 1853, 2222, 2256, 2430, 2680, 2728, 3659, 4124, 4347, 4638, 4714]}, "edge": {"target": [], "time": []}}, "mouseout": {"state": {"target": ["10", "9", "0", "9", "10", "11", "10", "12", "0", "5", "7", "6", "8", "5", "1", "4", "2"], "time": [728, 881, 1263, 1339, 1374, 1763, 1826, 2152, 2235, 2291, 2659, 2707, 3513, 4097, 4173, 4583, 4687]}, "edge": {"target": [], "time": []}}}, "displayed_time": "10.09", "trialTime": 10364, "trial_type": "mouselab-mdp", "trial_index": 52, "time_elapsed": 765954, "internal_node_id": "0.0-4.0-3.0-6.0"}}, {"uniqueid": "w40760942:a73126510", "current_trial": 53, "dateTime": 1664555800421, "trialdata": {"revealed_states": [], "num_clicks_accrued": [0, 0, 0, 0, 0, 0, 0, 0, 0, 0, 0, 0, 0], "stateRewards": ["", -2, -8, 48, 24, 2, 8, -48, 24, -4, 8, 48, 48], "withholdReward": true, "trial_id": "mdp_875436109858", "block": "test2", "trialIndex": 41, "score": 56.25, "costs": -0.75, "simulationMode": [null, null, null], "rewards": [-4, 8, 48], "path": ["0", "0", "9", "10", "12"], "rt": [2557, 10, 134], "actions": ["left", "left", "down"], "actionTimes": [3563, 4071, 4715], "queries": {"click": {"state": {"target": ["11", "12", "10"], "time": [1334, 1674, 2440]}, "edge": {"target": [], "time": []}}, "mouseover": {"state": {"target": ["11", "10", "12", "10"], "time": [1213, 1470, 1532, 2359]}, "edge": {"target": [], "time": []}}, "mouseout": {"state": {"target": ["3", "1", "11", "10", "12"], "time": [664, 782, 1442, 1505, 2317]}, "edge": {"target": [], "time": []}}}, "displayed_time": "10.01", "trialTime": 10350, "trial_type": "mouselab-mdp", "trial_index": 53, "time_elapsed": 776379, "internal_node_id": "0.0-4.0-3.0-7.0"}}, {"uniqueid": "w40760942:a73126510", "current_trial": 54, "dateTime": 1664555810248, "trialdata": {"revealed_states": [], "num_clicks_accrued": [0, 0, 0, 0, 0, 0, 0, 0, 0, 0, 0, 0, 0], "stateRewards": ["", -4, -8, 48, 48, -4, 4, 48, -24, 4, 8, -24, -48], "withholdReward": false, "trial_id": "mdp_142906093415", "block": "test2", "trialIndex": 42, "score": 52, "costs": -1, "simulationMode": [null, null, null], "rewards": [-4, 4, 48], "path": ["0", "0", "5", "6", "7"], "rt": [2274, 55, 41], "actions": ["right", "right", "up"], "actionTimes": [3418, 3971, 4513], "queries": {"click": {"state": {"target": ["11", "12", "7", "8"], "time": [1543, 1821, 2313, 2595]}, "edge": {"target": [], "time": []}}, "mouseover": {"state": {"target": ["9", "11", "10", "12", "0", "5", "7", "6", "8"], "time": [1304, 1436, 1693, 1755, 2047, 2082, 2165, 2457, 2533]}, "edge": {"target": [], "time": []}}, "mouseout": {"state": {"target": ["10", "9", "0", "9", "11", "10", "12", "0", "5", "7", "6"], "time": [783, 908, 1262, 1359, 1665, 1727, 1998, 2068, 2095, 2429, 2498]}, "edge": {"target": [], "time": []}}}, "displayed_time": "9.14", "trialTime": 9754, "trial_type": "mouselab-mdp", "trial_index": 54, "time_elapsed": 786206, "internal_node_id": "0.0-4.0-3.0-8.0"}}, {"uniqueid": "w40760942:a73126510", "current_trial": 55, "dateTime": 1664555819847, "trialdata": {"revealed_states": [], "num_clicks_accrued": [0, 0, 0, 0, 0, 0, 0, 0, 0, 0, 0, 0, 0], "stateRewards": ["", 2, -4, 24, 24, 4, -4, -24, 24, -4, -4, 48, 48], "withholdReward": true, "trial_id": "mdp_566306223773", "block": "test2", "trialIndex": 43, "score": 44.75, "costs": -0.25, "simulationMode": [null, null, null], "rewards": [-4, -4, 48], "path": ["0", "0", "9", "10", "11"], "rt": [2110, 59, 3], "actions": ["left", "left", "up"], "actionTimes": [3229, 3788, 4307], "queries": {"click": {"state": {"target": ["11"], "time": [1769]}, "edge": {"target": [], "time": []}}, "mouseover": {"state": {"target": ["9", "11", "10", "12"], "time": [1463, 1616, 1914, 1991]}, "edge": {"target": [], "time": []}}, "mouseout": {"state": {"target": ["8", "0", "9", "11", "10"], "time": [782, 1435, 1497, 1886, 1949]}, "edge": {"target": [], "time": []}}}, "displayed_time": "9.12", "trialTime": 9525, "trial_type": "mouselab-mdp", "trial_index": 55, "time_elapsed": 795804, "internal_node_id": "0.0-4.0-3.0-9.0"}}, {"uniqueid": "w40760942:a73126510", "current_trial": 56, "dateTime": 1664555831236, "trialdata": {"revealed_states": [], "num_clicks_accrued": [0, 0, 0, 0, 0, 0, 0, 0, 0, 0, 0, 0, 0], "stateRewards": ["", -2, -8, 24, -48, 4, 4, -24, -48, -2, -8, -48, 24], "withholdReward": true, "trial_id": "mdp_556006673466", "block": "test2", "trialIndex": 44, "score": 16.5, "costs": -2.5, "simulationMode": [null, null, null], "rewards": [-2, -8, 24], "path": ["0", "0", "1", "2", "3"], "rt": [7245, 138, 360], "actions": ["up", "up", "right"], "actionTimes": [8292, 8931, 9792], "queries": {"click": {"state": {"target": ["11", "12", "7", "8", "3", "4", "1", "2", "9", "10"], "time": [1521, 1920, 2674, 3210, 3684, 3980, 5925, 6123, 6414, 6669]}, "edge": {"target": [], "time": []}}, "mouseover": {"state": {"target": ["9", "11", "10", "12", "0", "5", "7", "7", "6", "8", "8", "3", "2", "4", "2", "1", "2", "9", "9", "10"], "time": [1314, 1418, 1696, 1813, 2126, 2161, 2251, 2522, 2813, 2855, 3127, 3515, 3862, 3911, 4341, 5820, 6098, 6320, 6397, 6598]}, "edge": {"target": [], "time": []}}, "mouseout": {"state": {"target": ["12", "12", "10", "9", "0", "9", "11", "10", "12", "0", "5", "7", "7", "6", "8", "8", "3", "2", "4", "2", "1", "2", "1", "9", "9", "10"], "time": [515, 598, 716, 855, 1286, 1334, 1668, 1744, 2078, 2147, 2182, 2364, 2793, 2841, 2897, 3390, 3835, 3890, 4300, 4841, 6043, 6227, 6265, 6355, 6543, 7184]}, "edge": {"target": [], "time": []}}}, "displayed_time": "10.29", "trialTime": 11320, "trial_type": "mouselab-mdp", "trial_index": 56, "time_elapsed": 807194, "internal_node_id": "0.0-4.0-3.0-10.0"}}, {"uniqueid": "w40760942:a73126510", "current_trial": 57, "dateTime": 1664555842055, "trialdata": {"revealed_states": [], "num_clicks_accrued": [0, 0, 0, 0, 0, 0, 0, 0, 0, 0, 0, 0, 0], "stateRewards": ["", -4, 4, -48, -48, -2, -8, -48, -24, 4, 8, -24, 24], "withholdReward": false, "trial_id": "mdp_449260894259", "block": "test2", "trialIndex": 45, "score": 39.5, "costs": -1.5, "simulationMode": [null, null, null], "rewards": [4, 8, 24], "path": ["0", "0", "9", "10", "12"], "rt": [3506, 395, 93], "actions": ["left", "left", "down"], "actionTimes": [4741, 5637, 6230], "queries": {"click": {"state": {"target": ["11", "12", "7", "8", "4", "3"], "time": [1834, 2108, 2536, 2854, 3264, 3523]}, "edge": {"target": [], "time": []}}, "mouseover": {"state": {"target": ["11", "10", "12", "9", "0", "5", "7", "6", "8", "2", "4", "2", "3"], "time": [1706, 1970, 2060, 2282, 2297, 2317, 2352, 2692, 2797, 3109, 3165, 3401, 3449]}, "edge": {"target": [], "time": []}}, "mouseout": {"state": {"target": ["10", "9", "11", "10", "12", "9", "0", "5", "7", "6", "8", "2", "4", "2", "3"], "time": [943, 1011, 1949, 2012, 2248, 2290, 2304, 2325, 2665, 2748, 2984, 3123, 3373, 3428, 4039]}, "edge": {"target": [], "time": []}}}, "displayed_time": "10.24", "trialTime": 10747, "trial_type": "mouselab-mdp", "trial_index": 57, "time_elapsed": 818012, "internal_node_id": "0.0-4.0-3.0-11.0"}}, {"uniqueid": "w40760942:a73126510", "current_trial": 58, "dateTime": 1664555851795, "trialdata": {"revealed_states": [], "num_clicks_accrued": [0, 0, 0, 0, 0, 0, 0, 0, 0, 0, 0, 0, 0], "stateRewards": ["", -4, -8, -48, 48, -2, 8, 48, 48, -2, -4, -48, -48], "withholdReward": true, "trial_id": "mdp_752833580638", "block": "test2", "trialIndex": 46, "score": 58, "costs": -1, "simulationMode": [null, null, null], "rewards": [-2, 8, 48], "path": ["0", "0", "5", "6", "7"], "rt": [3029, 21, 251], "actions": ["right", "right", "up"], "actionTimes": [4439, 4958, 5722], "queries": {"click": {"state": {"target": ["11", "12", "7", "8"], "time": [2044, 2345, 2936, 3179]}, "edge": {"target": [], "time": []}}, "mouseover": {"state": {"target": ["9", "11", "10", "12", "6", "7", "6", "8", "6"], "time": [1825, 1873, 2227, 2283, 2623, 2852, 3033, 3116, 3346]}, "edge": {"target": [], "time": []}}, "mouseout": {"state": {"target": ["0", "9", "11", "10", "12", "6", "7", "6", "8", "6"], "time": [1805, 1832, 2193, 2269, 2540, 2644, 3012, 3074, 3325, 3352]}, "edge": {"target": [], "time": []}}}, "displayed_time": "9.41", "trialTime": 9668, "trial_type": "mouselab-mdp", "trial_index": 58, "time_elapsed": 827752, "internal_node_id": "0.0-4.0-3.0-12.0"}}, {"uniqueid": "w40760942:a73126510", "current_trial": 59, "dateTime": 1664555862232, "trialdata": {"revealed_states": [], "num_clicks_accrued": [0, 0, 0, 0, 0, 0, 0, 0, 0, 0, 0, 0, 0], "stateRewards": ["", 4, -8, 24, 48, 2, 4, 48, 48, 2, 8, -48, -48], "withholdReward": true, "trial_id": "mdp_783704746330", "block": "test2", "trialIndex": 47, "score": 48.5, "costs": -0.5, "simulationMode": [null, null, null], "rewards": [4, -8, 48], "path": ["0", "0", "1", "2", "4"], "rt": [1628, 56, 237], "actions": ["up", "up", "left"], "actionTimes": [2734, 3287, 4022], "queries": {"click": {"state": {"target": ["4", "3"], "time": [1723, 2114]}, "edge": {"target": [], "time": []}}, "mouseover": {"state": {"target": ["9", "4", "2", "3"], "time": [1306, 1611, 1861, 1896]}, "edge": {"target": [], "time": []}}, "mouseout": {"state": {"target": ["0", "0", "9", "4", "2"], "time": [715, 1264, 1320, 1840, 1882]}, "edge": {"target": [], "time": []}}}, "displayed_time": "10.11", "trialTime": 10364, "trial_type": "mouselab-mdp", "trial_index": 59, "time_elapsed": 838189, "internal_node_id": "0.0-4.0-3.0-13.0"}}, {"uniqueid": "w40760942:a73126510", "current_trial": 60, "dateTime": 1664555872652, "trialdata": {"revealed_states": [], "num_clicks_accrued": [0, 0, 0, 0, 0, 0, 0, 0, 0, 0, 0, 0, 0], "stateRewards": ["", -4, -8, 48, -48, 2, -4, 48, -24, 2, -8, -48, -48], "withholdReward": false, "trial_id": "mdp_624553692913", "block": "test2", "trialIndex": 48, "score": 50.25, "costs": -0.75, "simulationMode": [null, null, null], "rewards": [2, -4, 48], "path": ["0", "0", "5", "6", "7"], "rt": [2469, 143, 28], "actions": ["right", "right", "up"], "actionTimes": [3705, 4350, 4880], "queries": {"click": {"state": {"target": ["11", "12", "7"], "time": [1651, 2003, 2588]}, "edge": {"target": [], "time": []}}, "mouseover": {"state": {"target": ["11", "10", "12", "0", "5", "7", "6", "8"], "time": [1560, 1817, 1949, 2268, 2296, 2491, 2734, 2935]}, "edge": {"target": [], "time": []}}, "mouseout": {"state": {"target": ["3", "11", "10", "12", "0", "5", "7", "6"], "time": [859, 1789, 1866, 2199, 2289, 2317, 2706, 2789]}, "edge": {"target": [], "time": []}}}, "displayed_time": "9.24", "trialTime": 10344, "trial_type": "mouselab-mdp", "trial_index": 60, "time_elapsed": 848609, "internal_node_id": "0.0-4.0-3.0-14.0"}}, {"uniqueid": "w40760942:a73126510", "current_trial": 61, "dateTime": 1664555883516, "trialdata": {"revealed_states": [], "num_clicks_accrued": [0, 0, 0, 0, 0, 0, 0, 0, 0, 0, 0, 0, 0], "stateRewards": ["", 2, 4, -48, 48, -4, 8, -48, -24, -4, -4, 48, 48], "withholdReward": true, "trial_id": "mdp_613582696541", "block": "test2", "trialIndex": 49, "score": 44.75, "costs": -0.25, "simulationMode": [null, null, null], "rewards": [-4, -4, 48], "path": ["0", "0", "9", "10", "11"], "rt": [1424, 17, 270], "actions": ["left", "left", "up"], "actionTimes": [2940, 3455, 4228], "queries": {"click": {"state": {"target": ["11"], "time": [2038]}, "edge": {"target": [], "time": []}}, "mouseover": {"state": {"target": ["9", "11", "10"], "time": [1818, 1992, 2263]}, "edge": {"target": [], "time": []}}, "mouseout": {"state": {"target": ["8", "9", "10", "10", "9", "0", "9", "11"], "time": [637, 672, 686, 1026, 1200, 1776, 1888, 2214]}, "edge": {"target": [], "time": []}}}, "displayed_time": "10.52", "trialTime": 10792, "trial_type": "mouselab-mdp", "trial_index": 61, "time_elapsed": 859474, "internal_node_id": "0.0-4.0-3.0-15.0"}}, {"uniqueid": "w40760942:a73126510", "current_trial": 62, "dateTime": 1664555893930, "trialdata": {"revealed_states": [], "num_clicks_accrued": [0, 0, 0, 0, 0, 0, 0, 0, 0, 0, 0, 0, 0], "stateRewards": ["", -2, 8, -48, 48, -4, -8, 24, 24, -2, -4, 48, -48], "withholdReward": true, "trial_id": "mdp_867247318592", "block": "test2", "trialIndex": 50, "score": 46.75, "costs": -0.25, "simulationMode": [null, null, null], "rewards": [-2, -4, 48], "path": ["0", "0", "9", "10", "11"], "rt": [1314, 91, 111], "actions": ["left", "left", "up"], "actionTimes": [2377, 2965, 3575], "queries": {"click": {"state": {"target": ["11"], "time": [1478]}, "edge": {"target": [], "time": []}}, "mouseover": {"state": {"target": ["11", "10"], "time": [1394, 1789]}, "edge": {"target": [], "time": []}}, "mouseout": {"state": {"target": ["10", "9", "0", "11", "10"], "time": [770, 852, 998, 1734, 1831]}, "edge": {"target": [], "time": []}}}, "displayed_time": "10.06", "trialTime": 10344, "trial_type": "mouselab-mdp", "trial_index": 62, "time_elapsed": 869888, "internal_node_id": "0.0-4.0-3.0-16.0"}}, {"uniqueid": "w40760942:a73126510", "current_trial": 63, "dateTime": 1664555903409, "trialdata": {"revealed_states": [], "num_clicks_accrued": [0, 0, 0, 0, 0, 0, 0, 0, 0, 0, 0, 0, 0], "stateRewards": ["", -4, -4, -48, 48, -4, -8, -24, -48, -2, 8, 48, 24], "withholdReward": true, "trial_id": "mdp_365393526663", "block": "test2", "trialIndex": 51, "score": 58.75, "costs": -0.25, "simulationMode": [null, null, null], "rewards": [-2, 8, 48], "path": ["0", "0", "9", "10", "11"], "rt": [1234, 82, 24], "actions": ["left", "left", "up"], "actionTimes": [2275, 2856, 3380], "queries": {"click": {"state": {"target": ["11"], "time": [1438]}, "edge": {"target": [], "time": []}}, "mouseover": {"state": {"target": ["9", "11"], "time": [1231, 1362]}, "edge": {"target": [], "time": []}}, "mouseout": {"state": {"target": ["0", "9", "11"], "time": [1189, 1265, 1640]}, "edge": {"target": [], "time": []}}}, "displayed_time": "9.04", "trialTime": 9403, "trial_type": "mouselab-mdp", "trial_index": 63, "time_elapsed": 879367, "internal_node_id": "0.0-4.0-3.0-17.0"}}, {"uniqueid": "w40760942:a73126510", "current_trial": 64, "dateTime": 1664555912666, "trialdata": {"revealed_states": [], "num_clicks_accrued": [0, 0, 0, 0, 0, 0, 0, 0, 0, 0, 0, 0, 0], "stateRewards": ["", -2, 4, -24, -48, -4, 8, -24, 48, 4, 4, -48, 24], "withholdReward": true, "trial_id": "mdp_341117665701", "block": "test2", "trialIndex": 52, "score": 56, "costs": -1, "simulationMode": [null, null, null], "rewards": [-4, 8, 48], "path": ["0", "0", "5", "6", "8"], "rt": [3054, 44, 95], "actions": ["right", "right", "down"], "actionTimes": [4120, 4661, 5255], "queries": {"click": {"state": {"target": ["11", "7", "8", "12"], "time": [1534, 2316, 2644, 3201]}, "edge": {"target": [], "time": []}}, "mouseover": {"state": {"target": ["9", "11", "7", "6", "8", "12"], "time": [1290, 1443, 2269, 2491, 2575, 3012]}, "edge": {"target": [], "time": []}}, "mouseout": {"state": {"target": ["1", "0", "9", "11", "7", "6", "8"], "time": [776, 1249, 1311, 1818, 2457, 2540, 2797]}, "edge": {"target": [], "time": []}}}, "displayed_time": "9.07", "trialTime": 9178, "trial_type": "mouselab-mdp", "trial_index": 64, "time_elapsed": 888624, "internal_node_id": "0.0-4.0-3.0-18.0"}}, {"uniqueid": "w40760942:a73126510", "current_trial": 65, "dateTime": 1664555922652, "trialdata": {"revealed_states": [], "num_clicks_accrued": [0, 0, 0, 0, 0, 0, 0, 0, 0, 0, 0, 0, 0], "stateRewards": ["", 4, -4, 48, -48, 4, -4, 24, -24, 4, 8, -24, -48], "withholdReward": true, "trial_id": "mdp_433630527224", "block": "test2", "trialIndex": 53, "score": 52, "costs": -1, "simulationMode": [null, null, null], "rewards": [4, -4, 48], "path": ["0", "0", "1", "2", "3"], "rt": [3056, 110, 178], "actions": ["up", "up", "right"], "actionTimes": [4828, 5438, 6117], "queries": {"click": {"state": {"target": ["11", "12", "4", "3"], "time": [2141, 2533, 3601, 3987]}, "edge": {"target": [], "time": []}}, "mouseover": {"state": {"target": ["11", "10", "12", "12", "10", "4", "4", "2", "3"], "time": [2014, 2278, 2327, 2403, 2778, 3167, 3334, 3840, 3896]}, "edge": {"target": [], "time": []}}, "mouseout": {"state": {"target": ["12", "6", "5", "11", "10", "12", "12", "10", "4", "4", "2", "3"], "time": [635, 960, 1153, 2251, 2306, 2340, 2757, 2792, 3195, 3806, 3868, 4222]}, "edge": {"target": [], "time": []}}}, "displayed_time": "9.77", "trialTime": 9909, "trial_type": "mouselab-mdp", "trial_index": 65, "time_elapsed": 898610, "internal_node_id": "0.0-4.0-3.0-19.0"}}, {"uniqueid": "w40760942:a73126510", "current_trial": 66, "dateTime": 1664555933254, "trialdata": {"revealed_states": [], "num_clicks_accrued": [0, 0, 0, 0, 0, 0, 0, 0, 0, 0, 0, 0, 0], "stateRewards": ["", -2, 4, 48, -24, 2, 8, 24, 48, 2, 4, -24, -48], "withholdReward": true, "trial_id": "mdp_892412058587", "block": "test2", "trialIndex": 54, "score": 62, "costs": -1, "simulationMode": [null, null, null], "rewards": [2, 8, 48], "path": ["0", "0", "5", "6", "8"], "rt": [2457, 87, 46], "actions": ["right", "right", "down"], "actionTimes": [3528, 4114, 4656], "queries": {"click": {"state": {"target": ["11", "12", "7", "8"], "time": [1437, 1791, 2415, 2691]}, "edge": {"target": [], "time": []}}, "mouseover": {"state": {"target": ["11", "10", "12", "9", "7", "6", "8"], "time": [1325, 1582, 1658, 1971, 2332, 2568, 2672]}, "edge": {"target": [], "time": []}}, "mouseout": {"state": {"target": ["11", "10", "12", "9", "7", "6"], "time": [1554, 1623, 1950, 1978, 2533, 2609]}, "edge": {"target": [], "time": []}}}, "displayed_time": "9.07", "trialTime": 10530, "trial_type": "mouselab-mdp", "trial_index": 66, "time_elapsed": 909212, "internal_node_id": "0.0-4.0-3.0-20.0"}}, {"uniqueid": "w40760942:a73126510", "current_trial": 67, "dateTime": 1664555945760, "trialdata": {"revealed_states": [], "num_clicks_accrued": [0, 0, 0, 0, 0, 0, 0, 0, 0, 0, 0, 0, 0], "stateRewards": ["", -4, -8, -24, 24, 4, 4, -48, -48, -4, -4, 24, -48], "withholdReward": true, "trial_id": "mdp_431592223624", "block": "test2", "trialIndex": 55, "score": 18.5, "costs": -2.5, "simulationMode": [null, null, null], "rewards": [-4, -4, 24], "path": ["0", "0", "9", "10", "11"], "rt": [7909, 45, 51], "actions": ["left", "left", "up"], "actionTimes": [8993, 9539, 10088], "queries": {"click": {"state": {"target": ["11", "12", "7", "8", "4", "3", "1", "2", "9", "10"], "time": [1672, 2263, 3643, 4247, 5111, 5529, 7201, 7542, 7865, 8191]}, "edge": {"target": [], "time": []}}, "mouseover": {"state": {"target": ["11", "10", "12", "0", "7", "7", "6", "6", "7", "6", "8", "5", "1", "4", "4", "4", "2", "3", "1", "2", "9", "10"], "time": [1508, 1917, 2070, 2584, 2625, 2931, 3174, 3452, 3577, 4091, 4146, 4438, 4467, 4524, 4772, 5035, 5285, 5341, 7091, 7487, 7764, 8132]}, "edge": {"target": [], "time": []}}, "mouseout": {"state": {"target": ["8", "5", "11", "10", "12", "0", "7", "7", "6", "6", "7", "6", "8", "5", "1", "4", "4", "4", "2", "3", "1", "2", "1", "9"], "time": [688, 917, 1889, 1966, 2542, 2591, 2646, 3112, 3216, 3501, 4070, 4118, 4417, 4452, 4481, 4563, 4917, 5271, 5306, 6994, 7438, 7653, 7695, 8042]}, "edge": {"target": [], "time": []}}}, "displayed_time": "10.59", "trialTime": 12443, "trial_type": "mouselab-mdp", "trial_index": 67, "time_elapsed": 921718, "internal_node_id": "0.0-4.0-3.0-21.0"}}, {"uniqueid": "w40760942:a73126510", "current_trial": 68, "dateTime": 1664555954692, "trialdata": {"revealed_states": [], "num_clicks_accrued": [0, 0, 0, 0, 0, 0, 0, 0, 0, 0, 0, 0, 0], "stateRewards": ["", 4, -4, 24, 48, 4, 8, -24, -24, -2, 4, 48, 48], "withholdReward": true, "trial_id": "mdp_624998450453", "block": "test2", "trialIndex": 56, "score": 54.75, "costs": -0.25, "simulationMode": [null, null, null], "rewards": [-2, 4, 48], "path": ["0", "0", "9", "10", "11"], "rt": [1671, 64, 385], "actions": ["left", "left", "up"], "actionTimes": [2215, 2780, 3663], "queries": {"click": {"state": {"target": ["11"], "time": [1011]}, "edge": {"target": [], "time": []}}, "mouseover": {"state": {"target": ["9", "11", "10", "12"], "time": [784, 937, 1173, 1270]}, "edge": {"target": [], "time": []}}, "mouseout": {"state": {"target": ["10", "9", "0", "9", "11", "10", "12"], "time": [222, 367, 736, 793, 1145, 1215, 1835]}, "edge": {"target": [], "time": []}}}, "displayed_time": "8.54", "trialTime": 8859, "trial_type": "mouselab-mdp", "trial_index": 68, "time_elapsed": 930650, "internal_node_id": "0.0-4.0-3.0-22.0"}}, {"uniqueid": "w40760942:a73126510", "current_trial": 69, "dateTime": 1664555965237, "trialdata": {"revealed_states": [], "num_clicks_accrued": [0, 0, 0, 0, 0, 0, 0, 0, 0, 0, 0, 0, 0], "stateRewards": ["", 4, -8, 24, 48, 2, -4, 48, 48, 4, -8, 48, 48], "withholdReward": true, "trial_id": "mdp_962498334245", "block": "test2", "trialIndex": 57, "score": 48.75, "costs": -0.25, "simulationMode": [null, null, null], "rewards": [4, -8, 48], "path": ["0", "0", "9", "10", "11"], "rt": [1229, 69, 361], "actions": ["left", "left", "up"], "actionTimes": [2416, 2981, 3842], "queries": {"click": {"state": {"target": ["11"], "time": [1585]}, "edge": {"target": [], "time": []}}, "mouseover": {"state": {"target": ["9", "11", "10"], "time": [1362, 1508, 1806]}, "edge": {"target": [], "time": []}}, "mouseout": {"state": {"target": ["0", "9", "11"], "time": [1320, 1404, 1765]}, "edge": {"target": [], "time": []}}}, "displayed_time": "10.19", "trialTime": 10468, "trial_type": "mouselab-mdp", "trial_index": 69, "time_elapsed": 941195, "internal_node_id": "0.0-4.0-3.0-23.0"}}, {"uniqueid": "w40760942:a73126510", "current_trial": 70, "dateTime": 1664555975857, "trialdata": {"revealed_states": [], "num_clicks_accrued": [0, 0, 0, 0, 0, 0, 0, 0, 0, 0, 0, 0, 0], "stateRewards": ["", 2, -4, -24, -24, -2, -8, -48, 24, -4, -8, 24, 24], "withholdReward": false, "trial_id": "mdp_521351546461", "block": "test2", "trialIndex": 58, "score": 16.5, "costs": -2.5, "simulationMode": [null, null, null], "rewards": [-2, -8, 24], "path": ["0", "0", "5", "6", "8"], "rt": [6172, 14, 344], "actions": ["right", "right", "down"], "actionTimes": [7213, 7725, 8570], "queries": {"click": {"state": {"target": ["11", "12", "7", "8", "4", "3", "10", "9", "5", "6"], "time": [1368, 1985, 2481, 2797, 3327, 3581, 5097, 5363, 5657, 6207]}, "edge": {"target": [], "time": []}}, "mouseover": {"state": {"target": ["9", "11", "10", "12", "0", "5", "7", "6", "8", "5", "1", "4", "2", "3", "1", "10", "9", "0", "5", "6", "6"], "time": [1169, 1246, 1641, 1864, 2197, 2232, 2322, 2641, 2718, 3044, 3134, 3225, 3468, 3523, 4218, 4447, 5252, 5516, 5565, 5787, 6135]}, "edge": {"target": [], "time": []}}, "mouseout": {"state": {"target": ["10", "9", "0", "9", "11", "10", "12", "0", "5", "7", "6", "8", "5", "1", "4", "2", "3", "1", "10", "9", "0", "5", "6"], "time": [684, 780, 1142, 1176, 1586, 1808, 2148, 2218, 2245, 2607, 2683, 3016, 3065, 3141, 3447, 3496, 4183, 4232, 5218, 5496, 5544, 5773, 5815]}, "edge": {"target": [], "time": []}}}, "displayed_time": "10.04", "trialTime": 10548, "trial_type": "mouselab-mdp", "trial_index": 70, "time_elapsed": 951815, "internal_node_id": "0.0-4.0-3.0-24.0"}}, {"uniqueid": "w40760942:a73126510", "current_trial": 71, "dateTime": 1664555985730, "trialdata": {"revealed_states": [], "num_clicks_accrued": [0, 0, 0, 0, 0, 0, 0, 0, 0, 0, 0, 0, 0], "stateRewards": ["", -4, 8, -24, 48, 2, -8, 24, 48, 2, -8, -24, -48], "withholdReward": false, "trial_id": "mdp_493778446445", "block": "test2", "trialIndex": 59, "score": 46, "costs": -1, "simulationMode": [null, null, null], "rewards": [2, -8, 48], "path": ["0", "0", "5", "6", "8"], "rt": [2945, 60, 16], "actions": ["right", "right", "down"], "actionTimes": [3542, 4101, 4619], "queries": {"click": {"state": {"target": ["11", "12", "8", "7"], "time": [1086, 1569, 2053, 2270]}, "edge": {"target": [], "time": []}}, "mouseover": {"state": {"target": ["11", "10", "12", "8", "6", "7"], "time": [942, 1275, 1484, 1990, 2178, 2220]}, "edge": {"target": [], "time": []}}, "mouseout": {"state": {"target": ["6", "5", "11", "10", "12", "8", "6", "7", "5"], "time": [95, 129, 1227, 1365, 1692, 2157, 2206, 8386, 8442]}, "edge": {"target": [], "time": []}}}, "displayed_time": "9.60", "trialTime": 9798, "trial_type": "mouselab-mdp", "trial_index": 71, "time_elapsed": 961688, "internal_node_id": "0.0-4.0-3.0-25.0"}}, {"uniqueid": "w40760942:a73126510", "current_trial": 72, "dateTime": 1664555995893, "trialdata": {"revealed_states": [], "num_clicks_accrued": [0, 0, 0, 0, 0, 0, 0, 0, 0, 0, 0, 0, 0], "stateRewards": ["", 2, -8, 48, -24, 2, 8, 24, -24, 4, -4, -48, -48], "withholdReward": true, "trial_id": "mdp_130946197263", "block": "test2", "trialIndex": 60, "score": 45.5, "costs": -1.5, "simulationMode": [null, null, null], "rewards": [2, -8, 48], "path": ["0", "0", "1", "2", "3"], "rt": [2984, 115, 239], "actions": ["up", "up", "right"], "actionTimes": [3732, 4348, 5083], "queries": {"click": {"state": {"target": ["11", "12", "7", "8", "4", "3"], "time": [1077, 1354, 1785, 2081, 2683, 2955]}, "edge": {"target": [], "time": []}}, "mouseover": {"state": {"target": ["9", "11", "10", "12", "5", "6", "7", "6", "8", "6", "3", "2", "4", "2", "3"], "time": [884, 975, 1231, 1280, 1558, 1586, 1690, 1967, 2030, 2287, 2412, 2481, 2620, 2822, 2870]}, "edge": {"target": [], "time": []}}, "mouseout": {"state": {"target": ["0", "9", "11", "10", "12", "5", "6", "7", "6", "8", "6", "3", "2", "4", "2"], "time": [825, 891, 1211, 1266, 1496, 1572, 1593, 1940, 2002, 2266, 2294, 2419, 2579, 2794, 2851]}, "edge": {"target": [], "time": []}}}, "displayed_time": "9.75", "trialTime": 10085, "trial_type": "mouselab-mdp", "trial_index": 72, "time_elapsed": 971851, "internal_node_id": "0.0-4.0-3.0-26.0"}}, {"uniqueid": "w40760942:a73126510", "current_trial": 73, "dateTime": 1664556005897, "trialdata": {"revealed_states": [], "num_clicks_accrued": [0, 0, 0, 0, 0, 0, 0, 0, 0, 0, 0, 0, 0], "stateRewards": ["", 2, 4, 48, -48, 2, 4, 24, -24, 2, -4, -24, -48], "withholdReward": false, "trial_id": "mdp_706591889062", "block": "test2", "trialIndex": 61, "score": 57.5, "costs": -1.5, "simulationMode": [null, null, null], "rewards": [2, 4, 48], "path": ["0", "0", "1", "2", "3"], "rt": [3431, 48, 81], "actions": ["up", "up", "right"], "actionTimes": [4026, 4573, 5155], "queries": {"click": {"state": {"target": ["11", "12", "8", "7", "3", "4"], "time": [962, 1343, 2204, 2589, 2982, 3549]}, "edge": {"target": [], "time": []}}, "mouseover": {"state": {"target": ["11", "10", "12", "7", "6", "8", "6", "7", "3", "2", "4", "4"], "time": [871, 1156, 1274, 1869, 1948, 2045, 2462, 2545, 2906, 3149, 3184, 3432]}, "edge": {"target": [], "time": []}}, "mouseout": {"state": {"target": ["3", "11", "10", "12", "7", "6", "8", "6", "7", "3", "2", "4", "4"], "time": [269, 1129, 1225, 1524, 1935, 2003, 2441, 2497, 2830, 3128, 3170, 3233, 9823]}, "edge": {"target": [], "time": []}}}, "displayed_time": "9.60", "trialTime": 9922, "trial_type": "mouselab-mdp", "trial_index": 73, "time_elapsed": 981855, "internal_node_id": "0.0-4.0-3.0-27.0"}}, {"uniqueid": "w40760942:a73126510", "current_trial": 74, "dateTime": 1664556015810, "trialdata": {"revealed_states": [], "num_clicks_accrued": [0, 0, 0, 0, 0, 0, 0, 0, 0, 0, 0, 0, 0], "stateRewards": ["", -2, -8, -24, 48, -2, -8, -48, -48, 2, -8, -48, 24], "withholdReward": true, "trial_id": "mdp_288324580942", "block": "test2", "trialIndex": 62, "score": 42.5, "costs": -0.5, "simulationMode": [null, null, null], "rewards": [-2, -8, 48], "path": ["0", "0", "1", "2", "4"], "rt": [1700, 114, 62], "actions": ["up", "up", "left"], "actionTimes": [2279, 2895, 3454], "queries": {"click": {"state": {"target": ["3", "4"], "time": [1024, 1490]}, "edge": {"target": [], "time": []}}, "mouseover": {"state": {"target": ["1", "3", "2", "4", "11"], "time": [724, 919, 1211, 1391, 1725]}, "edge": {"target": [], "time": []}}, "mouseout": {"state": {"target": ["1", "0", "1", "3", "2", "4", "11"], "time": [148, 676, 738, 1190, 1322, 1655, 1926]}, "edge": {"target": [], "time": []}}}, "displayed_time": "9.58", "trialTime": 9842, "trial_type": "mouselab-mdp", "trial_index": 74, "time_elapsed": 991768, "internal_node_id": "0.0-4.0-3.0-28.0"}}, {"uniqueid": "w40760942:a73126510", "current_trial": 75, "dateTime": 1664556025858, "trialdata": {"revealed_states": [], "num_clicks_accrued": [0, 0, 0, 0, 0, 0, 0, 0, 0, 0, 0, 0, 0], "stateRewards": ["", -4, 4, 48, 24, -4, 4, -24, 48, -2, -8, 24, -48], "withholdReward": true, "trial_id": "mdp_261501605436", "block": "test2", "trialIndex": 63, "score": 52.5, "costs": -0.5, "simulationMode": [null, null, null], "rewards": [-4, 4, 48], "path": ["0", "0", "1", "2", "3"], "rt": [1700, 113, 8], "actions": ["up", "up", "right"], "actionTimes": [2619, 3229, 3736], "queries": {"click": {"state": {"target": ["4", "3"], "time": [1276, 1897]}, "edge": {"target": [], "time": []}}, "mouseover": {"state": {"target": ["4", "2", "3", "3"], "time": [1213, 1427, 1469, 1789]}, "edge": {"target": [], "time": []}}, "mouseout": {"state": {"target": ["0", "4", "2", "3", "3"], "time": [1011, 1407, 1455, 1525, 2129]}, "edge": {"target": [], "time": []}}}, "displayed_time": "9.92", "trialTime": 9975, "trial_type": "mouselab-mdp", "trial_index": 75, "time_elapsed": 1001816, "internal_node_id": "0.0-4.0-3.0-29.0"}}, {"uniqueid": "w40760942:a73126510", "current_trial": 76, "dateTime": 1664556028386, "trialdata": {"rt": 2520, "stimulus": "<h1> End of block! </h1>\n\nYou have reached the end of the block 2/4. If you need a short break, feel free to take one now before moving on.\n\n<br><br>\nIn the next block, you will complete another 30 rounds of this game.\n\n<br><br>\n<div style='text-align: center;'>Press <code>space</code> to begin.</div>\n<br><br>\n<div style='text-align: center;'>(If the experiment doesn't continue, try clicking on the text and then pressing <code>space</code>.)</div>", "response": " ", "trial_id": "mdp_ready_3", "trial_type": "html-keyboard-response", "trial_index": 76, "time_elapsed": 1004344, "internal_node_id": "0.0-4.0-4.0"}}, {"uniqueid": "w40760942:a73126510", "current_trial": 77, "dateTime": 1664556038388, "trialdata": {"revealed_states": [], "num_clicks_accrued": [0, 0, 0, 0, 0, 0, 0, 0, 0, 0, 0, 0, 0], "stateRewards": ["", 4, -8, -48, -24, 2, -8, -48, 48, -4, 8, 48, -48], "withholdReward": true, "trial_id": "mdp_605757196263", "block": "test3", "trialIndex": 64, "score": 56.75, "costs": -0.25, "simulationMode": [null, null, null], "rewards": [-4, 8, 48], "path": ["0", "0", "9", "10", "11"], "rt": [1609, 34, 57], "actions": ["left", "left", "up"], "actionTimes": [2303, 2839, 3404], "queries": {"click": {"state": {"target": ["11"], "time": [1079]}, "edge": {"target": [], "time": []}}, "mouseover": {"state": {"target": ["11", "10"], "time": [977, 1380]}, "edge": {"target": [], "time": []}}, "mouseout": {"state": {"target": ["1", "0", "11", "10", "9", "8"], "time": [491, 832, 1255, 8901, 8977, 9367]}, "edge": {"target": [], "time": []}}}, "displayed_time": "9.69", "trialTime": 9923, "trial_type": "mouselab-mdp", "trial_index": 77, "time_elapsed": 1014346, "internal_node_id": "0.0-4.0-5.0-0.0"}}, {"uniqueid": "w40760942:a73126510", "current_trial": 78, "dateTime": 1664556048197, "trialdata": {"revealed_states": [], "num_clicks_accrued": [0, 0, 0, 0, 0, 0, 0, 0, 0, 0, 0, 0, 0], "stateRewards": ["", -2, 4, -48, -48, 4, 4, 48, -48, 2, 8, 24, 48], "withholdReward": true, "trial_id": "mdp_686771069745", "block": "test3", "trialIndex": 65, "score": 62.5, "costs": -0.5, "simulationMode": [null, null, null], "rewards": [2, 8, 48], "path": ["0", "0", "9", "10", "12"], "rt": [1674, 110, 7], "actions": ["left", "left", "down"], "actionTimes": [2186, 2796, 3304], "queries": {"click": {"state": {"target": ["11", "12"], "time": [839, 1423]}, "edge": {"target": [], "time": []}}, "mouseover": {"state": {"target": ["9", "11", "9", "12"], "time": [615, 678, 1150, 1296]}, "edge": {"target": [], "time": []}}, "mouseout": {"state": {"target": ["0", "9", "11", "9", "12"], "time": [581, 622, 1032, 1261, 1622]}, "edge": {"target": [], "time": []}}}, "displayed_time": "9.51", "trialTime": 9731, "trial_type": "mouselab-mdp", "trial_index": 78, "time_elapsed": 1024155, "internal_node_id": "0.0-4.0-5.0-1.0"}}, {"uniqueid": "w40760942:a73126510", "current_trial": 79, "dateTime": 1664556058229, "trialdata": {"revealed_states": [], "num_clicks_accrued": [0, 0, 0, 0, 0, 0, 0, 0, 0, 0, 0, 0, 0], "stateRewards": ["", -4, -4, -24, 24, -4, 4, -24, 48, -2, 4, 48, -48], "withholdReward": true, "trial_id": "mdp_774757609669", "block": "test3", "trialIndex": 66, "score": 54.75, "costs": -0.25, "simulationMode": [null, null, null], "rewards": [-2, 4, 48], "path": ["0", "0", "9", "10", "11"], "rt": [1258, 39, 268], "actions": ["left", "left", "up"], "actionTimes": [1867, 2403, 3179], "queries": {"click": {"state": {"target": ["11"], "time": [1117]}, "edge": {"target": [], "time": []}}, "mouseover": {"state": {"target": ["11", "11", "10", "12"], "time": [799, 1036, 1285, 1348]}, "edge": {"target": [], "time": []}}, "mouseout": {"state": {"target": ["0", "11", "11", "10"], "time": [494, 813, 1251, 1320]}, "edge": {"target": [], "time": []}}}, "displayed_time": "9.61", "trialTime": 9954, "trial_type": "mouselab-mdp", "trial_index": 79, "time_elapsed": 1034187, "internal_node_id": "0.0-4.0-5.0-2.0"}}, {"uniqueid": "w40760942:a73126510", "current_trial": 80, "dateTime": 1664556068951, "trialdata": {"revealed_states": [], "num_clicks_accrued": [0, 0, 0, 0, 0, 0, 0, 0, 0, 0, 0, 0, 0], "stateRewards": ["", 4, 4, 48, -48, -2, -8, -48, -24, 2, 4, -24, -48], "withholdReward": true, "trial_id": "mdp_239929662917", "block": "test3", "trialIndex": 67, "score": 59.5, "costs": -1.5, "simulationMode": [null, null, null], "rewards": [4, 4, 48], "path": ["0", "0", "1", "2", "3"], "rt": [3419, 63, 26], "actions": ["up", "up", "right"], "actionTimes": [4793, 5357, 5882], "queries": {"click": {"state": {"target": ["11", "12", "7", "8", "3", "4"], "time": [2038, 2374, 3103, 3407, 3859, 4299]}, "edge": {"target": [], "time": []}}, "mouseover": {"state": {"target": ["9", "11", "11", "10", "12", "9", "7", "6", "8", "5", "3", "2", "4"], "time": [1515, 1633, 1783, 2244, 2314, 2626, 3002, 3279, 3363, 3633, 3751, 4029, 4071]}, "edge": {"target": [], "time": []}}, "mouseout": {"state": {"target": ["12", "9", "0", "9", "11", "11", "10", "12", "9", "7", "6", "8", "5", "3", "2"], "time": [439, 772, 1473, 1536, 1689, 2209, 2286, 2584, 2633, 3251, 3321, 3598, 3640, 4008, 4050]}, "edge": {"target": [], "time": []}}}, "displayed_time": "10.38", "trialTime": 10621, "trial_type": "mouselab-mdp", "trial_index": 80, "time_elapsed": 1044909, "internal_node_id": "0.0-4.0-5.0-3.0"}}, {"uniqueid": "w40760942:a73126510", "current_trial": 81, "dateTime": 1664556078276, "trialdata": {"revealed_states": [], "num_clicks_accrued": [0, 0, 0, 0, 0, 0, 0, 0, 0, 0, 0, 0, 0], "stateRewards": ["", -4, 4, 48, 24, -4, 4, -24, 48, -2, -8, 24, -48], "withholdReward": false, "trial_id": "mdp_261501605436", "block": "test3", "trialIndex": 68, "score": 52.5, "costs": -0.5, "simulationMode": [null, null, null], "rewards": [-4, 4, 48], "path": ["0", "0", "1", "2", "3"], "rt": [1755, 13, 429], "actions": ["up", "up", "right"], "actionTimes": [2659, 3173, 4102], "queries": {"click": {"state": {"target": ["4", "3"], "time": [1474, 1902]}, "edge": {"target": [], "time": []}}, "mouseover": {"state": {"target": ["4", "2", "3"], "time": [1353, 1623, 1762]}, "edge": {"target": [], "time": []}}, "mouseout": {"state": {"target": ["4", "1", "4", "2", "3"], "time": [561, 714, 1596, 1658, 2103]}, "edge": {"target": [], "time": []}}}, "displayed_time": "8.90", "trialTime": 9235, "trial_type": "mouselab-mdp", "trial_index": 81, "time_elapsed": 1054234, "internal_node_id": "0.0-4.0-5.0-4.0"}}, {"uniqueid": "w40760942:a73126510", "current_trial": 82, "dateTime": 1664556087778, "trialdata": {"revealed_states": [], "num_clicks_accrued": [0, 0, 0, 0, 0, 0, 0, 0, 0, 0, 0, 0, 0], "stateRewards": ["", -4, -4, -48, 48, -4, -8, -24, -48, -2, 8, 48, 24], "withholdReward": true, "trial_id": "mdp_365393526663", "block": "test3", "trialIndex": 69, "score": 58.75, "costs": -0.25, "simulationMode": [null, null, null], "rewards": [-2, 8, 48], "path": ["0", "0", "9", "10", "11"], "rt": [1073, 47, 47], "actions": ["left", "left", "up"], "actionTimes": [2182, 2729, 3282], "queries": {"click": {"state": {"target": ["11"], "time": [1463]}, "edge": {"target": [], "time": []}}, "mouseover": {"state": {"target": ["9", "11", "10", "12"], "time": [1235, 1381, 1624, 1686]}, "edge": {"target": [], "time": []}}, "mouseout": {"state": {"target": ["9", "11", "10"], "time": [1284, 1596, 1659]}, "edge": {"target": [], "time": []}}}, "displayed_time": "9.11", "trialTime": 9425, "trial_type": "mouselab-mdp", "trial_index": 82, "time_elapsed": 1063736, "internal_node_id": "0.0-4.0-5.0-5.0"}}, {"uniqueid": "w40760942:a73126510", "current_trial": 83, "dateTime": 1664556097422, "trialdata": {"revealed_states": [], "num_clicks_accrued": [0, 0, 0, 0, 0, 0, 0, 0, 0, 0, 0, 0, 0], "stateRewards": ["", -4, 8, 48, -48, 2, -4, 24, -24, -2, 4, -24, -24], "withholdReward": true, "trial_id": "mdp_804988042722", "block": "test3", "trialIndex": 70, "score": 55.5, "costs": -1.5, "simulationMode": [null, null, null], "rewards": [-4, 8, 48], "path": ["0", "0", "1", "2", "3"], "rt": [3804, 43, 362], "actions": ["up", "up", "right"], "actionTimes": [4703, 5245, 6106], "queries": {"click": {"state": {"target": ["11", "12", "7", "8", "4", "3"], "time": [1234, 1933, 2594, 2865, 3669, 4072]}, "edge": {"target": [], "time": []}}, "mouseover": {"state": {"target": ["9", "11", "10", "12", "12", "9", "5", "7", "6", "8", "5", "1", "2", "4", "2", "3"], "time": [1049, 1173, 1548, 1583, 1875, 2278, 2319, 2521, 2736, 2792, 3222, 3278, 3444, 3585, 3854, 3909]}, "edge": {"target": [], "time": []}}, "mouseout": {"state": {"target": ["12", "0", "9", "11", "10", "12", "12", "9", "5", "7", "6", "8", "5", "1", "2", "4", "2"], "time": [569, 812, 1083, 1530, 1569, 1618, 2250, 2285, 2326, 2708, 2771, 3202, 3236, 3285, 3555, 3826, 3889]}, "edge": {"target": [], "time": []}}}, "displayed_time": "8.90", "trialTime": 9563, "trial_type": "mouselab-mdp", "trial_index": 83, "time_elapsed": 1073380, "internal_node_id": "0.0-4.0-5.0-6.0"}}, {"uniqueid": "w40760942:a73126510", "current_trial": 84, "dateTime": 1664556106843, "trialdata": {"revealed_states": [], "num_clicks_accrued": [0, 0, 0, 0, 0, 0, 0, 0, 0, 0, 0, 0, 0], "stateRewards": ["", 4, 4, -24, -48, -4, 4, -48, 24, 4, -8, -48, 48], "withholdReward": true, "trial_id": "mdp_566768794366", "block": "test3", "trialIndex": 71, "score": 48, "costs": -1, "simulationMode": [null, null, null], "rewards": [4, -8, 48], "path": ["0", "0", "9", "10", "12"], "rt": [2880, 76, 114], "actions": ["left", "left", "down"], "actionTimes": [3748, 4330, 4946], "queries": {"click": {"state": {"target": ["4", "3", "11", "12"], "time": [1478, 1849, 2477, 2750]}, "edge": {"target": [], "time": []}}, "mouseover": {"state": {"target": ["1", "4", "4", "2", "3", "1", "11", "11", "10", "12", "5"], "time": [1067, 1143, 1393, 1671, 1741, 2129, 2172, 2394, 2616, 2713, 3081]}, "edge": {"target": [], "time": []}}, "mouseout": {"state": {"target": ["3", "1", "4", "4", "2", "3", "1", "11", "11", "10", "12"], "time": [356, 1081, 1178, 1657, 1699, 2102, 2137, 2185, 2588, 2657, 2949]}, "edge": {"target": [], "time": []}}}, "displayed_time": "8.87", "trialTime": 9343, "trial_type": "mouselab-mdp", "trial_index": 84, "time_elapsed": 1082801, "internal_node_id": "0.0-4.0-5.0-7.0"}}, {"uniqueid": "w40760942:a73126510", "current_trial": 85, "dateTime": 1664556116767, "trialdata": {"revealed_states": [], "num_clicks_accrued": [0, 0, 0, 0, 0, 0, 0, 0, 0, 0, 0, 0, 0], "stateRewards": ["", -4, 8, 24, -24, 4, -8, -24, -24, -2, 8, -48, 24], "withholdReward": true, "trial_id": "mdp_240302100183", "block": "test3", "trialIndex": 72, "score": 32.5, "costs": -2.5, "simulationMode": [null, null, null], "rewards": [-2, 8, 24], "path": ["0", "0", "9", "10", "12"], "rt": [6020, 65, 33], "actions": ["left", "left", "down"], "actionTimes": [7229, 7811, 8344], "queries": {"click": {"state": {"target": ["12", "11", "7", "8", "3", "4", "10", "2", "1", "9"], "time": [1586, 1986, 2662, 3024, 3519, 3880, 5273, 5976, 6352, 6652]}, "edge": {"target": [], "time": []}}, "mouseover": {"state": {"target": ["0", "12", "10", "11", "1", "7", "6", "8", "6", "3", "2", "4", "10", "9", "1", "2", "2", "1", "9"], "time": [1216, 1439, 1841, 1897, 2397, 2585, 2834, 2960, 3189, 3467, 3723, 3793, 5119, 5446, 5508, 5612, 5796, 6258, 6557]}, "edge": {"target": [], "time": []}}, "mouseout": {"state": {"target": ["5", "0", "9", "12", "9", "0", "0", "12", "10", "11", "1", "7", "6", "8", "6", "3", "2", "4", "10", "9", "1", "2", "2", "1", "9"], "time": [480, 765, 793, 987, 1043, 1119, 1355, 1821, 1876, 2355, 2404, 2800, 2897, 3175, 3196, 3689, 3765, 5008, 5418, 5473, 5571, 5689, 6197, 6515, 9279]}, "edge": {"target": [], "time": []}}}, "displayed_time": "9.21", "trialTime": 9847, "trial_type": "mouselab-mdp", "trial_index": 85, "time_elapsed": 1092725, "internal_node_id": "0.0-4.0-5.0-8.0"}}, {"uniqueid": "w40760942:a73126510", "current_trial": 86, "dateTime": 1664556125487, "trialdata": {"revealed_states": [], "num_clicks_accrued": [0, 0, 0, 0, 0, 0, 0, 0, 0, 0, 0, 0, 0], "stateRewards": ["", -2, 8, 48, 48, 4, -8, -48, 48, 2, -4, -48, 48], "withholdReward": false, "trial_id": "mdp_132958048709", "block": "test3", "trialIndex": 73, "score": 50.5, "costs": -0.5, "simulationMode": [null, null, null], "rewards": [2, -4, 48], "path": ["0", "0", "9", "10", "12"], "rt": [1403, 110, 76], "actions": ["left", "left", "down"], "actionTimes": [1850, 2461, 3042], "queries": {"click": {"state": {"target": ["11", "12"], "time": [812, 1120]}, "edge": {"target": [], "time": []}}, "mouseover": {"state": {"target": ["9", "11", "10", "12", "9"], "time": [613, 724, 968, 1030, 1328]}, "edge": {"target": [], "time": []}}, "mouseout": {"state": {"target": ["0", "9", "11", "10", "12", "9"], "time": [592, 648, 947, 1009, 1301, 1342]}, "edge": {"target": [], "time": []}}}, "displayed_time": "8.45", "trialTime": 8637, "trial_type": "mouselab-mdp", "trial_index": 86, "time_elapsed": 1101445, "internal_node_id": "0.0-4.0-5.0-9.0"}}, {"uniqueid": "w40760942:a73126510", "current_trial": 87, "dateTime": 16645