{"condition": 0, "counterbalance": 0, "assignmentId": "a43764448", "workerId": "w48863498", "hitId": "h35717412", "currenttrial": 499, "bonus": 0, "data": [{"uniqueid": "w48863498:a43764448", "current_trial": 0, "dateTime": 1664554886148, "trialdata": {"success": true, "trial_type": "fullscreen", "trial_index": 0, "time_elapsed": 5475, "internal_node_id": "0.0-0.0"}}, {"uniqueid": "w48863498:a43764448", "current_trial": 1, "dateTime": 1664554914301, "trialdata": {"view_history": [{"page_index": 0, "viewing_time": 28149}], "rt": 28150, "trial_id": "exp_instructions_distractor", "trial_type": "instructions", "trial_index": 1, "time_elapsed": 33628, "internal_node_id": "0.0-1.0"}}, {"uniqueid": "w48863498:a43764448", "current_trial": 2, "dateTime": 1664554947494, "trialdata": {"view_history": [{"page_index": 0, "viewing_time": 33192}], "rt": 33192, "trial_id": "color_game_instructions", "trial_type": "instructions", "trial_index": 2, "time_elapsed": 66821, "internal_node_id": "0.0-2.0"}}, {"uniqueid": "w48863498:a43764448", "current_trial": 3, "dateTime": 1664554951947, "trialdata": {"rt": 4451, "stimulus": "<h1> Get ready to start the game! </h1>\n\nThank you for reading the instructions. Get ready start with the first of 5 block(s) of this game.\n<br><br>\nIn this first block, you will complete 90 rounds of this game before moving on.\n<br><br>\nRemember, the better you perform, the bigger your bonus will be!\n<br><br>\n<div style='text-align: center;'>Press <code>space</code> to begin.</div>", "response": " ", "trial_id": "stroop_1_ready_1", "trial_type": "html-keyboard-response", "trial_index": 3, "time_elapsed": 71274, "internal_node_id": "0.0-3.0"}}, {"uniqueid": "w48863498:a43764448", "current_trial": 4, "dateTime": 1664554953347, "trialdata": {"rt": 1394, "stimulus": "<p id='stroop-text' class='stroop-yellow'>RED</p>", "response": "y", "stimulus-type": "incongruent", "word": "red", "color": "yellow", "correct_response": "y", "trial_id": "stroop-trial-1-incongruent-5", "trial_type": "html-keyboard-response", "trial_index": 4, "time_elapsed": 72673, "internal_node_id": "0.0-4.0-0.0"}}, {"uniqueid": "w48863498:a43764448", "current_trial": 5, "dateTime": 1664554955443, "trialdata": {"rt": 1594, "stimulus": "<p id='stroop-text' class='stroop-red'>GREEN</p>", "response": "r", "stimulus-type": "incongruent", "word": "green", "color": "red", "correct_response": "r", "trial_id": "stroop-trial-1-incongruent-10", "trial_type": "html-keyboard-response", "trial_index": 5, "time_elapsed": 74770, "internal_node_id": "0.0-4.0-1.0"}}, {"uniqueid": "w48863498:a43764448", "current_trial": 6, "dateTime": 1664554957099, "trialdata": {"rt": 1155, "stimulus": "<p id='stroop-text' class='stroop-red'>STONE</p>", "response": "r", "stimulus-type": "unrelated", "word": "STONE", "color": "red", "correct_response": "r", "trial_id": "stroop-trial-1-unrelated-24", "trial_type": "html-keyboard-response", "trial_index": 6, "time_elapsed": 76426, "internal_node_id": "0.0-4.0-2.0"}}, {"uniqueid": "w48863498:a43764448", "current_trial": 7, "dateTime": 1664554958812, "trialdata": {"rt": 1210, "stimulus": "<p id='stroop-text' class='stroop-red'>BLUE</p>", "response": "r", "stimulus-type": "incongruent", "word": "blue", "color": "red", "correct_response": "r", "trial_id": "stroop-trial-1-incongruent-4", "trial_type": "html-keyboard-response", "trial_index": 7, "time_elapsed": 78138, "internal_node_id": "0.0-4.0-3.0"}}, {"uniqueid": "w48863498:a43764448", "current_trial": 8, "dateTime": 1664554960820, "trialdata": {"rt": 1507, "stimulus": "<p id='stroop-text' class='stroop-blue'>STONE</p>", "response": "b", "stimulus-type": "unrelated", "word": "STONE", "color": "blue", "correct_response": "b", "trial_id": "stroop-trial-1-unrelated-10", "trial_type": "html-keyboard-response", "trial_index": 8, "time_elapsed": 80146, "internal_node_id": "0.0-4.0-4.0"}}, {"uniqueid": "w48863498:a43764448", "current_trial": 9, "dateTime": 1664554962308, "trialdata": {"rt": 986, "stimulus": "<p id='stroop-text' class='stroop-red'>RED</p>", "response": "r", "stimulus-type": "congruent", "word": "red", "color": "red", "correct_response": "r", "trial_id": "stroop-trial-1-congruent-23", "trial_type": "html-keyboard-response", "trial_index": 9, "time_elapsed": 81634, "internal_node_id": "0.0-4.0-5.0"}}, {"uniqueid": "w48863498:a43764448", "current_trial": 10, "dateTime": 1664554963996, "trialdata": {"rt": 1185, "stimulus": "<p id='stroop-text' class='stroop-blue'>DOG</p>", "response": "b", "stimulus-type": "unrelated", "word": "DOG", "color": "blue", "correct_response": "b", "trial_id": "stroop-trial-1-unrelated-30", "trial_type": "html-keyboard-response", "trial_index": 10, "time_elapsed": 83323, "internal_node_id": "0.0-4.0-6.0"}}, {"uniqueid": "w48863498:a43764448", "current_trial": 11, "dateTime": 1664554965652, "trialdata": {"rt": 1155, "stimulus": "<p id='stroop-text' class='stroop-yellow'>FORK</p>", "response": "y", "stimulus-type": "unrelated", "word": "FORK", "color": "yellow", "correct_response": "y", "trial_id": "stroop-trial-1-unrelated-28", "trial_type": "html-keyboard-response", "trial_index": 11, "time_elapsed": 84979, "internal_node_id": "0.0-4.0-7.0"}}, {"uniqueid": "w48863498:a43764448", "current_trial": 12, "dateTime": 1664554967116, "trialdata": {"rt": 963, "stimulus": "<p id='stroop-text' class='stroop-yellow'>YELLOW</p>", "response": "y", "stimulus-type": "congruent", "word": "yellow", "color": "yellow", "correct_response": "y", "trial_id": "stroop-trial-1-congruent-25", "trial_type": "html-keyboard-response", "trial_index": 12, "time_elapsed": 86443, "internal_node_id": "0.0-4.0-8.0"}}, {"uniqueid": "w48863498:a43764448", "current_trial": 13, "dateTime": 1664554968540, "trialdata": {"rt": 908, "stimulus": "<p id='stroop-text' class='stroop-yellow'>YELLOW</p>", "response": "y", "stimulus-type": "congruent", "word": "yellow", "color": "yellow", "correct_response": "y", "trial_id": "stroop-trial-1-congruent-24", "trial_type": "html-keyboard-response", "trial_index": 13, "time_elapsed": 87867, "internal_node_id": "0.0-4.0-9.0"}}, {"uniqueid": "w48863498:a43764448", "current_trial": 14, "dateTime": 1664554970068, "trialdata": {"rt": 1026, "stimulus": "<p id='stroop-text' class='stroop-yellow'>DOG</p>", "response": "y", "stimulus-type": "unrelated", "word": "DOG", "color": "yellow", "correct_response": "y", "trial_id": "stroop-trial-1-unrelated-22", "trial_type": "html-keyboard-response", "trial_index": 14, "time_elapsed": 89395, "internal_node_id": "0.0-4.0-10.0"}}, {"uniqueid": "w48863498:a43764448", "current_trial": 15, "dateTime": 1664554971788, "trialdata": {"rt": 1218, "stimulus": "<p id='stroop-text' class='stroop-blue'>BLUE</p>", "response": "b", "stimulus-type": "congruent", "word": "blue", "color": "blue", "correct_response": "b", "trial_id": "stroop-trial-1-congruent-27", "trial_type": "html-keyboard-response", "trial_index": 15, "time_elapsed": 91115, "internal_node_id": "0.0-4.0-11.0"}}, {"uniqueid": "w48863498:a43764448", "current_trial": 16, "dateTime": 1664554973028, "trialdata": {"rt": 739, "stimulus": "<p id='stroop-text' class='stroop-blue'>YELLOW</p>", "response": "b", "stimulus-type": "incongruent", "word": "yellow", "color": "blue", "correct_response": "b", "trial_id": "stroop-trial-1-incongruent-30", "trial_type": "html-keyboard-response", "trial_index": 16, "time_elapsed": 92355, "internal_node_id": "0.0-4.0-12.0"}}, {"uniqueid": "w48863498:a43764448", "current_trial": 17, "dateTime": 1664554974773, "trialdata": {"rt": 1243, "stimulus": "<p id='stroop-text' class='stroop-green'>BLUE</p>", "response": "g", "stimulus-type": "incongruent", "word": "blue", "color": "green", "correct_response": "g", "trial_id": "stroop-trial-1-incongruent-27", "trial_type": "html-keyboard-response", "trial_index": 17, "time_elapsed": 94099, "internal_node_id": "0.0-4.0-13.0"}}, {"uniqueid": "w48863498:a43764448", "current_trial": 18, "dateTime": 1664554976493, "trialdata": {"rt": 1219, "stimulus": "<p id='stroop-text' class='stroop-blue'>BLUE</p>", "response": "b", "stimulus-type": "congruent", "word": "blue", "color": "blue", "correct_response": "b", "trial_id": "stroop-trial-1-congruent-18", "trial_type": "html-keyboard-response", "trial_index": 18, "time_elapsed": 95820, "internal_node_id": "0.0-4.0-14.0"}}, {"uniqueid": "w48863498:a43764448", "current_trial": 19, "dateTime": 1664554977989, "trialdata": {"rt": 994, "stimulus": "<p id='stroop-text' class='stroop-red'>RED</p>", "response": "r", "stimulus-type": "congruent", "word": "red", "color": "red", "correct_response": "r", "trial_id": "stroop-trial-1-congruent-14", "trial_type": "html-keyboard-response", "trial_index": 19, "time_elapsed": 97316, "internal_node_id": "0.0-4.0-15.0"}}, {"uniqueid": "w48863498:a43764448", "current_trial": 20, "dateTime": 1664554980534, "trialdata": {"rt": 2043, "stimulus": "<p id='stroop-text' class='stroop-green'>STONE</p>", "response": "g", "stimulus-type": "unrelated", "word": "STONE", "color": "green", "correct_response": "g", "trial_id": "stroop-trial-1-unrelated-15", "trial_type": "html-keyboard-response", "trial_index": 20, "time_elapsed": 99860, "internal_node_id": "0.0-4.0-16.0"}}, {"uniqueid": "w48863498:a43764448", "current_trial": 21, "dateTime": 1664554981989, "trialdata": {"rt": 955, "stimulus": "<p id='stroop-text' class='stroop-green'>DOG</p>", "response": "g", "stimulus-type": "unrelated", "word": "DOG", "color": "green", "correct_response": "g", "trial_id": "stroop-trial-1-unrelated-19", "trial_type": "html-keyboard-response", "trial_index": 21, "time_elapsed": 101316, "internal_node_id": "0.0-4.0-17.0"}}, {"uniqueid": "w48863498:a43764448", "current_trial": 22, "dateTime": 1664554983678, "trialdata": {"rt": 1186, "stimulus": "<p id='stroop-text' class='stroop-red'>RED</p>", "response": "r", "stimulus-type": "congruent", "word": "red", "color": "red", "correct_response": "r", "trial_id": "stroop-trial-1-congruent-22", "trial_type": "html-keyboard-response", "trial_index": 22, "time_elapsed": 103004, "internal_node_id": "0.0-4.0-18.0"}}, {"uniqueid": "w48863498:a43764448", "current_trial": 23, "dateTime": 1664554985398, "trialdata": {"rt": 1219, "stimulus": "<p id='stroop-text' class='stroop-yellow'>GREEN</p>", "response": "y", "stimulus-type": "incongruent", "word": "green", "color": "yellow", "correct_response": "y", "trial_id": "stroop-trial-1-incongruent-26", "trial_type": "html-keyboard-response", "trial_index": 23, "time_elapsed": 104725, "internal_node_id": "0.0-4.0-19.0"}}, {"uniqueid": "w48863498:a43764448", "current_trial": 24, "dateTime": 1664554987334, "trialdata": {"rt": 1434, "stimulus": "<p id='stroop-text' class='stroop-red'>YELLOW</p>", "response": "r", "stimulus-type": "incongruent", "word": "yellow", "color": "red", "correct_response": "r", "trial_id": "stroop-trial-1-incongruent-13", "trial_type": "html-keyboard-response", "trial_index": 24, "time_elapsed": 106661, "internal_node_id": "0.0-4.0-20.0"}}, {"uniqueid": "w48863498:a43764448", "current_trial": 25, "dateTime": 1664554989022, "trialdata": {"rt": 1186, "stimulus": "<p id='stroop-text' class='stroop-green'>YELLOW</p>", "response": "g", "stimulus-type": "incongruent", "word": "yellow", "color": "green", "correct_response": "g", "trial_id": "stroop-trial-1-incongruent-1", "trial_type": "html-keyboard-response", "trial_index": 25, "time_elapsed": 108349, "internal_node_id": "0.0-4.0-21.0"}}, {"uniqueid": "w48863498:a43764448", "current_trial": 26, "dateTime": 1664554991151, "trialdata": {"rt": 1627, "stimulus": "<p id='stroop-text' class='stroop-blue'>FORK</p>", "response": "b", "stimulus-type": "unrelated", "word": "FORK", "color": "blue", "correct_response": "b", "trial_id": "stroop-trial-1-unrelated-8", "trial_type": "html-keyboard-response", "trial_index": 26, "time_elapsed": 110477, "internal_node_id": "0.0-4.0-22.0"}}, {"uniqueid": "w48863498:a43764448", "current_trial": 27, "dateTime": 1664554992903, "trialdata": {"rt": 1250, "stimulus": "<p id='stroop-text' class='stroop-yellow'>STONE</p>", "response": "y", "stimulus-type": "unrelated", "word": "STONE", "color": "yellow", "correct_response": "y", "trial_id": "stroop-trial-1-unrelated-26", "trial_type": "html-keyboard-response", "trial_index": 27, "time_elapsed": 112229, "internal_node_id": "0.0-4.0-23.0"}}, {"uniqueid": "w48863498:a43764448", "current_trial": 28, "dateTime": 1664554994583, "trialdata": {"rt": 1178, "stimulus": "<p id='stroop-text' class='stroop-green'>BRAIN</p>", "response": "g", "stimulus-type": "unrelated", "word": "BRAIN", "color": "green", "correct_response": "g", "trial_id": "stroop-trial-1-unrelated-18", "trial_type": "html-keyboard-response", "trial_index": 28, "time_elapsed": 113910, "internal_node_id": "0.0-4.0-24.0"}}, {"uniqueid": "w48863498:a43764448", "current_trial": 29, "dateTime": 1664554996751, "trialdata": {"rt": 1667, "stimulus": "<p id='stroop-text' class='stroop-blue'>BRIDGE</p>", "response": "b", "stimulus-type": "unrelated", "word": "BRIDGE", "color": "blue", "correct_response": "b", "trial_id": "stroop-trial-1-unrelated-21", "trial_type": "html-keyboard-response", "trial_index": 29, "time_elapsed": 116078, "internal_node_id": "0.0-4.0-25.0"}}, {"uniqueid": "w48863498:a43764448", "current_trial": 30, "dateTime": 1664554998335, "trialdata": {"rt": 1083, "stimulus": "<p id='stroop-text' class='stroop-green'>DOG</p>", "response": "g", "stimulus-type": "unrelated", "word": "DOG", "color": "green", "correct_response": "g", "trial_id": "stroop-trial-1-unrelated-16", "trial_type": "html-keyboard-response", "trial_index": 30, "time_elapsed": 117662, "internal_node_id": "0.0-4.0-26.0"}}, {"uniqueid": "w48863498:a43764448", "current_trial": 31, "dateTime": 1664555000088, "trialdata": {"rt": 1245, "stimulus": "<p id='stroop-text' class='stroop-blue'>STONE</p>", "response": "b", "stimulus-type": "unrelated", "word": "STONE", "color": "blue", "correct_response": "b", "trial_id": "stroop-trial-1-unrelated-7", "trial_type": "html-keyboard-response", "trial_index": 31, "time_elapsed": 119414, "internal_node_id": "0.0-4.0-27.0"}}, {"uniqueid": "w48863498:a43764448", "current_trial": 32, "dateTime": 1664555001680, "trialdata": {"rt": 1090, "stimulus": "<p id='stroop-text' class='stroop-green'>MONKEY</p>", "response": "g", "stimulus-type": "unrelated", "word": "MONKEY", "color": "green", "correct_response": "g", "trial_id": "stroop-trial-1-unrelated-27", "trial_type": "html-keyboard-response", "trial_index": 32, "time_elapsed": 121007, "internal_node_id": "0.0-4.0-28.0"}}, {"uniqueid": "w48863498:a43764448", "current_trial": 33, "dateTime": 1664555003104, "trialdata": {"rt": 922, "stimulus": "<p id='stroop-text' class='stroop-blue'>BRAIN</p>", "response": "b", "stimulus-type": "unrelated", "word": "BRAIN", "color": "blue", "correct_response": "b", "trial_id": "stroop-trial-1-unrelated-12", "trial_type": "html-keyboard-response", "trial_index": 33, "time_elapsed": 122431, "internal_node_id": "0.0-4.0-29.0"}}, {"uniqueid": "w48863498:a43764448", "current_trial": 34, "dateTime": 1664555004632, "trialdata": {"rt": 1026, "stimulus": "<p id='stroop-text' class='stroop-green'>BLUE</p>", "response": "g", "stimulus-type": "incongruent", "word": "blue", "color": "green", "correct_response": "g", "trial_id": "stroop-trial-1-incongruent-23", "trial_type": "html-keyboard-response", "trial_index": 34, "time_elapsed": 123959, "internal_node_id": "0.0-4.0-30.0"}}, {"uniqueid": "w48863498:a43764448", "current_trial": 35, "dateTime": 1664555006256, "trialdata": {"rt": 1122, "stimulus": "<p id='stroop-text' class='stroop-red'>BLUE</p>", "response": "r", "stimulus-type": "incongruent", "word": "blue", "color": "red", "correct_response": "r", "trial_id": "stroop-trial-1-incongruent-14", "trial_type": "html-keyboard-response", "trial_index": 35, "time_elapsed": 125583, "internal_node_id": "0.0-4.0-31.0"}}, {"uniqueid": "w48863498:a43764448", "current_trial": 36, "dateTime": 1664555007816, "trialdata": {"rt": 1058, "stimulus": "<p id='stroop-text' class='stroop-yellow'>RED</p>", "response": "y", "stimulus-type": "incongruent", "word": "red", "color": "yellow", "correct_response": "y", "trial_id": "stroop-trial-1-incongruent-18", "trial_type": "html-keyboard-response", "trial_index": 36, "time_elapsed": 127143, "internal_node_id": "0.0-4.0-32.0"}}, {"uniqueid": "w48863498:a43764448", "current_trial": 37, "dateTime": 1664555009689, "trialdata": {"rt": 1356, "stimulus": "<p id='stroop-text' class='stroop-green'>GREEN</p>", "response": "g", "stimulus-type": "congruent", "word": "green", "color": "green", "correct_response": "g", "trial_id": "stroop-trial-1-congruent-29", "trial_type": "html-keyboard-response", "trial_index": 37, "time_elapsed": 129015, "internal_node_id": "0.0-4.0-33.0"}}, {"uniqueid": "w48863498:a43764448", "current_trial": 38, "dateTime": 1664555011089, "trialdata": {"rt": 899, "stimulus": "<p id='stroop-text' class='stroop-green'>BRAIN</p>", "response": "g", "stimulus-type": "unrelated", "word": "BRAIN", "color": "green", "correct_response": "g", "trial_id": "stroop-trial-1-unrelated-2", "trial_type": "html-keyboard-response", "trial_index": 38, "time_elapsed": 130416, "internal_node_id": "0.0-4.0-34.0"}}, {"uniqueid": "w48863498:a43764448", "current_trial": 39, "dateTime": 1664555012873, "trialdata": {"rt": 1282, "stimulus": "<p id='stroop-text' class='stroop-yellow'>YELLOW</p>", "response": "y", "stimulus-type": "congruent", "word": "yellow", "color": "yellow", "correct_response": "y", "trial_id": "stroop-trial-1-congruent-10", "trial_type": "html-keyboard-response", "trial_index": 39, "time_elapsed": 132200, "internal_node_id": "0.0-4.0-35.0"}}, {"uniqueid": "w48863498:a43764448", "current_trial": 40, "dateTime": 1664555015193, "trialdata": {"rt": 1818, "stimulus": "<p id='stroop-text' class='stroop-red'>BRIDGE</p>", "response": "r", "stimulus-type": "unrelated", "word": "BRIDGE", "color": "red", "correct_response": "r", "trial_id": "stroop-trial-1-unrelated-29", "trial_type": "html-keyboard-response", "trial_index": 40, "time_elapsed": 134520, "internal_node_id": "0.0-4.0-36.0"}}, {"uniqueid": "w48863498:a43764448", "current_trial": 41, "dateTime": 1664555017514, "trialdata": {"rt": 1819, "stimulus": "<p id='stroop-text' class='stroop-green'>BLUE</p>", "response": "g", "stimulus-type": "incongruent", "word": "blue", "color": "green", "correct_response": "g", "trial_id": "stroop-trial-1-incongruent-25", "trial_type": "html-keyboard-response", "trial_index": 41, "time_elapsed": 136841, "internal_node_id": "0.0-4.0-37.0"}}, {"uniqueid": "w48863498:a43764448", "current_trial": 42, "dateTime": 1664555019642, "trialdata": {"rt": 1626, "stimulus": "<p id='stroop-text' class='stroop-blue'>RED</p>", "response": "b", "stimulus-type": "incongruent", "word": "red", "color": "blue", "correct_response": "b", "trial_id": "stroop-trial-1-incongruent-21", "trial_type": "html-keyboard-response", "trial_index": 42, "time_elapsed": 138969, "internal_node_id": "0.0-4.0-38.0"}}, {"uniqueid": "w48863498:a43764448", "current_trial": 43, "dateTime": 1664555021298, "trialdata": {"rt": 1153, "stimulus": "<p id='stroop-text' class='stroop-red'>BRIDGE</p>", "response": "r", "stimulus-type": "unrelated", "word": "BRIDGE", "color": "red", "correct_response": "r", "trial_id": "stroop-trial-1-unrelated-6", "trial_type": "html-keyboard-response", "trial_index": 43, "time_elapsed": 140625, "internal_node_id": "0.0-4.0-39.0"}}, {"uniqueid": "w48863498:a43764448", "current_trial": 44, "dateTime": 1664555023010, "trialdata": {"rt": 1210, "stimulus": "<p id='stroop-text' class='stroop-yellow'>GREEN</p>", "response": "y", "stimulus-type": "incongruent", "word": "green", "color": "yellow", "correct_response": "y", "trial_id": "stroop-trial-1-incongruent-22", "trial_type": "html-keyboard-response", "trial_index": 44, "time_elapsed": 142337, "internal_node_id": "0.0-4.0-40.0"}}, {"uniqueid": "w48863498:a43764448", "current_trial": 45, "dateTime": 1664555024698, "trialdata": {"rt": 1186, "stimulus": "<p id='stroop-text' class='stroop-red'>YELLOW</p>", "response": "r", "stimulus-type": "incongruent", "word": "yellow", "color": "red", "correct_response": "r", "trial_id": "stroop-trial-1-incongruent-28", "trial_type": "html-keyboard-response", "trial_index": 45, "time_elapsed": 144025, "internal_node_id": "0.0-4.0-41.0"}}, {"uniqueid": "w48863498:a43764448", "current_trial": 46, "dateTime": 1664555026131, "trialdata": {"rt": 930, "stimulus": "<p id='stroop-text' class='stroop-red'>YELLOW</p>", "response": "r", "stimulus-type": "incongruent", "word": "yellow", "color": "red", "correct_response": "r", "trial_id": "stroop-trial-1-incongruent-12", "trial_type": "html-keyboard-response", "trial_index": 46, "time_elapsed": 145458, "internal_node_id": "0.0-4.0-42.0"}}, {"uniqueid": "w48863498:a43764448", "current_trial": 47, "dateTime": 1664555027083, "trialdata": {"rt": 451, "stimulus": "<p id='stroop-text' class='stroop-red'>BLUE</p>", "response": "r", "stimulus-type": "incongruent", "word": "blue", "color": "red", "correct_response": "r", "trial_id": "stroop-trial-1-incongruent-7", "trial_type": "html-keyboard-response", "trial_index": 47, "time_elapsed": 146410, "internal_node_id": "0.0-4.0-43.0"}}, {"uniqueid": "w48863498:a43764448", "current_trial": 48, "dateTime": 1664555028547, "trialdata": {"rt": 962, "stimulus": "<p id='stroop-text' class='stroop-yellow'>GREEN</p>", "response": "y", "stimulus-type": "incongruent", "word": "green", "color": "yellow", "correct_response": "y", "trial_id": "stroop-trial-1-incongruent-24", "trial_type": "html-keyboard-response", "trial_index": 48, "time_elapsed": 147874, "internal_node_id": "0.0-4.0-44.0"}}, {"uniqueid": "w48863498:a43764448", "current_trial": 49, "dateTime": 1664555030547, "trialdata": {"rt": 1499, "stimulus": "<p id='stroop-text' class='stroop-yellow'>BRAIN</p>", "response": "y", "stimulus-type": "unrelated", "word": "BRAIN", "color": "yellow", "correct_response": "y", "trial_id": "stroop-trial-1-unrelated-25", "trial_type": "html-keyboard-response", "trial_index": 49, "time_elapsed": 149874, "internal_node_id": "0.0-4.0-45.0"}}, {"uniqueid": "w48863498:a43764448", "current_trial": 50, "dateTime": 1664555032363, "trialdata": {"rt": 1314, "stimulus": "<p id='stroop-text' class='stroop-green'>RED</p>", "response": "g", "stimulus-type": "incongruent", "word": "red", "color": "green", "correct_response": "g", "trial_id": "stroop-trial-1-incongruent-2", "trial_type": "html-keyboard-response", "trial_index": 50, "time_elapsed": 151690, "internal_node_id": "0.0-4.0-46.0"}}, {"uniqueid": "w48863498:a43764448", "current_trial": 51, "dateTime": 1664555034332, "trialdata": {"rt": 1467, "stimulus": "<p id='stroop-text' class='stroop-blue'>GREEN</p>", "response": "b", "stimulus-type": "incongruent", "word": "green", "color": "blue", "correct_response": "b", "trial_id": "stroop-trial-1-incongruent-11", "trial_type": "html-keyboard-response", "trial_index": 51, "time_elapsed": 153659, "internal_node_id": "0.0-4.0-47.0"}}, {"uniqueid": "w48863498:a43764448", "current_trial": 52, "dateTime": 1664555036020, "trialdata": {"rt": 1187, "stimulus": "<p id='stroop-text' class='stroop-blue'>GREEN</p>", "response": "b", "stimulus-type": "incongruent", "word": "green", "color": "blue", "correct_response": "b", "trial_id": "stroop-trial-1-incongruent-8", "trial_type": "html-keyboard-response", "trial_index": 52, "time_elapsed": 155347, "internal_node_id": "0.0-4.0-48.0"}}, {"uniqueid": "w48863498:a43764448", "current_trial": 53, "dateTime": 1664555038084, "trialdata": {"rt": 1552, "stimulus": "<p id='stroop-text' class='stroop-red'>RED</p>", "response": "r", "stimulus-type": "congruent", "word": "red", "color": "red", "correct_response": "r", "trial_id": "stroop-trial-1-congruent-7", "trial_type": "html-keyboard-response", "trial_index": 53, "time_elapsed": 157411, "internal_node_id": "0.0-4.0-49.0"}}, {"uniqueid": "w48863498:a43764448", "current_trial": 54, "dateTime": 1664555039517, "trialdata": {"rt": 930, "stimulus": "<p id='stroop-text' class='stroop-green'>DOG</p>", "response": "g", "stimulus-type": "unrelated", "word": "DOG", "color": "green", "correct_response": "g", "trial_id": "stroop-trial-1-unrelated-3", "trial_type": "html-keyboard-response", "trial_index": 54, "time_elapsed": 158843, "internal_node_id": "0.0-4.0-50.0"}}, {"uniqueid": "w48863498:a43764448", "current_trial": 55, "dateTime": 1664555040884, "trialdata": {"rt": 852, "stimulus": "<p id='stroop-text' class='stroop-yellow'>YELLOW</p>", "response": "y", "stimulus-type": "congruent", "word": "yellow", "color": "yellow", "correct_response": "y", "trial_id": "stroop-trial-1-congruent-8", "trial_type": "html-keyboard-response", "trial_index": 55, "time_elapsed": 160211, "internal_node_id": "0.0-4.0-51.0"}}, {"uniqueid": "w48863498:a43764448", "current_trial": 56, "dateTime": 1664555042317, "trialdata": {"rt": 930, "stimulus": "<p id='stroop-text' class='stroop-blue'>RED</p>", "response": "b", "stimulus-type": "incongruent", "word": "red", "color": "blue", "correct_response": "b", "trial_id": "stroop-trial-1-incongruent-29", "trial_type": "html-keyboard-response", "trial_index": 56, "time_elapsed": 161643, "internal_node_id": "0.0-4.0-52.0"}}, {"uniqueid": "w48863498:a43764448", "current_trial": 57, "dateTime": 1664555044061, "trialdata": {"rt": 1243, "stimulus": "<p id='stroop-text' class='stroop-yellow'>SHIP</p>", "response": "y", "stimulus-type": "unrelated", "word": "SHIP", "color": "yellow", "correct_response": "y", "trial_id": "stroop-trial-1-unrelated-13", "trial_type": "html-keyboard-response", "trial_index": 57, "time_elapsed": 163388, "internal_node_id": "0.0-4.0-53.0"}}, {"uniqueid": "w48863498:a43764448", "current_trial": 58, "dateTime": 1664555045845, "trialdata": {"rt": 1282, "stimulus": "<p id='stroop-text' class='stroop-blue'>BLUE</p>", "response": "b", "stimulus-type": "congruent", "word": "blue", "color": "blue", "correct_response": "b", "trial_id": "stroop-trial-1-congruent-1", "trial_type": "html-keyboard-response", "trial_index": 58, "time_elapsed": 165172, "internal_node_id": "0.0-4.0-54.0"}}, {"uniqueid": "w48863498:a43764448", "current_trial": 59, "dateTime": 1664555047309, "trialdata": {"rt": 962, "stimulus": "<p id='stroop-text' class='stroop-yellow'>YELLOW</p>", "response": "y", "stimulus-type": "congruent", "word": "yellow", "color": "yellow", "correct_response": "y", "trial_id": "stroop-trial-1-congruent-13", "trial_type": "html-keyboard-response", "trial_index": 59, "time_elapsed": 166636, "internal_node_id": "0.0-4.0-55.0"}}, {"uniqueid": "w48863498:a43764448", "current_trial": 60, "dateTime": 1664555048989, "trialdata": {"rt": 1178, "stimulus": "<p id='stroop-text' class='stroop-red'>RED</p>", "response": "r", "stimulus-type": "congruent", "word": "red", "color": "red", "correct_response": "r", "trial_id": "stroop-trial-1-congruent-20", "trial_type": "html-keyboard-response", "trial_index": 60, "time_elapsed": 168316, "internal_node_id": "0.0-4.0-56.0"}}, {"uniqueid": "w48863498:a43764448", "current_trial": 61, "dateTime": 1664555050422, "trialdata": {"rt": 930, "stimulus": "<p id='stroop-text' class='stroop-green'>MONKEY</p>", "response": "g", "stimulus-type": "unrelated", "word": "MONKEY", "color": "green", "correct_response": "g", "trial_id": "stroop-trial-1-unrelated-5", "trial_type": "html-keyboard-response", "trial_index": 61, "time_elapsed": 169748, "internal_node_id": "0.0-4.0-57.0"}}, {"uniqueid": "w48863498:a43764448", "current_trial": 62, "dateTime": 1664555051438, "trialdata": {"rt": 514, "stimulus": "<p id='stroop-text' class='stroop-green'>GREEN</p>", "response": "g", "stimulus-type": "congruent", "word": "green", "color": "green", "correct_response": "g", "trial_id": "stroop-trial-1-congruent-2", "trial_type": "html-keyboard-response", "trial_index": 62, "time_elapsed": 170764, "internal_node_id": "0.0-4.0-58.0"}}, {"uniqueid": "w48863498:a43764448", "current_trial": 63, "dateTime": 1664555052934, "trialdata": {"rt": 994, "stimulus": "<p id='stroop-text' class='stroop-yellow'>SHIP</p>", "response": "y", "stimulus-type": "unrelated", "word": "SHIP", "color": "yellow", "correct_response": "y", "trial_id": "stroop-trial-1-unrelated-23", "trial_type": "html-keyboard-response", "trial_index": 63, "time_elapsed": 172261, "internal_node_id": "0.0-4.0-59.0"}}, {"uniqueid": "w48863498:a43764448", "current_trial": 64, "dateTime": 1664555054366, "trialdata": {"rt": 929, "stimulus": "<p id='stroop-text' class='stroop-red'>RED</p>", "response": "r", "stimulus-type": "congruent", "word": "red", "color": "red", "correct_response": "r", "trial_id": "stroop-trial-1-congruent-17", "trial_type": "html-keyboard-response", "trial_index": 64, "time_elapsed": 173693, "internal_node_id": "0.0-4.0-60.0"}}, {"uniqueid": "w48863498:a43764448", "current_trial": 65, "dateTime": 1664555055926, "trialdata": {"rt": 1049, "stimulus": "<p id='stroop-text' class='stroop-yellow'>SHIP</p>", "response": "y", "stimulus-type": "unrelated", "word": "SHIP", "color": "yellow", "correct_response": "y", "trial_id": "stroop-trial-1-unrelated-1", "trial_type": "html-keyboard-response", "trial_index": 65, "time_elapsed": 175253, "internal_node_id": "0.0-4.0-61.0"}}, {"uniqueid": "w48863498:a43764448", "current_trial": 66, "dateTime": 1664555057422, "trialdata": {"rt": 994, "stimulus": "<p id='stroop-text' class='stroop-blue'>YELLOW</p>", "response": "b", "stimulus-type": "incongruent", "word": "yellow", "color": "blue", "correct_response": "b", "trial_id": "stroop-trial-1-incongruent-16", "trial_type": "html-keyboard-response", "trial_index": 66, "time_elapsed": 176749, "internal_node_id": "0.0-4.0-62.0"}}, {"uniqueid": "w48863498:a43764448", "current_trial": 67, "dateTime": 1664555058918, "trialdata": {"rt": 994, "stimulus": "<p id='stroop-text' class='stroop-green'>GREEN</p>", "response": "g", "stimulus-type": "congruent", "word": "green", "color": "green", "correct_response": "g", "trial_id": "stroop-trial-1-congruent-30", "trial_type": "html-keyboard-response", "trial_index": 67, "time_elapsed": 178245, "internal_node_id": "0.0-4.0-63.0"}}, {"uniqueid": "w48863498:a43764448", "current_trial": 68, "dateTime": 1664555060567, "trialdata": {"rt": 1146, "stimulus": "<p id='stroop-text' class='stroop-red'>YELLOW</p>", "response": "r", "stimulus-type": "incongruent", "word": "yellow", "color": "red", "correct_response": "r", "trial_id": "stroop-trial-1-incongruent-3", "trial_type": "html-keyboard-response", "trial_index": 68, "time_elapsed": 179893, "internal_node_id": "0.0-4.0-64.0"}}, {"uniqueid": "w48863498:a43764448", "current_trial": 69, "dateTime": 1664555062671, "trialdata": {"rt": 1602, "stimulus": "<p id='stroop-text' class='stroop-red'>BRIDGE</p>", "response": "r", "stimulus-type": "unrelated", "word": "BRIDGE", "color": "red", "correct_response": "r", "trial_id": "stroop-trial-1-unrelated-14", "trial_type": "html-keyboard-response", "trial_index": 69, "time_elapsed": 181998, "internal_node_id": "0.0-4.0-65.0"}}, {"uniqueid": "w48863498:a43764448", "current_trial": 70, "dateTime": 1664555064767, "trialdata": {"rt": 1594, "stimulus": "<p id='stroop-text' class='stroop-yellow'>GREEN</p>", "response": "y", "stimulus-type": "incongruent", "word": "green", "color": "yellow", "correct_response": "y", "trial_id": "stroop-trial-1-incongruent-17", "trial_type": "html-keyboard-response", "trial_index": 70, "time_elapsed": 184094, "internal_node_id": "0.0-4.0-66.0"}}, {"uniqueid": "w48863498:a43764448", "current_trial": 71, "dateTime": 1664555066103, "trialdata": {"rt": 834, "stimulus": "<p id='stroop-text' class='stroop-yellow'>RED</p>", "response": "y", "stimulus-type": "incongruent", "word": "red", "color": "yellow", "correct_response": "y", "trial_id": "stroop-trial-1-incongruent-19", "trial_type": "html-keyboard-response", "trial_index": 71, "time_elapsed": 185430, "internal_node_id": "0.0-4.0-67.0"}}, {"uniqueid": "w48863498:a43764448", "current_trial": 72, "dateTime": 1664555067375, "trialdata": {"rt": 770, "stimulus": "<p id='stroop-text' class='stroop-blue'>BLUE</p>", "response": "b", "stimulus-type": "congruent", "word": "blue", "color": "blue", "correct_response": "b", "trial_id": "stroop-trial-1-congruent-19", "trial_type": "html-keyboard-response", "trial_index": 72, "time_elapsed": 186702, "internal_node_id": "0.0-4.0-68.0"}}, {"uniqueid": "w48863498:a43764448", "current_trial": 73, "dateTime": 1664555069728, "trialdata": {"rt": 1836, "stimulus": "<p id='stroop-text' class='stroop-blue'>STONE</p>", "response": "b", "stimulus-type": "unrelated", "word": "STONE", "color": "blue", "correct_response": "b", "trial_id": "stroop-trial-1-unrelated-11", "trial_type": "html-keyboard-response", "trial_index": 73, "time_elapsed": 189055, "internal_node_id": "0.0-4.0-69.0"}}, {"uniqueid": "w48863498:a43764448", "current_trial": 74, "dateTime": 1664555071192, "trialdata": {"rt": 962, "stimulus": "<p id='stroop-text' class='stroop-yellow'>YELLOW</p>", "response": "y", "stimulus-type": "congruent", "word": "yellow", "color": "yellow", "correct_response": "y", "trial_id": "stroop-trial-1-congruent-12", "trial_type": "html-keyboard-response", "trial_index": 74, "time_elapsed": 190519, "internal_node_id": "0.0-4.0-70.0"}}, {"uniqueid": "w48863498:a43764448", "current_trial": 75, "dateTime": 1664555072560, "trialdata": {"rt": 866, "stimulus": "<p id='stroop-text' class='stroop-yellow'>BOAT</p>", "response": "b", "stimulus-type": "unrelated", "word": "BOAT", "color": "yellow", "correct_response": "y", "trial_id": "stroop-trial-1-unrelated-4", "trial_type": "html-keyboard-response", "trial_index": 75, "time_elapsed": 191887, "internal_node_id": "0.0-4.0-71.0"}}, {"uniqueid": "w48863498:a43764448", "current_trial": 76, "dateTime": 1664555074184, "trialdata": {"rt": 1122, "stimulus": "<p id='stroop-text' class='stroop-red'>RED</p>", "response": "r", "stimulus-type": "congruent", "word": "red", "color": "red", "correct_response": "r", "trial_id": "stroop-trial-1-congruent-16", "trial_type": "html-keyboard-response", "trial_index": 76, "time_elapsed": 193511, "internal_node_id": "0.0-4.0-72.0"}}, {"uniqueid": "w48863498:a43764448", "current_trial": 77, "dateTime": 1664555075672, "trialdata": {"rt": 986, "stimulus": "<p id='stroop-text' class='stroop-blue'>BLUE</p>", "response": "b", "stimulus-type": "congruent", "word": "blue", "color": "blue", "correct_response": "b", "trial_id": "stroop-trial-1-congruent-5", "trial_type": "html-keyboard-response", "trial_index": 77, "time_elapsed": 194999, "internal_node_id": "0.0-4.0-73.0"}}, {"uniqueid": "w48863498:a43764448", "current_trial": 78, "dateTime": 1664555076665, "trialdata": {"rt": 490, "stimulus": "<p id='stroop-text' class='stroop-blue'>BLUE</p>", "response": "b", "stimulus-type": "congruent", "word": "blue", "color": "blue", "correct_response": "b", "trial_id": "stroop-trial-1-congruent-11", "trial_type": "html-keyboard-response", "trial_index": 78, "time_elapsed": 195991, "internal_node_id": "0.0-4.0-74.0"}}, {"uniqueid": "w48863498:a43764448", "current_trial": 79, "dateTime": 1664555078121, "trialdata": {"rt": 954, "stimulus": "<p id='stroop-text' class='stroop-green'>GREEN</p>", "response": "g", "stimulus-type": "congruent", "word": "green", "color": "green", "correct_response": "g", "trial_id": "stroop-trial-1-congruent-21", "trial_type": "html-keyboard-response", "trial_index": 79, "time_elapsed": 197447, "internal_node_id": "0.0-4.0-75.0"}}, {"uniqueid": "w48863498:a43764448", "current_trial": 80, "dateTime": 1664555079649, "trialdata": {"rt": 1027, "stimulus": "<p id='stroop-text' class='stroop-yellow'>GREEN</p>", "response": "y", "stimulus-type": "incongruent", "word": "green", "color": "yellow", "correct_response": "y", "trial_id": "stroop-trial-1-incongruent-15", "trial_type": "html-keyboard-response", "trial_index": 80, "time_elapsed": 198976, "internal_node_id": "0.0-4.0-76.0"}}, {"uniqueid": "w48863498:a43764448", "current_trial": 81, "dateTime": 1664555081017, "trialdata": {"rt": 866, "stimulus": "<p id='stroop-text' class='stroop-red'>DOG</p>", "response": "r", "stimulus-type": "unrelated", "word": "DOG", "color": "red", "correct_response": "r", "trial_id": "stroop-trial-1-unrelated-9", "trial_type": "html-keyboard-response", "trial_index": 81, "time_elapsed": 200344, "internal_node_id": "0.0-4.0-77.0"}}, {"uniqueid": "w48863498:a43764448", "current_trial": 82, "dateTime": 1664555082801, "trialdata": {"rt": 1283, "stimulus": "<p id='stroop-text' class='stroop-blue'>BLUE</p>", "response": "b", "stimulus-type": "congruent", "word": "blue", "color": "blue", "correct_response": "b", "trial_id": "stroop-trial-1-congruent-9", "trial_type": "html-keyboard-response", "trial_index": 82, "time_elapsed": 202128, "internal_node_id": "0.0-4.0-78.0"}}, {"uniqueid": "w48863498:a43764448", "current_trial": 83, "dateTime": 1664555088970, "trialdata": {"rt": 5667, "stimulus": "<p id='stroop-text' class='stroop-blue'>GREEN</p>", "response": "b", "stimulus-type": "incongruent", "word": "green", "color": "blue", "correct_response": "b", "trial_id": "stroop-trial-1-incongruent-6", "trial_type": "html-keyboard-response", "trial_index": 83, "time_elapsed": 208297, "internal_node_id": "0.0-4.0-79.0"}}, {"uniqueid": "w48863498:a43764448", "current_trial": 84, "dateTime": 1664555090466, "trialdata": {"rt": 994, "stimulus": "<p id='stroop-text' class='stroop-blue'>BLUE</p>", "response": "b", "stimulus-type": "congruent", "word": "blue", "color": "blue", "correct_response": "b", "trial_id": "stroop-trial-1-congruent-15", "trial_type": "html-keyboard-response", "trial_index": 84, "time_elapsed": 209793, "internal_node_id": "0.0-4.0-80.0"}}, {"uniqueid": "w48863498:a43764448", "current_trial": 85, "dateTime": 1664555092026, "trialdata": {"rt": 1055, "stimulus": "<p id='stroop-text' class='stroop-blue'>YELLOW</p>", "response": "b", "stimulus-type": "incongruent", "word": "yellow", "color": "blue", "correct_response": "b", "trial_id": "stroop-trial-1-incongruent-9", "trial_type": "html-keyboard-response", "trial_index": 85, "time_elapsed": 211353, "internal_node_id": "0.0-4.0-81.0"}}, {"uniqueid": "w48863498:a43764448", "current_trial": 86, "dateTime": 1664555093386, "trialdata": {"rt": 858, "stimulus": "<p id='stroop-text' class='stroop-red'>STONE</p>", "response": "r", "stimulus-type": "unrelated", "word": "STONE", "color": "red", "correct_response": "r", "trial_id": "stroop-trial-1-unrelated-20", "trial_type": "html-keyboard-response", "trial_index": 86, "time_elapsed": 212713, "internal_node_id": "0.0-4.0-82.0"}}, {"uniqueid": "w48863498:a43764448", "current_trial": 87, "dateTime": 1664555094442, "trialdata": {"rt": 543, "stimulus": "<p id='stroop-text' class='stroop-red'>RED</p>", "response": "r", "stimulus-type": "congruent", "word": "red", "color": "red", "correct_response": "r", "trial_id": "stroop-trial-1-congruent-26", "trial_type": "html-keyboard-response", "trial_index": 87, "time_elapsed": 213769, "internal_node_id": "0.0-4.0-83.0"}}, {"uniqueid": "w48863498:a43764448", "current_trial": 88, "dateTime": 1664555095994, "trialdata": {"rt": 1050, "stimulus": "<p id='stroop-text' class='stroop-yellow'>FORK</p>", "response": "y", "stimulus-type": "unrelated", "word": "FORK", "color": "yellow", "correct_response": "y", "trial_id": "stroop-trial-1-unrelated-17", "trial_type": "html-keyboard-response", "trial_index": 88, "time_elapsed": 215321, "internal_node_id": "0.0-4.0-84.0"}}, {"uniqueid": "w48863498:a43764448", "current_trial": 89, "dateTime": 1664555097331, "trialdata": {"rt": 833, "stimulus": "<p id='stroop-text' class='stroop-red'>RED</p>", "response": "r", "stimulus-type": "congruent", "word": "red", "color": "red", "correct_response": "r", "trial_id": "stroop-trial-1-congruent-4", "trial_type": "html-keyboard-response", "trial_index": 89, "time_elapsed": 216657, "internal_node_id": "0.0-4.0-85.0"}}, {"uniqueid": "w48863498:a43764448", "current_trial": 90, "dateTime": 1664555099339, "trialdata": {"rt": 1507, "stimulus": "<p id='stroop-text' class='stroop-blue'>BLUE</p>", "response": "b", "stimulus-type": "congruent", "word": "blue", "color": "blue", "correct_response": "b", "trial_id": "stroop-trial-1-congruent-3", "trial_type": "html-keyboard-response", "trial_index": 90, "time_elapsed": 218666, "internal_node_id": "0.0-4.0-86.0"}}, {"uniqueid": "w48863498:a43764448", "current_trial": 91, "dateTime": 1664555100707, "trialdata": {"rt": 865, "stimulus": "<p id='stroop-text' class='stroop-yellow'>YELLOW</p>", "response": "y", "stimulus-type": "congruent", "word": "yellow", "color": "yellow", "correct_response": "y", "trial_id": "stroop-trial-1-congruent-6", "trial_type": "html-keyboard-response", "trial_index": 91, "time_elapsed": 220034, "internal_node_id": "0.0-4.0-87.0"}}, {"uniqueid": "w48863498:a43764448", "current_trial": 92, "dateTime": 1664555102611, "trialdata": {"rt": 1402, "stimulus": "<p id='stroop-text' class='stroop-red'>RED</p>", "response": "r", "stimulus-type": "congruent", "word": "red", "color": "red", "correct_response": "r", "trial_id": "stroop-trial-1-congruent-28", "trial_type": "html-keyboard-response", "trial_index": 92, "time_elapsed": 221938, "internal_node_id": "0.0-4.0-88.0"}}, {"uniqueid": "w48863498:a43764448", "current_trial": 93, "dateTime": 1664555104867, "trialdata": {"rt": 1754, "stimulus": "<p id='stroop-text' class='stroop-green'>BLUE</p>", "response": "g", "stimulus-type": "incongruent", "word": "blue", "color": "green", "correct_response": "g", "trial_id": "stroop-trial-1-incongruent-20", "trial_type": "html-keyboard-response", "trial_index": 93, "time_elapsed": 224194, "internal_node_id": "0.0-4.0-89.0"}}, {"uniqueid": "w48863498:a43764448", "current_trial": 94, "dateTime": 1664555150665, "trialdata": {"rt": 45294, "stimulus": "  <h1> End of block! </h1>\n\n  You have reached the end of the block 1/5. If you need a short break, feel free to take one now before moving on.\n\n  <br><br>\n  In the next block, you will complete another 90 rounds of this game.\n\n  <br><br>\n  <div style='text-align: center;'>Press <code>space</code> to begin.</div>\n  <br><br>\n<div style='text-align: center;'>(If the experiment doesn't continue, try clicking on the text and then pressing <code>space</code>.)</div>", "response": " ", "trial_id": "stroop_1_ready_2", "trial_type": "html-keyboard-response", "trial_index": 94, "time_elapsed": 269992, "internal_node_id": "0.0-5.0"}}, {"uniqueid": "w48863498:a43764448", "current_trial": 95, "dateTime": 1664555151745, "trialdata": {"rt": 1078, "stimulus": "<p id='stroop-text' class='stroop-red'>BLUE</p>", "response": "r", "stimulus-type": "incongruent", "word": "blue", "color": "red", "correct_response": "r", "trial_id": "stroop-trial-1-incongruent-11", "trial_type": "html-keyboard-response", "trial_index": 95, "time_elapsed": 271072, "internal_node_id": "0.0-6.0-0.0"}}, {"uniqueid": "w48863498:a43764448", "current_trial": 96, "dateTime": 1664555153561, "trialdata": {"rt": 1314, "stimulus": "<p id='stroop-text' class='stroop-yellow'>RED</p>", "response": "y", "stimulus-type": "incongruent", "word": "red", "color": "yellow", "correct_response": "y", "trial_id": "stroop-trial-1-incongruent-16", "trial_type": "html-keyboard-response", "trial_index": 96, "time_elapsed": 272888, "internal_node_id": "0.0-6.0-1.0"}}, {"uniqueid": "w48863498:a43764448", "current_trial": 97, "dateTime": 1664555154865, "trialdata": {"rt": 802, "stimulus": "<p id='stroop-text' class='stroop-yellow'>YELLOW</p>", "response": "y", "stimulus-type": "congruent", "word": "yellow", "color": "yellow", "correct_response": "y", "trial_id": "stroop-trial-1-congruent-29", "trial_type": "html-keyboard-response", "trial_index": 97, "time_elapsed": 274192, "internal_node_id": "0.0-6.0-2.0"}}, {"uniqueid": "w48863498:a43764448", "current_trial": 98, "dateTime": 1664555156042, "trialdata": {"rt": 674, "stimulus": "<p id='stroop-text' class='stroop-red'>BRIDGE</p>", "response": "r", "stimulus-type": "unrelated", "word": "BRIDGE", "color": "red", "correct_response": "r", "trial_id": "stroop-trial-1-unrelated-27", "trial_type": "html-keyboard-response", "trial_index": 98, "time_elapsed": 275368, "internal_node_id": "0.0-6.0-3.0"}}, {"uniqueid": "w48863498:a43764448", "current_trial": 99, "dateTime": 1664555157442, "trialdata": {"rt": 898, "stimulus": "<p id='stroop-text' class='stroop-green'>SHIP</p>", "response": "g", "stimulus-type": "unrelated", "word": "SHIP", "color": "green", "correct_response": "g", "trial_id": "stroop-trial-1-unrelated-29", "trial_type": "html-keyboard-response", "trial_index": 99, "time_elapsed": 276769, "internal_node_id": "0.0-6.0-4.0"}}, {"uniqueid": "w48863498:a43764448", "current_trial": 100, "dateTime": 1664555159218, "trialdata": {"rt": 1275, "stimulus": "<p id='stroop-text' class='stroop-blue'>GREEN</p>", "response": "b", "stimulus-type": "incongruent", "word": "green", "color": "blue", "correct_response": "b", "trial_id": "stroop-trial-1-incongruent-21", "trial_type": "html-keyboard-response", "trial_index": 100, "time_elapsed": 278545, "internal_node_id": "0.0-6.0-5.0"}}, {"uniqueid": "w48863498:a43764448", "current_trial": 101, "dateTime": 1664555160618, "trialdata": {"rt": 898, "stimulus": "<p id='stroop-text' class='stroop-yellow'>YELLOW</p>", "response": "y", "stimulus-type": "congruent", "word": "yellow", "color": "yellow", "correct_response": "y", "trial_id": "stroop-trial-1-congruent-17", "trial_type": "html-keyboard-response", "trial_index": 101, "time_elapsed": 279945, "internal_node_id": "0.0-6.0-6.0"}}, {"uniqueid": "w48863498:a43764448", "current_trial": 102, "dateTime": 1664555162659, "trialdata": {"rt": 1538, "stimulus": "<p id='stroop-text' class='stroop-green'>GREEN</p>", "response": "g", "stimulus-type": "congruent", "word": "green", "color": "green", "correct_response": "g", "trial_id": "stroop-trial-1-congruent-3", "trial_type": "html-keyboard-response", "trial_index": 102, "time_elapsed": 281985, "internal_node_id": "0.0-6.0-7.0"}}, {"uniqueid": "w48863498:a43764448", "current_trial": 103, "dateTime": 1664555164154, "trialdata": {"rt": 994, "stimulus": "<p id='stroop-text' class='stroop-blue'>YELLOW</p>", "response": "b", "stimulus-type": "incongruent", "word": "yellow", "color": "blue", "correct_response": "b", "trial_id": "stroop-trial-1-incongruent-25", "trial_type": "html-keyboard-response", "trial_index": 103, "time_elapsed": 283481, "internal_node_id": "0.0-6.0-8.0"}}, {"uniqueid": "w48863498:a43764448", "current_trial": 104, "dateTime": 1664555165611, "trialdata": {"rt": 954, "stimulus": "<p id='stroop-text' class='stroop-green'>RED</p>", "response": "g", "stimulus-type": "incongruent", "word": "red", "color": "green", "correct_response": "g", "trial_id": "stroop-trial-1-incongruent-4", "trial_type": "html-keyboard-response", "trial_index": 104, "time_elapsed": 284937, "internal_node_id": "0.0-6.0-9.0"}}, {"uniqueid": "w48863498:a43764448", "current_trial": 105, "dateTime": 1664555166947, "trialdata": {"rt": 834, "stimulus": "<p id='stroop-text' class='stroop-green'>MONKEY</p>", "response": "g", "stimulus-type": "unrelated", "word": "MONKEY", "color": "green", "correct_response": "g", "trial_id": "stroop-trial-1-unrelated-4", "trial_type": "html-keyboard-response", "trial_index": 105, "time_elapsed": 286274, "internal_node_id": "0.0-6.0-10.0"}}, {"uniqueid": "w48863498:a43764448", "current_trial": 106, "dateTime": 1664555168219, "trialdata": {"rt": 758, "stimulus": "<p id='stroop-text' class='stroop-green'>DOG</p>", "response": "g", "stimulus-type": "unrelated", "word": "DOG", "color": "green", "correct_response": "g", "trial_id": "stroop-trial-1-unrelated-14", "trial_type": "html-keyboard-response", "trial_index": 106, "time_elapsed": 287546, "internal_node_id": "0.0-6.0-11.0"}}, {"uniqueid": "w48863498:a43764448", "current_trial": 107, "dateTime": 1664555169683, "trialdata": {"rt": 961, "stimulus": "<p id='stroop-text' class='stroop-blue'>RED</p>", "response": "b", "stimulus-type": "incongruent", "word": "red", "color": "blue", "correct_response": "b", "trial_id": "stroop-trial-1-incongruent-29", "trial_type": "html-keyboard-response", "trial_index": 107, "time_elapsed": 289010, "internal_node_id": "0.0-6.0-12.0"}}, {"uniqueid": "w48863498:a43764448", "current_trial": 108, "dateTime": 1664555170731, "trialdata": {"rt": 546, "stimulus": "<p id='stroop-text' class='stroop-blue'>BOAT</p>", "response": "b", "stimulus-type": "unrelated", "word": "BOAT", "color": "blue", "correct_response": "b", "trial_id": "stroop-trial-1-unrelated-26", "trial_type": "html-keyboard-response", "trial_index": 108, "time_elapsed": 290058, "internal_node_id": "0.0-6.0-13.0"}}, {"uniqueid": "w48863498:a43764448", "current_trial": 109, "dateTime": 1664555172227, "trialdata": {"rt": 994, "stimulus": "<p id='stroop-text' class='stroop-yellow'>YELLOW</p>", "response": "y", "stimulus-type": "congruent", "word": "yellow", "color": "yellow", "correct_response": "y", "trial_id": "stroop-trial-1-congruent-9", "trial_type": "html-keyboard-response", "trial_index": 109, "time_elapsed": 291554, "internal_node_id": "0.0-6.0-14.0"}}, {"uniqueid": "w48863498:a43764448", "current_trial": 110, "dateTime": 1664555173532, "trialdata": {"rt": 802, "stimulus": "<p id='stroop-text' class='stroop-yellow'>GREEN</p>", "response": "y", "stimulus-type": "incongruent", "word": "green", "color": "yellow", "correct_response": "y", "trial_id": "stroop-trial-1-incongruent-2", "trial_type": "html-keyboard-response", "trial_index": 110, "time_elapsed": 292859, "internal_node_id": "0.0-6.0-15.0"}}, {"uniqueid": "w48863498:a43764448", "current_trial": 111, "dateTime": 1664555175156, "trialdata": {"rt": 1122, "stimulus": "<p id='stroop-text' class='stroop-red'>YELLOW</p>", "response": "r", "stimulus-type": "incongruent", "word": "yellow", "color": "red", "correct_response": "r", "trial_id": "stroop-trial-1-incongruent-23", "trial_type": "html-keyboard-response", "trial_index": 111, "time_elapsed": 294483, "internal_node_id": "0.0-6.0-16.0"}}, {"uniqueid": "w48863498:a43764448", "current_trial": 112, "dateTime": 1664555176396, "trialdata": {"rt": 738, "stimulus": "<p id='stroop-text' class='stroop-red'>GREEN</p>", "response": "r", "stimulus-type": "incongruent", "word": "green", "color": "red", "correct_response": "r", "trial_id": "stroop-trial-1-incongruent-5", "trial_type": "html-keyboard-response", "trial_index": 112, "time_elapsed": 295723, "internal_node_id": "0.0-6.0-17.0"}}, {"uniqueid": "w48863498:a43764448", "current_trial": 113, "dateTime": 1664555177540, "trialdata": {"rt": 641, "stimulus": "<p id='stroop-text' class='stroop-red'>RED</p>", "response": "r", "stimulus-type": "congruent", "word": "red", "color": "red", "correct_response": "r", "trial_id": "stroop-trial-1-congruent-23", "trial_type": "html-keyboard-response", "trial_index": 113, "time_elapsed": 296867, "internal_node_id": "0.0-6.0-18.0"}}, {"uniqueid": "w48863498:a43764448", "current_trial": 114, "dateTime": 1664555178844, "trialdata": {"rt": 802, "stimulus": "<p id='stroop-text' class='stroop-blue'>BOAT</p>", "response": "b", "stimulus-type": "unrelated", "word": "BOAT", "color": "blue", "correct_response": "b", "trial_id": "stroop-trial-1-unrelated-17", "trial_type": "html-keyboard-response", "trial_index": 114, "time_elapsed": 298171, "internal_node_id": "0.0-6.0-19.0"}}, {"uniqueid": "w48863498:a43764448", "current_trial": 115, "dateTime": 1664555180084, "trialdata": {"rt": 738, "stimulus": "<p id='stroop-text' class='stroop-blue'>CHAIR</p>", "response": "b", "stimulus-type": "unrelated", "word": "CHAIR", "color": "blue", "correct_response": "b", "trial_id": "stroop-trial-1-unrelated-16", "trial_type": "html-keyboard-response", "trial_index": 115, "time_elapsed": 299411, "internal_node_id": "0.0-6.0-20.0"}}, {"uniqueid": "w48863498:a43764448", "current_trial": 116, "dateTime": 1664555181677, "trialdata": {"rt": 1089, "stimulus": "<p id='stroop-text' class='stroop-yellow'>RED</p>", "response": "y", "stimulus-type": "incongruent", "word": "red", "color": "yellow", "correct_response": "y", "trial_id": "stroop-trial-1-incongruent-15", "trial_type": "html-keyboard-response", "trial_index": 116, "time_elapsed": 301003, "internal_node_id": "0.0-6.0-21.0"}}, {"uniqueid": "w48863498:a43764448", "current_trial": 117, "dateTime": 1664555182885, "trialdata": {"rt": 699, "stimulus": "<p id='stroop-text' class='stroop-yellow'>RED</p>", "response": "y", "stimulus-type": "incongruent", "word": "red", "color": "yellow", "correct_response": "y", "trial_id": "stroop-trial-1-incongruent-30", "trial_type": "html-keyboard-response", "trial_index": 117, "time_elapsed": 302211, "internal_node_id": "0.0-6.0-22.0"}}, {"uniqueid": "w48863498:a43764448", "current_trial": 118, "dateTime": 1664555184541, "trialdata": {"rt": 1153, "stimulus": "<p id='stroop-text' class='stroop-blue'>RED</p>", "response": "b", "stimulus-type": "incongruent", "word": "red", "color": "blue", "correct_response": "b", "trial_id": "stroop-trial-1-incongruent-7", "trial_type": "html-keyboard-response", "trial_index": 118, "time_elapsed": 303868, "internal_node_id": "0.0-6.0-23.0"}}, {"uniqueid": "w48863498:a43764448", "current_trial": 119, "dateTime": 1664555186061, "trialdata": {"rt": 1017, "stimulus": "<p id='stroop-text' class='stroop-red'>RED</p>", "response": "r", "stimulus-type": "congruent", "word": "red", "color": "red", "correct_response": "r", "trial_id": "stroop-trial-1-congruent-8", "trial_type": "html-keyboard-response", "trial_index": 119, "time_elapsed": 305388, "internal_node_id": "0.0-6.0-24.0"}}, {"uniqueid": "w48863498:a43764448", "current_trial": 120, "dateTime": 1664555187429, "trialdata": {"rt": 866, "stimulus": "<p id='stroop-text' class='stroop-yellow'>RED</p>", "response": "y", "stimulus-type": "incongruent", "word": "red", "color": "yellow", "correct_response": "y", "trial_id": "stroop-trial-1-incongruent-14", "trial_type": "html-keyboard-response", "trial_index": 120, "time_elapsed": 306756, "internal_node_id": "0.0-6.0-25.0"}}, {"uniqueid": "w48863498:a43764448", "current_trial": 121, "dateTime": 1664555188797, "trialdata": {"rt": 866, "stimulus": "<p id='stroop-text' class='stroop-yellow'>BOTTLE</p>", "response": "y", "stimulus-type": "unrelated", "word": "BOTTLE", "color": "yellow", "correct_response": "y", "trial_id": "stroop-trial-1-unrelated-15", "trial_type": "html-keyboard-response", "trial_index": 121, "time_elapsed": 308124, "internal_node_id": "0.0-6.0-26.0"}}, {"uniqueid": "w48863498:a43764448", "current_trial": 122, "dateTime": 1664555191118, "trialdata": {"rt": 1819, "stimulus": "<p id='stroop-text' class='stroop-blue'>YELLOW</p>", "response": "b", "stimulus-type": "incongruent", "word": "yellow", "color": "blue", "correct_response": "b", "trial_id": "stroop-trial-1-incongruent-10", "trial_type": "html-keyboard-response", "trial_index": 122, "time_elapsed": 310444, "internal_node_id": "0.0-6.0-27.0"}}, {"uniqueid": "w48863498:a43764448", "current_trial": 123, "dateTime": 1664555193254, "trialdata": {"rt": 1634, "stimulus": "<p id='stroop-text' class='stroop-green'>GREEN</p>", "response": "g", "stimulus-type": "congruent", "word": "green", "color": "green", "correct_response": "g", "trial_id": "stroop-trial-1-congruent-25", "trial_type": "html-keyboard-response", "trial_index": 123, "time_elapsed": 312581, "internal_node_id": "0.0-6.0-28.0"}}, {"uniqueid": "w48863498:a43764448", "current_trial": 124, "dateTime": 1664555194334, "trialdata": {"rt": 578, "stimulus": "<p id='stroop-text' class='stroop-yellow'>YELLOW</p>", "response": "y", "stimulus-type": "congruent", "word": "yellow", "color": "yellow", "correct_response": "y", "trial_id": "stroop-trial-1-congruent-12", "trial_type": "html-keyboard-response", "trial_index": 124, "time_elapsed": 313661, "internal_node_id": "0.0-6.0-29.0"}}, {"uniqueid": "w48863498:a43764448", "current_trial": 125, "dateTime": 1664555195350, "trialdata": {"rt": 514, "stimulus": "<p id='stroop-text' class='stroop-yellow'>YELLOW</p>", "response": "y", "stimulus-type": "congruent", "word": "yellow", "color": "yellow", "correct_response": "y", "trial_id": "stroop-trial-1-congruent-6", "trial_type": "html-keyboard-response", "trial_index": 125, "time_elapsed": 314677, "internal_node_id": "0.0-6.0-30.0"}}, {"uniqueid": "w48863498:a43764448", "current_trial": 126, "dateTime": 1664555196782, "trialdata": {"rt": 929, "stimulus": "<p id='stroop-text' class='stroop-green'>SHIP</p>", "response": "g", "stimulus-type": "unrelated", "word": "SHIP", "color": "green", "correct_response": "g", "trial_id": "stroop-trial-1-unrelated-21", "trial_type": "html-keyboard-response", "trial_index": 126, "time_elapsed": 316109, "internal_node_id": "0.0-6.0-31.0"}}, {"uniqueid": "w48863498:a43764448", "current_trial": 127, "dateTime": 1664555197894, "trialdata": {"rt": 610, "stimulus": "<p id='stroop-text' class='stroop-green'>BOTTLE</p>", "response": "g", "stimulus-type": "unrelated", "word": "BOTTLE", "color": "green", "correct_response": "g", "trial_id": "stroop-trial-1-unrelated-9", "trial_type": "html-keyboard-response", "trial_index": 127, "time_elapsed": 317221, "internal_node_id": "0.0-6.0-32.0"}}, {"uniqueid": "w48863498:a43764448", "current_trial": 128, "dateTime": 1664555199038, "trialdata": {"rt": 642, "stimulus": "<p id='stroop-text' class='stroop-yellow'>BRIDGE</p>", "response": "y", "stimulus-type": "unrelated", "word": "BRIDGE", "color": "yellow", "correct_response": "y", "trial_id": "stroop-trial-1-unrelated-18", "trial_type": "html-keyboard-response", "trial_index": 128, "time_elapsed": 318365, "internal_node_id": "0.0-6.0-33.0"}}, {"uniqueid": "w48863498:a43764448", "current_trial": 129, "dateTime": 1664555200535, "trialdata": {"rt": 994, "stimulus": "<p id='stroop-text' class='stroop-red'>RED</p>", "response": "r", "stimulus-type": "congruent", "word": "red", "color": "red", "correct_response": "r", "trial_id": "stroop-trial-1-congruent-11", "trial_type": "html-keyboard-response", "trial_index": 129, "time_elapsed": 319861, "internal_node_id": "0.0-6.0-34.0"}}, {"uniqueid": "w48863498:a43764448", "current_trial": 130, "dateTime": 1664555202215, "trialdata": {"rt": 1178, "stimulus": "<p id='stroop-text' class='stroop-blue'>BOAT</p>", "response": "b", "stimulus-type": "unrelated", "word": "BOAT", "color": "blue", "correct_response": "b", "trial_id": "stroop-trial-1-unrelated-25", "trial_type": "html-keyboard-response", "trial_index": 130, "time_elapsed": 321542, "internal_node_id": "0.0-6.0-35.0"}}, {"uniqueid": "w48863498:a43764448", "current_trial": 131, "dateTime": 1664555203775, "trialdata": {"rt": 1057, "stimulus": "<p id='stroop-text' class='stroop-green'>MONKEY</p>", "response": "g", "stimulus-type": "unrelated", "word": "MONKEY", "color": "green", "correct_response": "g", "trial_id": "stroop-trial-1-unrelated-11", "trial_type": "html-keyboard-response", "trial_index": 131, "time_elapsed": 323102, "internal_node_id": "0.0-6.0-36.0"}}, {"uniqueid": "w48863498:a43764448", "current_trial": 132, "dateTime": 1664555205208, "trialdata": {"rt": 930, "stimulus": "<p id='stroop-text' class='stroop-blue'>STONE</p>", "response": "b", "stimulus-type": "unrelated", "word": "STONE", "color": "blue", "correct_response": "b", "trial_id": "stroop-trial-1-unrelated-5", "trial_type": "html-keyboard-response", "trial_index": 132, "time_elapsed": 324534, "internal_node_id": "0.0-6.0-37.0"}}, {"uniqueid": "w48863498:a43764448", "current_trial": 133, "dateTime": 1664555206384, "trialdata": {"rt": 667, "stimulus": "<p id='stroop-text' class='stroop-yellow'>YELLOW</p>", "response": "y", "stimulus-type": "congruent", "word": "yellow", "color": "yellow", "correct_response": "y", "trial_id": "stroop-trial-1-congruent-2", "trial_type": "html-keyboard-response", "trial_index": 133, "time_elapsed": 325710, "internal_node_id": "0.0-6.0-38.0"}}, {"uniqueid": "w48863498:a43764448", "current_trial": 134, "dateTime": 1664555207880, "trialdata": {"rt": 994, "stimulus": "<p id='stroop-text' class='stroop-red'>RED</p>", "response": "r", "stimulus-type": "congruent", "word": "red", "color": "red", "correct_response": "r", "trial_id": "stroop-trial-1-congruent-30", "trial_type": "html-keyboard-response", "trial_index": 134, "time_elapsed": 327206, "internal_node_id": "0.0-6.0-39.0"}}, {"uniqueid": "w48863498:a43764448", "current_trial": 135, "dateTime": 1664555209472, "trialdata": {"rt": 1090, "stimulus": "<p id='stroop-text' class='stroop-green'>MONKEY</p>", "response": "g", "stimulus-type": "unrelated", "word": "MONKEY", "color": "green", "correct_response": "g", "trial_id": "stroop-trial-1-unrelated-13", "trial_type": "html-keyboard-response", "trial_index": 135, "time_elapsed": 328798, "internal_node_id": "0.0-6.0-40.0"}}, {"uniqueid": "w48863498:a43764448", "current_trial": 136, "dateTime": 1664555210936, "trialdata": {"rt": 963, "stimulus": "<p id='stroop-text' class='stroop-yellow'>BLUE</p>", "response": "y", "stimulus-type": "incongruent", "word": "blue", "color": "yellow", "correct_response": "y", "trial_id": "stroop-trial-1-incongruent-12", "trial_type": "html-keyboard-response", "trial_index": 136, "time_elapsed": 330262, "internal_node_id": "0.0-6.0-41.0"}}, {"uniqueid": "w48863498:a43764448", "current_trial": 137, "dateTime": 1664555212016, "trialdata": {"rt": 578, "stimulus": "<p id='stroop-text' class='stroop-red'>RED</p>", "response": "r", "stimulus-type": "congruent", "word": "red", "color": "red", "correct_response": "r", "trial_id": "stroop-trial-1-congruent-28", "trial_type": "html-keyboard-response", "trial_index": 137, "time_elapsed": 331343, "internal_node_id": "0.0-6.0-42.0"}}, {"uniqueid": "w48863498:a43764448", "current_trial": 138, "dateTime": 1664555213888, "trialdata": {"rt": 1359, "stimulus": "<p id='stroop-text' class='stroop-blue'>SHIP</p>", "response": "b", "stimulus-type": "unrelated", "word": "SHIP", "color": "blue", "correct_response": "b", "trial_id": "stroop-trial-1-unrelated-23", "trial_type": "html-keyboard-response", "trial_index": 138, "time_elapsed": 333215, "internal_node_id": "0.0-6.0-43.0"}}, {"uniqueid": "w48863498:a43764448", "current_trial": 139, "dateTime": 1664555215608, "trialdata": {"rt": 1219, "stimulus": "<p id='stroop-text' class='stroop-yellow'>BRIDGE</p>", "response": "y", "stimulus-type": "unrelated", "word": "BRIDGE", "color": "yellow", "correct_response": "y", "trial_id": "stroop-trial-1-unrelated-7", "trial_type": "html-keyboard-response", "trial_index": 139, "time_elapsed": 334935, "internal_node_id": "0.0-6.0-44.0"}}, {"uniqueid": "w48863498:a43764448", "current_trial": 140, "dateTime": 1664555217040, "trialdata": {"rt": 930, "stimulus": "<p id='stroop-text' class='stroop-green'>GREEN</p>", "response": "g", "stimulus-type": "congruent", "word": "green", "color": "green", "correct_response": "g", "trial_id": "stroop-trial-1-congruent-20", "trial_type": "html-keyboard-response", "trial_index": 140, "time_elapsed": 336367, "internal_node_id": "0.0-6.0-45.0"}}, {"uniqueid": "w48863498:a43764448", "current_trial": 141, "dateTime": 1664555218440, "trialdata": {"rt": 898, "stimulus": "<p id='stroop-text' class='stroop-blue'>BLUE</p>", "response": "b", "stimulus-type": "congruent", "word": "blue", "color": "blue", "correct_response": "b", "trial_id": "stroop-trial-1-congruent-19", "trial_type": "html-keyboard-response", "trial_index": 141, "time_elapsed": 337767, "internal_node_id": "0.0-6.0-46.0"}}, {"uniqueid": "w48863498:a43764448", "current_trial": 142, "dateTime": 1664555219521, "trialdata": {"rt": 578, "stimulus": "<p id='stroop-text' class='stroop-yellow'>YELLOW</p>", "response": "y", "stimulus-type": "congruent", "word": "yellow", "color": "yellow", "correct_response": "y", "trial_id": "stroop-trial-1-congruent-22", "trial_type": "html-keyboard-response", "trial_index": 142, "time_elapsed": 338847, "internal_node_id": "0.0-6.0-47.0"}}, {"uniqueid": "w48863498:a43764448", "current_trial": 143, "dateTime": 1664555221177, "trialdata": {"rt": 1154, "stimulus": "<p id='stroop-text' class='stroop-green'>GREEN</p>", "response": "g", "stimulus-type": "congruent", "word": "green", "color": "green", "correct_response": "g", "trial_id": "stroop-trial-1-congruent-14", "trial_type": "html-keyboard-response", "trial_index": 143, "time_elapsed": 340504, "internal_node_id": "0.0-6.0-48.0"}}, {"uniqueid": "w48863498:a43764448", "current_trial": 144, "dateTime": 1664555223145, "trialdata": {"rt": 1466, "stimulus": "<p id='stroop-text' class='stroop-yellow'>BOTTLE</p>", "response": "y", "stimulus-type": "unrelated", "word": "BOTTLE", "color": "yellow", "correct_response": "y", "trial_id": "stroop-trial-1-unrelated-28", "trial_type": "html-keyboard-response", "trial_index": 144, "time_elapsed": 342472, "internal_node_id": "0.0-6.0-49.0"}}, {"uniqueid": "w48863498:a43764448", "current_trial": 145, "dateTime": 1664555224289, "trialdata": {"rt": 641, "stimulus": "<p id='stroop-text' class='stroop-yellow'>BLUE</p>", "response": "y", "stimulus-type": "incongruent", "word": "blue", "color": "yellow", "correct_response": "y", "trial_id": "stroop-trial-1-incongruent-17", "trial_type": "html-keyboard-response", "trial_index": 145, "time_elapsed": 343616, "internal_node_id": "0.0-6.0-50.0"}}, {"uniqueid": "w48863498:a43764448", "current_trial": 146, "dateTime": 1664555225913, "trialdata": {"rt": 1122, "stimulus": "<p id='stroop-text' class='stroop-green'>YELLOW</p>", "response": "g", "stimulus-type": "incongruent", "word": "yellow", "color": "green", "correct_response": "g", "trial_id": "stroop-trial-1-incongruent-1", "trial_type": "html-keyboard-response", "trial_index": 146, "time_elapsed": 345240, "internal_node_id": "0.0-6.0-51.0"}}, {"uniqueid": "w48863498:a43764448", "current_trial": 147, "dateTime": 1664555227090, "trialdata": {"rt": 673, "stimulus": "<p id='stroop-text' class='stroop-red'>RED</p>", "response": "r", "stimulus-type": "congruent", "word": "red", "color": "red", "correct_response": "r", "trial_id": "stroop-trial-1-congruent-15", "trial_type": "html-keyboard-response", "trial_index": 147, "time_elapsed": 346416, "internal_node_id": "0.0-6.0-52.0"}}, {"uniqueid": "w48863498:a43764448", "current_trial": 148, "dateTime": 1664555227977, "trialdata": {"rt": 386, "stimulus": "<p id='stroop-text' class='stroop-red'>RED</p>", "response": "r", "stimulus-type": "congruent", "word": "red", "color": "red", "correct_response": "r", "trial_id": "stroop-trial-1-congruent-10", "trial_type": "html-keyboard-response", "trial_index": 148, "time_elapsed": 347304, "internal_node_id": "0.0-6.0-53.0"}}, {"uniqueid": "w48863498:a43764448", "current_trial": 149, "dateTime": 1664555228834, "trialdata": {"rt": 354, "stimulus": "<p id='stroop-text' class='stroop-red'>RED</p>", "response": "r", "stimulus-type": "congruent", "word": "red", "color": "red", "correct_response": "r", "trial_id": "stroop-trial-1-congruent-5", "trial_type": "html-keyboard-response", "trial_index": 149, "time_elapsed": 348160, "internal_node_id": "0.0-6.0-54.0"}}, {"uniqueid": "w48863498:a43764448", "current_trial": 150, "dateTime": 1664555230874, "trialdata": {"rt": 1532, "stimulus": "<p id='stroop-text' class='stroop-blue'>RED</p>", "response": "b", "stimulus-type": "incongruent", "word": "red", "color": "blue", "correct_response": "b", "trial_id": "stroop-trial-1-incongruent-8", "trial_type": "html-keyboard-response", "trial_index": 150, "time_elapsed": 350201, "internal_node_id": "0.0-6.0-55.0"}}, {"uniqueid": "w48863498:a43764448", "current_trial": 151, "dateTime": 1664555231922, "trialdata": {"rt": 546, "stimulus": "<p id='stroop-text' class='stroop-yellow'>YELLOW</p>", "response": "y", "stimulus-type": "congruent", "word": "yellow", "color": "yellow", "correct_response": "y", "trial_id": "stroop-trial-1-congruent-16", "trial_type": "html-keyboard-response", "trial_index": 151, "time_elapsed": 351249, "internal_node_id": "0.0-6.0-56.0"}}, {"uniqueid": "w48863498:a43764448", "current_trial": 152, "dateTime": 1664555233826, "trialdata": {"rt": 1402, "stimulus": "<p id='stroop-text' class='stroop-green'>RED</p>", "response": "g", "stimulus-type": "incongruent", "word": "red", "color": "green", "correct_response": "g", "trial_id": "stroop-trial-1-incongruent-6", "trial_type": "html-keyboard-response", "trial_index": 152, "time_elapsed": 353153, "internal_node_id": "0.0-6.0-57.0"}}, {"uniqueid": "w48863498:a43764448", "current_trial": 153, "dateTime": 1664555234970, "trialdata": {"rt": 640, "stimulus": "<p id='stroop-text' class='stroop-green'>DOG</p>", "response": "g", "stimulus-type": "unrelated", "word": "DOG", "color": "green", "correct_response": "g", "trial_id": "stroop-trial-1-unrelated-20", "trial_type": "html-keyboard-response", "trial_index": 153, "time_elapsed": 354297, "internal_node_id": "0.0-6.0-58.0"}}, {"uniqueid": "w48863498:a43764448", "current_trial": 154, "dateTime": 1664555236691, "trialdata": {"rt": 1218, "stimulus": "<p id='stroop-text' class='stroop-red'>GREEN</p>", "response": "r", "stimulus-type": "incongruent", "word": "green", "color": "red", "correct_response": "r", "trial_id": "stroop-trial-1-incongruent-3", "trial_type": "html-keyboard-response", "trial_index": 154, "time_elapsed": 356017, "internal_node_id": "0.0-6.0-59.0"}}, {"uniqueid": "w48863498:a43764448", "current_trial": 155, "dateTime": 1664555238283, "trialdata": {"rt": 1090, "stimulus": "<p id='stroop-text' class='stroop-red'>BRIDGE</p>", "response": "r", "stimulus-type": "unrelated", "word": "BRIDGE", "color": "red", "correct_response": "r", "trial_id": "stroop-trial-1-unrelated-10", "trial_type": "html-keyboard-response", "trial_index": 155, "time_elapsed": 357610, "internal_node_id": "0.0-6.0-60.0"}}, {"uniqueid": "w48863498:a43764448", "current_trial": 156, "dateTime": 1664555239843, "trialdata": {"rt": 1057, "stimulus": "<p id='stroop-text' class='stroop-yellow'>STONE</p>", "response": "y", "stimulus-type": "unrelated", "word": "STONE", "color": "yellow", "correct_response": "y", "trial_id": "stroop-trial-1-unrelated-8", "trial_type": "html-keyboard-response", "trial_index": 156, "time_elapsed": 359170, "internal_node_id": "0.0-6.0-61.0"}}, {"uniqueid": "w48863498:a43764448", "current_trial": 157, "dateTime": 1664555240795, "trialdata": {"rt": 450, "stimulus": "<p id='stroop-text' class='stroop-yellow'>RED</p>", "response": "y", "stimulus-type": "incongruent", "word": "red", "color": "yellow", "correct_response": "y", "trial_id": "stroop-trial-1-incongruent-18", "trial_type": "html-keyboard-response", "trial_index": 157, "time_elapsed": 360122, "internal_node_id": "0.0-6.0-62.0"}}, {"uniqueid": "w48863498:a43764448", "current_trial": 158, "dateTime": 1664555241747, "trialdata": {"rt": 450, "stimulus": "<p id='stroop-text' class='stroop-yellow'>YELLOW</p>", "response": "y", "stimulus-type": "congruent", "word": "yellow", "color": "yellow", "correct_response": "y", "trial_id": "stroop-trial-1-congruent-26", "trial_type": "html-keyboard-response", "trial_index": 158, "time_elapsed": 361074, "internal_node_id": "0.0-6.0-63.0"}}, {"uniqueid": "w48863498:a43764448", "current_trial": 159, "dateTime": 1664555243435, "trialdata": {"rt": 1186, "stimulus": "<p id='stroop-text' class='stroop-blue'>BLUE</p>", "response": "b", "stimulus-type": "congruent", "word": "blue", "color": "blue", "correct_response": "b", "trial_id": "stroop-trial-1-congruent-21", "trial_type": "html-keyboard-response", "trial_index": 159, "time_elapsed": 362762, "internal_node_id": "0.0-6.0-64.0"}}, {"uniqueid": "w48863498:a43764448", "current_trial": 160, "dateTime": 1664555246164, "trialdata": {"rt": 2224, "stimulus": "<p id='stroop-text' class='stroop-red'>GREEN</p>", "response": "r", "stimulus-type": "incongruent", "word": "green", "color": "red", "correct_response": "r", "trial_id": "stroop-trial-1-incongruent-19", "trial_type": "html-keyboard-response", "trial_index": 160, "time_elapsed": 365490, "internal_node_id": "0.0-6.0-65.0"}}, {"uniqueid": "w48863498:a43764448", "current_trial": 161, "dateTime": 1664555247788, "trialdata": {"rt": 1122, "stimulus": "<p id='stroop-text' class='stroop-yellow'>RED</p>", "response": "y", "stimulus-type": "incongruent", "word": "red", "color": "yellow", "correct_response": "y", "trial_id": "stroop-trial-1-incongruent-9", "trial_type": "html-keyboard-response", "trial_index": 161, "time_elapsed": 367115, "internal_node_id": "0.0-6.0-66.0"}}, {"uniqueid": "w48863498:a43764448", "current_trial": 162, "dateTime": 1664555249316, "trialdata": {"rt": 1017, "stimulus": "<p id='stroop-text' class='stroop-green'>SHIP</p>", "response": "g", "stimulus-type": "unrelated", "word": "SHIP", "color": "green", "correct_response": "g", "trial_id": "stroop-trial-1-unrelated-1", "trial_type": "html-keyboard-response", "trial_index": 162, "time_elapsed": 368643, "internal_node_id": "0.0-6.0-67.0"}}, {"uniqueid": "w48863498:a43764448", "current_trial": 163, "dateTime": 1664555250749, "trialdata": {"rt": 930, "stimulus": "<p id='stroop-text' class='stroop-yellow'>YELLOW</p>", "response": "y", "stimulus-type": "congruent", "word": "yellow", "color": "yellow", "correct_response": "y", "trial_id": "stroop-trial-1-congruent-1", "trial_type": "html-keyboard-response", "trial_index": 163, "time_elapsed": 370075, "internal_node_id": "0.0-6.0-68.0"}}, {"uniqueid": "w48863498:a43764448", "current_trial": 164, "dateTime": 1664555252340, "trialdata": {"rt": 1089, "stimulus": "<p id='stroop-text' class='stroop-red'>GREEN</p>", "response": "r", "stimulus-type": "incongruent", "word": "green", "color": "red", "correct_response": "r", "trial_id": "stroop-trial-1-incongruent-24", "trial_type": "html-keyboard-response", "trial_index": 164, "time_elapsed": 371667, "internal_node_id": "0.0-6.0-69.0"}}, {"uniqueid": "w48863498:a43764448", "current_trial": 165, "dateTime": 1664555253892, "trialdata": {"rt": 1050, "stimulus": "<p id='stroop-text' class='stroop-red'>GREEN</p>", "response": "r", "stimulus-type": "incongruent", "word": "green", "color": "red", "correct_response": "r", "trial_id": "stroop-trial-1-incongruent-20", "trial_type": "html-keyboard-response", "trial_index": 165, "time_elapsed": 373219, "internal_node_id": "0.0-6.0-70.0"}}, {"uniqueid": "w48863498:a43764448", "current_trial": 166, "dateTime": 1664555255133, "trialdata": {"rt": 737, "stimulus": "<p id='stroop-text' class='stroop-yellow'>RED</p>", "response": "y", "stimulus-type": "incongruent", "word": "red", "color": "yellow", "correct_response": "y", "trial_id": "stroop-trial-1-incongruent-26", "trial_type": "html-keyboard-response", "trial_index": 166, "time_elapsed": 374459, "internal_node_id": "0.0-6.0-71.0"}}, {"uniqueid": "w48863498:a43764448", "current_trial": 167, "dateTime": 1664555256533, "trialdata": {"rt": 897, "stimulus": "<p id='stroop-text' class='stroop-blue'>GREEN</p>", "response": "b", "stimulus-type": "incongruent", "word": "green", "color": "blue", "correct_response": "b", "trial_id": "stroop-trial-1-incongruent-13", "trial_type": "html-keyboard-response", "trial_index": 167, "time_elapsed": 375860, "internal_node_id": "0.0-6.0-72.0"}}, {"uniqueid": "w48863498:a43764448", "current_trial": 168, "dateTime": 1664555258189, "trialdata": {"rt": 1154, "stimulus": "<p id='stroop-text' class='stroop-yellow'>YELLOW</p>", "response": "y", "stimulus-type": "congruent", "word": "yellow", "color": "yellow", "correct_response": "y", "trial_id": "stroop-trial-1-congruent-4", "trial_type": "html-keyboard-response", "trial_index": 168, "time_elapsed": 377516, "internal_node_id": "0.0-6.0-73.0"}}, {"uniqueid": "w48863498:a43764448", "current_trial": 169, "dateTime": 1664555259813, "trialdata": {"rt": 1123, "stimulus": "<p id='stroop-text' class='stroop-red'>CHAIR</p>", "response": "r", "stimulus-type": "unrelated", "word": "CHAIR", "color": "red", "correct_response": "r", "trial_id": "stroop-trial-1-unrelated-12", "trial_type": "html-keyboard-response", "trial_index": 169, "time_elapsed": 379140, "internal_node_id": "0.0-6.0-74.0"}}, {"uniqueid": "w48863498:a43764448", "current_trial": 170, "dateTime": 1664555261365, "trialdata": {"rt": 1050, "stimulus": "<p id='stroop-text' class='stroop-blue'>STONE</p>", "response": "b", "stimulus-type": "unrelated", "word": "STONE", "color": "blue", "correct_response": "b", "trial_id": "stroop-trial-1-unrelated-30", "trial_type": "html-keyboard-response", "trial_index": 170, "time_elapsed": 380692, "internal_node_id": "0.0-6.0-75.0"}}, {"uniqueid": "w48863498:a43764448", "current_trial": 171, "dateTime": 1664555262637, "trialdata": {"rt": 770, "stimulus": "<p id='stroop-text' class='stroop-blue'>CHAIR</p>", "response": "b", "stimulus-type": "unrelated", "word": "CHAIR", "color": "blue", "correct_response": "b", "trial_id": "stroop-trial-1-unrelated-2", "trial_type": "html-keyboard-response", "trial_index": 171, "time_elapsed": 381964, "internal_node_id": "0.0-6.0-76.0"}}, {"uniqueid": "w48863498:a43764448", "current_trial": 172, "dateTime": 1664555264326, "trialdata": {"rt": 1186, "stimulus": "<p id='stroop-text' class='stroop-green'>GREEN</p>", "response": "g", "stimulus-type": "congruent", "word": "green", "color": "green", "correct_response": "g", "trial_id": "stroop-trial-1-congruent-27", "trial_type": "html-keyboard-response", "trial_index": 172, "time_elapsed": 383652, "internal_node_id": "0.0-6.0-77.0"}}, {"uniqueid": "w48863498:a43764448", "current_trial": 173, "dateTime": 1664555265598, "trialdata": {"rt": 770, "stimulus": "<p id='stroop-text' class='stroop-yellow'>BOTTLE</p>", "response": "y", "stimulus-type": "unrelated", "word": "BOTTLE", "color": "yellow", "correct_response": "y", "trial_id": "stroop-trial-1-unrelated-3", "trial_type": "html-keyboard-response", "trial_index": 173, "time_elapsed": 384925, "internal_node_id": "0.0-6.0-78.0"}}, {"uniqueid": "w48863498:a43764448", "current_trial": 174, "dateTime": 1664555266614, "trialdata": {"rt": 513, "stimulus": "<p id='stroop-text' class='stroop-green'>BRAIN</p>", "response": "g", "stimulus-type": "unrelated", "word": "BRAIN", "color": "green", "correct_response": "g", "trial_id": "stroop-trial-1-unrelated-19", "trial_type": "html-keyboard-response", "trial_index": 174, "time_elapsed": 385941, "internal_node_id": "0.0-6.0-79.0"}}, {"uniqueid": "w48863498:a43764448", "current_trial": 175, "dateTime": 1664555267566, "trialdata": {"rt": 450, "stimulus": "<p id='stroop-text' class='stroop-yellow'>WINDOW</p>", "response": "y", "stimulus-type": "unrelated", "word": "WINDOW", "color": "yellow", "correct_response": "y", "trial_id": "stroop-trial-1-unrelated-6", "trial_type": "html-keyboard-response", "trial_index": 175, "time_elapsed": 386893, "internal_node_id": "0.0-6.0-80.0"}}, {"uniqueid": "w48863498:a43764448", "current_trial": 176, "dateTime": 1664555268838, "trialdata": {"rt": 770, "stimulus": "<p id='stroop-text' class='stroop-green'>RED</p>", "response": "g", "stimulus-type": "incongruent", "word": "red", "color": "green", "correct_response": "g", "trial_id": "stroop-trial-1-incongruent-27", "trial_type": "html-keyboard-response", "trial_index": 176, "time_elapsed": 388165, "internal_node_id": "0.0-6.0-81.0"}}, {"uniqueid": "w48863498:a43764448", "current_trial": 177, "dateTime": 1664555269830, "trialdata": {"rt": 490, "stimulus": "<p id='stroop-text' class='stroop-yellow'>YELLOW</p>", "response": "y", "stimulus-type": "congruent", "word": "yellow", "color": "yellow", "correct_response": "y", "trial_id": "stroop-trial-1-congruent-13", "trial_type": "html-keyboard-response", "trial_index": 177, "time_elapsed": 389157, "internal_node_id": "0.0-6.0-82.0"}}, {"uniqueid": "w48863498:a43764448", "current_trial": 178, "dateTime": 1664555270942, "trialdata": {"rt": 609, "stimulus": "<p id='stroop-text' class='stroop-yellow'>RED</p>", "response": "y", "stimulus-type": "incongruent", "word": "red", "color": "yellow", "correct_response": "y", "trial_id": "stroop-trial-1-incongruent-28", "trial_type": "html-keyboard-response", "trial_index": 178, "time_elapsed": 390269, "internal_node_id": "0.0-6.0-83.0"}}, {"uniqueid": "w48863498:a43764448", "current_trial": 179, "dateTime": 1664555272246, "trialdata": {"rt": 802, "stimulus": "<p id='stroop-text' class='stroop-blue'>BLUE</p>", "response": "b", "stimulus-type": "congruent", "word": "blue", "color": "blue", "correct_response": "b", "trial_id": "stroop-trial-1-congruent-7", "trial_type": "html-keyboard-response", "trial_index": 179, "time_elapsed": 391573, "internal_node_id": "0.0-6.0-84.0"}}, {"uniqueid": "w48863498:a43764448", "current_trial": 180, "dateTime": 1664555273775, "trialdata": {"rt": 1026, "stimulus": "<p id='stroop-text' class='stroop-green'>MONKEY</p>", "response": "g", "stimulus-type": "unrelated", "word": "MONKEY", "color": "green", "correct_response": "g", "trial_id": "stroop-trial-1-unrelated-24", "trial_type": "html-keyboard-response", "trial_index": 180, "time_elapsed": 393101, "internal_node_id": "0.0-6.0-85.0"}}, {"uniqueid": "w48863498:a43764448", "current_trial": 181, "dateTime": 1664555274823, "trialdata": {"rt": 545, "stimulus": "<p id='stroop-text' class='stroop-yellow'>YELLOW</p>", "response": "y", "stimulus-type": "congruent", "word": "yellow", "color": "yellow", "correct_response": "y", "trial_id": "stroop-trial-1-congruent-24", "trial_type": "html-keyboard-response", "trial_index": 181, "time_elapsed": 394149, "internal_node_id": "0.0-6.0-86.0"}}, {"uniqueid": "w48863498:a43764448", "current_trial": 182, "dateTime": 1664555276351, "trialdata": {"rt": 1026, "stimulus": "<p id='stroop-text' class='stroop-red'>BLUE</p>", "response": "r", "stimulus-type": "incongruent", "word": "blue", "color": "red", "correct_response": "r", "trial_id": "stroop-trial-1-incongruent-22", "trial_type": "html-keyboard-response", "trial_index": 182, "time_elapsed": 395678, "internal_node_id": "0.0-6.0-87.0"}}, {"uniqueid": "w48863498:a43764448", "current_trial": 183, "dateTime": 1664555277399, "trialdata": {"rt": 546, "stimulus": "<p id='stroop-text' class='stroop-red'>RED</p>", "response": "r", "stimulus-type": "congruent", "word": "red", "color": "red", "correct_response": "r", "trial_id": "stroop-trial-1-congruent-18", "trial_type": "html-keyboard-response", "trial_index": 183, "time_elapsed": 396726, "internal_node_id": "0.0-6.0-88.0"}}, {"uniqueid": "w48863498:a43764448", "current_trial": 184, "dateTime": 1664555278863, "trialdata": {"rt": 961, "stimulus": "<p id='stroop-text' class='stroop-blue'>BOAT</p>", "response": "b", "stimulus-type": "unrelated", "word": "BOAT", "color": "blue", "correct_response": "b", "trial_id": "stroop-trial-1-unrelated-22", "trial_type": "html-keyboard-response", "trial_index": 184, "time_elapsed": 398190, "internal_node_id": "0.0-6.0-89.0"}}, {"uniqueid": "w48863498:a43764448", "current_trial": 185, "dateTime": 1664555328221, "trialdata": {"rt": 48855, "stimulus": "  <h1> End of block! </h1>\n\n  You have reached the end of the block 2/5. If you need a short break, feel free to take one now before moving on.\n\n  <br><br>\n  In the next block, you will complete another 90 rounds of this game.\n\n  <br><br>\n  <div style='text-align: center;'>Press <code>space</code> to begin.</div>\n  <br><br>\n<div style='text-align: center;'>(If the experiment doesn't continue, try clicking on the text and then pressing <code>space</code>.)</div>", "response": " ", "trial_id": "stroop_1_ready_3", "trial_type": "html-keyboard-response", "trial_index": 185, "time_elapsed": 447548, "internal_node_id": "0.0-7.0"}}, {"uniqueid": "w48863498:a43764448", "current_trial": 186, "dateTime": 1664555332637, "trialdata": {"rt": 4414, "stimulus": "<p id='stroop-text' class='stroop-green'>BLUE</p>", "response": "g", "stimulus-type": "incongruent", "word": "blue", "color": "green", "correct_response": "g", "trial_id": "stroop-trial-1-incongruent-17", "trial_type": "html-keyboard-response", "trial_index": 186, "time_elapsed": 451964, "internal_node_id": "0.0-8.0-0.0"}}, {"uniqueid": "w48863498:a43764448", "current_trial": 187, "dateTime": 1664555334389, "trialdata": {"rt": 1250, "stimulus": "<p id='stroop-text' class='stroop-yellow'>BLUE</p>", "response": "y", "stimulus-type": "incongruent", "word": "blue", "color": "yellow", "correct_response": "y", "trial_id": "stroop-trial-1-incongruent-27", "trial_type": "html-keyboard-response", "trial_index": 187, "time_elapsed": 453716, "internal_node_id": "0.0-8.0-1.0"}}, {"uniqueid": "w48863498:a43764448", "current_trial": 188, "dateTime": 1664555336326, "trialdata": {"rt": 1434, "stimulus": "<p id='stroop-text' class='stroop-blue'>BLUE</p>", "response": "b", "stimulus-type": "congruent", "word": "blue", "color": "blue", "correct_response": "b", "trial_id": "stroop-trial-1-congruent-13", "trial_type": "html-keyboard-response", "trial_index": 188, "time_elapsed": 455653, "internal_node_id": "0.0-8.0-2.0"}}, {"uniqueid": "w48863498:a43764448", "current_trial": 189, "dateTime": 1664555337630, "trialdata": {"rt": 799, "stimulus": "<p id='stroop-text' class='stroop-yellow'>GREEN</p>", "response": "y", "stimulus-type": "incongruent", "word": "green", "color": "yellow", "correct_response": "y", "trial_id": "stroop-trial-1-incongruent-2", "trial_type": "html-keyboard-response", "trial_index": 189, "time_elapsed": 456957, "internal_node_id": "0.0-8.0-3.0"}}, {"uniqueid": "w48863498:a43764448", "current_trial": 190, "dateTime": 1664555339446, "trialdata": {"rt": 1314, "stimulus": "<p id='stroop-text' class='stroop-green'>STONE</p>", "response": "g", "stimulus-type": "unrelated", "word": "STONE", "color": "green", "correct_response": "g", "trial_id": "stroop-trial-1-unrelated-6", "trial_type": "html-keyboard-response", "trial_index": 190, "time_elapsed": 458773, "internal_node_id": "0.0-8.0-4.0"}}, {"uniqueid": "w48863498:a43764448", "current_trial": 191, "dateTime": 1664555340782, "trialdata": {"rt": 822, "stimulus": "<p id='stroop-text' class='stroop-red'>GREEN</p>", "response": "r", "stimulus-type": "incongruent", "word": "green", "color": "red", "correct_response": "r", "trial_id": "stroop-trial-1-incongruent-6", "trial_type": "html-keyboard-response", "trial_index": 191, "time_elapsed": 460109, "internal_node_id": "0.0-8.0-5.0"}}, {"uniqueid": "w48863498:a43764448", "current_trial": 192, "dateTime": 1664555341958, "trialdata": {"rt": 673, "stimulus": "<p id='stroop-text' class='stroop-yellow'>YELLOW</p>", "response": "y", "stimulus-type": "congruent", "word": "yellow", "color": "yellow", "correct_response": "y", "trial_id": "stroop-trial-1-congruent-2", "trial_type": "html-keyboard-response", "trial_index": 192, "time_elapsed": 461285, "internal_node_id": "0.0-8.0-6.0"}}, {"uniqueid": "w48863498:a43764448", "current_trial": 193, "dateTime": 1664555343422, "trialdata": {"rt": 962, "stimulus": "<p id='stroop-text' class='stroop-blue'>BLUE</p>", "response": "b", "stimulus-type": "congruent", "word": "blue", "color": "blue", "correct_response": "b", "trial_id": "stroop-trial-1-congruent-30", "trial_type": "html-keyboard-response", "trial_index": 193, "time_elapsed": 462749, "internal_node_id": "0.0-8.0-7.0"}}, {"uniqueid": "w48863498:a43764448", "current_trial": 194, "dateTime": 1664555344407, "trialdata": {"rt": 482, "stimulus": "<p id='stroop-text' class='stroop-blue'>DOG</p>", "response": "b", "stimulus-type": "unrelated", "word": "DOG", "color": "blue", "correct_response": "b", "trial_id": "stroop-trial-1-unrelated-16", "trial_type": "html-keyboard-response", "trial_index": 194, "time_elapsed": 463733, "internal_node_id": "0.0-8.0-8.0"}}, {"uniqueid": "w48863498:a43764448", "current_trial": 195, "dateTime": 1664555345775, "trialdata": {"rt": 866, "stimulus": "<p id='stroop-text' class='stroop-green'>GREEN</p>", "response": "g", "stimulus-type": "congruent", "word": "green", "color": "green", "correct_response": "g", "trial_id": "stroop-trial-1-congruent-5", "trial_type": "html-keyboard-response", "trial_index": 195, "time_elapsed": 465102, "internal_node_id": "0.0-8.0-9.0"}}, {"uniqueid": "w48863498:a43764448", "current_trial": 196, "dateTime": 1664555346791, "trialdata": {"rt": 513, "stimulus": "<p id='stroop-text' class='stroop-yellow'>YELLOW</p>", "response": "y", "stimulus-type": "congruent", "word": "yellow", "color": "yellow", "correct_response": "y", "trial_id": "stroop-trial-1-congruent-10", "trial_type": "html-keyboard-response", "trial_index": 196, "time_elapsed": 466118, "internal_node_id": "0.0-8.0-10.0"}}, {"uniqueid": "w48863498:a43764448", "current_trial": 197, "dateTime": 1664555347679, "trialdata": {"rt": 386, "stimulus": "<p id='stroop-text' class='stroop-yellow'>BRAIN</p>", "response": "y", "stimulus-type": "unrelated", "word": "BRAIN", "color": "yellow", "correct_response": "y", "trial_id": "stroop-trial-1-unrelated-22", "trial_type": "html-keyboard-response", "trial_index": 197, "time_elapsed": 467006, "internal_node_id": "0.0-8.0-11.0"}}, {"uniqueid": "w48863498:a43764448", "current_trial": 198, "dateTime": 1664555349175, "trialdata": {"rt": 994, "stimulus": "<p id='stroop-text' class='stroop-blue'>YELLOW</p>", "response": "b", "stimulus-type": "incongruent", "word": "yellow", "color": "blue", "correct_response": "b", "trial_id": "stroop-trial-1-incongruent-23", "trial_type": "html-keyboard-response", "trial_index": 198, "time_elapsed": 468502, "internal_node_id": "0.0-8.0-12.0"}}, {"uniqueid": "w48863498:a43764448", "current_trial": 199, "dateTime": 1664555350607, "trialdata": {"rt": 930, "stimulus": "<p id='stroop-text' class='stroop-red'>RED</p>", "response": "r", "stimulus-type": "congruent", "word": "red", "color": "red", "correct_response": "r", "trial_id": "stroop-trial-1-congruent-29", "trial_type": "html-keyboard-response", "trial_index": 199, "time_elapsed": 469934, "internal_node_id": "0.0-8.0-13.0"}}, {"uniqueid": "w48863498:a43764448", "current_trial": 200, "dateTime": 1664555351688, "trialdata": {"rt": 578, "stimulus": "<p id='stroop-text' class='stroop-yellow'>YELLOW</p>", "response": "y", "stimulus-type": "congruent", "word": "yellow", "color": "yellow", "correct_response": "y", "trial_id": "stroop-trial-1-congruent-7", "trial_type": "html-keyboard-response", "trial_index": 200, "time_elapsed": 471014, "internal_node_id": "0.0-8.0-14.0"}}, {"uniqueid": "w48863498:a43764448", "current_trial": 201, "dateTime": 1664555352864, "trialdata": {"rt": 673, "stimulus": "<p id='stroop-text' class='stroop-blue'>BLUE</p>", "response": "b", "stimulus-type": "congruent", "word": "blue", "color": "blue", "correct_response": "b", "trial_id": "stroop-trial-1-congruent-15", "trial_type": "html-keyboard-response", "trial_index": 201, "time_elapsed": 472190, "internal_node_id": "0.0-8.0-15.0"}}, {"uniqueid": "w48863498:a43764448", "current_trial": 202, "dateTime": 1664555353976, "trialdata": {"rt": 610, "stimulus": "<p id='stroop-text' class='stroop-green'>GREEN</p>", "response": "g", "stimulus-type": "congruent", "word": "green", "color": "green", "correct_response": "g", "trial_id": "stroop-trial-1-congruent-25", "trial_type": "html-keyboard-response", "trial_index": 202, "time_elapsed": 473302, "internal_node_id": "0.0-8.0-16.0"}}, {"uniqueid": "w48863498:a43764448", "current_trial": 203, "dateTime": 1664555355536, "trialdata": {"rt": 1048, "stimulus": "<p id='stroop-text' class='stroop-blue'>BLUE</p>", "response": "b", "stimulus-type": "congruent", "word": "blue", "color": "blue", "correct_response": "b", "trial_id": "stroop-trial-1-congruent-1", "trial_type": "html-keyboard-response", "trial_index": 203, "time_elapsed": 474863, "internal_node_id": "0.0-8.0-17.0"}}, {"uniqueid": "w48863498:a43764448", "current_trial": 204, "dateTime": 1664555356552, "trialdata": {"rt": 511, "stimulus": "<p id='stroop-text' class='stroop-blue'>BLUE</p>", "response": "b", "stimulus-type": "congruent", "word": "blue", "color": "blue", "correct_response": "b", "trial_id": "stroop-trial-1-congruent-27", "trial_type": "html-keyboard-response", "trial_index": 204, "time_elapsed": 475879, "internal_node_id": "0.0-8.0-18.0"}}, {"uniqueid": "w48863498:a43764448", "current_trial": 205, "dateTime": 1664555357888, "trialdata": {"rt": 834, "stimulus": "<p id='stroop-text' class='stroop-red'>RED</p>", "response": "r", "stimulus-type": "congruent", "word": "red", "color": "red", "correct_response": "r", "trial_id": "stroop-trial-1-congruent-17", "trial_type": "html-keyboard-response", "trial_index": 205, "time_elapsed": 477215, "internal_node_id": "0.0-8.0-19.0"}}, {"uniqueid": "w48863498:a43764448", "current_trial": 206, "dateTime": 1664555359224, "trialdata": {"rt": 834, "stimulus": "<p id='stroop-text' class='stroop-yellow'>BLUE</p>", "response": "b", "stimulus-type": "incongruent", "word": "blue", "color": "yellow", "correct_response": "y", "trial_id": "stroop-trial-1-incongruent-28", "trial_type": "html-keyboard-response", "trial_index": 206, "time_elapsed": 478551, "internal_node_id": "0.0-8.0-20.0"}}, {"uniqueid": "w48863498:a43764448", "current_trial": 207, "dateTime": 1664555361769, "trialdata": {"rt": 2041, "stimulus": "<p id='stroop-text' class='stroop-green'>GREEN</p>", "response": "g", "stimulus-type": "congruent", "word": "green", "color": "green", "correct_response": "g", "trial_id": "stroop-trial-1-congruent-28", "trial_type": "html-keyboard-response", "trial_index": 207, "time_elapsed": 481095, "internal_node_id": "0.0-8.0-21.0"}}, {"uniqueid": "w48863498:a43764448", "current_trial": 208, "dateTime": 1664555362849, "trialdata": {"rt": 578, "stimulus": "<p id='stroop-text' class='stroop-green'>BLUE</p>", "response": "g", "stimulus-type": "incongruent", "word": "blue", "color": "green", "correct_response": "g", "trial_id": "stroop-trial-1-incongruent-1", "trial_type": "html-keyboard-response", "trial_index": 208, "time_elapsed": 482175, "internal_node_id": "0.0-8.0-22.0"}}, {"uniqueid": "w48863498:a43764448", "current_trial": 209, "dateTime": 1664555364025, "trialdata": {"rt": 673, "stimulus": "<p id='stroop-text' class='stroop-red'>RED</p>", "response": "r", "stimulus-type": "congruent", "word": "red", "color": "red", "correct_response": "r", "trial_id": "stroop-trial-1-congruent-4", "trial_type": "html-keyboard-response", "trial_index": 209, "time_elapsed": 483352, "internal_node_id": "0.0-8.0-23.0"}}, {"uniqueid": "w48863498:a43764448", "current_trial": 210, "dateTime": 1664555366321, "trialdata": {"rt": 1793, "stimulus": "<p id='stroop-text' class='stroop-yellow'>BLUE</p>", "response": "y", "stimulus-type": "incongruent", "word": "blue", "color": "yellow", "correct_response": "y", "trial_id": "stroop-trial-1-incongruent-9", "trial_type": "html-keyboard-response", "trial_index": 210, "time_elapsed": 485648, "internal_node_id": "0.0-8.0-24.0"}}, {"uniqueid": "w48863498:a43764448", "current_trial": 211, "dateTime": 1664555368129, "trialdata": {"rt": 1306, "stimulus": "<p id='stroop-text' class='stroop-green'>FORK</p>", "response": "g", "stimulus-type": "unrelated", "word": "FORK", "color": "green", "correct_response": "g", "trial_id": "stroop-trial-1-unrelated-5", "trial_type": "html-keyboard-response", "trial_index": 211, "time_elapsed": 487456, "internal_node_id": "0.0-8.0-25.0"}}, {"uniqueid": "w48863498:a43764448", "current_trial": 212, "dateTime": 1664555369212, "trialdata": {"rt": 581, "stimulus": "<p id='stroop-text' class='stroop-green'>DOG</p>", "response": "g", "stimulus-type": "unrelated", "word": "DOG", "color": "green", "correct_response": "g", "trial_id": "stroop-trial-1-unrelated-20", "trial_type": "html-keyboard-response", "trial_index": 212, "time_elapsed": 488539, "internal_node_id": "0.0-8.0-26.0"}}, {"uniqueid": "w48863498:a43764448", "current_trial": 213, "dateTime": 1664555370737, "trialdata": {"rt": 1023, "stimulus": "<p id='stroop-text' class='stroop-blue'>BOTTLE</p>", "response": "b", "stimulus-type": "unrelated", "word": "BOTTLE", "color": "blue", "correct_response": "b", "trial_id": "stroop-trial-1-unrelated-18", "trial_type": "html-keyboard-response", "trial_index": 213, "time_elapsed": 490064, "internal_node_id": "0.0-8.0-27.0"}}, {"uniqueid": "w48863498:a43764448", "current_trial": 214, "dateTime": 1664555371722, "trialdata": {"rt": 482, "stimulus": "<p id='stroop-text' class='stroop-blue'>GREEN</p>", "response": "b", "stimulus-type": "incongruent", "word": "green", "color": "blue", "correct_response": "b", "trial_id": "stroop-trial-1-incongruent-18", "trial_type": "html-keyboard-response", "trial_index": 214, "time_elapsed": 491049, "internal_node_id": "0.0-8.0-28.0"}}, {"uniqueid": "w48863498:a43764448", "current_trial": 215, "dateTime": 1664555372650, "trialdata": {"rt": 425, "stimulus": "<p id='stroop-text' class='stroop-blue'>YELLOW</p>", "response": "b", "stimulus-type": "incongruent", "word": "yellow", "color": "blue", "correct_response": "b", "trial_id": "stroop-trial-1-incongruent-8", "trial_type": "html-keyboard-response", "trial_index": 215, "time_elapsed": 491977, "internal_node_id": "0.0-8.0-29.0"}}, {"uniqueid": "w48863498:a43764448", "current_trial": 216, "dateTime": 1664555373634, "trialdata": {"rt": 482, "stimulus": "<p id='stroop-text' class='stroop-blue'>RED</p>", "response": "b", "stimulus-type": "incongruent", "word": "red", "color": "blue", "correct_response": "b", "trial_id": "stroop-trial-1-incongruent-12", "trial_type": "html-keyboard-response", "trial_index": 216, "time_elapsed": 492961, "internal_node_id": "0.0-8.0-30.0"}}, {"uniqueid": "w48863498:a43764448", "current_trial": 217, "dateTime": 1664555375098, "trialdata": {"rt": 961, "stimulus": "<p id='stroop-text' class='stroop-green'>SHIP</p>", "response": "g", "stimulus-type": "unrelated", "word": "SHIP", "color": "green", "correct_response": "g", "trial_id": "stroop-trial-1-unrelated-26", "trial_type": "html-keyboard-response", "trial_index": 217, "time_elapsed": 494425, "internal_node_id": "0.0-8.0-31.0"}}, {"uniqueid": "w48863498:a43764448", "current_trial": 218, "dateTime": 1664555376530, "trialdata": {"rt": 930, "stimulus": "<p id='stroop-text' class='stroop-red'>GREEN</p>", "response": "r", "stimulus-type": "incongruent", "word": "green", "color": "red", "correct_response": "r", "trial_id": "stroop-trial-1-incongruent-13", "trial_type": "html-keyboard-response", "trial_index": 218, "time_elapsed": 495857, "internal_node_id": "0.0-8.0-32.0"}}, {"uniqueid": "w48863498:a43764448", "current_trial": 219, "dateTime": 1664555378050, "trialdata": {"rt": 1018, "stimulus": "<p id='stroop-text' class='stroop-green'>GREEN</p>", "response": "g", "stimulus-type": "congruent", "word": "green", "color": "green", "correct_response": "g", "trial_id": "stroop-trial-1-congruent-3", "trial_type": "html-keyboard-response", "trial_index": 219, "time_elapsed": 497377, "internal_node_id": "0.0-8.0-33.0"}}, {"uniqueid": "w48863498:a43764448", "current_trial": 220, "dateTime": 1664555379170, "trialdata": {"rt": 618, "stimulus": "<p id='stroop-text' class='stroop-yellow'>YELLOW</p>", "response": "y", "stimulus-type": "congruent", "word": "yellow", "color": "yellow", "correct_response": "y", "trial_id": "stroop-trial-1-congruent-11", "trial_type": "html-keyboard-response", "trial_index": 220, "time_elapsed": 498497, "internal_node_id": "0.0-8.0-34.0"}}, {"uniqueid": "w48863498:a43764448", "current_trial": 221, "dateTime": 1664555380155, "trialdata": {"rt": 482, "stimulus": "<p id='stroop-text' class='stroop-yellow'>YELLOW</p>", "response": "y", "stimulus-type": "congruent", "word": "yellow", "color": "yellow", "correct_response": "y", "trial_id": "stroop-trial-1-congruent-9", "trial_type": "html-keyboard-response", "trial_index": 221, "time_elapsed": 499482, "internal_node_id": "0.0-8.0-35.0"}}, {"uniqueid": "w48863498:a43764448", "current_trial": 222, "dateTime": 1664555381107, "trialdata": {"rt": 448, "stimulus": "<p id='stroop-text' class='stroop-yellow'>YELLOW</p>", "response": "y", "stimulus-type": "congruent", "word": "yellow", "color": "yellow", "correct_response": "y", "trial_id": "stroop-tri