{"condition": 1, "counterbalance": 0, "assignmentId": "a36056446", "workerId": "w16205134", "hitId": "h61652655", "currenttrial": 143, "bonus": 0, "data": [{"uniqueid": "w16205134:a36056446", "current_trial": 0, "dateTime": 1664554904756, "trialdata": {"success": true, "trial_type": "fullscreen", "trial_index": 0, "time_elapsed": 2928, "internal_node_id": "0.0-0.0"}}, {"uniqueid": "w16205134:a36056446", "current_trial": 1, "dateTime": 1664554917368, "trialdata": {"view_history": [{"page_index": 0, "viewing_time": 12606}], "rt": 12607, "trial_id": "exp_instructions_no_distractor", "trial_type": "instructions", "trial_index": 1, "time_elapsed": 15541, "internal_node_id": "0.0-1.0"}}, {"uniqueid": "w16205134:a36056446", "current_trial": 2, "dateTime": 1664554920834, "trialdata": {"success": true, "trial_type": "fullscreen", "trial_index": 2, "time_elapsed": 19007, "internal_node_id": "0.0-2.0-0.0"}}, {"uniqueid": "w16205134:a36056446", "current_trial": 3, "dateTime": 1664555013116, "trialdata": {"view_history": [{"page_index": 0, "viewing_time": 42222}, {"page_index": 1, "viewing_time": 22004}, {"page_index": 2, "viewing_time": 8976}, {"page_index": 3, "viewing_time": 6626}, {"page_index": 4, "viewing_time": 12454}], "rt": 92282, "trial_id": "mouselab_instructions_1", "trial_type": "instructions", "trial_index": 3, "time_elapsed": 111289, "internal_node_id": "0.0-2.0-1.0"}}, {"uniqueid": "w16205134:a36056446", "current_trial": 4, "dateTime": 1664555034818, "trialdata": {"revealed_states": [], "num_clicks_accrued": [0, 0, 0, 0, 0, 0, 0, 0, 0, 0, 0, 0, 0], "stateRewards": ["", 10, 10, 10, 10, -10, -10, -10, -10, 10, -10, 10, 10], "withholdReward": false, "trial_id": "practice_1", "block": "test", "trialIndex": 0, "score": 31.5, "costs": -0.5, "simulationMode": [null, null, null], "rewards": [10, 10, 10], "path": ["0", "0", "1", "2", "4"], "rt": [10184, 903, 422], "actions": ["up", "up", "left"], "actionTimes": [11730, 13132, 14056], "queries": {"click": {"state": {"target": ["1", "2"], "time": [7341, 8543]}, "edge": {"target": [], "time": []}}, "mouseover": {"state": {"target": ["1", "2", "4"], "time": [6745, 8214, 9202]}, "edge": {"target": [], "time": []}}, "mouseout": {"state": {"target": ["0", "1", "2", "4"], "time": [6292, 8166, 9135, 10305]}, "edge": {"target": [], "time": []}}}, "displayed_time": "14.55", "trialTime": 21472, "trial_type": "mouselab-mdp", "trial_index": 4, "time_elapsed": 132990, "internal_node_id": "0.0-2.0-2.0-0.0"}}, {"uniqueid": "w16205134:a36056446", "current_trial": 5, "dateTime": 1664555045304, "trialdata": {"revealed_states": [], "num_clicks_accrued": [0, 0, 0, 0, 0, 0, 0, 0, 0, 0, 0, 0, 0], "stateRewards": ["", 10, -10, 10, -10, 10, -10, 10, 10, 10, -10, 10, -10], "withholdReward": false, "trial_id": "practice_2", "block": "test", "trialIndex": 1, "score": 11.5, "costs": -0.5, "simulationMode": [null, null, null], "rewards": [10, -10, 10], "path": ["0", "0", "5", "6", "7"], "rt": [4480, 372, 315], "actions": ["right", "right", "up"], "actionTimes": [6553, 7428, 8241], "queries": {"click": {"state": {"target": ["1", "2"], "time": [2995, 4423]}, "edge": {"target": [], "time": []}}, "mouseover": {"state": {"target": ["1", "2", "5"], "time": [2791, 4146, 5282]}, "edge": {"target": [], "time": []}}, "mouseout": {"state": {"target": ["0", "1", "2", "1"], "time": [2690, 4077, 5031, 5114]}, "edge": {"target": [], "time": []}}}, "displayed_time": "8.74", "trialTime": 10417, "trial_type": "mouselab-mdp", "trial_index": 5, "time_elapsed": 143477, "internal_node_id": "0.0-2.0-2.0-1.0"}}, {"uniqueid": "w16205134:a36056446", "current_trial": 6, "dateTime": 1664555101118, "trialdata": {"view_history": [{"page_index": 0, "viewing_time": 40902}, {"page_index": 1, "viewing_time": 8144}, {"page_index": 2, "viewing_time": 6766}], "rt": 55812, "trial_id": "mouselab_instructions_2_scarce", "trial_type": "instructions", "trial_index": 6, "time_elapsed": 199291, "internal_node_id": "0.0-2.0-3.0"}}, {"uniqueid": "w16205134:a36056446", "current_trial": 7, "dateTime": 1664555129660, "trialdata": {"rt": 28536, "response": {"Q0": "$-48 to $48", "Q1": "The cost is always $0.25.", "Q2": "The better I perform the higher my bonus will be.", "Q3": "No, the structure of the web will be different each time.", "Q4": "The values of the nodes walked through from start to finish.", "Q5": "No, the spider might forget to count the money on some rounds."}, "question_order": [0, 1, 2, 3, 4, 5], "correct": {"Q0": "$-48 to $48", "Q1": "The cost is always $0.25.", "Q2": "The better I perform the higher my bonus will be.", "Q3": "No, the amount of cash at each node of the web may be different each time.", "Q4": "The values of the nodes walked through from start to finish.", "Q5": "No, the spider might forget to count the money on some rounds."}, "trial_id": "mouselab_quiz_scarce", "trial_type": "survey-multi-choice", "trial_index": 7, "time_elapsed": 227833, "internal_node_id": "0.0-2.0-4.0"}}, {"uniqueid": "w16205134:a36056446", "current_trial": 8, "dateTime": 1664555137792, "trialdata": {"success": true, "trial_type": "fullscreen", "trial_index": 8, "time_elapsed": 235965, "internal_node_id": "0.0-2.1-0.1"}}, {"uniqueid": "w16205134:a36056446", "current_trial": 9, "dateTime": 1664555179146, "trialdata": {"view_history": [{"page_index": 0, "viewing_time": 19868}, {"page_index": 1, "viewing_time": 4714}, {"page_index": 0, "viewing_time": 6208}, {"page_index": 1, "viewing_time": 1558}, {"page_index": 2, "viewing_time": 3448}, {"page_index": 3, "viewing_time": 1198}, {"page_index": 4, "viewing_time": 4358}], "rt": 41353, "trial_id": "mouselab_instructions_1", "trial_type": "instructions", "trial_index": 9, "time_elapsed": 277319, "internal_node_id": "0.0-2.1-1.1"}}, {"uniqueid": "w16205134:a36056446", "current_trial": 10, "dateTime": 1664555190435, "trialdata": {"revealed_states": [], "num_clicks_accrued": [0, 0, 0, 0, 0, 0, 0, 0, 0, 0, 0, 0, 0], "stateRewards": ["", 10, 10, 10, 10, -10, -10, -10, -10, 10, -10, 10, 10], "withholdReward": false, "trial_id": "practice_1", "block": "test", "trialIndex": 2, "score": 31.25, "costs": -0.75, "simulationMode": [null, null, null], "rewards": [10, 10, 10], "path": ["0", "0", "1", "2", "4"], "rt": [2694, 417, 1096], "actions": ["up", "up", "left"], "actionTimes": [3663, 4586, 6183], "queries": {"click": {"state": {"target": ["1", "2", "4"], "time": [1515, 2117, 2476]}, "edge": {"target": [], "time": []}}, "mouseover": {"state": {"target": ["1", "2", "2", "4", "3"], "time": [1307, 1692, 1943, 2343, 2946]}, "edge": {"target": [], "time": []}}, "mouseout": {"state": {"target": ["1", "2", "2", "4", "2", "3"], "time": [1675, 1724, 2294, 2745, 2880, 2979]}, "edge": {"target": [], "time": []}}}, "displayed_time": "6.68", "trialTime": 11205, "trial_type": "mouselab-mdp", "trial_index": 10, "time_elapsed": 288607, "internal_node_id": "0.0-2.1-2.1-0.1"}}, {"uniqueid": "w16205134:a36056446", "current_trial": 11, "dateTime": 1664555202668, "trialdata": {"revealed_states": [], "num_clicks_accrued": [0, 0, 0, 0, 0, 0, 0, 0, 0, 0, 0, 0, 0], "stateRewards": ["", 10, -10, 10, -10, 10, -10, 10, 10, 10, -10, 10, -10], "withholdReward": false, "trial_id": "practice_2", "block": "test", "trialIndex": 3, "score": 11.25, "costs": -0.75, "simulationMode": [null, null, null], "rewards": [10, -10, 10], "path": ["0", "0", "5", "6", "7"], "rt": [3957, 307, 1021], "actions": ["right", "right", "up"], "actionTimes": [5196, 5999, 7515], "queries": {"click": {"state": {"target": ["5", "6", "7"], "time": [1759, 2315, 2976]}, "edge": {"target": [], "time": []}}, "mouseover": {"state": {"target": ["5", "6", "7", "8"], "time": [1527, 2062, 2798, 3985]}, "edge": {"target": [], "time": []}}, "mouseout": {"state": {"target": ["3", "1", "0", "0", "5", "6", "7", "5", "8", "6"], "time": [606, 656, 691, 1092, 2011, 2765, 3566, 3801, 4036, 11158]}, "edge": {"target": [], "time": []}}}, "displayed_time": "8.02", "trialTime": 12171, "trial_type": "mouselab-mdp", "trial_index": 11, "time_elapsed": 300840, "internal_node_id": "0.0-2.1-2.1-1.1"}}, {"uniqueid": "w16205134:a36056446", "current_trial": 12, "dateTime": 1664555235420, "trialdata": {"view_history": [{"page_index": 0, "viewing_time": 21090}, {"page_index": 1, "viewing_time": 8863}, {"page_index": 2, "viewing_time": 2796}], "rt": 32751, "trial_id": "mouselab_instructions_2_scarce", "trial_type": "instructions", "trial_index": 12, "time_elapsed": 333593, "internal_node_id": "0.0-2.1-3.1"}}, {"uniqueid": "w16205134:a36056446", "current_trial": 13, "dateTime": 1664555251855, "trialdata": {"rt": 16424, "response": {"Q0": "$-48 to $48", "Q1": "The cost is always $0.25.", "Q2": "The better I perform the higher my bonus will be.", "Q3": "No, the amount of cash at each node of the web may be different each time.", "Q4": "The values of the nodes walked through from start to finish.", "Q5": "No, the spider might forget to count the money on some rounds."}, "question_order": [0, 1, 2, 3, 4, 5], "correct": {"Q0": "$-48 to $48", "Q1": "The cost is always $0.25.", "Q2": "The better I perform the higher my bonus will be.", "Q3": "No, the amount of cash at each node of the web may be different each time.", "Q4": "The values of the nodes walked through from start to finish.", "Q5": "No, the spider might forget to count the money on some rounds."}, "trial_id": "mouselab_quiz_scarce", "trial_type": "survey-multi-choice", "trial_index": 13, "time_elapsed": 350028, "internal_node_id": "0.0-2.1-4.1"}}, {"uniqueid": "w16205134:a36056446", "current_trial": 14, "dateTime": 1664555266623, "trialdata": {"rt": 14760, "stimulus": "\n<h1> Get ready to start the game! </h1>\n\nThank you for reading the instructions. Get ready start with the first of 4 block(s) of this game.\n<br><br>\nIn this first block, you will complete 30 rounds of this game before moving on.\n<br><br>\nRemember, the more money the spider gets, the bigger your bonus will be!\n<br><br>\n<div style='text-align: center;'>Press <code>space</code> to begin.</div>\n\n<br><br>\n(If, at any point, the <code>space</code> key does not take you to the next page, click once on the text and try again.)", "response": " ", "trial_id": "mdp_ready_1", "trial_type": "html-keyboard-response", "trial_index": 14, "time_elapsed": 364796, "internal_node_id": "0.0-4.0-0.0"}}, {"uniqueid": "w16205134:a36056446", "current_trial": 15, "dateTime": 1664555287074, "trialdata": {"revealed_states": [], "num_clicks_accrued": [0, 0, 0, 0, 0, 0, 0, 0, 0, 0, 0, 0, 0], "stateRewards": ["", 4, -8, 24, 48, 2, 4, 48, 48, 2, 8, -48, -48], "withholdReward": true, "trial_id": "mdp_783704746330", "block": "test1", "trialIndex": 4, "score": 48.25, "costs": -0.75, "simulationMode": [null, null, null], "rewards": [4, -8, 48], "path": ["0", "0", "1", "2", "4"], "rt": [3405, 172, 157], "actions": ["up", "up", "left"], "actionTimes": [5960, 6635, 7287], "queries": {"click": {"state": {"target": ["1", "2", "4"], "time": [3539, 4365, 5067]}, "edge": {"target": [], "time": []}}, "mouseover": {"state": {"target": ["1", "2", "2", "4", "7"], "time": [3416, 3835, 4136, 4888, 5424]}, "edge": {"target": [], "time": []}}, "mouseout": {"state": {"target": ["0", "1", "2", "2", "4", "1"], "time": [2682, 3819, 3851, 4637, 5306, 5389]}, "edge": {"target": [], "time": []}}}, "displayed_time": "10.56", "trialTime": 20383, "trial_type": "mouselab-mdp", "trial_index": 15, "time_elapsed": 385247, "internal_node_id": "0.0-4.0-1.0-0.0"}}, {"uniqueid": "w16205134:a36056446", "current_trial": 16, "dateTime": 1664555299833, "trialdata": {"revealed_states": [], "num_clicks_accrued": [0, 0, 0, 0, 0, 0, 0, 0, 0, 0, 0, 0, 0], "stateRewards": ["", -2, 4, -24, -48, -4, 8, -24, 48, 4, 4, -48, 24], "withholdReward": true, "trial_id": "mdp_341117665701", "block": "test1", "trialIndex": 5, "score": -16, "costs": -1, "simulationMode": [null, null, null], "rewards": [-4, 8, -24], "path": ["0", "0", "5", "6", "7"], "rt": [5784, 361, 200], "actions": ["right", "right", "up"], "actionTimes": [7308, 8175, 8868], "queries": {"click": {"state": {"target": ["1", "2", "4", "3"], "time": [2840, 3292, 4121, 5185]}, "edge": {"target": [], "time": []}}, "mouseover": {"state": {"target": ["1", "1", "2", "4", "3"], "time": [1793, 2077, 2997, 3934, 5021]}, "edge": {"target": [], "time": []}}, "mouseout": {"state": {"target": ["7", "8", "0", "1", "1", "2", "4", "2", "3"], "time": [371, 706, 1760, 1827, 2963, 3483, 4335, 4418, 5304]}, "edge": {"target": [], "time": []}}}, "displayed_time": "10.53", "trialTime": 12692, "trial_type": "mouselab-mdp", "trial_index": 16, "time_elapsed": 398006, "internal_node_id": "0.0-4.0-1.0-1.0"}}, {"uniqueid": "w16205134:a36056446", "current_trial": 17, "dateTime": 1664555311873, "trialdata": {"revealed_states": [], "num_clicks_accrued": [0, 0, 0, 0, 0, 0, 0, 0, 0, 0, 0, 0, 0], "stateRewards": ["", -2, -8, -24, -48, 4, -8, 48, 24, 2, 4, -48, -48], "withholdReward": true, "trial_id": "mdp_898082967464", "block": "test1", "trialIndex": 6, "score": 47.5, "costs": -1.5, "simulationMode": [null, null, null], "rewards": [4, -8, 48], "path": ["0", "0", "5", "6", "7"], "rt": [4160, 198, 310], "actions": ["right", "right", "up"], "actionTimes": [5385, 6075, 6888], "queries": {"click": {"state": {"target": ["1", "2", "4", "5", "6", "7"], "time": [1595, 2014, 2575, 3398, 3922, 4494]}, "edge": {"target": [], "time": []}}, "mouseover": {"state": {"target": ["1", "2", "4", "5", "5", "6", "7"], "time": [1428, 1863, 2380, 3016, 3317, 3685, 4304]}, "edge": {"target": [], "time": []}}, "mouseout": {"state": {"target": ["5", "0", "1", "2", "4", "5", "5", "6", "7"], "time": [758, 1059, 1813, 2298, 2849, 3082, 3584, 4137, 4756]}, "edge": {"target": [], "time": []}}}, "displayed_time": "10.23", "trialTime": 11976, "trial_type": "mouselab-mdp", "trial_index": 17, "time_elapsed": 410046, "internal_node_id": "0.0-4.0-1.0-2.0"}}, {"uniqueid": "w16205134:a36056446", "current_trial": 18, "dateTime": 1664555329041, "trialdata": {"revealed_states": [], "num_clicks_accrued": [0, 0, 0, 0, 0, 0, 0, 0, 0, 0, 0, 0, 0], "stateRewards": ["", -4, 4, -48, -48, -2, -8, -48, -24, 4, 8, -24, 24], "withholdReward": true, "trial_id": "mdp_449260894259", "block": "test1", "trialIndex": 7, "score": 38.25, "costs": -2.75, "simulationMode": [null, null, null], "rewards": [4, 8, 24], "path": ["0", "0", "9", "10", "12"], "rt": [11870, 153, 128], "actions": ["left", "left", "down"], "actionTimes": [13328, 13987, 14616], "queries": {"click": {"state": {"target": ["5", "1", "6", "7", "8", "2", "4", "3", "10", "11", "12"], "time": [2296, 2844, 3828, 4222, 5204, 8402, 9080, 10144, 11288, 11722, 12333]}, "edge": {"target": [], "time": []}}, "mouseover": {"state": {"target": ["5", "5", "1", "2", "6", "7", "8", "2", "3", "3", "2", "4", "11", "3", "9", "10", "11", "9", "12"], "time": [1761, 2197, 2646, 3199, 3668, 4118, 5072, 5840, 6760, 8082, 8216, 8984, 9854, 9921, 10706, 11075, 11626, 11978, 12228]}, "edge": {"target": [], "time": []}}, "mouseout": {"state": {"target": ["6", "0", "5", "5", "1", "2", "6", "7", "8", "6", "1", "2", "3", "3", "2", "4", "11", "3", "9", "10", "11", "9", "10", "12"], "time": [1074, 1728, 1810, 2614, 3165, 3317, 4068, 4469, 5474, 5690, 5774, 6744, 6793, 8182, 8767, 9285, 9871, 10323, 10757, 11609, 11909, 12010, 12195, 12546]}, "edge": {"target": [], "time": []}}}, "displayed_time": "15.12", "trialTime": 17103, "trial_type": "mouselab-mdp", "trial_index": 18, "time_elapsed": 427213, "internal_node_id": "0.0-4.0-1.0-3.0"}}, {"uniqueid": "w16205134:a36056446", "current_trial": 19, "dateTime": 1664555341919, "trialdata": {"revealed_states": [], "num_clicks_accrued": [0, 0, 0, 0, 0, 0, 0, 0, 0, 0, 0, 0, 0], "stateRewards": ["", 2, -4, 48, -48, 2, 4, -24, 24, -4, -8, 24, -48], "withholdReward": false, "trial_id": "mdp_238810765895", "block": "test1", "trialIndex": 8, "score": 49.75, "costs": -1.25, "simulationMode": [null, null, null], "rewards": [2, -4, 48], "path": ["0", "0", "1", "2", "3"], "rt": [6334, 88, 76], "actions": ["up", "up", "right"], "actionTimes": [8566, 9160, 9733], "queries": {"click": {"state": {"target": ["9", "10", "11", "4", "3"], "time": [2951, 3804, 4247, 6378, 7554]}, "edge": {"target": [], "time": []}}, "mouseover": {"state": {"target": ["9", "9", "10", "11", "2", "4", "2", "3"], "time": [2432, 2885, 3653, 4153, 6143, 6211, 6728, 7482]}, "edge": {"target": [], "time": []}}, "mouseout": {"state": {"target": ["0", "9", "9", "10", "11", "2", "4", "2", "3"], "time": [2399, 2482, 3435, 4137, 4505, 6193, 6712, 6913, 7749]}, "edge": {"target": [], "time": []}}}, "displayed_time": "10.23", "trialTime": 12813, "trial_type": "mouselab-mdp", "trial_index": 19, "time_elapsed": 440092, "internal_node_id": "0.0-4.0-1.0-4.0"}}, {"uniqueid": "w16205134:a36056446", "current_trial": 20, "dateTime": 1664555353824, "trialdata": {"revealed_states": [], "num_clicks_accrued": [0, 0, 0, 0, 0, 0, 0, 0, 0, 0, 0, 0, 0], "stateRewards": ["", -4, 8, -24, 48, 2, -8, 24, 48, 2, -8, -24, -48], "withholdReward": true, "trial_id": "mdp_493778446445", "block": "test1", "trialIndex": 9, "score": 56.25, "costs": -0.75, "simulationMode": [null, null, null], "rewards": [-4, 8, 48], "path": ["0", "0", "1", "2", "4"], "rt": [4233, 35, 5], "actions": ["up", "up", "left"], "actionTimes": [6257, 6790, 7314], "queries": {"click": {"state": {"target": ["3", "4", "2"], "time": [2527, 3293, 5355]}, "edge": {"target": [], "time": []}}, "mouseover": {"state": {"target": ["3", "4", "11", "2", "11"], "time": [2325, 3094, 4916, 5133, 5685]}, "edge": {"target": [], "time": []}}, "mouseout": {"state": {"target": ["1", "3", "4", "11", "2", "11"], "time": [1721, 2725, 3611, 4932, 5602, 5702]}, "edge": {"target": [], "time": []}}}, "displayed_time": "10.02", "trialTime": 11835, "trial_type": "mouselab-mdp", "trial_index": 20, "time_elapsed": 451996, "internal_node_id": "0.0-4.0-1.0-5.0"}}, {"uniqueid": "w16205134:a36056446", "current_trial": 21, "dateTime": 1664555368215, "trialdata": {"revealed_states": [], "num_clicks_accrued": [0, 0, 0, 0, 0, 0, 0, 0, 0, 0, 0, 0, 0], "stateRewards": ["", 2, -8, 48, -24, 2, 8, 24, -24, 4, -4, -48, -48], "withholdReward": false, "trial_id": "mdp_130946197263", "block": "test1", "trialIndex": 10, "score": 46.25, "costs": -0.75, "simulationMode": [null, null, null], "rewards": [2, -8, 48], "path": ["0", "0", "1", "2", "3"], "rt": [4530, 1321, 118], "actions": ["up", "up", "right"], "actionTimes": [7575, 9386, 10006], "queries": {"click": {"state": {"target": ["4", "3", "1"], "time": [4055, 5263, 6478]}, "edge": {"target": [], "time": []}}, "mouseover": {"state": {"target": ["1", "4", "2", "3", "2", "1"], "time": [3482, 3817, 4469, 4903, 5774, 6275]}, "edge": {"target": [], "time": []}}, "mouseout": {"state": {"target": ["11", "9", "0", "1", "4", "2", "3", "2", "1", "4"], "time": [1945, 2011, 2178, 3533, 4352, 4670, 5605, 6107, 6676, 8784]}, "edge": {"target": [], "time": []}}}, "displayed_time": "12.05", "trialTime": 14326, "trial_type": "mouselab-mdp", "trial_index": 21, "time_elapsed": 466388, "internal_node_id": "0.0-4.0-1.0-6.0"}}, {"uniqueid": "w16205134:a36056446", "current_trial": 22, "dateTime": 1664555379982, "trialdata": {"revealed_states": [], "num_clicks_accrued": [0, 0, 0, 0, 0, 0, 0, 0, 0, 0, 0, 0, 0], "stateRewards": ["", 4, 8, -24, 48, -2, -4, 24, -24, -2, 4, 24, 24], "withholdReward": false, "trial_id": "mdp_948713805479", "block": "test1", "trialIndex": 11, "score": 64.5, "costs": -0.5, "simulationMode": [null, null, null], "rewards": [4, 8, 48], "path": ["0", "0", "1", "2", "4"], "rt": [3016, 222, 267], "actions": ["up", "up", "left"], "actionTimes": [4358, 5081, 5845], "queries": {"click": {"state": {"target": ["4", "2"], "time": [2187, 3381]}, "edge": {"target": [], "time": []}}, "mouseover": {"state": {"target": ["1", "2", "4", "2", "1", "2", "3"], "time": [1731, 1897, 2032, 2868, 3034, 3153, 3569]}, "edge": {"target": [], "time": []}}, "mouseout": {"state": {"target": ["2", "1", "1", "2", "4", "2", "1", "2", "3"], "time": [926, 979, 1764, 1915, 2466, 2984, 3118, 3553, 3602]}, "edge": {"target": [], "time": []}}}, "displayed_time": "10.35", "trialTime": 11701, "trial_type": "mouselab-mdp", "trial_index": 22, "time_elapsed": 478155, "internal_node_id": "0.0-4.0-1.0-7.0"}}, {"uniqueid": "w16205134:a36056446", "current_trial": 23, "dateTime": 1664555391270, "trialdata": {"revealed_states": [], "num_clicks_accrued": [0, 0, 0, 0, 0, 0, 0, 0, 0, 0, 0, 0, 0], "stateRewards": ["", -2, -4, -24, -48, -2, 8, -48, 24, 4, -4, -24, -24], "withholdReward": true, "trial_id": "mdp_915304165774", "block": "test1", "trialIndex": 12, "score": 33.5, "costs": -1.5, "simulationMode": [null, null, null], "rewards": [-2, 8, 24], "path": ["0", "0", "5", "6", "8"], "rt": [5652, 88, 172], "actions": ["right", "right", "down"], "actionTimes": [7038, 7624, 8293], "queries": {"click": {"state": {"target": ["4", "3", "7", "8", "12", "11"], "time": [2795, 3319, 4003, 4608, 5477, 6051]}, "edge": {"target": [], "time": []}}, "mouseover": {"state": {"target": ["1", "4", "4", "4", "2", "3", "6", "7", "6", "8", "10", "12", "10", "11"], "time": [1666, 1952, 2301, 2569, 3072, 3121, 3791, 3924, 4275, 4442, 5093, 5346, 5729, 5948]}, "edge": {"target": [], "time": []}}, "mouseout": {"state": {"target": ["5", "1", "4", "4", "4", "2", "3", "6", "7", "6", "8", "10", "12", "10", "11"], "time": [1115, 1699, 2000, 2369, 3037, 3104, 3640, 3889, 4209, 4325, 4844, 5128, 5678, 5814, 6281]}, "edge": {"target": [], "time": []}}}, "displayed_time": "10.39", "trialTime": 11221, "trial_type": "mouselab-mdp", "trial_index": 23, "time_elapsed": 489443, "internal_node_id": "0.0-4.0-1.0-8.0"}}, {"uniqueid": "w16205134:a36056446", "current_trial": 24, "dateTime": 1664555403214, "trialdata": {"revealed_states": [], "num_clicks_accrued": [0, 0, 0, 0, 0, 0, 0, 0, 0, 0, 0, 0, 0], "stateRewards": ["", 2, -4, 24, -24, 2, -8, 48, 48, 4, -4, 24, 48], "withholdReward": true, "trial_id": "mdp_947836623875", "block": "test1", "trialIndex": 13, "score": 52.5, "costs": -0.5, "simulationMode": [null, null, null], "rewards": [4, -4, 48], "path": ["0", "0", "9", "10", "12"], "rt": [2848, 184, 111], "actions": ["left", "left", "down"], "actionTimes": [4092, 4775, 5388], "queries": {"click": {"state": {"target": ["11", "12"], "time": [2008, 3096]}, "edge": {"target": [], "time": []}}, "mouseover": {"state": {"target": ["9", "10", "11", "10", "12"], "time": [1479, 1546, 1864, 2517, 2901]}, "edge": {"target": [], "time": []}}, "mouseout": {"state": {"target": ["10", "9", "0", "0", "9", "10", "11", "10", "12"], "time": [710, 828, 911, 1194, 1513, 1664, 2383, 2667, 3470]}, "edge": {"target": [], "time": []}}}, "displayed_time": "10.25", "trialTime": 11876, "trial_type": "mouselab-mdp", "trial_index": 24, "time_elapsed": 501387, "internal_node_id": "0.0-4.0-1.0-9.0"}}, {"uniqueid": "w16205134:a36056446", "current_trial": 25, "dateTime": 1664555415574, "trialdata": {"revealed_states": [], "num_clicks_accrued": [0, 0, 0, 0, 0, 0, 0, 0, 0, 0, 0, 0, 0], "stateRewards": ["", 2, 4, -48, -48, 2, 4, 48, -24, -2, 8, 48, -48], "withholdReward": true, "trial_id": "mdp_258528916140", "block": "test1", "trialIndex": 14, "score": 58.25, "costs": -0.75, "simulationMode": [null, null, null], "rewards": [-2, 8, 48], "path": ["0", "0", "9", "10", "11"], "rt": [3832, 518, 1536], "actions": ["left", "left", "up"], "actionTimes": [4621, 5640, 7676], "queries": {"click": {"state": {"target": ["12", "11", "10"], "time": [1361, 1974, 3501]}, "edge": {"target": [], "time": []}}, "mouseover": {"state": {"target": ["9", "12", "10", "11", "4", "9", "10"], "time": [1040, 1257, 1693, 1743, 2294, 2729, 3414]}, "edge": {"target": [], "time": []}}, "mouseout": {"state": {"target": ["0", "9", "12", "10", "11", "4", "9", "10"], "time": [991, 1057, 1692, 1726, 2260, 2478, 2812, 3867]}, "edge": {"target": [], "time": []}}}, "displayed_time": "10.79", "trialTime": 12292, "trial_type": "mouselab-mdp", "trial_index": 25, "time_elapsed": 513746, "internal_node_id": "0.0-4.0-1.0-10.0"}}, {"uniqueid": "w16205134:a36056446", "current_trial": 26, "dateTime": 1664555426927, "trialdata": {"revealed_states": [], "num_clicks_accrued": [0, 0, 0, 0, 0, 0, 0, 0, 0, 0, 0, 0, 0], "stateRewards": ["", 2, 8, -48, -24, 2, -4, -48, 24, 2, -4, -24, -24], "withholdReward": true, "trial_id": "mdp_954659099093", "block": "test1", "trialIndex": 15, "score": 25.25, "costs": -1.75, "simulationMode": [null, null, null], "rewards": [2, -4, 24], "path": ["0", "0", "5", "6", "8"], "rt": [7519, 23, 79], "actions": ["right", "right", "down"], "actionTimes": [8326, 8856, 9430], "queries": {"click": {"state": {"target": ["7", "8", "11", "12", "3", "4", "6"], "time": [1856, 2579, 3450, 4062, 4730, 5584, 7443]}, "edge": {"target": [], "time": []}}, "mouseover": {"state": {"target": ["5", "6", "7", "8", "10", "11", "10", "12", "9", "1", "3", "2", "4", "6"], "time": [1373, 1489, 1741, 2459, 3029, 3296, 3780, 3914, 4433, 4466, 4683, 5118, 5203, 7310]}, "edge": {"target": [], "time": []}}, "mouseout": {"state": {"target": ["12", "0", "5", "6", "7", "8", "10", "11", "10", "12", "9", "1", "3", "2", "4", "6"], "time": [353, 670, 1456, 1524, 2191, 2912, 3061, 3763, 3848, 4382, 4449, 4483, 5052, 5169, 5821, 7577]}, "edge": {"target": [], "time": []}}}, "displayed_time": "9.94", "trialTime": 11286, "trial_type": "mouselab-mdp", "trial_index": 26, "time_elapsed": 525100, "internal_node_id": "0.0-4.0-1.0-11.0"}}, {"uniqueid": "w16205134:a36056446", "current_trial": 27, "dateTime": 1664555437229, "trialdata": {"revealed_states": [], "num_clicks_accrued": [0, 0, 0, 0, 0, 0, 0, 0, 0, 0, 0, 0, 0], "stateRewards": ["", -2, -4, -24, -48, 2, -8, -24, -24, 4, -8, 48, 48], "withholdReward": true, "trial_id": "mdp_950599994674", "block": "test1", "trialIndex": 16, "score": 47.5, "costs": -1.5, "simulationMode": [null, null, null], "rewards": [4, -8, 48], "path": ["0", "0", "9", "10", "12"], "rt": [6077, 211, 138], "actions": ["left", "left", "down"], "actionTimes": [7145, 7852, 8480], "queries": {"click": {"state": {"target": ["8", "7", "4", "3", "12", "10"], "time": [1755, 2382, 3189, 3809, 4913, 6275]}, "edge": {"target": [], "time": []}}, "mouseover": {"state": {"target": ["5", "8", "8", "6", "7", "2", "4", "2", "3", "1", "10", "12", "10", "11", "9", "9", "10"], "time": [1302, 1487, 1621, 2105, 2222, 2941, 3024, 3526, 3593, 4145, 4328, 4647, 5181, 5298, 5600, 5784, 6153]}, "edge": {"target": [], "time": []}}, "mouseout": {"state": {"target": ["0", "5", "8", "8", "6", "7", "2", "4", "2", "3", "1", "10", "12", "10", "11", "9", "9", "10"], "time": [1284, 1353, 1502, 2088, 2154, 2640, 2990, 3510, 3560, 4077, 4228, 4345, 5165, 5266, 5333, 5632, 5934, 6469]}, "edge": {"target": [], "time": []}}}, "displayed_time": "9.07", "trialTime": 10232, "trial_type": "mouselab-mdp", "trial_index": 27, "time_elapsed": 535402, "internal_node_id": "0.0-4.0-1.0-12.0"}}, {"uniqueid": "w16205134:a36056446", "current_trial": 28, "dateTime": 1664555449253, "trialdata": {"revealed_states": [], "num_clicks_accrued": [0, 0, 0, 0, 0, 0, 0, 0, 0, 0, 0, 0, 0], "stateRewards": ["", -4, -4, 24, -48, -2, 8, -24, -48, -4, 4, 24, -48], "withholdReward": false, "trial_id": "mdp_934626330092", "block": "test1", "trialIndex": 17, "score": 27.5, "costs": -1.5, "simulationMode": [null, null, null], "rewards": [-4, 4, 24], "path": ["0", "0", "9", "10", "11"], "rt": [6332, 124, 86], "actions": ["left", "left", "up"], "actionTimes": [7946, 8564, 9145], "queries": {"click": {"state": {"target": ["12", "11", "4", "3", "7", "8"], "time": [2404, 3088, 3821, 4370, 6181, 6778]}, "edge": {"target": [], "time": []}}, "mouseover": {"state": {"target": ["12", "12", "10", "11", "4", "2", "3", "7", "7", "8"], "time": [2051, 2335, 2770, 2836, 3455, 4125, 4176, 4726, 6164, 6650]}, "edge": {"target": [], "time": []}}, "mouseout": {"state": {"target": ["0", "12", "12", "10", "11", "4", "2", "3", "7", "7", "8"], "time": [1967, 2101, 2753, 2804, 3338, 4108, 4157, 4677, 5212, 6483, 6884]}, "edge": {"target": [], "time": []}}}, "displayed_time": "10.62", "trialTime": 11953, "trial_type": "mouselab-mdp", "trial_index": 28, "time_elapsed": 547425, "internal_node_id": "0.0-4.0-1.0-13.0"}}, {"uniqueid": "w16205134:a36056446", "current_trial": 29, "dateTime": 1664555461213, "trialdata": {"revealed_states": [], "num_clicks_accrued": [0, 0, 0, 0, 0, 0, 0, 0, 0, 0, 0, 0, 0], "stateRewards": ["", -2, -4, -48, 48, -2, -4, 24, 48, -4, -8, -24, 24], "withholdReward": true, "trial_id": "mdp_917590390609", "block": "test1", "trialIndex": 18, "score": 22.25, "costs": -0.75, "simulationMode": [null, null, null], "rewards": [-2, -4, 24], "path": ["0", "0", "5", "6", "7"], "rt": [4678, 56, 92], "actions": ["right", "right", "up"], "actionTimes": [6229, 6776, 7381], "queries": {"click": {"state": {"target": ["7", "6", "5"], "time": [2277, 4291, 4897]}, "edge": {"target": [], "time": []}}, "mouseover": {"state": {"target": ["5", "7", "3", "8", "6", "5"], "time": [1887, 1986, 2989, 3391, 4177, 4713]}, "edge": {"target": [], "time": []}}, "mouseout": {"state": {"target": ["8", "5", "0", "5", "7", "3", "8", "6", "5"], "time": [999, 1250, 1836, 1919, 2956, 3325, 3959, 4679, 5063]}, "edge": {"target": [], "time": []}}}, "displayed_time": "10.55", "trialTime": 11893, "trial_type": "mouselab-mdp", "trial_index": 29, "time_elapsed": 559386, "internal_node_id": "0.0-4.0-1.0-14.0"}}, {"uniqueid": "w16205134:a36056446", "current_trial": 30, "dateTime": 1664555471268, "trialdata": {"revealed_states": [], "num_clicks_accrued": [0, 0, 0, 0, 0, 0, 0, 0, 0, 0, 0, 0, 0], "stateRewards": ["", -2, -8, 24, -24, 4, -8, 48, 48, -4, -8, -24, -48], "withholdReward": true, "trial_id": "mdp_286767261523", "block": "test1", "trialIndex": 19, "score": 47.75, "costs": -1.25, "simulationMode": [null, null, null], "rewards": [4, -8, 48], "path": ["0", "0", "5", "6", "8"], "rt": [5455, 16, 22], "actions": ["right", "right", "down"], "actionTimes": [6508, 7031, 7554], "queries": {"click": {"state": {"target": ["11", "12", "8", "6", "5"], "time": [2022, 2997, 3769, 5099, 5824]}, "edge": {"target": [], "time": []}}, "mouseover": {"state": {"target": ["9", "11", "12", "8", "8", "5", "5", "6", "6", "5"], "time": [1295, 1780, 2934, 3401, 3686, 4573, 4690, 4739, 5023, 5710]}, "edge": {"target": [], "time": []}}, "mouseout": {"state": {"target": ["0", "9", "0", "9", "11", "12", "8", "8", "5", "5", "6", "6", "5"], "time": [441, 559, 893, 1346, 2332, 3285, 3418, 4021, 4589, 4705, 4789, 5224, 5976]}, "edge": {"target": [], "time": []}}}, "displayed_time": "9.06", "trialTime": 9987, "trial_type": "mouselab-mdp", "trial_index": 30, "time_elapsed": 569440, "internal_node_id": "0.0-4.0-1.0-15.0"}}, {"uniqueid": "w16205134:a36056446", "current_trial": 31, "dateTime": 1664555482612, "trialdata": {"revealed_states": [], "num_clicks_accrued": [0, 0, 0, 0, 0, 0, 0, 0, 0, 0, 0, 0, 0], "stateRewards": ["", -2, 8, -48, 48, 4, -8, -48, 48, 4, -4, -24, 48], "withholdReward": true, "trial_id": "mdp_144739116828", "block": "test1", "trialIndex": 20, "score": 48.5, "costs": -0.5, "simulationMode": [null, null, null], "rewards": [4, -8, 48], "path": ["0", "0", "5", "6", "8"], "rt": [2721, 116, 119], "actions": ["right", "right", "down"], "actionTimes": [3955, 4565, 5186], "queries": {"click": {"state": {"target": ["8", "6"], "time": [2041, 3208]}, "edge": {"target": [], "time": []}}, "mouseover": {"state": {"target": ["0", "8", "6", "6", "6"], "time": [1671, 1923, 2441, 2809, 3176]}, "edge": {"target": [], "time": []}}, "mouseout": {"state": {"target": ["5", "0", "8", "6", "6", "6"], "time": [868, 1688, 2408, 2491, 2842, 3344]}, "edge": {"target": [], "time": []}}}, "displayed_time": "10.24", "trialTime": 11275, "trial_type": "mouselab-mdp", "trial_index": 31, "time_elapsed": 580785, "internal_node_id": "0.0-4.0-1.0-16.0"}}, {"uniqueid": "w16205134:a36056446", "current_trial": 32, "dateTime": 1664555494564, "trialdata": {"revealed_states": [], "num_clicks_accrued": [0, 0, 0, 0, 0, 0, 0, 0, 0, 0, 0, 0, 0], "stateRewards": ["", -4, 8, -24, 24, -2, -8, 24, -24, 4, -4, -48, 48], "withholdReward": true, "trial_id": "mdp_297684722007", "block": "test1", "trialIndex": 21, "score": 32, "costs": -1, "simulationMode": [null, null, null], "rewards": [-4, 8, 24], "path": ["0", "0", "1", "2", "4"], "rt": [6139, 1706, 417], "actions": ["up", "up", "left"], "actionTimes": [6957, 9158, 10077], "queries": {"click": {"state": {"target": ["3", "4", "2", "1"], "time": [2308, 3300, 4580, 6208]}, "edge": {"target": [], "time": []}}, "mouseover": {"state": {"target": ["5", "2", "3", "3", "2", "4", "4", "1", "5", "2", "1"], "time": [1615, 1699, 1833, 2201, 2602, 2669, 3003, 3839, 3940, 4475, 5628]}, "edge": {"target": [], "time": []}}, "mouseout": {"state": {"target": ["6", "5", "0", "5", "2", "3", "3", "2", "4", "4", "1", "5", "2", "1"], "time": [361, 461, 964, 1650, 1816, 1900, 2569, 2635, 2854, 3706, 3857, 4208, 4943, 6314]}, "edge": {"target": [], "time": []}}}, "displayed_time": "10.58", "trialTime": 11884, "trial_type": "mouselab-mdp", "trial_index": 32, "time_elapsed": 592737, "internal_node_id": "0.0-4.0-1.0-17.0"}}, {"uniqueid": "w16205134:a36056446", "current_trial": 33, "dateTime": 1664555505820, "trialdata": {"revealed_states": [], "num_clicks_accrued": [0, 0, 0, 0, 0, 0, 0, 0, 0, 0, 0, 0, 0], "stateRewards": ["", -2, -8, -24, 24, -2, -8, -48, 24, -2, -8, 24, 24], "withholdReward": false, "trial_id": "mdp_336617436097", "block": "test1", "trialIndex": 22, "score": 17.5, "costs": -1.5, "simulationMode": [null, null, null], "rewards": [-2, -8, 24], "path": ["0", "0", "9", "10", "11"], "rt": [6886, 90, 107], "actions": ["left", "left", "up"], "actionTimes": [8015, 8610, 9214], "queries": {"click": {"state": {"target": ["7", "4", "3", "12", "11", "10"], "time": [1779, 2497, 3183, 4439, 5301, 6931]}, "edge": {"target": [], "time": []}}, "mouseover": {"state": {"target": ["5", "6", "7", "3", "4", "2", "3", "3", "11", "10", "12", "10", "11", "10"], "time": [1380, 1497, 1579, 2133, 2266, 2834, 2868, 3118, 3937, 4054, 4205, 4707, 5209, 6897]}, "edge": {"target": [], "time": []}}, "mouseout": {"state": {"target": ["5", "0", "0", "5", "6", "7", "3", "4", "2", "3", "3", "3", "11", "10", "12", "10", "11", "10"], "time": [560, 794, 994, 1429, 1564, 2082, 2148, 2818, 2867, 2901, 3402, 3536, 4037, 4088, 4691, 4808, 5459, 7081]}, "edge": {"target": [], "time": []}}}, "displayed_time": "9.71", "trialTime": 11182, "trial_type": "mouselab-mdp", "trial_index": 33, "time_elapsed": 603993, "internal_node_id": "0.0-4.0-1.0-18.0"}}, {"uniqueid": "w16205134:a36056446", "current_trial": 34, "dateTime": 1664555516004, "trialdata": {"revealed_states": [], "num_clicks_accrued": [0, 0, 0, 0, 0, 0, 0, 0, 0, 0, 0, 0, 0], "stateRewards": ["", 2, 4, 48, 24, -4, 8, 48, 48, 2, -4, -48, -24], "withholdReward": true, "trial_id": "mdp_822099887466", "block": "test1", "trialIndex": 23, "score": 56.5, "costs": -0.5, "simulationMode": [null, null, null], "rewards": [-4, 8, 48], "path": ["0", "0", "5", "6", "8"], "rt": [2325, 62, 51], "actions": ["right", "right", "down"], "actionTimes": [3339, 3902, 4458], "queries": {"click": {"state": {"target": ["8", "6"], "time": [1681, 2494]}, "edge": {"target": [], "time": []}}, "mouseover": {"state": {"target": ["5", "8", "6", "7", "6"], "time": [1315, 1481, 1933, 1982, 2434]}, "edge": {"target": [], "time": []}}, "mouseout": {"state": {"target": ["10", "0", "5", "8", "6", "7", "6"], "time": [326, 1279, 1364, 1899, 1965, 2166, 2768]}, "edge": {"target": [], "time": []}}}, "displayed_time": "9.02", "trialTime": 10115, "trial_type": "mouselab-mdp", "trial_index": 34, "time_elapsed": 614177, "internal_node_id": "0.0-4.0-1.0-19.0"}}, {"uniqueid": "w16205134:a36056446", "current_trial": 35, "dateTime": 1664555539492, "trialdata": {"revealed_states": [], "num_clicks_accrued": [0, 0, 0, 0, 0, 0, 0, 0, 0, 0, 0, 0, 0], "stateRewards": ["", -4, -4, -48, 48, -4, -8, -24, -48, -2, 8, 48, 24], "withholdReward": false, "trial_id": "mdp_365393526663", "block": "test1", "trialIndex": 24, "score": 44.25, "costs": -0.75, "simulationMode": [null, null, null], "rewards": [-4, -4, 48], "path": ["0", "0", "1", "2", "4"], "rt": [3048, 82, 70], "actions": ["up", "up", "left"], "actionTimes": [3824, 4403, 4975], "queries": {"click": {"state": {"target": ["8", "7", "4"], "time": [1382, 2039, 2754]}, "edge": {"target": [], "time": []}}, "mouseover": {"state": {"target": ["5", "8", "6", "7", "2", "4", "4"], "time": [1092, 1326, 1727, 1928, 2395, 2429, 2697]}, "edge": {"target": [], "time": []}}, "mouseout": {"state": {"target": ["5", "0", "5", "8", "6", "7", "2", "4", "4", "11"], "time": [474, 524, 1159, 1710, 1760, 2346, 2412, 2463, 3199, 6843]}, "edge": {"target": [], "time": []}}}, "displayed_time": "8.78", "trialTime": 23415, "trial_type": "mouselab-mdp", "trial_index": 35, "time_elapsed": 637665, "internal_node_id": "0.0-4.0-1.0-20.0"}}, {"uniqueid": "w16205134:a36056446", "current_trial": 36, "dateTime": 1664555550987, "trialdata": {"revealed_states": [], "num_clicks_accrued": [0, 0, 0, 0, 0, 0, 0, 0, 0, 0, 0, 0, 0], "stateRewards": ["", 4, 8, -48, 24, -2, 8, -48, -48, -4, 4, 48, -48], "withholdReward": true, "trial_id": "mdp_693807815190", "block": "test1", "trialIndex": 25, "score": 40.25, "costs": -0.75, "simulationMode": [null, null, null], "rewards": [4, 8, 24], "path": ["0", "0", "1", "2", "4"], "rt": [3884, 456, 56], "actions": ["up", "up", "left"], "actionTimes": [5510, 6470, 7022], "queries": {"click": {"state": {"target": ["4", "3", "2"], "time": [2451, 3128, 4417]}, "edge": {"target": [], "time": []}}, "mouseover": {"state": {"target": ["1", "4", "2", "3", "7", "1", "2", "11"], "time": [2132, 2333, 2766, 3018, 3954, 4106, 4338, 4874]}, "edge": {"target": [], "time": []}}, "mouseout": {"state": {"target": ["10", "9", "0", "0", "1", "4", "2", "3", "7", "1", "2", "11"], "time": [575, 794, 961, 2081, 2199, 2700, 2951, 3569, 4038, 4156, 4773, 4890]}, "edge": {"target": [], "time": []}}}, "displayed_time": "10.63", "trialTime": 11422, "trial_type": "mouselab-mdp", "trial_index": 36, "time_elapsed": 649160, "internal_node_id": "0.0-4.0-1.0-21.0"}}, {"uniqueid": "w16205134:a36056446", "current_trial": 37, "dateTime": 1664555561770, "trialdata": {"revealed_states": [], "num_clicks_accrued": [0, 0, 0, 0, 0, 0, 0, 0, 0, 0, 0, 0, 0], "stateRewards": ["", -2, 8, -48, 48, -4, 8, -24, 24, 4, -4, 24, -48], "withholdReward": true, "trial_id": "mdp_904238083902", "block": "test1", "trialIndex": 26, "score": 28.25, "costs": -0.75, "simulationMode": [null, null, null], "rewards": [4, -4, 24], "path": ["0", "0", "9", "10", "11"], "rt": [4716, 97, 131], "actions": ["left", "left", "up"], "actionTimes": [5793, 6388, 7024], "queries": {"click": {"state": {"target": ["11", "10", "9"], "time": [2429, 4370, 5005]}, "edge": {"target": [], "time": []}}, "mouseover": {"state": {"target": ["11", "10", "12", "12", "10", "9"], "time": [1926, 3096, 3145, 4065, 4167, 4867]}, "edge": {"target": [], "time": []}}, "mouseout": {"state": {"target": ["10", "9", "11", "10", "12", "12", "10", "9", "9", "4"], "time": [470, 554, 2979, 3112, 3798, 4148, 4601, 5336, 9348, 9398]}, "edge": {"target": [], "time": []}}}, "displayed_time": "10.08", "trialTime": 10712, "trial_type": "mouselab-mdp", "trial_index": 37, "time_elapsed": 659943, "internal_node_id": "0.0-4.0-1.0-22.0"}}, {"uniqueid": "w16205134:a36056446", "current_trial": 38, "dateTime": 1664555578203, "trialdata": {"revealed_states": [], "num_clicks_accrued": [0, 0, 0, 0, 0, 0, 0, 0, 0, 0, 0, 0, 0], "stateRewards": ["", -4, -8, -48, 24, -4, -4, -24, -48, 2, -8, -24, -48], "withholdReward": true, "trial_id": "mdp_628181832088", "block": "test1", "trialIndex": 27, "score": 15.75, "costs": -1.25, "simulationMode": [null, null, null], "rewards": [-4, -8, 24], "path": ["0", "0", "1", "2", "4"], "rt": [5590, 181, 11], "actions": ["up", "up", "left"], "actionTimes": [6446, 7121, 7636], "queries": {"click": {"state": {"target": ["3", "4", "11", "2", "1"], "time": [1825, 2485, 3607, 4279, 4962]}, "edge": {"target": [], "time": []}}, "mouseover": {"state": {"target": ["0", "5", "1", "2", "2", "3", "2", "4", "4", "11", "2", "1", "7", "7"], "time": [1153, 1220, 1370, 1421, 1488, 1739, 2156, 2190, 2423, 3377, 4130, 4832, 5600, 5818]}, "edge": {"target": [], "time": []}}, "mouseout": {"state": {"target": ["9", "0", "0", "5", "1", "2", "2", "3", "2", "4", "4", "11", "2", "4", "1", "1", "7", "7", "5", "9"], "time": [367, 483, 1187, 1320, 1388, 1437, 1504, 2140, 2173, 2239, 2742, 3779, 4448, 4547, 5200, 5567, 5617, 14113, 15668, 15968]}, "edge": {"target": [], "time": []}}}, "displayed_time": "9.86", "trialTime": 16357, "trial_type": "mouselab-mdp", "trial_index": 38, "time_elapsed": 676376, "internal_node_id": "0.0-4.0-1.0-23.0"}}, {"uniqueid": "w16205134:a36056446", "current_trial": 39, "dateTime": 1664555589730, "trialdata": {"revealed_states": [], "num_clicks_accrued": [0, 0, 0, 0, 0, 0, 0, 0, 0, 0, 0, 0, 0], "stateRewards": ["", 2, 8, 24, -48, 4, 8, 24, 48, 2, -8, -24, 24], "withholdReward": true, "trial_id": "mdp_939899431582", "block": "test1", "trialIndex": 28, "score": 39.75, "costs": -1.25, "simulationMode": [null, null, null], "rewards": [4, 8, 24], "path": ["0", "0", "5", "6", "7"], "rt": [6043, 363, 126], "actions": ["right", "right", "up"], "actionTimes": [7233, 8088, 8704], "queries": {"click": {"state": {"target": ["4", "3", "7", "6", "5"], "time": [3330, 4047, 4554, 5626, 6481]}, "edge": {"target": [], "time": []}}, "mouseover": {"state": {"target": ["5", "2", "4", "2", "3", "3", "7", "6", "8", "6", "5"], "time": [2558, 2977, 3245, 3595, 3662, 3930, 4381, 4899, 4966, 5367, 6070]}, "edge": {"target": [], "time": []}}, "mouseout": {"state": {"target": ["0", "5", "2", "4", "2", "3", "3", "7", "6", "8", "6", "5", "6"], "time": [1638, 2625, 2993, 3546, 3646, 3746, 4313, 4866, 4949, 5150, 5886, 6738, 6773]}, "edge": {"target": [], "time": []}}}, "displayed_time": "10.19", "trialTime": 11448, "trial_type": "mouselab-mdp", "trial_index": 39, "time_elapsed": 687902, "internal_node_id": "0.0-4.0-1.0-24.0"}}, {"uniqueid": "w16205134:a36056446", "current_trial": 40, "dateTime": 1664555598546, "trialdata": {"revealed_states": [], "num_clicks_accrued": [0, 0, 0, 0, 0, 0, 0, 0, 0, 0, 0, 0, 0], "stateRewards": ["", -2, 4, -24, -24, -2, 4, 48, 24, -4, -8, 24, -48], "withholdReward": true, "trial_id": "mdp_191839460481", "block": "test1", "trialIndex": 29, "score": 54.5, "costs": -0.5, "simulationMode": [null, null, null], "rewards": [-2, 4, 48], "path": ["0", "0", "5", "6", "7"], "rt": [2414, 574, 441], "actions": ["right", "right", "up"], "actionTimes": [3182, 4254, 5190], "queries": {"click": {"state": {"target": ["7", "6"], "time": [1257, 2401]}, "edge": {"target": [], "time": []}}, "mouseover": {"state": {"target": ["7", "5", "6"], "time": [1085, 1771, 2223]}, "edge": {"target": [], "time": []}}, "mouseout": {"state": {"target": ["0", "7", "5", "6"], "time": [666, 1638, 2054, 2590]}, "edge": {"target": [], "time": []}}}, "displayed_time": "7.77", "trialTime": 8742, "trial_type": "mouselab-mdp", "trial_index": 40, "time_elapsed": 696718, "internal_node_id": "0.0-4.0-1.0-25.0"}}, {"uniqueid": "w16205134:a36056446", "current_trial": 41, "dateTime": 1664555609049, "trialdata": {"revealed_states": [], "num_clicks_accrued": [0, 0, 0, 0, 0, 0, 0, 0, 0, 0, 0, 0, 0], "stateRewards": ["", 2, 8, 48, 24, -4, 4, -48, 24, 2, 8, 48, 48], "withholdReward": true, "trial_id": "mdp_367344599162", "block": "test1", "trialIndex": 30, "score": 38, "costs": -1, "simulationMode": [null, null, null], "rewards": [2, 8, 24], "path": ["0", "0", "1", "2", "4"], "rt": [4030, 15, 711], "actions": ["up", "up", "left"], "actionTimes": [4819, 5332, 6547], "queries": {"click": {"state": {"target": ["7", "8", "4", "2"], "time": [1343, 2052, 2897, 3744]}, "edge": {"target": [], "time": []}}, "mouseover": {"state": {"target": ["5", "6", "6", "7", "8", "2", "4", "2", "1"], "time": [952, 1002, 1102, 1170, 1971, 2456, 2758, 3628, 4079]}, "edge": {"target": [], "time": []}}, "mouseout": {"state": {"target": ["6", "5", "5", "6", "6", "7", "8", "2", "4", "2", "1"], "time": [483, 550, 984, 1035, 1119, 1671, 2339, 2508, 3226, 4029, 4229]}, "edge": {"target": [], "time": []}}}, "displayed_time": "9.79", "trialTime": 10435, "trial_type": "mouselab-mdp", "trial_index": 41, "time_elapsed": 707222, "internal_node_id": "0.0-4.0-1.0-26.0"}}, {"uniqueid": "w16205134:a36056446", "current_trial": 42, "dateTime": 1664555618889, "trialdata": {"revealed_states": [], "num_clicks_accrued": [0, 0, 0, 0, 0, 0, 0, 0, 0, 0, 0, 0, 0], "stateRewards": ["", -2, 8, 48, -48, 4, -8, 24, 24, 4, 4, -48, -24], "withholdReward": true, "trial_id": "mdp_746937869927", "block": "test1", "trialIndex": 31, "score": 58.25, "costs": -0.75, "simulationMode": [null, null, null], "rewards": [-2, 8, 48], "path": ["0", "0", "1", "2", "3"], "rt": [2850, 73, 127], "actions": ["up", "up", "right"], "actionTimes": [3729, 4300, 4921], "queries": {"click": {"state": {"target": ["4", "3", "2"], "time": [1369, 2071, 2931]}, "edge": {"target": [], "time": []}}, "mouseover": {"state": {"target": ["4", "3", "2"], "time": [1264, 1966, 2836]}, "edge": {"target": [], "time": []}}, "mouseout": {"state": {"target": ["9", "4", "3", "2", "3"], "time": [544, 1681, 2368, 3088, 3154]}, "edge": {"target": [], "time": []}}}, "displayed_time": "8.88", "trialTime": 9769, "trial_type": "mouselab-mdp", "trial_index": 42, "time_elapsed": 717062, "internal_node_id": "0.0-4.0-1.0-27.0"}}, {"uniqueid": "w16205134:a36056446", "current_trial": 43, "dateTime": 1664555630289, "trialdata": {"revealed_states": [], "num_clicks_accrued": [0, 0, 0, 0, 0, 0, 0, 0, 0, 0, 0, 0, 0], "stateRewards": ["", -2, 4, 48, -24, 2, 8, 24, 48, 2, 4, -24, -48], "withholdReward": false, "trial_id": "mdp_892412058587", "block": "test1", "trialIndex": 32, "score": 54.5, "costs": -0.5, "simulationMode": [null, null, null], "rewards": [-2, 4, 48], "path": ["0", "0", "1", "2", "3"], "rt": [2511, 199, 158], "actions": ["up", "up", "right"], "actionTimes": [3791, 4482, 5143], "queries": {"click": {"state": {"target": ["3", "2"], "time": [1811, 2632]}, "edge": {"target": [], "time": []}}, "mouseover": {"state": {"target": ["3", "2", "2", "7"], "time": [1705, 2173, 2524, 2893]}, "edge": {"target": [], "time": []}}, "mouseout": {"state": {"target": ["1", "0", "3", "2", "2", "7"], "time": [985, 1337, 2089, 2340, 2826, 2908]}, "edge": {"target": [], "time": []}}}, "displayed_time": "9.28", "trialTime": 11326, "trial_type": "mouselab-mdp", "trial_index": 43, "time_elapsed": 728462, "internal_node_id": "0.0-4.0-1.0-28.0"}}, {"uniqueid": "w16205134:a36056446", "current_trial": 44, "dateTime": 1664555641032, "trialdata": {"revealed_states": [], "num_clicks_accrued": [0, 0, 0, 0, 0, 0, 0, 0, 0, 0, 0, 0, 0], "stateRewards": ["", 4, 8, 24, 24, 2, -4, 48, -24, -4, 8, -24, 24], "withholdReward": false, "trial_id": "mdp_932292142091", "block": "test1", "trialIndex": 33, "score": 40.25, "costs": -0.75, "simulationMode": [null, null, null], "rewards": [4, 8, 24], "path": ["0", "0", "1", "2", "3"], "rt": [3019, 153, 49], "actions": ["up", "up", "right"], "actionTimes": [4438, 5090, 5638], "queries": {"click": {"state": {"target": ["3", "2", "1"], "time": [2385, 3131, 3719]}, "edge": {"target": [], "time": []}}, "mouseover": {"state": {"target": ["1", "2", "3", "3", "2", "1", "7"], "time": [1792, 1977, 2026, 2309, 3063, 3631, 3898]}, "edge": {"target": [], "time": []}}, "mouseout": {"state": {"target": ["7", "5", "0", "1", "2", "3", "3", "2", "1"], "time": [821, 1089, 1526, 1808, 2010, 2076, 2778, 3447, 3832]}, "edge": {"target": [], "time": []}}}, "displayed_time": "9.42", "trialTime": 10670, "trial_type": "mouselab-mdp", "trial_index": 44, "time_elapsed": 739205, "internal_node_id": "0.0-4.0-1.0-29.0"}}, {"uniqueid": "w16205134:a36056446", "current_trial": 45, "dateTime": 1664555678205, "trialdata": {"rt": 37170, "stimulus": "<h1> End of block! </h1>\n\nYou have reached the end of the block 1/4. If you need a short break, feel free to take one now before moving on.\n\n<br><br>\nIn the next block, you will complete another 30 rounds of this game.\n\n<br><br>\n<div style='text-align: center;'>Press <code>space</code> to begin.</div>\n<br><br>\n<div style='text-align: center;'>(If the experiment doesn't continue, try clicking on the text and then pressing <code>space</code>.)</div>", "response": " ", "trial_id": "mdp_ready_2", "trial_type": "html-keyboard-response", "trial_index": 45, "time_elapsed": 776378, "internal_node_id": "0.0-4.0-2.0"}}, {"uniqueid": "w16205134:a36056446", "current_trial": 46, "dateTime": 1664555690624, "trialdata": {"revealed_states": [], "num_clicks_accrued": [0, 0, 0, 0, 0, 0, 0, 0, 0, 0, 0, 0, 0], "stateRewards": ["", 4, -8, -24, 24, 2, -4, 24, 24, 2, -4, 48, 48], "withholdReward": true, "trial_id": "mdp_457607480918", "block": "test2", "trialIndex": 34, "score": 24, "costs": -1, "simulationMode": [null, null, null], "rewards": [4, -8, 24], "path": ["0", "0", "1", "2", "4"], "rt": [3942, 113, 10], "actions": ["up", "up", "left"], "actionTimes": [5885, 6489, 7003], "queries": {"click": {"state": {"target": ["3", "4", "2", "1"], "time": [2501, 3116, 4323, 4765]}, "edge": {"target": [], "time": []}}, "mouseover": {"state": {"target": ["5", "3", "2", "4", "11", "2", "1", "11"], "time": [2059, 2379, 2796, 3012, 3565, 4250, 4736, 5154]}, "edge": {"target": [], "time": []}}, "mouseout": {"state": {"target": ["1", "0", "0", "5", "3", "2", "4", "11", "4", "2", "1", "11"], "time": [1038, 1424, 2009, 2076, 2763, 2895, 3482, 4067, 4217, 4568, 4986, 5169]}, "edge": {"target": [], "time": []}}}, "displayed_time": "10.95", "trialTime": 12341, "trial_type": "mouselab-mdp", "trial_index": 46, "time_elapsed": 788797, "internal_node_id": "0.0-4.0-3.0-0.0"}}, {"uniqueid": "w16205134:a36056446", "current_trial": 47, "dateTime": 1664555700954, "trialdata": {"revealed_states": [], "num_clicks_accrued": [0, 0, 0, 0, 0, 0, 0, 0, 0, 0, 0, 0, 0], "stateRewards": ["", 4, 4, 48, -48, -2, 4, 48, -48, -4, 4, -24, -24], "withholdReward": true, "trial_id": "mdp_753324812898", "block": "test2", "trialIndex": 35, "score": 54.5, "costs": -0.5, "simulationMode": [null, null, null], "rewards": [-2, 4, 48], "path": ["0", "0", "5", "6", "7"], "rt": [2220, 648, 46], "actions": ["right", "right", "up"], "actionTimes": [3059, 4202, 4754], "queries": {"click": {"state": {"target": ["7", "6"], "time": [1417, 2367]}, "edge": {"target": [], "time": []}}, "mouseover": {"state": {"target": ["5", "7", "7", "5", "6"], "time": [962, 1146, 1346, 1914, 2132]}, "edge": {"target": [], "time": []}}, "mouseout": {"state": {"target": ["11", "5", "7", "7", "5", "6", "6", "5"], "time": [326, 979, 1163, 1849, 2115, 2500, 9539, 10008]}, "edge": {"target": [], "time": []}}}, "displayed_time": "8.84", "trialTime": 10253, "trial_type": "mouselab-mdp", "trial_index": 47, "time_elapsed": 799126, "internal_node_id": "0.0-4.0-3.0-1.0"}}, {"uniqueid": "w16205134:a36056446", "current_trial": 48, "dateTime": 1664555710406, "trialdata": {"revealed_states": [], "num_clicks_accrued": [0, 0, 0, 0, 0, 0, 0, 0, 0, 0, 0, 0, 0], "stateRewards": ["", 4, -4, 48, 24, 2, -8, 24, -48, -2, -4, -48, -48], "withholdReward": true, "trial_id": "mdp_655302318695", "block": "test2", "trialIndex": 36, "score": 52.5, "costs": -0.5, "simulationMode": [null, null, null], "rewards": [4, -4, 48], "path": ["0", "0", "1", "2", "3"], "rt": [2406, 446, 87], "actions": ["up", "up", "right"], "actionTimes": [2923, 3866, 4458], "queries": {"click": {"state": {"target": ["7", "3"], "time": [1085, 1803]}, "edge": {"target": [], "time": []}}, "mouseover": {"state": {"target": ["7", "3", "2"], "time": [1009, 1628, 2147]}, "edge": {"target": [], "time": []}}, "mouseout": {"state": {"target": ["0", "7", "3", "2"], "time": [624, 1443, 2098, 2230]}, "edge": {"target": [], "time": []}}}, "displayed_time": "8.52", "trialTime": 9370, "trial_type": "mouselab-mdp", "trial_index": 48, "time_elapsed": 808579, "internal_node_id": "0.0-4.0-3.0-2.0"}}, {"uniqueid": "w16205134:a36056446", "current_trial": 49, "dateTime": 1664555720742, "trialdata": {"revealed_states": [], "num_clicks_accrued": [0, 0, 0, 0, 0, 0, 0, 0, 0, 0, 0, 0, 0], "stateRewards": ["", -2, -4, -24, 48, -2, -8, -48, -24, 4, 8, 48, 24], "withholdReward": true, "trial_id": "mdp_625355871626", "block": "test2", "trialIndex": 37, "score": 46.75, "costs": -0.25, "simulationMode": [null, null, null], "rewards": [-2, -4, 48], "path": ["0", "0", "1", "2", "4"], "rt": [1991, 191, 197], "actions": ["up", "up", "left"], "actionTimes": [2687, 3371, 4063], "queries": {"click": {"state": {"target": ["4"], "time": [1671]}, "edge": {"target": [], "time": []}}, "mouseover": {"state": {"target": ["2", "4", "2", "3"], "time": [1155, 1290, 2025, 2110]}, "edge": {"target": [], "time": []}}, "mouseout": {"state": {"target": ["0", "2", "4", "2", "3"], "time": [805, 1257, 1959, 2076, 2143]}, "edge": {"target": [], "time": []}}}, "displayed_time": "9.70", "trialTime": 10255, "trial_type": "mouselab-mdp", "trial_index": 49, "time_elapsed": 818915, "internal_node_id": "0.0-4.0-3.0-3.0"}}, {"uniqueid": "w16205134:a36056446", "current_trial": 50, "dateTime": 1664555731238, "trialdata": {"revealed_states": [], "num_clicks_accrued": [0, 0, 0, 0, 0, 0, 0, 0, 0, 0, 0, 0, 0], "stateRewards": ["", 4, 4, 48, -24, -4, -8, 24, -24, 2, -8, -24, 24], "withholdReward": true, "trial_id": "mdp_933201675789", "block": "test2", "trialIndex": 38, "score": 60.25, "costs": -0.75, "simulationMode": [null, null, null], "rewards": [4, 4, 48], "path": ["0", "0", "1", "2", "3"], "rt": [2900, 285, 219], "actions": ["up", "up", "right"], "actionTimes": [3718, 4505, 5230], "queries": {"click": {"state": {"target": ["4", "3", "1"], "time": [1246, 1956, 2945]}, "edge": {"target": [], "time": []}}, "mouseover": {"state": {"target": ["1", "4", "2", "3", "1", "7"], "time": [993, 1127, 1594, 1880, 2815, 3116]}, "edge": {"target": [], "time": []}}, "mouseout": {"state": {"target": ["6", "5", "1", "4", "2", "3", "1", "7"], "time": [424, 625, 1027, 1562, 1679, 2297, 3066, 3133]}, "edge": {"target": [], "time": []}}}, "displayed_time": "9.82", "trialTime": 10422, "trial_type": "mouselab-mdp", "trial_index": 50, "time_elapsed": 829411, "internal_node_id": "0.0-4.0-3.0-4.0"}}, {"uniqueid": "w16205134:a36056446", "current_trial": 51, "dateTime": 1664555741031, "trialdata": {"revealed_states": [], "num_clicks_accrued": [0, 0, 0, 0, 0, 0, 0, 0, 0, 0, 0, 0, 0], "stateRewards": ["", 2, 8, 48, 24, 2, 8, 48, 48, -2, -4, -24, -48], "withholdReward": true, "trial_id": "mdp_717636349175", "block": "test2", "trialIndex": 39, "score": 62.75, "costs": -0.25, "simulationMode": [null, null, null], "rewards": [2, 8, 48], "path": ["0", "0", "1", "2", "3"], "rt": [2285, 70, 49], "actions": ["up", "up", "right"], "actionTimes": [3398, 3969, 4517], "queries": {"click": {"state": {"target": ["3"], "time": [1754]}, "edge": {"target": [], "time": []}}, "mouseover": {"state": {"target": ["3", "2"], "time": [1691, 2294]}, "edge": {"target": [], "time": []}}, "mouseout": {"state": {"target": ["1", "0", "0", "3", "2", "3"], "time": [454, 588, 1324, 2193, 2628, 2678]}, "edge": {"target": [], "time": []}}}, "displayed_time": "9.12", "trialTime": 9710, "trial_type": "mouselab-mdp", "trial_index": 51, "time_elapsed": 839204, "internal_node_id": "0.0-4.0-3.0-5.0"}}, {"uniqueid": "w16205134:a36056446", "current_trial": 52, "dateTime": 1664555753566, "trialdata": {"revealed_states": [], "num_clicks_accrued": [0, 0, 0, 0, 0, 0, 0, 0, 0, 0, 0, 0, 0], "stateRewards": ["", -2, 4, -24, -24, -2, 4, 48, 24, -4, -8, 24, -48], "withholdReward": false, "trial_id": "mdp_191839460481", "block": "test2", "trialIndex": 40, "score": 53.5, "costs": -1.5, "simulationMode": [null, null, null], "rewards": [-2, 4, 48], "path": ["0", "0", "5", "6", "7"], "rt": [5064, 407, 278], "actions": ["right", "right", "up"], "actionTimes": [5925, 6836, 7612], "queries": {"click": {"state": {"target": ["3", "4", "11", "12", "10", "7"], "time": [1391, 2084, 2646, 3488, 4118, 4906]}, "edge": {"target": [], "time": []}}, "mouseover": {"state": {"target": ["3", "2", "4", "11", "10", "12", "10", "9", "0", "5", "7", "6", "8"], "time": [1295, 1797, 1948, 2465, 2967, 3066, 3819, 4355, 4437, 4522, 4806, 5157, 5259]}, "edge": {"target": [], "time": []}}, "mouseout": {"state": {"target": ["3", "2", "4", "11", "10", "12", "10", "9", "0", "5", "7", "6", "8", "8"], "time": [1764, 1830, 2416, 2880, 3034, 3786, 4322, 4404, 4506, 4556, 5124, 5209, 5341, 11510]}, "edge": {"target": [], "time": []}}}, "displayed_time": "9.86", "trialTime": 12452, "trial_type": "mouselab-mdp", "trial_index": 52, "time_elapsed": 851739, "internal_node_id": "0.0-4.0-3.0-6.0"}}, {"uniqueid": "w16205134:a36056446", "current_trial": 53, "dateTime": 1664555765054, "trialdata": {"revealed_states": [], "num_clicks_accrued": [0, 0, 0, 0, 0, 0, 0, 0, 0, 0, 0, 0, 0], "stateRewards": ["", -4, 8, 48, -48, 2, -4, 24, -24, -2, 4, -24, -24], "withholdReward": true, "trial_id": "mdp_804988042722", "block": "test2", "trialIndex": 41, "score": 56.5, "costs": -0.5, "simulationMode": [null, null, null], "rewards": [-4, 8, 48], "path": ["0", "0", "1", "2", "3"], "rt": [2201, 102, 501], "actions": ["up", "up", "right"], "actionTimes": [2948, 3551, 4551], "queries": {"click": {"state": {"target": ["7", "3"], "time": [1260, 2058]}, "edge": {"target": [], "time": []}}, "mouseover": {"state": {"target": ["5", "7", "2", "3"], "time": [922, 1192, 1725, 1943]}, "edge": {"target": [], "time": []}}, "mouseout": {"state": {"target": ["8", "9", "0", "5", "7", "2", "3", "3", "7"], "time": [203, 404, 890, 973, 1659, 1810, 2378, 5521, 6373]}, "edge": {"target": [], "time": []}}}, "displayed_time": "9.75", "trialTime": 11412, "trial_type": "mouselab-mdp", "trial_index": 53, "time_elapsed": 863226, "internal_node_id": "0.0-4.0-3.0-7.0"}}, {"uniqueid": "w16205134:a36056446", "current_trial": 54, "dateTime": 1664555775077, "trialdata": {"revealed_states": [], "num_clicks_accrued": [0, 0, 0, 0, 0, 0, 0, 0, 0, 0, 0, 0, 0], "stateRewards": ["", -4, -8, -48, -48, 4, -8, 48, 48, 2, 8, 48, 24], "withholdReward": true, "trial_id": "mdp_880437222492", "block": "test2", "trialIndex": 42, "score": 62, "costs": -1, "simulationMode": [null, null, null], "rewards": [2, 8, 48], "path": ["0", "0", "9", "10", "11"], "rt": [5150, 86, 74], "actions": ["left", "left", "up"], "actionTimes": [6514, 7093, 7666], "queries": {"click": {"state": {"target": ["3", "4", "12", "11"], "time": [3244, 4069, 4975, 5583]}, "edge": {"target": [], "time": []}}, "mouseover": {"state": {"target": ["3", "2", "4", "12", "10", "11", "1"], "time": [2876, 3795, 3963, 4698, 5300, 5384, 5968]}, "edge": {"target": [], "time": []}}, "mouseout": {"state": {"target": ["5", "0", "3", "2", "4", "12", "10", "11", "1"], "time": [852, 1688, 3779, 3828, 4413, 5267, 5317, 5902, 6003]}, "edge": {"target": [], "time": []}}}, "displayed_time": "9.37", "trialTime": 9945, "trial_type": "mouselab-mdp", "trial_index": 54, "time_elapsed": 873250, "internal_node_id": "0.0-4.0-3.0-8.0"}}, {"uniqueid": "w16205134:a36056446", "current_trial": 55, "dateTime": 1664555785957, "trialdata": {"revealed_states": [], "num_clicks_accrued": [0, 0, 0, 0, 0, 0, 0, 0, 0, 0, 0, 0, 0], "stateRewards": ["", 2, -4, -24, -48, -2, 8, -24, 48, -2, 8, 24, -48], "withholdReward": false, "trial_id": "mdp_566582551557", "block": "test2", "trialIndex": 43, "score": 58, "costs": -1, "simulationMode": [null, null, null], "rewards": [-2, 8, 48], "path": ["0", "0", "5", "6", "8"], "rt": [4047, 414, 327], "actions": ["right", "right", "down"], "actionTimes": [4724, 5643, 6475], "queries": {"click": {"state": {"target": ["7", "8", "6", "5"], "time": [1292, 2050, 3095, 3709]}, "edge": {"target": [], "time": []}}, "mouseover": {"state": {"target": ["7", "6", "8", "6", "5"], "time": [1096, 1715, 1782, 2836, 3270]}, "edge": {"target": [], "time": []}}, "mouseout": {"state": {"target": ["5", "0", "7", "6", "8", "6", "5"], "time": [462, 744, 1683, 1766, 2485, 3237, 3822]}, "edge": {"target": [], "time": []}}}, "displayed_time": "9.68", "trialTime": 10804, "trial_type": "mouselab-mdp", "trial_index": 55, "time_elapsed": 884130, "internal_node_id": "0.0-4.0-3.0-9.0"}}, {"uniqueid": "w16205134:a36056446", "current_trial": 56, "dateTime": 1664555795932, "trialdata": {"revealed_states": [], "num_clicks_accrued": [0, 0, 0, 0, 0, 0, 0, 0, 0, 0, 0, 0, 0], "stateRewards": ["", -2, 8, -24, 48, -4, 4, -48, 24, 4, -8, 48, -24], "withholdReward": true, "trial_id": "mdp_425320427962", "block": "test2", "trialIndex": 44, "score": 58.25, "costs": -0.75, "simulationMode": [null, null, null], "rewards": [-2, 8, 48], "path": ["0", "0", "1", "2", "4"], "rt": [3458, 199, 133], "actions": ["up", "up", "left"], "actionTimes": [4121, 4812, 5448], "queries": {"click": {"state": {"target": ["8", "3", "4"], "time": [1163, 2446, 3172]}, "edge": {"target": [], "time": []}}, "mouseover": {"state": {"target": ["5", "8", "6", "7", "3", "2", "4", "4", "11"], "time": [914, 998, 1517, 1985, 2236, 2754, 2789, 3088, 3456]}, "edge": {"target": [], "time": []}}, "mouseout": {"state": {"target": ["0", "5", "8", "6", "7", "3", "2", "4", "4"], "time": [898, 931, 1500, 1550, 2017, 2737, 2788, 2821, 3390]}, "edge": {"target": [], "time": []}}}, "displayed_time": "8.66", "trialTime": 9896, "trial_type": "mouselab-mdp", "trial_index": 56, "time_elapsed": 894105, "internal_node_id": "0.0-4.0-3.0-10.0"}}, {"uniqueid": "w16205134:a36056446", "current_trial": 57, "dateTime": 1664555806644, "trialdata": {"revealed_states": [], "num_clicks_accrued": [0, 0, 0, 0, 0, 0, 0, 0, 0, 0, 0, 0, 0], "stateRewards": ["", 4, -4, 48, -48, 4, -4, 24, -24, 4, 8, -24, -48], "withholdReward": true, "trial_id": "mdp_433630527224", "block": "test2", "trialIndex": 45, "score": 52.5, "costs": -0.5, "simulationMode": [null, null, null], "rewards": [4, -4, 48], "path": ["0", "0", "1", "2", "3"], "rt": [2976, 178, 146], "actions": ["up", "up", "right"], "actionTimes": [4075, 4758, 5395], "queries": {"click": {"state": {"target": ["4", "3"], "time": [2141, 2771]}, "edge": {"target": [], "time": []}}, "mouseover": {"state": {"target": ["0", "1", "2", "4", "2", "3"], "time": [1114, 1518, 1686, 1986, 2487, 2537]}, "edge": {"target": [], "time": []}}, "mouseout": {"state": {"target": ["11", "10", "9", "0", "1", "2", "4", "2", "3"], "time": [497, 514, 565, 1385, 1660, 1903, 2470, 2520, 3057]}, "edge": {"target": [], "time": []}}}, "displayed_time": "10.10", "trialTime": 10627, "trial_type": "mouselab-mdp", "trial_index": 57, "time_elapsed": 904817, "internal_node_id": "0.0-4.0-3.0-11.0"}}, {"uniqueid": "w16205134:a36056446", "current_trial": 58, "dateTime": 1664555817547, "trialdata": {"revealed_states": [], "num_clicks_accrued": [0, 0, 0, 0, 0, 0, 0, 0, 0, 0, 0, 0, 0], "stateRewards": ["", 2, -4, -48, 24, -4, 4, 24, 24, 2, -8, -24, -48], "withholdReward": true, "trial_id": "mdp_807654778305", "block": "test2", "trialIndex": 46, "score": 27.25, "costs": -1.75, "simulationMode": [null, null, null], "rewards": [-4, 4, 24], "path": ["0", "0", "5", "6", "7"], "rt": [6892, 81, 71], "actions": ["right", "right", "up"], "actionTimes": [7669, 8255, 8828], "queries": {"click": {"state": {"target": ["3", "4", "11", "12", "8", "7", "6"], "time": [1375, 2234, 3139, 3790, 4645, 5137, 6658]}, "edge": {"target": [], "time": []}}, "mouseover": {"state": {"target": ["3", "2", "4", "11", "11", "12", "8", "7", "6"], "time": [1316, 1735, 1952, 2604, 2905, 3523, 4426, 4995, 6466]}, "edge": {"target": [], "time": []}}, "mouseout": {"state": {"target": ["7", "3", "2", "4", "11", "11", "12", "8", "7", "6"], "time": [414, 1718, 1751, 2555, 2653, 3440, 4026, 4828, 5396, 7220]}, "edge": {"target": [], "time": []}}}, "displayed_time": "9.33", "trialTime": 10828, "trial_type": "mouselab-mdp", "trial_index": 58, "time_elapsed": 915720, "internal_node_id": "0.0-4.0-3.0-12.0"}}, {"uniqueid": "w16205134:a36056446", "current_trial": 59, "dateTime": 1664555830795, "trialdata": {"revealed_states": [], "num_clicks_accrued": [0, 0, 0, 0, 0, 0, 0, 0, 0, 0, 0, 0, 0], "stateRewards": ["", 2, 8, 24, -48, 4, 8, 24, 24, 4, -8, 48, 48], "withholdReward": false, "trial_id": "mdp_646103824875", "block": "test2", "trialIndex": 47, "score": 40, "costs": -1, "simulationMode": [null, null, null], "rewards": [4, 8, 24], "path": ["0", "0", "5", "6", "7"], "rt": [3879, 367, 152], "actions": ["right", "right", "up"], "actionTimes": [6598, 7470, 8126], "queries": {"click": {"state": {"target": ["7", "3", "4", "6"], "time": [3336, 4198, 4728, 5633]}, "edge": {"target": [], "time": []}}, "mouseover": {"state": {"target": ["5", "7", "3", "3", "2", "4", "6"], "time": [3054, 3256, 3807, 4091, 4526, 4560, 5564]}, "edge": {"target": [], "time": []}}, "mouseout": {"state": {"target": ["0", "5", "7", "3", "3", "2", "4", "6"], "time": [3039, 3088, 3775, 3858, 4493, 4543, 5061, 5981]}, "edge": {"target": [], "time": []}}}, "displayed_time": "11.72", "trialTime": 13174, "trial_type": "mouselab-mdp", "trial_index": 59, "time_elapsed": 928968, "internal_node_id": "0.0-4.0-3.0-13.0"}}, {"uniqueid": "w16205134:a36056446", "current_trial": 60, "dateTime": 1664555840003, "trialdata": {"revealed_states": [], "num_clicks_accrued": [0, 0, 0, 0, 0, 0, 0, 0, 0, 0, 0, 0, 0], "stateRewards": ["", -2, 8, -48, 48, 4, -8, -48, 48, 4, -4, -24, 48], "withholdReward": true, "trial_id": "mdp_144739116828", "block": "test2", "trialIndex": 48, "score": 58.25, "costs": -0.75, "simulationMode": [null, null, null], "rewards": [-2, 8, 48], "path": ["0", "0", "1", "2", "4"], "rt": [2859, 140, 18], "actions": ["up", "up", "left"], "actionTimes": [3555, 4191, 4705], "queries": {"click": {"state": {"target": ["7", "3", "4"], "time": [1228, 1903, 2587]}, "edge": {"target": [], "time": []}}, "mouseover": {"state": {"target": ["5", "6", "7", "3", "2", "4", "4", "11"], "time": [872, 939, 1125, 1792, 2260, 2295, 2527, 2930]}, "edge": {"target": [], "time": []}}, "mouseout": {"state": {"target": ["0", "5", "6", "7", "3", "2", "4", "4", "11"], "time": [588, 889, 956, 1676, 2244, 2277, 2310, 2863, 5772]}, "edge": {"target": [], "time": []}}}, "displayed_time": "8.70", "trialTime": 9131, "trial_type": "mouselab-mdp", "trial_index": 60, "time_elapsed": 938176, "internal_node_id": "0.0-4.0-3.0-14.0"}}, {"uniqueid": "w16205134:a36056446", "current_trial": 61, "dateTime": 1664555850291, "trialdata": {"revealed_states": [], "num_clicks_accrued": [0, 0, 0, 0, 0, 0, 0, 0, 0, 0, 0, 0, 0], "stateRewards": ["", -2, -8, -24, -48, -2, -4, 48, -48, 4, 4, -48, 48], "withholdReward": true, "trial_id": "mdp_156977432949", "block": "test2", "trialIndex": 49, "score": 46.5, "costs": -0.5, "simulationMode": [null, null, null], "rewards": [-2, -4, 48], "path": ["0", "0", "5", "6", "7"], "rt": [2304, 10, 636], "actions": ["right", "right", "up"], "actionTimes": [3066, 3580, 4726], "queries": {"click": {"state": {"target": ["3", "7"], "time": [1543, 2078]}, "edge": {"target": [], "time": []}}, "mouseover": {"state": {"target": ["3", "7"], "time": [1480, 1965]}, "edge": {"target": [], "time": []}}, "mouseout": {"state": {"target": ["10", "0", "3", "7"], "time": [376, 978, 1848, 2350]}, "edge": {"target": [], "time": []}}}, "displayed_time": "9.77", "trialTime": 10210, "trial_type": "mouselab-mdp", "trial_index": 61, "time_elapsed": 948464, "internal_node_id": "0.0-4.0-3.0-15.0"}}, {"uniqueid": "w16205134:a36056446", "current_trial": 62, "dateTime": 1664555860538, "trialdata": {"revealed_states": [], "num_clicks_accrued": [0, 0, 0, 0, 0, 0, 0, 0, 0, 0, 0, 0, 0], "stateRewards": ["", -2, -4, -24, -48, 2, -8, -24, -24, 4, -8, 48, 48], "withholdReward": true, "trial_id": "mdp_950599994674", "block": "test2", "trialIndex": 50, "score": 47.75, "costs": -1.25, "simulationMode": [null, null, null], "rewards": [4, -8, 48], "path": ["0", "0", "9", "10", "11"], "rt": [4487, 64, 431], "actions": ["left", "left", "up"], "actionTimes": [5460, 6023, 6958], "queries": {"click": {"state": {"target": ["7", "8", "3", "4", "11"], "time": [1544, 2365, 3065, 3594, 4079]}, "edge": {"target": [], "time": []}}, "mouseover": {"state": {"target": ["5", "7", "6", "8", "6", "3", "3", "2", "4", "11", "10"], "time": [1308, 1427, 1927, 2228, 2663, 2731, 2964, 3297, 3381, 3883, 4351]}, "edge": {"target": [], "time": []}}, "mouseout": {"state": {"target": ["0", "5", "7", "6", "8", "6", "3", "3", "2", "4", "11", "10"], "time": [1276, 1342, 1893, 1995, 2662, 2680, 2746, 3264, 3348, 3816, 4301, 4436]}, "edge": {"target": [], "time": []}}}, "displayed_time": "8.98", "trialTime": 10171, "trial_type": "mouselab-mdp", "trial_index": 62, "time_elapsed": 958711, "internal_node_id": "0.0-4.0-3.0-16.0"}}, {"uniqueid": "w16205134:a36056446", "current_trial": 63, "dateTime": 1664555873098, "trialdata": {"revealed_states": [], "num_clicks_accrued": [0, 0, 0, 0, 0, 0, 0, 0, 0, 0, 0, 0, 0], "stateRewards": ["", 2, -4, -48, -48, -2, -4, -24, -48, -2, 8, 24, 24], "withholdReward": false, "trial_id": "mdp_656069446729", "block": "test2", "trialIndex": 51, "score": 33.5, "costs": -1.5, "simulationMode": [null, null, null], "rewards": [-2, 8, 24], "path": ["0", "0", "9", "10", "11"], "rt": [5374, 54, 1221], "actions": ["left", "left", "up"], "actionTimes": [6963, 7510, 9246], "queries": {"click": {"state": {"target": ["7", "3", "4", "11", "12", "10"], "time": [2541, 3261, 3930, 4589, 5265, 6182]}, "edge": {"target": [], "time": []}}, "mouseover": {"state": {"target": ["7", "7", "3", "2", "4", "11", "11", "10", "12", "10", "10"], "time": [2071, 2224, 3176, 3542, 3643, 4261, 4513, 4862, 5080, 5884, 6085]}, "edge": {"target": [], "time": []}}, "mouseout": {"state": {"target": ["11", "7", "5", "0", "7", "7", "3", "2", "4", "11", "11", "10", "12", "10", "10"], "time": [833, 1218, 1268, 1888, 2104, 2840, 3525, 3576, 4161, 4278, 4813, 4965, 5550, 5917, 6302]}, "edge": {"target": [], "time": []}}}, "displayed_time": "10.59", "trialTime": 12475, "trial_type": "mouselab-mdp", "trial_index": 63, "time_elapsed": 971271, "internal_node_id": "0.0-4.0-3.0-17.0"}}, {"uniqueid": "w16205134:a36056446", "current_trial": 64, "dateTime": 1664555884586, "trialdata": {"revealed_states": [], "num_clicks_accrued": [0, 0, 0, 0, 0, 0, 0, 0, 0, 0, 0, 0, 0], "stateRewards": ["", 4, 4, -24, -48, 2, 4, 24, -48, 2, 4, 24, 24], "withholdReward": true, "trial_id": "mdp_223558518218", "block": "test2", "trialIndex": 52, "score": 33.25, "costs": -1.75, "simulationMode": [null, null, null], "rewards": [2, 4, 24], "path": ["0", "0", "5", "6", "7"], "rt": [6722, 2, 19], "actions": ["right", "right", "up"], "actionTimes": [8096, 8597, 9135], "queries": {"click": {"state": {"target": ["7", "3", "4", "11", "12", "8", "6"], "time": [1916, 2834, 3511, 3969, 4578, 5307, 6782]}, "edge": {"target": [], "time": []}}, "mouseover": {"state": {"target": ["5", "6", "7", "3", "2", "4", "11", "10", "12", "8", "8", "6"], "time": [1506, 1573, 1756, 2542, 3194, 3329, 3729, 4265, 4465, 4867, 5218, 6689]}, "edge": {"target": [], "time": []}}, "mouseout": {"state": {"target": ["5", "6", "7", "3", "2", "4", "11", "10", "12", "8", "8", "6"], "time": [1539, 1689, 2241, 3179, 3262, 3696, 4198, 4332, 4698, 4918, 5635, 7190]}, "edge": {"target": [], "time": []}}}, "displayed_time": "10.38", "trialTime": 11409, "trial_type": "mouselab-mdp", "trial_index": 64, "time_elapsed": 982759, "internal_node_id": "0.0-4.0-3.0-18.0"}}, {"uniqueid": "w16205134:a36056446", "current_trial": 65, "dateTime": 1664555895618, "trialdata": {"revealed_states": [], "num_clicks_accrued": [0, 0, 0, 0, 0, 0, 0, 0, 0, 0, 0, 0, 0], "stateRewards": ["", -2, 4, -48, -48, -4, -8, 48, -48, 2, 4, 48, -48], "withholdReward": true, "trial_id": "mdp_258647270500", "block": "test2", "trialIndex": 53, "score": 58.25, "costs": -0.75, "simulationMode": [null, null, null], "rewards": [2, 4, 48], "path": ["0", "0", "9", "10", "11"], "rt": [2811, 280, 181], "actions": ["left", "left", "up"], "actionTimes": [3777, 4563, 5248], "queries": {"click": {"state": {"target": ["3", "4", "11"], "time": [1588, 2243, 2701]}, "edge": {"target": [], "time": []}}, "mouseover": {"state": {"target": ["3", "2", "4", "11", "10", "12"], "time": [1387, 1940, 1990, 2559, 2959, 3025]}, "edge": {"target": [], "time": []}}, "mouseout": {"state": {"target": ["0", "3", "2", "4", "11", "10", "12"], "time": [1238, 1924, 1973, 2492, 2926, 2992, 6605]}, "edge": {"target": [], "time": []}}}, "displayed_time": "9.97", "trialTime": 10952, "trial_type": "mouselab-mdp", "trial_index": 65, "time_elapsed": 993791, "internal_node_id": "0.0-4.0-3.0-19.0"}}, {"uniqueid": "w16205134:a36056446", "current_trial": 66, "dateTime": 1664555905177, "trialdata": {"revealed_states": [], "num_clicks_accrued": [0, 0, 0, 0, 0, 0, 0, 0, 0, 0, 0, 0, 0], "stateRewards": ["", -2, 4, 24, 48, 2, 4, -48, -48, -2, 8, 48, -24], "withholdReward": true, "trial_id": "mdp_305701202606", "block": "test2", "trialIndex": 54, "score": 54, "costs": -1, "simulationMode": [null, null, null], "rewards": [-2, 4, 48], "path": ["0", "0", "1", "2", "4"], "rt": [3885, 2, 522], "actions": ["up", "up", "left"], "actionTimes": [4847, 5340, 6378], "queries": {"click": {"state": {"target": ["7", "8", "3", "4"], "time": [1581, 2404, 3007, 3579]}, "edge": {"target": [], "time": []}}, "mouseover": {"state": {"target": ["5", "7", "6", "8", "3", "2", "4", "11"], "time": [1224, 1506, 2008, 2293, 2845, 3280, 3430, 3948]}, "edge": {"target": [], "time": []}}, "mouseout": {"state": {"target": ["9", "5", "7", "6", "8", "3", "2", "4", "11"], "time": [586, 1273, 1993, 2042, 2711, 3246, 3345, 3864, 4167]}, "edge": {"target": [], "time": []}}}, "displayed_time": "8.96", "trialTime": 9478, "trial_type": "mouselab-mdp", "trial_index": 66, "time_elapsed": 1003350, "internal_node_id": "0.0-4.0-3.0-20.0"}}, {"uniqueid": "w16205134:a36056446", "current_trial": 67, "dateTime": 1664555915979, "trialdata": {"revealed_states": [], "num_clicks_accrued": [0, 0, 0, 0, 0, 0, 0, 0, 0, 0, 0, 0, 0], "stateRewards": ["", 2, 8, 24, 24, 2, -8, -24, -48, 2, 8, -48, 48], "withholdReward": true, "trial_id": "mdp_745175888812", "block": "test2", "trialIndex": 55, "score": 61.5, "costs": -1.5, "simulationMode": [null, null, null], "rewards": [2, 8, 48], "path": ["0", "0", "9", "10", "12"], "rt": [4347, 48, 344], "actions": ["left", "left", "down"], "actionTimes": [5105, 5660, 6508], "queries": {"click": {"state": {"target": ["4", "3", "7", "8", "12", "11"], "time": [1253, 1911, 2452, 3121, 3765, 4332]}, "edge": {"target": [], "time": []}}, "mouseover": {"state": {"target": ["1", "4", "2", "3", "7", "7", "8", "12", "12", "10", "11"], "time": [945, 1246, 1580, 1781, 2131, 2382, 2751, 3403, 3704, 3971, 4205]}, "edge": {"target": [], "time": []}}, "mouseout": {"state": {"target": ["9", "0", "1", "4", "2", "3", "7", "7", "8", "12", "12", "10", "11"], "time": [409, 832, 961, 1531, 1631, 2082, 2167, 2667, 3303, 3419, 3938, 4004, 4472]}, "edge": {"target": [], "time": []}}}, "displayed_time": "9.76", "trialTime": 10722, "trial_type": "mouselab-mdp", "trial_index": 67, "time_elapsed": 1014151, "internal_node_id": "0.0-4.0-3.0-21.0"}}, {"uniqueid": "w16205134:a36056446", "current_trial": 68, "dateTime": 1664555926073, "trialdata": {"revealed_states": [], "num_clicks_accrued": [0, 0, 0, 0, 0, 0, 0, 0, 0, 0, 0, 0, 0], "stateRewards": ["", 2, -4, 48, -24, 4, -8, -24, 48, -2, -4, 24, -48], "withholdReward": true, "trial_id": "mdp_357328205509", "block": "test2", "trialIndex": 56, "score": 50.75, "costs": -0.25, "simulationMode": [null, null, null], "rewards": [2, -4, 48], "path": ["0", "0", "1", "2", "3"], "rt": [1679, 114, 423], "actions": ["up", "up", "right"], "actionTimes": [2836, 3440, 4367], "queries": {"click": {"state": {"target": ["3"], "time": [1825]}, "edge": {"target": [], "time": []}}, "mouseover": {"state": {"target": ["3", "2"], "time": [1603, 2356]}, "edge": {"target": [], "time": []}}, "mouseout": {"state": {"target": ["10", "9", "0", "3", "2", "4"], "time": [648, 816, 1369, 2188, 5115, 5231]}, "edge": {"target": [], "time": []}}}, "displayed_time": "9.16", "trialTime": 10004, "trial_type": "mouselab-mdp", "trial_index": 68, "time_elapsed": 1024246, "internal_node_id": "0.0-4.0-3.0-22.0"}}, {"uniqueid": "w16205134:a36056446", "current_trial": 69, "dateTime": 1664555936552, "trialdata": {"revealed_states": [], "num_clicks_accrued": [0, 0, 0, 0, 0, 0, 0, 0, 0, 0, 0, 0, 0], "stateRewards": ["", 2, -4, 48, -48, 2, 4, -24, 24, -4, -8, 24, -48], "withholdReward": true, "trial_id": "mdp_238810765895", "block": "test2", "trialIndex": 57, "score": 50.75, "costs": -0.25, "simulationMode": [null, null, null], "rewards": [2, -4, 48], "path": ["0", "0", "1", "2", "3"], "rt": [2127, 98, 415], "actions": ["up", "up", "right"], "actionTimes": [3115, 3718, 4638], "queries": {"click": {"state": {"target": ["3"], "time": [1630]}, "edge": {"target": [], "time": []}}, "mouseover": {"state": {"target": ["3"], "time": [1531]}, "edge": {"target": [], "time": []}}, "mouseout": {"state": {"target": ["3", "11"], "time": [2098, 5943]}, "edge": {"target": [], "time": []}}}, "displayed_time": "9.99", "trialTime": 10395, "trial_type": "mouselab-mdp", "trial_index": 69, "time_elapsed": 1034725, "internal_node_id": "0.0-4.0-3.0-23.0"}}, {"uniqueid": "w16205134:a36056446", "current_trial": 70, "dateTime": 1664555946160, "trialdata": {"revealed_states": [], "num_clicks_accrued": [0, 0, 0, 0, 0, 0, 0, 0, 0, 0, 0, 0, 0], "stateRewards": ["", -4, 8, 24, -24, 4, -8, -24, -24, -2, 8, -48, 24], "withholdReward": false, "trial_id": "mdp_240302100183", "block": "test2", "trialIndex": 58, "score": 31.25, "costs": -1.75, "simulationMode": [null, null, null], "rewards": [-4, 8, 24], "path": ["0", "0", "1", "2", "3"], "rt": [6333, 434, 57], "actions": ["up", "up", "right"], "actionTimes": [6854, 7790, 8349], "queries": {"click": {"state": {"target": ["3", "4", "11", "12", "8", "7", "2"], "time": [1013, 1775, 2213, 2840, 3533, 4086, 5799]}, "edge": {"target": [], "time": []}}, "mouseover": {"state": {"target": ["3", "2", "4", "4", "11", "10", "12", "8", "8", "7", "2"], "time": [952, 1403, 1435, 1719, 2104, 2489, 2673, 3090, 3475, 3994, 5681]}, "edge": {"target": [], "time": []}}, "mouseout": {"state": {"target": ["10", "9", "0", "3", "2", "4", "4", "11", "10", "12", "8", "8", "7", "2", "3"], "time": [215, 231, 415, 1385, 1418, 1453, 2004, 2456, 2539, 2990, 3124, 3692, 4312, 6033, 6083]}, "edge": {"target": [], "time": []}}}, "displayed_time": "8.85", "trialTime": 9525, "trial_type": "mouselab-mdp", "trial_index": 70, "time_elapsed": 1044333, "internal_node_id": "0.0-4.0-3.0-24.0"}}, {"uniqueid": "w16205134:a36056446", "current_trial": 71, "dateTime": 1664555957192, "trialdata": {"revealed_states": [], "num_clicks_accrued": [0, 0, 0, 0, 0, 0, 0, 0, 0, 0, 0, 0, 0], "stateRewards": ["", -2, -8, 48, -24, 2, -4, -48, -24, -2, -4, -48, 48], "withholdReward": true, "trial_id": "mdp_143798438087", "block": "test2", "trialIndex": 59, "score": 42.5, "costs": -0.5, "simulationMode": [null, null, null], "rewards": [-2, -8, 48], "path": ["0", "0", "1", "2", "3"], "rt": [2891, 102, 435], "actions": ["up", "up", "right"], "actionTimes": [4839, 5442, 6378], "queries": {"click": {"state": {"target": ["7", "3"], "time": [2593, 3511]}, "edge": {"target": [], "time": []}}, "mouseover": {"state": {"target": ["7", "3", "2", "4"], "time": [2496, 3434, 3783, 4050]}, "edge": {"target": [], "time": []}}, "mouseout": {"state": {"target": ["5", "0", "0", "0", "0", "7", "3", "2", "4"], "time": [690, 840, 1259, 1543, 2061, 2914, 3767, 4018, 4068]}, "edge": {"target": [], "time": []}}}, "displayed_time": "9.95", "trialTime": 10950, "trial_type": "mouselab-mdp", "trial_index": 71, "time_elapsed": 1055365, "internal_node_id": "0.0-4.0-3.0-25.0"}}, {"uniqueid": "w16205134:a36056446", "current_trial": 72, "dateTime": 1664555967976, "trialdata": {"revealed_states": [], "num_clicks_accrued": [0, 0, 0, 0, 0, 0, 0, 0, 0, 0, 0, 0, 0], "stateRewards": ["", -2, -4, 48, -24, 2, -4, -24, -48, 2, 8, -48, -24], "withholdReward": true, "trial_id": "mdp_238243948191", "block": "test2", "trialIndex": 60, "score": 46.75, "costs": -0.25, "simulationMode": [null, null, null], "rewards": [-2, -4, 48], "path": ["0", "0", "1", "2", "3"], "rt": [1796, 79, 28], "actions": ["up", "up", "right"], "actionTimes": [2867, 3447, 3979], "queries": {"click": {"state": {"target": ["3"], "time": [1611]}, "edge": {"target": [], "time": []}}, "mouseover": {"state": {"target": ["3", "2"], "time": [1410, 1995]}, "edge": {"target": [], "time": []}}, "mouseout": {"state": {"target": ["1", "3", "2"], "time": [791, 1962, 2130]}, "edge": {"target": [], "time": []}}}, "displayed_time": "10.07", "trialTime": 10699, "trial_type": "mouselab-mdp", "trial_index": 72, "time_elapsed": 1066148, "internal_node_id": "0.0-4.0-3.0-26.0"}}, {"uniqueid": "w16205134:a36056446", "current_trial": 73, "dateTime": 1664555979384, "trialdata": {"revealed_states": [], "num_clicks_accrued": [0, 0, 0, 0, 0, 0, 0, 0, 0, 0, 0, 0, 0], "stateRewards": ["", -4, -8, 48, -48, 2, -4, 48, -24, 2, -8, -48, -48], "withholdReward": false, "trial_id": "mdp_624553692913", "block": "test2", "trialIndex": 61, "score": 40.75, "costs": -0.25, "simulationMode": [null, null, null], "rewards": [-4, -8, 48], "path": ["0", "0", "1", "2", "3"], "rt": [1707, 120, 2], "actions": ["up", "up", "right"], "actionTimes": [2455, 3074, 3574], "queries": {"click": {"state": {"target": ["3"], "time": [1445]}, "edge": {"target": [], "time": []}}, "mouseover": {"state": {"target": ["3"], "time": [1365]}, "edge": {"target": [], "time": []}}, "mouseout": {"state": {"target": ["11", "1", "5", "0", "3"], "time": [243, 327, 495, 1014, 4490]}, "edge": {"target": [], "time": []}}}, "displayed_time": "9.75", "trialTime": 11327, "trial_type": "mouselab-mdp", "trial_index": 73, "time_elapsed": 1077557, "internal_node_id": "0.0-4.0-3.0-27.0"}}, {"uniqueid": "w16205134:a36056446", "current_trial": 74, "dateTime": 1664555989783, "trialdata": {"revealed_states": [], "num_clicks_accrued": [0, 0, 0, 0, 0, 0, 0, 0, 0, 0, 0, 0, 0], "stateRewards": ["", -4, 8, 24, -24, -2, 4, -24, 48, -2, 8, -48, -24], "withholdReward": false, "trial_id": "mdp_799359103169", "block": "test2", "trialIndex": 62, "score": 53.75, "costs": -1.25, "simulationMode": [null, null, null], "rewards": [-2, 4, 48], "path": ["0", "0", "5", "6", "8"], "rt": [4247, 125, 40], "actions": ["right", "right", "down"], "actionTimes": [5205, 5832, 6364], "queries": {"click": {"state": {"target": ["3", "4", "11", "12", "8"], "time": [1619, 2283, 2755, 3345, 4031]}, "edge": {"target": [], "time": []}}, "mouseover": {"state": {"target": ["0", "3", "4", "11", "10", "12", "8", "8"], "time": [1011, 1526, 2076, 2594, 3045, 3197, 3632, 3950]}, "edge": {"target": [], "time": []}}, "mouseout": {"state": {"target": ["0", "0", "3", "4", "11", "10", "12", "8", "8"], "time": [889, 1074, 1977, 2545, 2980, 3113, 3514, 3665, 4301]}, "edge": {"target": [], "time": []}}}, "displayed_time": "8.96", "trialTime": 10317, "trial_type": "mouselab-mdp", "trial_index": 74, "time_elapsed": 1087956, "internal_node_id": "0.0-4.0-3.0-28.0"}}, {"uniqueid": "w16205134:a36056446", "current_trial": 75, "dateTime": 1664556002679, "trialdata": {"revealed_states": [], "num_clicks_accrued": [0, 0, 0, 0, 0, 0, 0, 0, 0, 0, 0, 0, 0], "stateRewards": ["", 4, -4, 24, 48, 4, 8, -24, -24, -2, 4, 48, 48], "withholdReward": false, "trial_id": "mdp_624998450453", "block": "test2", "trialIndex": 63, "score": 52.25, "costs": -0.75, "simulationMode": [null, null, null], "rewards": [4, -4, 48], "path": ["0", "0", "1", "2", "4"], "rt": [3655, 84, 15], "actions": ["up", "up", "left"], "actionTimes": [4666, 5253, 5770], "queries": {"click": {"state": {"target": ["7", "3", "4"], "time": [2291, 2930, 3485]}, "edge": {"target": [], "time": []}}, "mouseover": {"state": {"target": ["5", "7", "7", "3", "2", "4", "11"], "time": [1504, 1740, 2192, 2843, 3197, 3244, 3779]}, "edge": {"target": [], "time": []}}, "mouseout": {"state": {"target": ["6", "5", "0", "5", "7", "7", "3", "2", "4", "11"], "time": [417, 635, 1421, 1521, 1790, 2558, 3195, 3228, 3730, 3947]}, "edge": {"target": [], "time": []}}}, "displayed_time": "10.02", "trialTime": 12810, "trial_type": "mouselab-mdp", "trial_index": 75, "time_elapsed": 1100852, "internal_node_id": "0.0-4.0-3.0-29.0"}}, {"uniqueid": "w16205134:a36056446", "current_trial": 76, "dateTime": 1664556006035, "trialdata": {"rt": 3351, "stimulus": "<h1> End of block! </h1>\n\nYou have reached the end of the block 2/4. If you need a short break, feel free to take one now before moving on.\n\n<br><br>\nIn the next block, you will complete another 30 rounds of this game.\n\n<br><br>\n<div style='text-align: center;'>Press <code>space</code> to begin.</div>\n<br><br>\n<div style='text-align: center;'>(If the experiment doesn't continue, try clicking on the text and then pressing <code>space</code>.)</div>", "response": " ", "trial_id": "mdp_ready_3", "trial_type": "html-keyboard-response", "trial_index": 76, "time_elapsed": 1104208, "internal_node_id": "0.0-4.0-4.0"}}, {"uniqueid": "w16205134:a36056446", "current_trial": 77, "dateTime": 1664556043278, "trialdata": {"revealed_states": [], "num_clicks_accrued": [0, 0, 0, 0, 0, 0, 0, 0, 0, 0, 0, 0, 0], "stateRewards": ["", 2, -8, 48, -24, -4, -8, -24, 48, -2, 4, 24, -48], "withholdReward": false, "trial_id": "mdp_186932504904", "block": "test3", "trialIndex": 64, "score": 44, "costs": -3, "simulationMode": [null, null, null], "rewards": [2, -8, 48], "path": ["0", "0", "1", "2", "3"], "rt": [13819, 152, 104], "actions": ["up", "up", "right"], "actionTimes": [14708, 15359, 15964], "queries": {"click": {"state": {"target": ["4", "3", "2", "1", "7", "5", "6", "8", "9", "10", "11", "12"], "time": [2234, 2972, 3954, 4350, 4986, 5994, 6316, 6631, 7484, 8230, 8790, 9295]}, "edge": {"target": [], "time": []}}, "mouseover": {"state": {"target": ["1", "2", "4", "2", "3", "2", "1", "7", "6", "5", "6", "8", "0", "9", "10", "11", "12"], "time": [1162, 1261, 2148, 2648, 2883, 3536, 4188, 4824, 5360, 5893, 6160, 6545, 6896, 6946, 7950, 8551, 9237]}, "edge": {"target": [], "time": []}}, "mouseout": {"state": {"target": ["11", "1", "2", "4", "2", "3", "2", "1", "7", "6", "5", "6", "8", "0", "9", "10", "11", "10", "12"], "time": [492, 1227, 1428, 2633, 2700, 3418, 4154, 4590, 5156, 5543, 6128, 6480, 6846, 6929, 7766, 8385, 9004, 9070, 9521]}, "edge": {"target": [], "time": []}}}, "displayed_time": "16.46", "trialTime": 37164, "trial_type": "mouselab-mdp", "trial_index": 77, "time_elapsed": 1141451, "internal_node_id": "0.0-4.0-5.0-0.0"}}, {"uniqueid": "w16205134:a36056446", "current_trial": 78, "dateTime": 1664556053981, "trialdata": {"revealed_states": [], "num_clicks_accrued": [0, 0, 0, 0, 0, 0, 0, 0, 0, 0, 0, 0, 0], "stateRewards": ["", -2, -8, 48, -24, 2, -4, -48, -24, -2, -4, -48, 48], "withholdReward": true, "trial_id": "mdp_143798438087", "block": "test3", "trialIndex": 65, "score": 42.75, "costs": -0.25, "simulationMode": [null, null, null], "rewards": [-2, -8, 48], "path": ["0", "0", "1", "2", "3"], "rt": [1993, 116, 30], "actions": ["up", "up", "right"], "actionTimes": [2960, 3572, 4104], "queries": {"click": {"state": {"target": ["3"], "time": [2014]}, "edge": {"target": [], "time": []}}, "mouseover": {"state": {"target": ["3"], "time": [1870]}, "edge": {"target": [], "time": []}}, "mouseout": {"state": {"target": ["6", "5", "0", "3", "5"], "time": [493, 678, 1013, 5009, 5142]}, "edge": {"target": [], "time": []}}}, "displayed_time": "9.97", "trialTime": 10615, "trial_type": "mouselab-mdp", "trial_index": 78, "time_elapsed": 1152154, "internal_node_id": "0.0-4.0-5.0-1.0"}}, {"uniqueid": "w16205134:a36056446", "current_trial": 79, "dateTime": 1664556064044, "trialdata": {"revealed_states": [], "num_clicks_accrued": [0, 0, 0, 0, 0, 0, 0, 0, 0, 0, 0, 0, 0], "stateRewards": ["", 2, 8, 24, 24, 2, -8, -24, -48, 2, 8, -48, 48], "withholdReward": true, "trial_id": "mdp_745175888812", "block": "test3", "trialIndex": 66, "score": 38.25, "costs": -0.75, "simulationMode": [null, null, null], "rewards": [2, 8, 24], "path": ["0", "0", "1", "2", "3"], "rt": [3503, 5, 358], "actions": ["up", "up", "right"], "actionTimes": [4278, 4776, 5647], "queries": {"click": {"state": {"target": ["4", "3", "2"], "time": [1201, 2178, 3465]}, "edge": {"target": [], "time": []}}, "mouseover": {"state": {"target": ["1", "4", "3", "3", "7", "2"], "time": [958, 1109, 1677, 2095, 2932, 3248]}, "edge": {"target": [], "time": []}}, "mouseout": {"state": {"target": ["5", "1", "0", "1", "4", "3", "3", "7", "3", "2", "3"], "time": [53, 205, 674, 973, 1393, 1795, 2546, 3165, 3231, 3633, 3683]}, "edge": {"target": [], "time": []}}}, "displayed_time": "8.78", "trialTime": 9972, "trial_type": "mouselab-mdp", "trial_index": 79, "time_elapsed": 1162217, "internal_node_id": "0.0-4.0-5.0-2.0"}}, {"uniqueid": "w16205134:a36056446", "current_trial": 80, "dateTime": 1664556074197, "trialdata": {"revealed_states": [], "num_clicks_accrued": [0, 0, 0, 0, 0, 0, 0, 0, 0, 0, 0, 0, 0], "stateRewards": ["", -2, 8, 24, -48, -4, -8, -24, -48, -4, 8, -24, 48], "withholdReward": true, "trial_id": "mdp_464339499860", "block": "test3", "trialIndex": 67, "score": 55.75, "costs": -1.25, "simulationMode": [null, null, null], "rewards": [-4, 8, 48], "path": ["0", "0", "9", "10", "12"], "rt": [4150, 261, 153], "actions": ["left", "left", "down"], "actionTimes": [4813, 5569, 6213], "queries": {"click": {"state": {"target": ["7", "3", "4", "11", "12"], "time": [1233, 1685, 2185, 2848, 3329]}, "edge": {"target": [], "time": []}}, "mouseover": {"state": {"target": ["7", "7", "3", "2", "4", "11", "11", "10", "12"], "time": [793, 1010, 1579, 1979, 2062, 2732, 2799, 3099, 3149]}, "edge": {"target": [], "time": []}}, "mouseout": {"state": {"target": ["1", "7", "7", "3", "2", "4", "11", "11", "10", "12"], "time": [322, 825, 1478, 1962, 2029, 2464, 2748, 3083, 3133, 3484]}, "edge": {"target": [], "time": []}}}, "displayed_time": "9.66", "trialTime": 10061, "trial_type": "mouselab-mdp", "trial_index": 80, "time_elapsed": 1172370, "internal_node_id": "0.0-4.0-5.0-3.0"}}, {"uniqueid": "w16205134:a36056446", "current_trial": 81, "dateTime": 1664556084797, "trialdata": {"revealed_states": [], "num_clicks_accrued": [0, 0, 0, 0, 0, 0, 0, 0, 0, 0, 0, 0, 0], "stateRewards": ["", 2, -4, -24, 24, 2, 8, 48, 48, 2, -8, 48, -24], "withholdReward": true, "trial_id": "mdp_330392242530", "block": "test3", "trialIndex": 68, "score": 62.25, "costs": -0.75, "simulationMode": [null, null, null], "rewards": [2, 8, 48], "path": ["0", "0", "5", "6", "7"], "rt": [3923, 90, 109], "actions": ["right", "right", "up"], "actionTimes": [4572, 5159, 5763], "queries": {"click": {"state": {"target": ["7", "5", "6"], "time": [1200, 3337, 3713]}, "edge": {"target": [], "time": []}}, "mouseover": {"state": {"target": ["7", "6", "5", "5", "6"], "time": [1055, 2726, 2860, 3161, 3545]}, "edge": {"target": [], "time": []}}, "mouseout": {"state": {"target": ["6", "5", "0", "7", "6", "5", "5", "6"], "time": [352, 402, 537, 1506, 2826, 2943, 3512, 3847]}, "edge": {"target": [], "time": []}}}, "displayed_time": "9.65", "trialTime": 10507, "trial_type": "mouselab-mdp", "trial_index": 81, "time_elapsed": 1182969, "internal_node_id": "0.0-4.0-5.0-4.0"}}, {"uniqueid": "w16205134:a36056446", "current_trial": 82, "dateTime": 1664556095684, "trialdata": {"revealed_states": [], "num_clicks_accrued": [0, 0, 0, 0, 0, 0, 0, 0, 0, 0, 0, 0, 0], "stateRewards": ["", -4, -8, 48, -24, 4, -8, 48, 48, -2, 4, -48, -24], "withholdReward": true, "trial_id": "mdp_925905402462", "block": "test3", "trialIndex": 69, "score": 48.75, "costs": -0.25, "simulationMode": [null, null, null], "rewards": [4, -8, 48], "path": ["0", "0", "5", "6", "7"], "rt": [1723, 64, 11], "actions": ["right", "right", "up"], "actionTimes": [2522, 3085, 3601], "queries": {"click": {"state": {"target": ["7"], "time": [1368]}, "edge": {"target": [], "time": []}}, "mouseover": {"state": {"target": ["7"], "time": [1179]}, "edge": {"target": [], "time": []}}, "mouseout": {"state": {"target": ["6", "5", "7", "7", "7", "6"], "time": [460, 510, 1598, 1831, 1898, 8804]}, "edge": {"target": [], "time": []}}}, "displayed_time": "9.80", "trialTime": 10802, "trial_type": "mouselab-mdp", "trial_index": 82, "time_elapsed": 1193857, "internal_node_id": "0.0-4.0-5.0-5.0"}}, {"uniqueid": "w16205134:a36056446", "current_trial": 83, "dateTime": 1664556106540, "trialdata": {"revealed_states": [], "num_clicks_accrued": [0, 0, 0, 0, 0, 0, 0, 0, 0, 0, 0, 0, 0], "stateRewards": ["", -4, -4, -48, -24, 2, 8, 24, -48, 4, 4, 48, 48], "withholdReward": true, "trial_id": "mdp_693501840209", "block": "test3", "trialIndex": 70, "score": 60.25, "costs": -0.75, "simulationMode": [null, null, null], "rewards": [4, 4, 48], "path": ["0", "0", "9", "10", "11"], "rt": [5159, 139, 44], "actions": ["left", "left", "up"], "actionTimes": [6982, 7617, 8157], "queries": {"click": {"state": {"target": ["3", "4", "11"], "time": [2339, 3425, 4456]}, "edge": {"target": [], "time": []}}, "mouseover": {"state": {"target": ["3", "4", "4", "11", "10", "10", "9"], "time": [2142, 2962, 3313, 4400, 4750, 4985, 5916]}, "edge": {"target": [], "time": []}}, "mouseout": {"state": {"target": ["6", "5", "3", "4", "4", "11", "10", "10", "11", "9"], "time": [803, 972, 2710, 3029, 3714, 4734, 4834, 5068, 5670, 6006]}, "edge": {"target": [], "time": []}}}, "displayed_time": "9.83", "trialTime": 10765, "trial_type": "mouselab-mdp", "trial_index": 83, "time_elapsed": 1204712, "internal_node_id": "0.0-4.0-5.0-6.0"}}, {"uniqueid": "w16205134:a36056446", "current_trial": 84, "dateTime": 1664556117436, "trialdata": {"revealed_states": [], "num_clicks_accrued": [0, 0, 0, 0, 0, 0, 0, 0, 0, 0, 0, 0, 0], "stateRewards": ["", 2, 8, 24, -48, 4, 8, 24, 24, 4, -8, 48, 48], "withholdReward": true, "trial_id": "mdp_646103824875", "block": "test3", "trialIndex": 71, "score": 48, "costs": -1, "simulationMode": [null, null, null], "rewards": [4, -8, 48], "path": ["0", "0", "9", "10", "11"], "rt": [5425, 55, 304], "actions": ["left", "left", "up"], "actionTimes": [6783, 7331, 8146], "queries": {"click": {"state": {"target": ["7", "4", "3", "11"], "time": [2525, 4114, 4738, 5585]}, "edge": {"target": [], "time": []}}, "mouseover": {"state": {"target": ["7", "7", "1", "11", "11", "4", "4", "2", "3", "11", "11", "10", "12"], "time": [1989, 2391, 2892, 2942, 3227, 3795, 4029, 4331, 4566, 5216, 5517, 5818, 5919]}, "edge": {"target": [], "time": []}}, "mouseout": {"state": {"target": ["10", "9", "0", "7", "7", "1", "11", "11", "4", "4", "2", "3", "11", "11", "10", "12"], "time": [818, 851, 1054, 2074, 2842, 2909, 2994, 3260, 3829, 4280, 4381, 4915, 5250, 5785, 5852, 6035]}, "edge": {"target": [], "time": []}}}, "displayed_time": "10.36", "trialTime": 10807, "trial_type": "mouselab-mdp", "trial_index": 84, "time_elapsed": 1215609, "internal_node_id": "0.0-4.0-5.0-7.0"}}, {"uniqueid": "w16205134:a36056446", "current_trial": 85, "dateTime": 1664556127796, "trialdata": {"revealed_states": [], "num_clicks_accrued": [0, 0, 0, 0, 0, 0, 0, 0, 0, 0, 0, 0, 0], "stateRewards": ["", -4, -4, -24, 48, -4, -8, -24, 48, 2, 4, 48, 48], "withholdReward": false, "trial_id": "mdp_810954007398", "block": "test3", "trialIndex": 72, "score": 40.25, "costs": -0.75, "simulationMode": [null, null, null], "rewards": [-4, -8, 48], "path": ["0", "0", "5", "6", "8"], "rt": [3151, 89, 3], "actions": ["right", "right", "down"], "actionTimes": [4228, 4815, 5315], "queries": {"click": {"state": {"target": ["3", "7", "8"], "time": [1527, 2180, 2791]}, "edge": {"target": [], "time": []}}, "mouseover": {"state": {"target": ["3", "7", "6", "8"], "time": [1483, 1932, 2452, 2552]}, "edge": {"target": [], "time": []}}, "mouseout": {"state": {"target": ["0", "3", "7", "6", "8"], "time": [1148, 1865, 2419, 2502, 3337]}, "edge": {"target": [], "time": []}}}, "displayed_time": "9.08", "trialTime": 10276, "trial_type": "mouselab-mdp", "trial_index": 85, "time_elapsed": 1225968, "internal_node_id": "0.0-4.0-5.0-8.0"}}, {"uniqueid": "w16205134:a36056446", "current_trial": 86, "dateTime": 1664556146434, "trialdata": {"revealed_states": [], "num_clicks_accrued": [0, 0, 0, 0, 0, 0, 0, 0, 0, 0, 0, 0, 0], "stateRewards": ["", -2, -8, 24, -48, 4, 4, -24, -48, -2, -8, -48, 24], "withholdReward": false, "trial_id": "mdp_556006673466", "block": "test3", "trialIndex": 73, "score": 16, "costs": -3, "simulationMode": [null, null, null], "rewards": [-2, -8, 24], "path": ["0", "0", "1", "2", "3"], "rt": [14444, 177, 88], "actions": ["up", "up", "right"], "actionTimes": [15577, 16260, 16840], "queries": {"click": {"state": {"target": ["8", "7", "12", "11", "4", "3", "10", "1", "2", "9", "6", "5"], "time": [1491, 2391, 3247, 3834, 4259, 5167, 6599, 7251, 7783, 8330, 11928, 12844]}, "edge": {"target": [], "time": []}}, "mouseover": {"state": {"target": ["8", "6", "7", "5", "12", "10", "11", "4", "2", "3", "3", "9", "10", "1", "2", "9", "6", "5", "5"], "time": [1268, 2019, 2288, 2723, 3123, 3593, 3642, 4144, 4462, 4662, 5064, 6001, 6284, 7169, 7504, 8123, 11817, 12470, 12721]}, "edge": {"target": [], "time": []}}, "mouseout": {"state": {"target": ["9", "5", "0", "8", "6", "7", "5", "12", "10", "11", "4", "2", "3", "3", "9", "10", "1", "2", "1", "9", "6", "5", "5"], "time": [632, 833, 1202, 1687, 2070, 2689, 2757, 3592, 3626, 4060, 4428, 4496, 4713, 5497, 6234, 6803, 7487, 7956, 8039, 8507, 12187, 12504, 13006]}, "edge": {"target": [], "time": []}}}, "displayed_time": "17.34", "trialTime": 18552, "trial_type": "mouselab-mdp", "trial_index": 86, "time_elapsed": 1244607, "internal_node_id": "0.0-4.0-5.0-9.0"}}, {"uniqueid": "w16205134:a36056446", "current_trial": 87, "dateTime": 1664556158386, "trialdata": {"revealed_states": [], "num_clicks_accrued": [0, 0, 0, 0, 0, 0, 0, 0, 0, 0, 0, 0, 0], "stateRewards": ["", 2, 8, 48, -24, -4, 4, 48, 24, -2, 8, 24, 24], "withholdReward": true, "trial_id": "mdp_123436106791", "block": "test3", "trialIndex": 74, "score": 52.75, "costs": -0.25, "simulationMode": [null, null, null], "rewards": [-4, 4, 48], "path": ["0", "0", "5", "6", "7"], "rt": [2181, 30, 415], "actions": ["right", "right", "up"], "actionTimes": [4075, 4597, 5517], "queries": {"click": {"state": {"target": ["7"], "time": [2844]}, "edge": {"target": [], "time": []}}, "mouseover": {"state": {"target": ["5", "6", "7", "6"], "time": [2309, 2359, 2677, 3328]}, "edge": {"target": [], "time": []}}, "mouseout": {"state": {"target": ["0", "5", "6", "7", "6"], "time": [2293, 2343, 2393, 3313, 3381]}, "edge": {"target": [], "time": []}}}, "displayed_time": "10.90", "trialTime": 11866, "trial_type": "mouselab-mdp", "trial_index": 87, "time_elapsed": 1256559, "internal_node_id": "0.0-4.0-5.0-10.0"}}, {"uniqueid": "w16205134:a36056446", "current_trial": 88, "dateTime": 1664556169746, "trialdata": {"revealed_states": [], "num_clicks_accrued": [0, 0, 0, 0, 0, 0, 0, 0, 0, 0, 0, 0, 0], "stateRewards": ["", -2, 4, 24, 48, 2, 4, -48, -48, -2, 8, 48, -24], "withholdReward": true, "trial_id": "mdp_305701202606", "block": "test3", "trialIndex": 75, "score": 54.25, "costs": -0.75, "simulationMode": [null, null, null], "rewards": [-2, 4, 48], "path": ["0", "0", "1", "2", "4"], "rt": [3968, 103, 23], "actions": ["up", "up", "left"], "actionTimes": [5270, 5873, 6396], "queries": {"click": {"state": {"target": ["7", "3", "4"], "time": [1852, 2512, 3584]}, "edge": {"target": [], "time": []}}, "mouseover": {"state": {"target": ["7", "3", "2", "4", "4", "11"], "time": [1706, 2343, 2861, 3129, 3513, 4131]}, "edge": {"target": [], "time": []}}, "mouseout": {"state": {"target": ["7", "3", "2", "4", "4", "11"], "time": [2209, 2826, 2928, 3161, 3897, 4182]}, "edge": {"target": [], "time": []}}}, "displayed_time": "10.30", "trialTime": 11269, "trial_type": "mouselab-mdp", "trial_index": 88, "time_elapsed": 1267919, "internal_node_id": "0.0-4.0-5.0-11.0"}}, {"uniqueid": "w16205134:a36056446", "current_tria