{"condition": 1, "counterbalance": 0, "assignmentId": "a81069147", "workerId": "w35461366", "hitId": "h16587003", "currenttrial": 137, "bonus": 0, "data": [{"uniqueid": "w35461366:a81069147", "current_trial": 0, "dateTime": 1664873090444, "trialdata": {"success": true, "trial_type": "fullscreen", "trial_index": 0, "time_elapsed": 4650, "internal_node_id": "0.0-0.0"}}, {"uniqueid": "w35461366:a81069147", "current_trial": 1, "dateTime": 1664873107727, "trialdata": {"view_history": [{"page_index": 0, "viewing_time": 17274}], "rt": 17274, "trial_id": "exp_instructions_no_distractor", "trial_type": "instructions", "trial_index": 1, "time_elapsed": 21933, "internal_node_id": "0.0-1.0"}}, {"uniqueid": "w35461366:a81069147", "current_trial": 2, "dateTime": 1664873111709, "trialdata": {"success": true, "trial_type": "fullscreen", "trial_index": 2, "time_elapsed": 25915, "internal_node_id": "0.0-2.0-0.0"}}, {"uniqueid": "w35461366:a81069147", "current_trial": 3, "dateTime": 1664873205357, "trialdata": {"view_history": [{"page_index": 0, "viewing_time": 44023}, {"page_index": 1, "viewing_time": 26620}, {"page_index": 2, "viewing_time": 6887}, {"page_index": 3, "viewing_time": 10542}, {"page_index": 4, "viewing_time": 5572}], "rt": 93644, "trial_id": "mouselab_instructions_1", "trial_type": "instructions", "trial_index": 3, "time_elapsed": 119562, "internal_node_id": "0.0-2.0-1.0"}}, {"uniqueid": "w35461366:a81069147", "current_trial": 4, "dateTime": 1664873242047, "trialdata": {"revealed_states": [], "num_clicks_accrued": [0, 0, 0, 0, 0, 0, 0, 0, 0, 0, 0, 0, 0], "stateRewards": ["", 10, -10, -10, -10, 10, -10, -10, -10, 10, -10, 10, -10], "withholdReward": false, "trial_id": "practice_1", "block": "test", "trialIndex": 0, "score": -9.5, "costs": -1.5, "simulationMode": [null, null, null], "rewards": [10, -10, -10], "path": ["0", "0", "5", "6", "7"], "rt": [28820, 621, 1738], "actions": ["right", "right", "up"], "actionTimes": [30814, 31954, 34217], "queries": {"click": {"state": {"target": ["5", "6", "9", "10", "1", "2"], "time": [6151, 7552, 17557, 18850, 21495, 22639]}, "edge": {"target": [], "time": []}}, "mouseover": {"state": {"target": ["5", "6", "0", "9", "9", "0", "0", "9", "10", "0", "1", "2", "0"], "time": [5334, 6976, 9807, 9907, 12661, 13705, 16582, 16828, 18288, 20679, 20839, 21986, 24939]}, "edge": {"target": [], "time": []}}, "mouseout": {"state": {"target": ["0", "5", "6", "5", "0", "9", "9", "0", "0", "9", "10", "9", "0", "1", "2", "1", "0"], "time": [5043, 6934, 9587, 9685, 9829, 11676, 13625, 14148, 16660, 18246, 20035, 20579, 20720, 21969, 23994, 24436, 27441]}, "edge": {"target": [], "time": []}}}, "displayed_time": "34.73", "trialTime": 36476, "trial_type": "mouselab-mdp", "trial_index": 4, "time_elapsed": 156253, "internal_node_id": "0.0-2.0-2.0-0.0"}}, {"uniqueid": "w35461366:a81069147", "current_trial": 5, "dateTime": 1664873252923, "trialdata": {"revealed_states": [], "num_clicks_accrued": [0, 0, 0, 0, 0, 0, 0, 0, 0, 0, 0, 0, 0], "stateRewards": ["", -10, -10, -10, -10, 10, -10, -10, -10, 10, 10, 10, 10], "withholdReward": false, "trial_id": "practice_2", "block": "test", "trialIndex": 1, "score": -8, "costs": 0, "simulationMode": [null, null, null], "rewards": [10, -10, -10], "path": ["0", "0", "5", "6", "8"], "rt": [2478, 740, 649], "actions": ["right", "right", "down"], "actionTimes": [5017, 6274, 7428], "queries": {"click": {"state": {"target": [], "time": []}, "edge": {"target": [], "time": []}}, "mouseover": {"state": {"target": [], "time": []}, "edge": {"target": [], "time": []}}, "mouseout": {"state": {"target": ["0"], "time": [3061]}, "edge": {"target": [], "time": []}}}, "displayed_time": "7.95", "trialTime": 10763, "trial_type": "mouselab-mdp", "trial_index": 5, "time_elapsed": 167129, "internal_node_id": "0.0-2.0-2.0-1.0"}}, {"uniqueid": "w35461366:a81069147", "current_trial": 6, "dateTime": 1664873287508, "trialdata": {"view_history": [{"page_index": 0, "viewing_time": 19785}, {"page_index": 1, "viewing_time": 9447}, {"page_index": 2, "viewing_time": 5349}], "rt": 34582, "trial_id": "mouselab_instructions_2_scarce", "trial_type": "instructions", "trial_index": 6, "time_elapsed": 201713, "internal_node_id": "0.0-2.0-3.0"}}, {"uniqueid": "w35461366:a81069147", "current_trial": 7, "dateTime": 1664873326979, "trialdata": {"rt": 39465, "response": {"Q0": "$-48 to $48", "Q1": "The cost is always $0.25.", "Q2": "The better I perform the higher my bonus will be.", "Q3": "No, the amount of cash at each node of the web may be different each time.", "Q4": "The values of the nodes walked through from start to finish.", "Q5": "No, the spider might forget to count the money on some rounds."}, "question_order": [0, 1, 2, 3, 4, 5], "correct": {"Q0": "$-48 to $48", "Q1": "The cost is always $0.25.", "Q2": "The better I perform the higher my bonus will be.", "Q3": "No, the amount of cash at each node of the web may be different each time.", "Q4": "The values of the nodes walked through from start to finish.", "Q5": "No, the spider might forget to count the money on some rounds."}, "trial_id": "mouselab_quiz_scarce", "trial_type": "survey-multi-choice", "trial_index": 7, "time_elapsed": 241184, "internal_node_id": "0.0-2.0-4.0"}}, {"uniqueid": "w35461366:a81069147", "current_trial": 8, "dateTime": 1664873333807, "trialdata": {"rt": 6819, "stimulus": "\n<h1> Get ready to start the game! </h1>\n\nThank you for reading the instructions. Get ready start with the first of 4 block(s) of this game.\n<br><br>\nIn this first block, you will complete 30 rounds of this game before moving on.\n<br><br>\nRemember, the more money the spider gets, the bigger your bonus will be!\n<br><br>\n<div style='text-align: center;'>Press <code>space</code> to begin.</div>\n\n<br><br>\n(If, at any point, the <code>space</code> key does not take you to the next page, click once on the text and try again.)", "response": " ", "trial_id": "mdp_ready_1", "trial_type": "html-keyboard-response", "trial_index": 8, "time_elapsed": 248013, "internal_node_id": "0.0-4.0-0.0"}}, {"uniqueid": "w35461366:a81069147", "current_trial": 9, "dateTime": 1664873354864, "trialdata": {"revealed_states": [], "num_clicks_accrued": [0, 0, 0, 0, 0, 0, 0, 0, 0, 0, 0, 0, 0], "stateRewards": ["", -2, -8, 24, -48, -4, 8, -48, -24, 4, 8, -24, 24], "withholdReward": true, "trial_id": "mdp_940444641142", "block": "test1", "trialIndex": 2, "score": -7.5, "costs": -0.5, "simulationMode": [null, null, null], "rewards": [4, 8, -24], "path": ["0", "0", "9", "10", "11"], "rt": [13027, 981, 1020], "actions": ["left", "left", "up"], "actionTimes": [15088, 16592, 18136], "queries": {"click": {"state": {"target": ["5", "9"], "time": [5828, 8158]}, "edge": {"target": [], "time": []}}, "mouseover": {"state": {"target": ["5", "0", "9", "0", "0"], "time": [3549, 7246, 7742, 11679, 12229]}, "edge": {"target": [], "time": []}}, "mouseout": {"state": {"target": ["0", "1", "5", "5", "0", "9", "0", "0"], "time": [999, 1307, 6563, 7146, 7427, 8794, 12050, 19888]}, "edge": {"target": [], "time": []}}}, "displayed_time": "18.64", "trialTime": 20889, "trial_type": "mouselab-mdp", "trial_index": 9, "time_elapsed": 269069, "internal_node_id": "0.0-4.0-1.0-0.0"}}, {"uniqueid": "w35461366:a81069147", "current_trial": 10, "dateTime": 1664873370884, "trialdata": {"revealed_states": [], "num_clicks_accrued": [0, 0, 0, 0, 0, 0, 0, 0, 0, 0, 0, 0, 0], "stateRewards": ["", -4, 8, -24, -24, 2, 4, 48, 48, -2, 4, 24, -48], "withholdReward": false, "trial_id": "mdp_397308196941", "block": "test1", "trialIndex": 3, "score": -15, "costs": 0, "simulationMode": [null, null, null], "rewards": [-4, 8, -24], "path": ["0", "0", "1", "2", "3"], "rt": [4640, 343, 2090], "actions": ["up", "up", "right"], "actionTimes": [7620, 8487, 11097], "queries": {"click": {"state": {"target": [], "time": []}, "edge": {"target": [], "time": []}}, "mouseover": {"state": {"target": ["0"], "time": [3698]}, "edge": {"target": [], "time": []}}, "mouseout": {"state": {"target": ["0"], "time": [3759]}, "edge": {"target": [], "time": []}}}, "displayed_time": "12.02", "trialTime": 15898, "trial_type": "mouselab-mdp", "trial_index": 10, "time_elapsed": 285090, "internal_node_id": "0.0-4.0-1.0-1.0"}}, {"uniqueid": "w35461366:a81069147", "current_trial": 11, "dateTime": 1664873389184, "trialdata": {"revealed_states": [], "num_clicks_accrued": [0, 0, 0, 0, 0, 0, 0, 0, 0, 0, 0, 0, 0], "stateRewards": ["", 2, 8, -48, 24, -2, 4, 48, 48, -2, -8, 48, 24], "withholdReward": true, "trial_id": "mdp_157355418411", "block": "test1", "trialIndex": 4, "score": 38.25, "costs": -0.75, "simulationMode": [null, null, null], "rewards": [2, 8, 24], "path": ["0", "0", "1", "2", "4"], "rt": [9448, 733, 1262], "actions": ["up", "up", "left"], "actionTimes": [13146, 14403, 16178], "queries": {"click": {"state": {"target": ["1", "2", "4"], "time": [5954, 9514, 11097]}, "edge": {"target": [], "time": []}}, "mouseover": {"state": {"target": ["1", "2", "4"], "time": [4844, 8542, 10512]}, "edge": {"target": [], "time": []}}, "mouseout": {"state": {"target": ["0", "1", "1", "2", "4", "0"], "time": [3036, 7076, 8215, 10391, 11759, 17707]}, "edge": {"target": [], "time": []}}}, "displayed_time": "16.68", "trialTime": 18182, "trial_type": "mouselab-mdp", "trial_index": 11, "time_elapsed": 303390, "internal_node_id": "0.0-4.0-1.0-2.0"}}, {"uniqueid": "w35461366:a81069147", "current_trial": 12, "dateTime": 1664873408814, "trialdata": {"revealed_states": [], "num_clicks_accrued": [0, 0, 0, 0, 0, 0, 0, 0, 0, 0, 0, 0, 0], "stateRewards": ["", 2, 8, 24, 24, 2, -8, -24, -48, 2, 8, -48, 48], "withholdReward": false, "trial_id": "mdp_745175888812", "block": "test1", "trialIndex": 5, "score": 62, "costs": -1, "simulationMode": [null, null, null], "rewards": [2, 8, 48], "path": ["0", "0", "9", "10", "12"], "rt": [12143, 737, 1064], "actions": ["left", "left", "down"], "actionTimes": [14050, 15299, 16873], "queries": {"click": {"state": {"target": ["5", "6", "9", "10"], "time": [5812, 7371, 10273, 11931]}, "edge": {"target": [], "time": []}}, "mouseover": {"state": {"target": ["0", "5", "5", "6", "9", "10", "10"], "time": [2653, 4785, 5220, 6682, 9757, 10954, 11345]}, "edge": {"target": [], "time": []}}, "mouseout": {"state": {"target": ["0", "0", "5", "5", "6", "5", "9", "10", "10", "9"], "time": [1396, 2743, 4797, 6482, 8966, 9215, 10942, 11025, 12429, 12511]}, "edge": {"target": [], "time": []}}}, "displayed_time": "17.40", "trialTime": 19491, "trial_type": "mouselab-mdp", "trial_index": 12, "time_elapsed": 323020, "internal_node_id": "0.0-4.0-1.0-3.0"}}, {"uniqueid": "w35461366:a81069147", "current_trial": 13, "dateTime": 1664873424824, "trialdata": {"revealed_states": [], "num_clicks_accrued": [0, 0, 0, 0, 0, 0, 0, 0, 0, 0, 0, 0, 0], "stateRewards": ["", -2, 4, 48, -24, 2, 8, 24, 48, 2, 4, -24, -48], "withholdReward": true, "trial_id": "mdp_892412058587", "block": "test1", "trialIndex": 6, "score": -37.75, "costs": -0.75, "simulationMode": [null, null, null], "rewards": [2, 4, -48], "path": ["0", "0", "9", "10", "12"], "rt": [7654, 1312, 867], "actions": ["left", "left", "down"], "actionTimes": [10670, 12502, 13885], "queries": {"click": {"state": {"target": ["1", "5", "9"], "time": [5358, 6737, 8381]}, "edge": {"target": [], "time": []}}, "mouseover": {"state": {"target": ["0", "0", "1", "2", "1", "5", "0", "9"], "time": [3835, 4435, 4476, 4555, 4938, 6283, 7348, 7905]}, "edge": {"target": [], "time": []}}, "mouseout": {"state": {"target": ["0", "0", "0", "1", "2", "1", "5", "0", "9"], "time": [2022, 3913, 4456, 4496, 4817, 6123, 7296, 7370, 8916]}, "edge": {"target": [], "time": []}}}, "displayed_time": "14.41", "trialTime": 15851, "trial_type": "mouselab-mdp", "trial_index": 13, "time_elapsed": 339030, "internal_node_id": "0.0-4.0-1.0-4.0"}}, {"uniqueid": "w35461366:a81069147", "current_trial": 14, "dateTime": 1664873437574, "trialdata": {"revealed_states": [], "num_clicks_accrued": [0, 0, 0, 0, 0, 0, 0, 0, 0, 0, 0, 0, 0], "stateRewards": ["", -2, -4, -24, 48, -2, -8, -48, -24, 4, 8, 48, 24], "withholdReward": true, "trial_id": "mdp_625355871626", "block": "test1", "trialIndex": 7, "score": 64.5, "costs": -0.5, "simulationMode": [null, null, null], "rewards": [4, 8, 48], "path": ["0", "0", "9", "10", "11"], "rt": [5880, 588, 613], "actions": ["left", "left", "up"], "actionTimes": [7941, 9039, 10168], "queries": {"click": {"state": {"target": ["5", "9"], "time": [3838, 6569]}, "edge": {"target": [], "time": []}}, "mouseover": {"state": {"target": ["0", "5", "0", "9"], "time": [3162, 3303, 5010, 6035]}, "edge": {"target": [], "time": []}}, "mouseout": {"state": {"target": ["0", "0", "0", "5", "0", "9"], "time": [1253, 2882, 3183, 4748, 5897, 6860]}, "edge": {"target": [], "time": []}}}, "displayed_time": "11.13", "trialTime": 12577, "trial_type": "mouselab-mdp", "trial_index": 14, "time_elapsed": 351780, "internal_node_id": "0.0-4.0-1.0-5.0"}}, {"uniqueid": "w35461366:a81069147", "current_trial": 15, "dateTime": 1664873449660, "trialdata": {"revealed_states": [], "num_clicks_accrued": [0, 0, 0, 0, 0, 0, 0, 0, 0, 0, 0, 0, 0], "stateRewards": ["", 2, -8, -48, 24, 4, 8, 48, -48, 2, -4, 24, 24], "withholdReward": false, "trial_id": "mdp_130475327289", "block": "test1", "trialIndex": 8, "score": -31.5, "costs": -0.5, "simulationMode": [null, null, null], "rewards": [4, 8, -48], "path": ["0", "0", "5", "6", "8"], "rt": [5075, 389, 892], "actions": ["right", "right", "down"], "actionTimes": [7392, 8290, 9699], "queries": {"click": {"state": {"target": ["5", "9"], "time": [4283, 5657]}, "edge": {"target": [], "time": []}}, "mouseover": {"state": {"target": ["5", "5", "0", "9"], "time": [3558, 3767, 4863, 5285]}, "edge": {"target": [], "time": []}}, "mouseout": {"state": {"target": ["0", "5", "5", "0", "9"], "time": [2596, 3597, 4815, 4885, 6210]}, "edge": {"target": [], "time": []}}}, "displayed_time": "10.36", "trialTime": 11975, "trial_type": "mouselab-mdp", "trial_index": 15, "time_elapsed": 363866, "internal_node_id": "0.0-4.0-1.0-6.0"}}, {"uniqueid": "w35461366:a81069147", "current_trial": 16, "dateTime": 1664873461917, "trialdata": {"revealed_states": [], "num_clicks_accrued": [0, 0, 0, 0, 0, 0, 0, 0, 0, 0, 0, 0, 0], "stateRewards": ["", 2, -4, 48, -48, -4, -8, -48, 24, -4, 4, 48, 48], "withholdReward": true, "trial_id": "mdp_544803968425", "block": "test1", "trialIndex": 9, "score": -55, "costs": 0, "simulationMode": [null, null, null], "rewards": [-4, -8, -48], "path": ["0", "0", "5", "6", "7"], "rt": [2080, 523, 1326], "actions": ["right", "right", "up"], "actionTimes": [4064, 5107, 6954], "queries": {"click": {"state": {"target": [], "time": []}, "edge": {"target": [], "time": []}}, "mouseover": {"state": {"target": [], "time": []}, "edge": {"target": [], "time": []}}, "mouseout": {"state": {"target": ["0"], "time": [963]}, "edge": {"target": [], "time": []}}}, "displayed_time": "10.07", "trialTime": 12073, "trial_type": "mouselab-mdp", "trial_index": 16, "time_elapsed": 376123, "internal_node_id": "0.0-4.0-1.0-7.0"}}, {"uniqueid": "w35461366:a81069147", "current_trial": 17, "dateTime": 1664873473841, "trialdata": {"revealed_states": [], "num_clicks_accrued": [0, 0, 0, 0, 0, 0, 0, 0, 0, 0, 0, 0, 0], "stateRewards": ["", 2, -4, 24, 24, 4, -4, -24, 24, -4, -4, 48, 48], "withholdReward": true, "trial_id": "mdp_566306223773", "block": "test1", "trialIndex": 10, "score": 27, "costs": 0, "simulationMode": [null, null, null], "rewards": [2, -4, 24], "path": ["0", "0", "1", "2", "4"], "rt": [5078, 356, 1020], "actions": ["up", "up", "left"], "actionTimes": [7315, 8189, 9716], "queries": {"click": {"state": {"target": [], "time": []}, "edge": {"target": [], "time": []}}, "mouseover": {"state": {"target": [], "time": []}, "edge": {"target": [], "time": []}}, "mouseout": {"state": {"target": ["0"], "time": [11266]}, "edge": {"target": [], "time": []}}}, "displayed_time": "10.29", "trialTime": 11792, "trial_type": "mouselab-mdp", "trial_index": 17, "time_elapsed": 388047, "internal_node_id": "0.0-4.0-1.0-8.0"}}, {"uniqueid": "w35461366:a81069147", "current_trial": 18, "dateTime": 1664873486701, "trialdata": {"revealed_states": [], "num_clicks_accrued": [0, 0, 0, 0, 0, 0, 0, 0, 0, 0, 0, 0, 0], "stateRewards": ["", 4, 4, -48, -24, -2, -4, 48, 24, -4, 4, 24, -48], "withholdReward": true, "trial_id": "mdp_617383046444", "block": "test1", "trialIndex": 11, "score": -35, "costs": 0, "simulationMode": [null, null, null], "rewards": [4, 4, -48], "path": ["0", "0", "1", "2", "3"], "rt": [1947, 634, 1077], "actions": ["up", "up", "right"], "actionTimes": [5132, 6277, 7867], "queries": {"click": {"state": {"target": [], "time": []}, "edge": {"target": [], "time": []}}, "mouseover": {"state": {"target": [], "time": []}, "edge": {"target": [], "time": []}}, "mouseout": {"state": {"target": [], "time": []}, "edge": {"target": [], "time": []}}}, "displayed_time": "12.24", "trialTime": 12757, "trial_type": "mouselab-mdp", "trial_index": 18, "time_elapsed": 400907, "internal_node_id": "0.0-4.0-1.0-9.0"}}, {"uniqueid": "w35461366:a81069147", "current_trial": 19, "dateTime": 1664873501749, "trialdata": {"revealed_states": [], "num_clicks_accrued": [0, 0, 0, 0, 0, 0, 0, 0, 0, 0, 0, 0, 0], "stateRewards": ["", 4, -8, 48, 48, 2, 4, 48, -48, 4, -4, -48, 48], "withholdReward": true, "trial_id": "mdp_519605841135", "block": "test1", "trialIndex": 12, "score": 59, "costs": 0, "simulationMode": [null, null, null], "rewards": [2, 4, 48], "path": ["0", "0", "5", "6", "7"], "rt": [1634, 307, 768], "actions": ["right", "right", "up"], "actionTimes": [3808, 4641, 5923], "queries": {"click": {"state": {"target": [], "time": []}, "edge": {"target": [], "time": []}}, "mouseover": {"state": {"target": [], "time": []}, "edge": {"target": [], "time": []}}, "mouseout": {"state": {"target": ["0", "7"], "time": [7926, 14347]}, "edge": {"target": [], "time": []}}}, "displayed_time": "11.22", "trialTime": 14897, "trial_type": "mouselab-mdp", "trial_index": 19, "time_elapsed": 415955, "internal_node_id": "0.0-4.0-1.0-10.0"}}, {"uniqueid": "w35461366:a81069147", "current_trial": 20, "dateTime": 1664873516240, "trialdata": {"revealed_states": [], "num_clicks_accrued": [0, 0, 0, 0, 0, 0, 0, 0, 0, 0, 0, 0, 0], "stateRewards": ["", -4, -4, 24, 48, 4, -4, -24, 24, -4, -4, 24, 24], "withholdReward": false, "trial_id": "mdp_357725458160", "block": "test1", "trialIndex": 13, "score": 21, "costs": 0, "simulationMode": [null, null, null], "rewards": [-4, -4, 24], "path": ["0", "0", "9", "10", "11"], "rt": [2703, 581, 2498], "actions": ["left", "left", "up"], "actionTimes": [4352, 5441, 8464], "queries": {"click": {"state": {"target": [], "time": []}, "edge": {"target": [], "time": []}}, "mouseover": {"state": {"target": [], "time": []}, "edge": {"target": [], "time": []}}, "mouseout": {"state": {"target": ["5"], "time": [786]}, "edge": {"target": [], "time": []}}}, "displayed_time": "11.72", "trialTime": 14340, "trial_type": "mouselab-mdp", "trial_index": 20, "time_elapsed": 430445, "internal_node_id": "0.0-4.0-1.0-11.0"}}, {"uniqueid": "w35461366:a81069147", "current_trial": 21, "dateTime": 1664873532424, "trialdata": {"revealed_states": [], "num_clicks_accrued": [0, 0, 0, 0, 0, 0, 0, 0, 0, 0, 0, 0, 0], "stateRewards": ["", -4, 8, 24, -24, 4, -8, -24, -24, -2, 8, -48, 24], "withholdReward": false, "trial_id": "mdp_240302100183", "block": "test1", "trialIndex": 14, "score": -37, "costs": 0, "simulationMode": [null, null, null], "rewards": [-2, 8, -48], "path": ["0", "0", "9", "10", "11"], "rt": [1739, 1298, 993], "actions": ["left", "left", "up"], "actionTimes": [7800, 9615, 11119], "queries": {"click": {"state": {"target": [], "time": []}, "edge": {"target": [], "time": []}}, "mouseover": {"state": {"target": [], "time": []}, "edge": {"target": [], "time": []}}, "mouseout": {"state": {"target": ["0"], "time": [5415]}, "edge": {"target": [], "time": []}}}, "displayed_time": "15.15", "trialTime": 16016, "trial_type": "mouselab-mdp", "trial_index": 21, "time_elapsed": 446629, "internal_node_id": "0.0-4.0-1.0-12.0"}}, {"uniqueid": "w35461366:a81069147", "current_trial": 22, "dateTime": 1664873547592, "trialdata": {"revealed_states": [], "num_clicks_accrued": [0, 0, 0, 0, 0, 0, 0, 0, 0, 0, 0, 0, 0], "stateRewards": ["", 4, 4, 24, 24, 4, -4, 48, 48, 4, 4, 24, -48], "withholdReward": true, "trial_id": "mdp_454251689008", "block": "test1", "trialIndex": 15, "score": 37, "costs": 0, "simulationMode": [null, null, null], "rewards": [4, 4, 24], "path": ["0", "0", "1", "2", "3"], "rt": [2390, 483, 7757], "actions": ["up", "up", "right"], "actionTimes": [3804, 4808, 13088], "queries": {"click": {"state": {"target": [], "time": []}, "edge": {"target": [], "time": []}}, "mouseover": {"state": {"target": [], "time": []}, "edge": {"target": [], "time": []}}, "mouseout": {"state": {"target": ["0"], "time": [1265]}, "edge": {"target": [], "time": []}}}, "displayed_time": "13.61", "trialTime": 15013, "trial_type": "mouselab-mdp", "trial_index": 22, "time_elapsed": 461798, "internal_node_id": "0.0-4.0-1.0-13.0"}}, {"uniqueid": "w35461366:a81069147", "current_trial": 23, "dateTime": 1664873556987, "trialdata": {"revealed_states": [], "num_clicks_accrued": [0, 0, 0, 0, 0, 0, 0, 0, 0, 0, 0, 0, 0], "stateRewards": ["", -2, 4, -24, 24, -4, -8, 24, -48, -4, -4, -48, -24], "withholdReward": false, "trial_id": "mdp_753137520419", "block": "test1", "trialIndex": 16, "score": 17, "costs": 0, "simulationMode": [null, null, null], "rewards": [-4, -8, 24], "path": ["0", "0", "5", "6", "7"], "rt": [3260, 382, 691], "actions": ["right", "right", "up"], "actionTimes": [5099, 6005, 7216], "queries": {"click": {"state": {"target": [], "time": []}, "edge": {"target": [], "time": []}}, "mouseover": {"state": {"target": [], "time": []}, "edge": {"target": [], "time": []}}, "mouseout": {"state": {"target": ["0"], "time": [1277]}, "edge": {"target": [], "time": []}}}, "displayed_time": "8.87", "trialTime": 9284, "trial_type": "mouselab-mdp", "trial_index": 23, "time_elapsed": 471192, "internal_node_id": "0.0-4.0-1.0-14.0"}}, {"uniqueid": "w35461366:a81069147", "current_trial": 24, "dateTime": 1664873567697, "trialdata": {"revealed_states": [], "num_clicks_accrued": [0, 0, 0, 0, 0, 0, 0, 0, 0, 0, 0, 0, 0], "stateRewards": ["", 2, -4, -24, -48, -2, 8, -24, 48, -2, 8, 24, -48], "withholdReward": true, "trial_id": "mdp_566582551557", "block": "test1", "trialIndex": 17, "score": -37, "costs": 0, "simulationMode": [null, null, null], "rewards": [-2, 8, -48], "path": ["0", "0", "9", "10", "12"], "rt": [1393, 513, 631], "actions": ["left", "left", "down"], "actionTimes": [3470, 4498, 5641], "queries": {"click": {"state": {"target": [], "time": []}, "edge": {"target": [], "time": []}}, "mouseover": {"state": {"target": [], "time": []}, "edge": {"target": [], "time": []}}, "mouseout": {"state": {"target": [], "time": []}, "edge": {"target": [], "time": []}}}, "displayed_time": "10.16", "trialTime": 10460, "trial_type": "mouselab-mdp", "trial_index": 24, "time_elapsed": 481903, "internal_node_id": "0.0-4.0-1.0-15.0"}}, {"uniqueid": "w35461366:a81069147", "current_trial": 25, "dateTime": 1664873579897, "trialdata": {"revealed_states": [], "num_clicks_accrued": [0, 0, 0, 0, 0, 0, 0, 0, 0, 0, 0, 0, 0], "stateRewards": ["", -2, -8, -48, 24, 2, -4, -48, 48, 2, 4, 24, -24], "withholdReward": false, "trial_id": "mdp_849341543762", "block": "test1", "trialIndex": 18, "score": -45, "costs": 0, "simulationMode": [null, null, null], "rewards": [2, -4, -48], "path": ["0", "0", "5", "6", "7"], "rt": [1564, 356, 736], "actions": ["right", "right", "up"], "actionTimes": [3879, 4746, 5989], "queries": {"click": {"state": {"target": [], "time": []}, "edge": {"target": [], "time": []}}, "mouseover": {"state": {"target": [], "time": []}, "edge": {"target": [], "time": []}}, "mouseout": {"state": {"target": [], "time": []}, "edge": {"target": [], "time": []}}}, "displayed_time": "11.37", "trialTime": 12112, "trial_type": "mouselab-mdp", "trial_index": 25, "time_elapsed": 494103, "internal_node_id": "0.0-4.0-1.0-16.0"}}, {"uniqueid": "w35461366:a81069147", "current_trial": 26, "dateTime": 1664873591927, "trialdata": {"revealed_states": [], "num_clicks_accrued": [0, 0, 0, 0, 0, 0, 0, 0, 0, 0, 0, 0, 0], "stateRewards": ["", -4, -4, -48, 48, -4, -8, -24, -48, -2, 8, 48, 24], "withholdReward": true, "trial_id": "mdp_365393526663", "block": "test1", "trialIndex": 19, "score": 35, "costs": 0, "simulationMode": [null, null, null], "rewards": [-2, 8, 24], "path": ["0", "0", "9", "10", "12"], "rt": [1433, 445, 583], "actions": ["left", "left", "down"], "actionTimes": [3022, 3985, 5090], "queries": {"click": {"state": {"target": [], "time": []}, "edge": {"target": [], "time": []}}, "mouseover": {"state": {"target": [], "time": []}, "edge": {"target": [], "time": []}}, "mouseout": {"state": {"target": ["0"], "time": [6778]}, "edge": {"target": [], "time": []}}}, "displayed_time": "8.66", "trialTime": 11939, "trial_type": "mouselab-mdp", "trial_index": 26, "time_elapsed": 506133, "internal_node_id": "0.0-4.0-1.0-17.0"}}, {"uniqueid": "w35461366:a81069147", "current_trial": 27, "dateTime": 1664873604372, "trialdata": {"revealed_states": [], "num_clicks_accrued": [0, 0, 0, 0, 0, 0, 0, 0, 0, 0, 0, 0, 0], "stateRewards": ["", -4, -8, 48, -24, 4, -8, 48, 48, -2, 4, -48, -24], "withholdReward": true, "trial_id": "mdp_925905402462", "block": "test1", "trialIndex": 20, "score": -31, "costs": 0, "simulationMode": [null, null, null], "rewards": [-4, -8, -24], "path": ["0", "0", "1", "2", "4"], "rt": [6008, 192, 1087], "actions": ["up", "up", "left"], "actionTimes": [8356, 9056, 10656], "queries": {"click": {"state": {"target": [], "time": []}, "edge": {"target": [], "time": []}}, "mouseover": {"state": {"target": [], "time": []}, "edge": {"target": [], "time": []}}, "mouseout": {"state": {"target": ["0"], "time": [1005]}, "edge": {"target": [], "time": []}}}, "displayed_time": "11.40", "trialTime": 12324, "trial_type": "mouselab-mdp", "trial_index": 27, "time_elapsed": 518578, "internal_node_id": "0.0-4.0-1.0-18.0"}}, {"uniqueid": "w35461366:a81069147", "current_trial": 28, "dateTime": 1664873617447, "trialdata": {"revealed_states": [], "num_clicks_accrued": [0, 0, 0, 0, 0, 0, 0, 0, 0, 0, 0, 0, 0], "stateRewards": ["", 2, 4, 48, 24, -4, 8, 48, 48, 2, -4, -48, -24], "withholdReward": true, "trial_id": "mdp_822099887466", "block": "test1", "trialIndex": 21, "score": -21, "costs": 0, "simulationMode": [null, null, null], "rewards": [2, -4, -24], "path": ["0", "0", "9", "10", "12"], "rt": [2573, 902, 701], "actions": ["left", "left", "down"], "actionTimes": [6108, 7532, 8757], "queries": {"click": {"state": {"target": [], "time": []}, "edge": {"target": [], "time": []}}, "mouseover": {"state": {"target": [], "time": []}, "edge": {"target": [], "time": []}}, "mouseout": {"state": {"target": ["0", "0"], "time": [1702, 10566]}, "edge": {"target": [], "time": []}}}, "displayed_time": "12.60", "trialTime": 12976, "trial_type": "mouselab-mdp", "trial_index": 28, "time_elapsed": 531653, "internal_node_id": "0.0-4.0-1.0-19.0"}}, {"uniqueid": "w35461366:a81069147", "current_trial": 29, "dateTime": 1664873629287, "trialdata": {"revealed_states": [], "num_clicks_accrued": [0, 0, 0, 0, 0, 0, 0, 0, 0, 0, 0, 0, 0], "stateRewards": ["", 4, 4, 48, -24, 2, -4, 48, 24, -4, -4, -48, 24], "withholdReward": true, "trial_id": "mdp_496003763005", "block": "test1", "trialIndex": 22, "score": -11, "costs": 0, "simulationMode": [null, null, null], "rewards": [4, 4, -24], "path": ["0", "0", "1", "2", "4"], "rt": [1713, 657, 723], "actions": ["up", "up", "left"], "actionTimes": [3737, 4922, 6171], "queries": {"click": {"state": {"target": [], "time": []}, "edge": {"target": [], "time": []}}, "mouseover": {"state": {"target": [], "time": []}, "edge": {"target": [], "time": []}}, "mouseout": {"state": {"target": [], "time": []}, "edge": {"target": [], "time": []}}}, "displayed_time": "11.10", "trialTime": 11577, "trial_type": "mouselab-mdp", "trial_index": 29, "time_elapsed": 543493, "internal_node_id": "0.0-4.0-1.0-20.0"}}, {"uniqueid": "w35461366:a81069147", "current_trial": 30, "dateTime": 1664873642082, "trialdata": {"revealed_states": [], "num_clicks_accrued": [0, 0, 0, 0, 0, 0, 0, 0, 0, 0, 0, 0, 0], "stateRewards": ["", -4, -8, -48, 24, -4, -4, -24, -48, 2, -8, -24, -48], "withholdReward": true, "trial_id": "mdp_628181832088", "block": "test1", "trialIndex": 23, "score": -55, "costs": 0, "simulationMode": [null, null, null], "rewards": [-4, -8, -48], "path": ["0", "0", "1", "2", "3"], "rt": [2847, 538, 1568], "actions": ["up", "up", "right"], "actionTimes": [4466, 5523, 7600], "queries": {"click": {"state": {"target": [], "time": []}, "edge": {"target": [], "time": []}}, "mouseover": {"state": {"target": [], "time": []}, "edge": {"target": [], "time": []}}, "mouseout": {"state": {"target": [], "time": []}, "edge": {"target": [], "time": []}}}, "displayed_time": "11.71", "trialTime": 12695, "trial_type": "mouselab-mdp", "trial_index": 30, "time_elapsed": 556288, "internal_node_id": "0.0-4.0-1.0-21.0"}}, {"uniqueid": "w35461366:a81069147", "current_trial": 31, "dateTime": 1664873654205, "trialdata": {"revealed_states": [], "num_clicks_accrued": [0, 0, 0, 0, 0, 0, 0, 0, 0, 0, 0, 0, 0], "stateRewards": ["", 4, -8, -48, -24, 2, -8, -48, 48, -4, 8, 48, -48], "withholdReward": true, "trial_id": "mdp_605757196263", "block": "test1", "trialIndex": 24, "score": 47, "costs": 0, "simulationMode": [null, null, null], "rewards": [2, -8, 48], "path": ["0", "0", "5", "6", "8"], "rt": [1871, 368, 511], "actions": ["right", "right", "down"], "actionTimes": [3499, 4389, 5424], "queries": {"click": {"state": {"target": [], "time": []}, "edge": {"target": [], "time": []}}, "mouseover": {"state": {"target": [], "time": []}, "edge": {"target": [], "time": []}}, "mouseout": {"state": {"target": ["0"], "time": [1154]}, "edge": {"target": [], "time": []}}}, "displayed_time": "11.72", "trialTime": 12038, "trial_type": "mouselab-mdp", "trial_index": 31, "time_elapsed": 568411, "internal_node_id": "0.0-4.0-1.0-22.0"}}, {"uniqueid": "w35461366:a81069147", "current_trial": 32, "dateTime": 1664873666170, "trialdata": {"revealed_states": [], "num_clicks_accrued": [0, 0, 0, 0, 0, 0, 0, 0, 0, 0, 0, 0, 0], "stateRewards": ["", 2, 4, -48, -24, 2, 8, 24, 48, -2, 4, 48, -48], "withholdReward": true, "trial_id": "mdp_551894842204", "block": "test1", "trialIndex": 25, "score": -13, "costs": 0, "simulationMode": [null, null, null], "rewards": [2, 4, -24], "path": ["0", "0", "1", "2", "4"], "rt": [1482, 726, 744], "actions": ["up", "up", "left"], "actionTimes": [3560, 4800, 6066], "queries": {"click": {"state": {"target": [], "time": []}, "edge": {"target": [], "time": []}}, "mouseover": {"state": {"target": [], "time": []}, "edge": {"target": [], "time": []}}, "mouseout": {"state": {"target": ["0"], "time": [1952]}, "edge": {"target": [], "time": []}}}, "displayed_time": "11.16", "trialTime": 11877, "trial_type": "mouselab-mdp", "trial_index": 32, "time_elapsed": 580375, "internal_node_id": "0.0-4.0-1.0-23.0"}}, {"uniqueid": "w35461366:a81069147", "current_trial": 33, "dateTime": 1664873683834, "trialdata": {"revealed_states": [], "num_clicks_accrued": [0, 0, 0, 0, 0, 0, 0, 0, 0, 0, 0, 0, 0], "stateRewards": ["", -2, 8, 48, -48, 4, -8, 24, 24, 4, 4, -48, -24], "withholdReward": true, "trial_id": "mdp_746937869927", "block": "test1", "trialIndex": 26, "score": -35, "costs": 0, "simulationMode": [null, null, null], "rewards": [4, 4, -48], "path": ["0", "0", "9", "10", "11"], "rt": [2173, 1382, 839], "actions": ["left", "left", "up"], "actionTimes": [12337, 14240, 15584], "queries": {"click": {"state": {"target": [], "time": []}, "edge": {"target": [], "time": []}}, "mouseover": {"state": {"target": [], "time": []}, "edge": {"target": [], "time": []}}, "mouseout": {"state": {"target": ["0"], "time": [10108]}, "edge": {"target": [], "time": []}}}, "displayed_time": "17.23", "trialTime": 17563, "trial_type": "mouselab-mdp", "trial_index": 33, "time_elapsed": 598039, "internal_node_id": "0.0-4.0-1.0-24.0"}}, {"uniqueid": "w35461366:a81069147", "current_trial": 34, "dateTime": 1664873694597, "trialdata": {"revealed_states": [], "num_clicks_accrued": [0, 0, 0, 0, 0, 0, 0, 0, 0, 0, 0, 0, 0], "stateRewards": ["", -2, -8, 48, 24, 4, -8, 24, 48, 4, -4, 24, -48], "withholdReward": true, "trial_id": "mdp_871576155740", "block": "test1", "trialIndex": 27, "score": -43, "costs": 0, "simulationMode": [null, null, null], "rewards": [4, -4, -48], "path": ["0", "0", "9", "10", "12"], "rt": [2118, 707, 704], "actions": ["left", "left", "down"], "actionTimes": [4343, 5561, 6784], "queries": {"click": {"state": {"target": [], "time": []}, "edge": {"target": [], "time": []}}, "mouseover": {"state": {"target": [], "time": []}, "edge": {"target": [], "time": []}}, "mouseout": {"state": {"target": ["0"], "time": [2171]}, "edge": {"target": [], "time": []}}}, "displayed_time": "10.25", "trialTime": 10637, "trial_type": "mouselab-mdp", "trial_index": 34, "time_elapsed": 608802, "internal_node_id": "0.0-4.0-1.0-25.0"}}, {"uniqueid": "w35461366:a81069147", "current_trial": 35, "dateTime": 1664873706621, "trialdata": {"revealed_states": [], "num_clicks_accrued": [0, 0, 0, 0, 0, 0, 0, 0, 0, 0, 0, 0, 0], "stateRewards": ["", 2, 4, -48, -48, 4, 4, -48, -48, -2, -8, 48, -24], "withholdReward": true, "trial_id": "mdp_175327338412", "block": "test1", "trialIndex": 28, "score": -37, "costs": 0, "simulationMode": [null, null, null], "rewards": [2, 4, -48], "path": ["0", "0", "1", "2", "4"], "rt": [1575, 566, 597], "actions": ["up", "up", "left"], "actionTimes": [2896, 3978, 5093], "queries": {"click": {"state": {"target": [], "time": []}, "edge": {"target": [], "time": []}}, "mouseover": {"state": {"target": [], "time": []}, "edge": {"target": [], "time": []}}, "mouseout": {"state": {"target": ["0"], "time": [1265]}, "edge": {"target": [], "time": []}}}, "displayed_time": "11.38", "trialTime": 11933, "trial_type": "mouselab-mdp", "trial_index": 35, "time_elapsed": 620827, "internal_node_id": "0.0-4.0-1.0-26.0"}}, {"uniqueid": "w35461366:a81069147", "current_trial": 36, "dateTime": 1664873718346, "trialdata": {"revealed_states": [], "num_clicks_accrued": [0, 0, 0, 0, 0, 0, 0, 0, 0, 0, 0, 0, 0], "stateRewards": ["", -2, -8, 48, 24, -2, 8, -48, -24, -2, 4, -48, 48], "withholdReward": true, "trial_id": "mdp_295220852217", "block": "test1", "trialIndex": 29, "score": -13, "costs": 0, "simulationMode": [null, null, null], "rewards": [-2, 8, -24], "path": ["0", "0", "5", "6", "8"], "rt": [1657, 423, 655], "actions": ["right", "right", "down"], "actionTimes": [2948, 3895, 5072], "queries": {"click": {"state": {"target": [], "time": []}, "edge": {"target": [], "time": []}}, "mouseover": {"state": {"target": [], "time": []}, "edge": {"target": [], "time": []}}, "mouseout": {"state": {"target": ["0"], "time": [1134]}, "edge": {"target": [], "time": []}}}, "displayed_time": "11.39", "trialTime": 11642, "trial_type": "mouselab-mdp", "trial_index": 36, "time_elapsed": 632552, "internal_node_id": "0.0-4.0-1.0-27.0"}}, {"uniqueid": "w35461366:a81069147", "current_trial": 37, "dateTime": 1664873729737, "trialdata": {"revealed_states": [], "num_clicks_accrued": [0, 0, 0, 0, 0, 0, 0, 0, 0, 0, 0, 0, 0], "stateRewards": ["", -4, -8, 48, -48, 2, -4, 48, -24, 2, -8, -48, -48], "withholdReward": false, "trial_id": "mdp_624553692913", "block": "test1", "trialIndex": 30, "score": 41, "costs": 0, "simulationMode": [null, null, null], "rewards": [-4, -8, 48], "path": ["0", "0", "1", "2", "3"], "rt": [1468, 557, 651], "actions": ["up", "up", "right"], "actionTimes": [3382, 4456, 5615], "queries": {"click": {"state": {"target": [], "time": []}, "edge": {"target": [], "time": []}}, "mouseover": {"state": {"target": [], "time": []}, "edge": {"target": [], "time": []}}, "mouseout": {"state": {"target": ["0"], "time": [1856]}, "edge": {"target": [], "time": []}}}, "displayed_time": "10.97", "trialTime": 11301, "trial_type": "mouselab-mdp", "trial_index": 37, "time_elapsed": 643942, "internal_node_id": "0.0-4.0-1.0-28.0"}}, {"uniqueid": "w35461366:a81069147", "current_trial": 38, "dateTime": 1664873740213, "trialdata": {"revealed_states": [], "num_clicks_accrued": [0, 0, 0, 0, 0, 0, 0, 0, 0, 0, 0, 0, 0], "stateRewards": ["", -4, 4, -48, -48, -2, -8, -48, -24, 4, 8, -24, 24], "withholdReward": true, "trial_id": "mdp_449260894259", "block": "test1", "trialIndex": 31, "score": -43, "costs": 0, "simulationMode": [null, null, null], "rewards": [-4, 4, -48], "path": ["0", "0", "1", "2", "4"], "rt": [1543, 361, 337], "actions": ["up", "up", "left"], "actionTimes": [3516, 4389, 5248], "queries": {"click": {"state": {"target": [], "time": []}, "edge": {"target": [], "time": []}}, "mouseover": {"state": {"target": [], "time": []}, "edge": {"target": [], "time": []}}, "mouseout": {"state": {"target": ["0"], "time": [1915]}, "edge": {"target": [], "time": []}}}, "displayed_time": "10.06", "trialTime": 10391, "trial_type": "mouselab-mdp", "trial_index": 38, "time_elapsed": 654419, "internal_node_id": "0.0-4.0-1.0-29.0"}}, {"uniqueid": "w35461366:a81069147", "current_trial": 39, "dateTime": 1664873750705, "trialdata": {"rt": 10488, "stimulus": "<h1> End of block! </h1>\n\nYou have reached the end of the block 1/4. If you need a short break, feel free to take one now before moving on.\n\n<br><br>\nIn the next block, you will complete another 30 rounds of this game.\n\n<br><br>\n<div style='text-align: center;'>Press <code>space</code> to begin.</div>\n<br><br>\n<div style='text-align: center;'>(If the experiment doesn't continue, try clicking on the text and then pressing <code>space</code>.)</div>", "response": " ", "trial_id": "mdp_ready_2", "trial_type": "html-keyboard-response", "trial_index": 39, "time_elapsed": 664911, "internal_node_id": "0.0-4.0-2.0"}}, {"uniqueid": "w35461366:a81069147", "current_trial": 40, "dateTime": 1664873762511, "trialdata": {"revealed_states": [], "num_clicks_accrued": [0, 0, 0, 0, 0, 0, 0, 0, 0, 0, 0, 0, 0], "stateRewards": ["", -4, -8, 48, -24, 4, -8, 48, 48, -2, 4, -48, -24], "withholdReward": true, "trial_id": "mdp_925905402462", "block": "test2", "trialIndex": 32, "score": -17, "costs": 0, "simulationMode": [null, null, null], "rewards": [-2, 4, -24], "path": ["0", "0", "9", "10", "12"], "rt": [939, 773, 598], "actions": ["left", "left", "down"], "actionTimes": [3488, 4768, 5881], "queries": {"click": {"state": {"target": [], "time": []}, "edge": {"target": [], "time": []}}, "mouseover": {"state": {"target": [], "time": []}, "edge": {"target": [], "time": []}}, "mouseout": {"state": {"target": [], "time": []}, "edge": {"target": [], "time": []}}}, "displayed_time": "10.62", "trialTime": 11717, "trial_type": "mouselab-mdp", "trial_index": 40, "time_elapsed": 676717, "internal_node_id": "0.0-4.0-3.0-0.0"}}, {"uniqueid": "w35461366:a81069147", "current_trial": 41, "dateTime": 1664873772419, "trialdata": {"revealed_states": [], "num_clicks_accrued": [0, 0, 0, 0, 0, 0, 0, 0, 0, 0, 0, 0, 0], "stateRewards": ["", -4, -4, -24, -24, -2, 4, 48, -24, -2, -4, -24, 48], "withholdReward": true, "trial_id": "mdp_855903341564", "block": "test2", "trialIndex": 33, "score": 55, "costs": 0, "simulationMode": [null, null, null], "rewards": [-2, 4, 48], "path": ["0", "0", "5", "6", "7"], "rt": [2390, 464, 521], "actions": ["right", "right", "up"], "actionTimes": [4379, 5356, 6400], "queries": {"click": {"state": {"target": [], "time": []}, "edge": {"target": [], "time": []}}, "mouseover": {"state": {"target": [], "time": []}, "edge": {"target": [], "time": []}}, "mouseout": {"state": {"target": [], "time": []}, "edge": {"target": [], "time": []}}}, "displayed_time": "8.99", "trialTime": 9821, "trial_type": "mouselab-mdp", "trial_index": 41, "time_elapsed": 686625, "internal_node_id": "0.0-4.0-3.0-1.0"}}, {"uniqueid": "w35461366:a81069147", "current_trial": 42, "dateTime": 1664873781892, "trialdata": {"revealed_states": [], "num_clicks_accrued": [0, 0, 0, 0, 0, 0, 0, 0, 0, 0, 0, 0, 0], "stateRewards": ["", -2, -8, 48, 24, -2, 8, -48, -24, -2, 4, -48, 48], "withholdReward": true, "trial_id": "mdp_295220852217", "block": "test2", "trialIndex": 34, "score": 19, "costs": 0, "simulationMode": [null, null, null], "rewards": [-2, -8, 24], "path": ["0", "0", "1", "2", "4"], "rt": [1296, 420, 590], "actions": ["up", "up", "left"], "actionTimes": [2928, 3866, 4980], "queries": {"click": {"state": {"target": [], "time": []}, "edge": {"target": [], "time": []}}, "mouseover": {"state": {"target": [], "time": []}, "edge": {"target": [], "time": []}}, "mouseout": {"state": {"target": [], "time": []}, "edge": {"target": [], "time": []}}}, "displayed_time": "8.69", "trialTime": 9326, "trial_type": "mouselab-mdp", "trial_index": 42, "time_elapsed": 696098, "internal_node_id": "0.0-4.0-3.0-2.0"}}, {"uniqueid": "w35461366:a81069147", "current_trial": 43, "dateTime": 1664873792825, "trialdata": {"revealed_states": [], "num_clicks_accrued": [0, 0, 0, 0, 0, 0, 0, 0, 0, 0, 0, 0, 0], "stateRewards": ["", -4, -4, 24, -48, 2, 4, -24, -48, -2, -8, -24, 24], "withholdReward": false, "trial_id": "mdp_565569130486", "block": "test2", "trialIndex": 35, "score": 21, "costs": 0, "simulationMode": [null, null, null], "rewards": [-4, -4, 24], "path": ["0", "0", "1", "2", "3"], "rt": [1470, 192, 506], "actions": ["up", "up", "right"], "actionTimes": [3499, 4214, 5231], "queries": {"click": {"state": {"target": [], "time": []}, "edge": {"target": [], "time": []}}, "mouseover": {"state": {"target": [], "time": []}, "edge": {"target": [], "time": []}}, "mouseout": {"state": {"target": ["0", "0"], "time": [1002, 1919]}, "edge": {"target": [], "time": []}}}, "displayed_time": "9.06", "trialTime": 10846, "trial_type": "mouselab-mdp", "trial_index": 43, "time_elapsed": 707031, "internal_node_id": "0.0-4.0-3.0-3.0"}}, {"uniqueid": "w35461366:a81069147", "current_trial": 44, "dateTime": 1664873804753, "trialdata": {"revealed_states": [], "num_clicks_accrued": [0, 0, 0, 0, 0, 0, 0, 0, 0, 0, 0, 0, 0], "stateRewards": ["", -2, -4, -48, -48, 4, -4, 48, 24, 4, 4, 48, 48], "withholdReward": true, "trial_id": "mdp_950960813932", "block": "test2", "trialIndex": 36, "score": 61, "costs": 0, "simulationMode": [null, null, null], "rewards": [4, 4, 48], "path": ["0", "0", "9", "10", "12"], "rt": [1555, 471, 605], "actions": ["left", "left", "down"], "actionTimes": [2813, 3800, 4920], "queries": {"click": {"state": {"target": [], "time": []}, "edge": {"target": [], "time": []}}, "mouseover": {"state": {"target": [], "time": []}, "edge": {"target": [], "time": []}}, "mouseout": {"state": {"target": ["0"], "time": [1202]}, "edge": {"target": [], "time": []}}}, "displayed_time": "11.35", "trialTime": 11834, "trial_type": "mouselab-mdp", "trial_index": 44, "time_elapsed": 718959, "internal_node_id": "0.0-4.0-3.0-4.0"}}, {"uniqueid": "w35461366:a81069147", "current_trial": 45, "dateTime": 1664873813590, "trialdata": {"revealed_states": [], "num_clicks_accrued": [0, 0, 0, 0, 0, 0, 0, 0, 0, 0, 0, 0, 0], "stateRewards": ["", 4, 4, 48, -48, 4, 4, -48, 24, 2, 8, 24, -48], "withholdReward": false, "trial_id": "mdp_291674656283", "block": "test2", "trialIndex": 37, "score": 39, "costs": 0, "simulationMode": [null, null, null], "rewards": [2, 8, 24], "path": ["0", "0", "9", "10", "11"], "rt": [1270, 412, 624], "actions": ["left", "left", "up"], "actionTimes": [2522, 3444, 4582], "queries": {"click": {"state": {"target": [], "time": []}, "edge": {"target": [], "time": []}}, "mouseover": {"state": {"target": [], "time": []}, "edge": {"target": [], "time": []}}, "mouseout": {"state": {"target": ["0"], "time": [1178]}, "edge": {"target": [], "time": []}}}, "displayed_time": "8.32", "trialTime": 8737, "trial_type": "mouselab-mdp", "trial_index": 45, "time_elapsed": 727796, "internal_node_id": "0.0-4.0-3.0-5.0"}}, {"uniqueid": "w35461366:a81069147", "current_trial": 46, "dateTime": 1664873825590, "trialdata": {"revealed_states": [], "num_clicks_accrued": [0, 0, 0, 0, 0, 0, 0, 0, 0, 0, 0, 0, 0], "stateRewards": ["", 2, 8, -48, 48, -4, -8, 24, 24, -2, -8, 24, -24], "withholdReward": false, "trial_id": "mdp_910248289075", "block": "test2", "trialIndex": 38, "score": 63, "costs": 0, "simulationMode": [null, null, null], "rewards": [2, 8, 48], "path": ["0", "0", "1", "2", "4"], "rt": [1993, 262, 409], "actions": ["up", "up", "left"], "actionTimes": [3433, 4219, 5150], "queries": {"click": {"state": {"target": [], "time": []}, "edge": {"target": [], "time": []}}, "mouseover": {"state": {"target": [], "time": []}, "edge": {"target": [], "time": []}}, "mouseout": {"state": {"target": ["0"], "time": [632]}, "edge": {"target": [], "time": []}}}, "displayed_time": "11.55", "trialTime": 11895, "trial_type": "mouselab-mdp", "trial_index": 46, "time_elapsed": 739796, "internal_node_id": "0.0-4.0-3.0-6.0"}}, {"uniqueid": "w35461366:a81069147", "current_trial": 47, "dateTime": 1664873836745, "trialdata": {"revealed_states": [], "num_clicks_accrued": [0, 0, 0, 0, 0, 0, 0, 0, 0, 0, 0, 0, 0], "stateRewards": ["", -2, -8, -24, 48, -2, -8, -48, -48, 2, -8, -48, 24], "withholdReward": true, "trial_id": "mdp_288324580942", "block": "test2", "trialIndex": 39, "score": -29, "costs": 0, "simulationMode": [null, null, null], "rewards": [-2, -8, -24], "path": ["0", "0", "1", "2", "3"], "rt": [1113, 197, 457], "actions": ["up", "up", "right"], "actionTimes": [2570, 3278, 4262], "queries": {"click": {"state": {"target": [], "time": []}, "edge": {"target": [], "time": []}}, "mouseover": {"state": {"target": [], "time": []}, "edge": {"target": [], "time": []}}, "mouseout": {"state": {"target": ["0"], "time": [1400]}, "edge": {"target": [], "time": []}}}, "displayed_time": "10.52", "trialTime": 11040, "trial_type": "mouselab-mdp", "trial_index": 47, "time_elapsed": 750951, "internal_node_id": "0.0-4.0-3.0-7.0"}}, {"uniqueid": "w35461366:a81069147", "current_trial": 48, "dateTime": 1664873845845, "trialdata": {"revealed_states": [], "num_clicks_accrued": [0, 0, 0, 0, 0, 0, 0, 0, 0, 0, 0, 0, 0], "stateRewards": ["", -4, -4, 24, -48, -2, 8, -24, -48, -4, 4, 24, -48], "withholdReward": true, "trial_id": "mdp_934626330092", "block": "test2", "trialIndex": 40, "score": -13, "costs": 0, "simulationMode": [null, null, null], "rewards": [-2, 8, -24], "path": ["0", "0", "5", "6", "7"], "rt": [2228, 346, 661], "actions": ["right", "right", "up"], "actionTimes": [3628, 4486, 5665], "queries": {"click": {"state": {"target": [], "time": []}, "edge": {"target": [], "time": []}}, "mouseover": {"state": {"target": [], "time": []}, "edge": {"target": [], "time": []}}, "mouseout": {"state": {"target": ["0"], "time": [1340]}, "edge": {"target": [], "time": []}}}, "displayed_time": "8.43", "trialTime": 8999, "trial_type": "mouselab-mdp", "trial_index": 48, "time_elapsed": 760051, "internal_node_id": "0.0-4.0-3.0-8.0"}}, {"uniqueid": "w35461366:a81069147", "current_trial": 49, "dateTime": 1664873856147, "trialdata": {"revealed_states": [], "num_clicks_accrued": [0, 0, 0, 0, 0, 0, 0, 0, 0, 0, 0, 0, 0], "stateRewards": ["", -2, -8, 24, -48, -4, 8, -48, -24, 4, 8, -24, 24], "withholdReward": false, "trial_id": "mdp_940444641142", "block": "test2", "trialIndex": 41, "score": -15, "costs": 0, "simulationMode": [null, null, null], "rewards": [-4, 8, -24], "path": ["0", "0", "5", "6", "8"], "rt": [1274, 316, 391], "actions": ["right", "right", "down"], "actionTimes": [2466, 3301, 4200], "queries": {"click": {"state": {"target": [], "time": []}, "edge": {"target": [], "time": []}}, "mouseover": {"state": {"target": [], "time": []}, "edge": {"target": [], "time": []}}, "mouseout": {"state": {"target": ["0"], "time": [1132]}, "edge": {"target": [], "time": []}}}, "displayed_time": "9.28", "trialTime": 10109, "trial_type": "mouselab-mdp", "trial_index": 49, "time_elapsed": 770353, "internal_node_id": "0.0-4.0-3.0-9.0"}}, {"uniqueid": "w35461366:a81069147", "current_trial": 50, "dateTime": 1664873865821, "trialdata": {"revealed_states": [], "num_clicks_accrued": [0, 0, 0, 0, 0, 0, 0, 0, 0, 0, 0, 0, 0], "stateRewards": ["", 2, 8, 24, -48, 4, 8, 24, 24, 4, -8, 48, 48], "withholdReward": true, "trial_id": "mdp_646103824875", "block": "test2", "trialIndex": 42, "score": 49, "costs": 0, "simulationMode": [null, null, null], "rewards": [4, -8, 48], "path": ["0", "0", "9", "10", "12"], "rt": [1179, 343, 655], "actions": ["left", "left", "down"], "actionTimes": [3174, 4040, 5216], "queries": {"click": {"state": {"target": [], "time": []}, "edge": {"target": [], "time": []}}, "mouseover": {"state": {"target": [], "time": []}, "edge": {"target": [], "time": []}}, "mouseout": {"state": {"target": ["0"], "time": [1053]}, "edge": {"target": [], "time": []}}}, "displayed_time": "9.03", "trialTime": 9581, "trial_type": "mouselab-mdp", "trial_index": 50, "time_elapsed": 780027, "internal_node_id": "0.0-4.0-3.0-10.0"}}, {"uniqueid": "w35461366:a81069147", "current_trial": 51, "dateTime": 1664873914122, "trialdata": {"revealed_states": [], "num_clicks_accrued": [0, 0, 0, 0, 0, 0, 0, 0, 0, 0, 0, 0, 0], "stateRewards": ["", 4, 4, 24, -24, -4, -8, 48, -24, 4, 4, 48, 24], "withholdReward": true, "trial_id": "mdp_822446942217", "block": "test2", "trialIndex": 43, "score": 61, "costs": 0, "simulationMode": [null, null, null], "rewards": [4, 4, 48], "path": ["0", "0", "9", "10", "11"], "rt": [1129, 367, 413], "actions": ["left", "left", "up"], "actionTimes": [2390, 3272, 4203], "queries": {"click": {"state": {"target": [], "time": []}, "edge": {"target": [], "time": []}}, "mouseover": {"state": {"target": [], "time": []}, "edge": {"target": [], "time": []}}, "mouseout": {"state": {"target": ["0", "0", "5", "7", "9"], "time": [539, 6760, 6861, 9979, 47537]}, "edge": {"target": [], "time": []}}}, "displayed_time": "10.35", "trialTime": 48188, "trial_type": "mouselab-mdp", "trial_index": 51, "time_elapsed": 828328, "internal_node_id": "0.0-4.0-3.0-11.0"}}, {"uniqueid": "w35461366:a81069147", "current_trial": 52, "dateTime": 1664873924455, "trialdata": {"revealed_states": [], "num_clicks_accrued": [0, 0, 0, 0, 0, 0, 0, 0, 0, 0, 0, 0, 0], "stateRewards": ["", -2, 8, -24, 24, 2, -8, 48, -24, 2, 8, -24, -24], "withholdReward": true, "trial_id": "mdp_674708270444", "block": "test2", "trialIndex": 44, "score": 47, "costs": 0, "simulationMode": [null, null, null], "rewards": [2, -8, 48], "path": ["0", "0", "5", "6", "7"], "rt": [2504, 429, 615], "actions": ["right", "right", "up"], "actionTimes": [4328, 5267, 6397], "queries": {"click": {"state": {"target": [], "time": []}, "edge": {"target": [], "time": []}}, "mouseover": {"state": {"target": [], "time": []}, "edge": {"target": [], "time": []}}, "mouseout": {"state": {"target": ["0"], "time": [1258]}, "edge": {"target": [], "time": []}}}, "displayed_time": "9.90", "trialTime": 10234, "trial_type": "mouselab-mdp", "trial_index": 52, "time_elapsed": 838661, "internal_node_id": "0.0-4.0-3.0-12.0"}}, {"uniqueid": "w35461366:a81069147", "current_trial": 53, "dateTime": 1664873933571, "trialdata": {"revealed_states": [], "num_clicks_accrued": [0, 0, 0, 0, 0, 0, 0, 0, 0, 0, 0, 0, 0], "stateRewards": ["", 4, 8, 48, 48, 4, 4, -24, -48, 4, 8, -48, -48], "withholdReward": true, "trial_id": "mdp_984548726931", "block": "test2", "trialIndex": 45, "score": -35, "costs": 0, "simulationMode": [null, null, null], "rewards": [4, 4, -48], "path": ["0", "0", "5", "6", "8"], "rt": [1298, 374, 477], "actions": ["right", "right", "down"], "actionTimes": [2587, 3470, 4456], "queries": {"click": {"state": {"target": [], "time": []}, "edge": {"target": [], "time": []}}, "mouseover": {"state": {"target": [], "time": []}, "edge": {"target": [], "time": []}}, "mouseout": {"state": {"target": ["0"], "time": [864]}, "edge": {"target": [], "time": []}}}, "displayed_time": "8.34", "trialTime": 8804, "trial_type": "mouselab-mdp", "trial_index": 53, "time_elapsed": 847776, "internal_node_id": "0.0-4.0-3.0-13.0"}}, {"uniqueid": "w35461366:a81069147", "current_trial": 54, "dateTime": 1664873942551, "trialdata": {"revealed_states": [], "num_clicks_accrued": [0, 0, 0, 0, 0, 0, 0, 0, 0, 0, 0, 0, 0], "stateRewards": ["", 2, 4, 48, 24, -4, 8, 48, 48, 2, -4, -48, -24], "withholdReward": true, "trial_id": "mdp_822099887466", "block": "test2", "trialIndex": 46, "score": 59, "costs": 0, "simulationMode": [null, null, null], "rewards": [2, 4, 48], "path": ["0", "0", "1", "2", "3"], "rt": [2369, 237, 534], "actions": ["up", "up", "right"], "actionTimes": [3676, 4430, 5471], "queries": {"click": {"state": {"target": [], "time": []}, "edge": {"target": [], "time": []}}, "mouseover": {"state": {"target": [], "time": []}, "edge": {"target": [], "time": []}}, "mouseout": {"state": {"target": ["0"], "time": [1235]}, "edge": {"target": [], "time": []}}}, "displayed_time": "8.35", "trialTime": 8895, "trial_type": "mouselab-mdp", "trial_index": 54, "time_elapsed": 856757, "internal_node_id": "0.0-4.0-3.0-14.0"}}, {"uniqueid": "w35461366:a81069147", "current_trial": 55, "dateTime": 1664873954711, "trialdata": {"revealed_states": [], "num_clicks_accrued": [0, 0, 0, 0, 0, 0, 0, 0, 0, 0, 0, 0, 0], "stateRewards": ["", 2, 4, 48, -24, 2, -8, -24, -24, 2, -8, -24, -48], "withholdReward": true, "trial_id": "mdp_274832552938", "block": "test2", "trialIndex": 47, "score": -13, "costs": 0, "simulationMode": [null, null, null], "rewards": [2, 4, -24], "path": ["0", "0", "1", "2", "4"], "rt": [977, 266, 395], "actions": ["up", "up", "left"], "actionTimes": [2325, 3105, 4018], "queries": {"click": {"state": {"target": [], "time": []}, "edge": {"target": [], "time": []}}, "mouseover": {"state": {"target": [], "time": []}, "edge": {"target": [], "time": []}}, "mouseout": {"state": {"target": ["0"], "time": [543]}, "edge": {"target": [], "time": []}}}, "displayed_time": "11.44", "trialTime": 12062, "trial_type": "mouselab-mdp", "trial_index": 55, "time_elapsed": 868916, "internal_node_id": "0.0-4.0-3.0-15.0"}}, {"uniqueid": "w35461366:a81069147", "current_trial": 56, "dateTime": 1664873964656, "trialdata": {"revealed_states": [], "num_clicks_accrued": [0, 0, 0, 0, 0, 0, 0, 0, 0, 0, 0, 0, 0], "stateRewards": ["", 4, -4, 48, 24, 2, 4, 24, -24, 2, 4, 24, 48], "withholdReward": true, "trial_id": "mdp_736351885282", "block": "test2", "trialIndex": 48, "score": 35, "costs": 0, "simulationMode": [null, null, null], "rewards": [2, 4, 24], "path": ["0", "0", "9", "10", "11"], "rt": [1472, 348, 739], "actions": ["left", "left", "up"], "actionTimes": [2687, 3546, 4803], "queries": {"click": {"state": {"target": [], "time": []}, "edge": {"target": [], "time": []}}, "mouseover": {"state": {"target": [], "time": []}, "edge": {"target": [], "time": []}}, "mouseout": {"state": {"target": ["0"], "time": [801]}, "edge": {"target": [], "time": []}}}, "displayed_time": "9.25", "trialTime": 9867, "trial_type": "mouselab-mdp", "trial_index": 56, "time_elapsed": 878862, "internal_node_id": "0.0-4.0-3.0-16.0"}}, {"uniqueid": "w35461366:a81069147", "current_trial": 57, "dateTime": 1664873976865, "trialdata": {"revealed_states": [], "num_clicks_accrued": [0, 0, 0, 0, 0, 0, 0, 0, 0, 0, 0, 0, 0], "stateRewards": ["", -4, -8, 24, -48, 2, 4, -48, -48, 2, -8, 24, 48], "withholdReward": true, "trial_id": "mdp_111262146724", "block": "test2", "trialIndex": 49, "score": 47, "costs": 0, "simulationMode": [null, null, null], "rewards": [2, -8, 48], "path": ["0", "0", "9", "10", "12"], "rt": [833, 309, 752], "actions": ["left", "left", "down"], "actionTimes": [2149, 2984, 4248], "queries": {"click": {"state": {"target": [], "time": []}, "edge": {"target": [], "time": []}}, "mouseover": {"state": {"target": [], "time": []}, "edge": {"target": [], "time": []}}, "mouseout": {"state": {"target": ["0"], "time": [636]}, "edge": {"target": [], "time": []}}}, "displayed_time": "11.41", "trialTime": 12127, "trial_type": "mouselab-mdp", "trial_index": 57, "time_elapsed": 891071, "internal_node_id": "0.0-4.0-3.0-17.0"}}, {"uniqueid": "w35461366:a81069147", "current_trial": 58, "dateTime": 1664873988594, "trialdata": {"revealed_states": [], "num_clicks_accrued": [0, 0, 0, 0, 0, 0, 0, 0, 0, 0, 0, 0, 0], "stateRewards": ["", -4, 4, 24, 24, -2, 8, 24, -48, 4, -8, -24, -48], "withholdReward": false, "trial_id": "mdp_651542905861", "block": "test2", "trialIndex": 50, "score": 29, "costs": 0, "simulationMode": [null, null, null], "rewards": [-4, 4, 24], "path": ["0", "0", "1", "2", "4"], "rt": [1189, 289, 471], "actions": ["up", "up", "left"], "actionTimes": [3151, 3954, 4940], "queries": {"click": {"state": {"target": [], "time": []}, "edge": {"target": [], "time": []}}, "mouseover": {"state": {"target": [], "time": []}, "edge": {"target": [], "time": []}}, "mouseout": {"state": {"target": ["0"], "time": [1818]}, "edge": {"target": [], "time": []}}}, "displayed_time": "10.99", "trialTime": 11645, "trial_type": "mouselab-mdp", "trial_index": 58, "time_elapsed": 902800, "internal_node_id": "0.0-4.0-3.0-18.0"}}, {"uniqueid": "w35461366:a81069147", "current_trial": 59, "dateTime": 1664874000159, "trialdata": {"revealed_states": [], "num_clicks_accrued": [0, 0, 0, 0, 0, 0, 0, 0, 0, 0, 0, 0, 0], "stateRewards": ["", 4, 8, -24, 48, -2, -4, 24, -24, -2, 4, 24, 24], "withholdReward": true, "trial_id": "mdp_948713805479", "block": "test2", "trialIndex": 51, "score": -7, "costs": 0, "simulationMode": [null, null, null], "rewards": [4, 8, -24], "path": ["0", "0", "1", "2", "3"], "rt": [1163, 282, 432], "actions": ["up", "up", "right"], "actionTimes": [3233, 4029, 4982], "queries": {"click": {"state": {"target": [], "time": []}, "edge": {"target": [], "time": []}}, "mouseover": {"state": {"target": [], "time": []}, "edge": {"target": [], "time": []}}, "mouseout": {"state": {"target": ["0"], "time": [2021]}, "edge": {"target": [], "time": []}}}, "displayed_time": "11.16", "trialTime": 11475, "trial_type": "mouselab-mdp", "trial_index": 59, "time_elapsed": 914365, "internal_node_id": "0.0-4.0-3.0-19.0"}}, {"uniqueid": "w35461366:a81069147", "current_trial": 60, "dateTime": 1664874011978, "trialdata": {"revealed_states": [], "num_clicks_accrued": [0, 0, 0, 0, 0, 0, 0, 0, 0, 0, 0, 0, 0], "stateRewards": ["", -2, -4, 48, -24, 2, -4, -24, -48, 2, 8, -48, -24], "withholdReward": true, "trial_id": "mdp_238243948191", "block": "test2", "trialIndex": 52, "score": -21, "costs": 0, "simulationMode": [null, null, null], "rewards": [2, -4, -24], "path": ["0", "0", "5", "6", "7"], "rt": [1849, 344, 713], "actions": ["right", "right", "up"], "actionTimes": [3016, 3882, 5117], "queries": {"click": {"state": {"target": [], "time": []}, "edge": {"target": [], "time": []}}, "mouseover": {"state": {"target": [], "time": []}, "edge": {"target": [], "time": []}}, "mouseout": {"state": {"target": ["0"], "time": [1108]}, "edge": {"target": [], "time": []}}}, "displayed_time": "11.21", "trialTime": 11712, "trial_type": "mouselab-mdp", "trial_index": 60, "time_elapsed": 926184, "internal_node_id": "0.0-4.0-3.0-20.0"}}, {"uniqueid": "w35461366:a81069147", "current_trial": 61, "dateTime": 1664874023055, "trialdata": {"revealed_states": [], "num_clicks_accrued": [0, 0, 0, 0, 0, 0, 0, 0, 0, 0, 0, 0, 0], "stateRewards": ["", 4, -4, 48, -48, 4, -4, 24, -24, 4, 8, -24, -48], "withholdReward": true, "trial_id": "mdp_433630527224", "block": "test2", "trialIndex": 53, "score": -19, "costs": 0, "simulationMode": [null, null, null], "rewards": [4, -4, -24], "path": ["0", "0", "5", "6", "8"], "rt": [1094, 335, 440], "actions": ["right", "right", "down"], "actionTimes": [2552, 3394, 4341], "queries": {"click": {"state": {"target": [], "time": []}, "edge": {"target": [], "time": []}}, "mouseover": {"state": {"target": [], "time": []}, "edge": {"target": [], "time": []}}, "mouseout": {"state": {"target": ["0"], "time": [1380]}, "edge": {"target": [], "time": []}}}, "displayed_time": "10.53", "trialTime": 10951, "trial_type": "mouselab-mdp", "trial_index": 61, "time_elapsed": 937260, "internal_node_id": "0.0-4.0-3.0-21.0"}}, {"uniqueid": "w35461366:a81069147", "current_trial": 62, "dateTime": 1664874033722, "trialdata": {"revealed_states": [], "num_clicks_accrued": [0, 0, 0, 0, 0, 0, 0, 0, 0, 0, 0, 0, 0], "stateRewards": ["", -4, -8, 48, 48, -4, 4, 48, -24, 4, 8, -24, -48], "withholdReward": false, "trial_id": "mdp_142906093415", "block": "test2", "trialIndex": 54, "score": -7, "costs": 0, "simulationMode": [null, null, null], "rewards": [4, 8, -24], "path": ["0", "0", "9", "10", "11"], "rt": [1291, 3002, 957], "actions": ["left", "left", "up"], "actionTimes": [3235, 6745, 8217], "queries": {"click": {"state": {"target": [], "time": []}, "edge": {"target": [], "time": []}}, "mouseover": {"state": {"target": [], "time": []}, "edge": {"target": [], "time": []}}, "mouseout": {"state": {"target": ["0"], "time": [991]}, "edge": {"target": [], "time": []}}}, "displayed_time": "9.96", "trialTime": 10548, "trial_type": "mouselab-mdp", "trial_index": 62, "time_elapsed": 947928, "internal_node_id": "0.0-4.0-3.0-22.0"}}, {"uniqueid": "w35461366:a81069147", "current_trial": 63, "dateTime": 1664874044733, "trialdata": {"revealed_states": [], "num_clicks_accrued": [0, 0, 0, 0, 0, 0, 0, 0, 0, 0, 0, 0, 0], "stateRewards": ["", 4, -8, -48, 48, -2, 8, -48, 48, -2, -4, 24, -48], "withholdReward": false, "trial_id": "mdp_400558136089", "block": "test2", "trialIndex": 55, "score": -49, "costs": 0, "simulationMode": [null, null, null], "rewards": [-2, -4, -48], "path": ["0", "0", "9", "10", "12"], "rt": [1189, 233, 419], "actions": ["left", "left", "down"], "actionTimes": [2571, 3326, 4255], "queries": {"click": {"state": {"target": [], "time": []}, "edge": {"target": [], "time": []}}, "mouseover": {"state": {"target": [], "time": []}, "edge": {"target": [], "time": []}}, "mouseout": {"state": {"target": ["0"], "time": [1327]}, "edge": {"target": [], "time": []}}}, "displayed_time": "10.46", "trialTime": 10920, "trial_type": "mouselab-mdp", "trial_index": 63, "time_elapsed": 958938, "internal_node_id": "0.0-4.0-3.0-23.0"}}, {"uniqueid": "w35461366:a81069147", "current_trial": 64, "dateTime": 1664874054430, "trialdata": {"revealed_states": [], "num_clicks_accrued": [0, 0, 0, 0, 0, 0, 0, 0, 0, 0, 0, 0, 0], "stateRewards": ["", -4, -8, 48, 24, 4, -8, 24, -48, -2, -8, 24, -48], "withholdReward": true, "trial_id": "mdp_952038635544", "block": "test2", "trialIndex": 56, "score": 17, "costs": 0, "simulationMode": [null, null, null], "rewards": [-4, -8, 24], "path": ["0", "0", "1", "2", "4"], "rt": [1266, 228, 758], "actions": ["up", "up", "left"], "actionTimes": [2485, 3232, 4505], "queries": {"click": {"state": {"target": [], "time": []}, "edge": {"target": [], "time": []}}, "mouseover": {"state": {"target": [], "time": []}, "edge": {"target": [], "time": []}}, "mouseout": {"state": {"target": ["0"], "time": [1167]}, "edge": {"target": [], "time": []}}}, "displayed_time": "9.30", "trialTime": 9616, "trial_type": "mouselab-mdp", "trial_index": 64, "time_elapsed": 968636, "internal_node_id": "0.0-4.0-3.0-24.0"}}, {"uniqueid": "w35461366:a81069147", "current_trial": 65, "dateTime": 1664874063536, "trialdata": {"revealed_states": [], "num_clicks_accrued": [0, 0, 0, 0, 0, 0, 0, 0, 0, 0, 0, 0, 0], "stateRewards": ["", 4, 8, -24, 48, 4, -8, -48, 48, -4, 8, -24, -48], "withholdReward": true, "trial_id": "mdp_376126356841", "block": "test2", "trialIndex": 57, "score": -7, "costs": 0, "simulationMode": [null, null, null], "rewards": [4, 8, -24], "path": ["0", "0", "1", "2", "3"], "rt": [1491, 179, 492], "actions": ["up", "up", "right"], "actionTimes": [2801, 3492, 4508], "queries": {"click": {"state": {"target": [], "time": []}, "edge": {"target": [], "time": []}}, "mouseover": {"state": {"target": [], "time": []}, "edge": {"target": [], "time": []}}, "mouseout": {"state": {"target": ["0"], "time": [1235]}, "edge": {"target": [], "time": []}}}, "displayed_time": "8.34", "trialTime": 9022, "trial_type": "mouselab-mdp", "trial_index": 65, "time_elapsed": 977742, "internal_node_id": "0.0-4.0-3.0-25.0"}}, {"uniqueid": "w35461366:a81069147", "current_trial": 66, "dateTime": 1664874075608, "trialdata": {"revealed_states": [], "num_clicks_accrued": [0, 0, 0, 0, 0, 0, 0, 0, 0, 0, 0, 0, 0], "stateRewards": ["", 2, 4, 48, -48, 2, 4, 24, -24, 2, -4, -24, -48], "withholdReward": true, "trial_id": "mdp_706591889062", "block": "test2", "trialIndex": 58, "score": 35, "costs": 0, "simulationMode": [null, null, null], "rewards": [2, 4, 24], "path": ["0", "0", "5", "6", "7"], "rt": [1510, 286, 700], "actions": ["right", "right", "up"], "actionTimes": [3976, 4780, 5998], "queries": {"click": {"state": {"target": [], "time": []}, "edge": {"target": [], "time": []}}, "mouseover": {"state": {"target": [], "time": []}, "edge": {"target": [], "time": []}}, "mouseout": {"state": {"target": ["0"], "time": [1918]}, "edge": {"target": [], "time": []}}}, "displayed_time": "11.48", "trialTime": 11986, "trial_type": "mouselab-mdp", "trial_index": 66, "time_elapsed": 989813, "internal_node_id": "0.0-4.0-3.0-26.0"}}, {"uniqueid": "w35461366:a81069147", "current_trial": 67, "dateTime": 1664874087144, "trialdata": {"revealed_states": [], "num_clicks_accrued": [0, 0, 0, 0, 0, 0, 0, 0, 0, 0, 0, 0, 0], "stateRewards": ["", -2, 8, 48, -48, 4, -8, 24, 24, 4, 4, -48, -24], "withholdReward": true, "trial_id": "mdp_746937869927", "block": "test2", "trialIndex": 59, "score": 25, "costs": 0, "simulationMode": [null, null, null], "rewards": [4, -8, 24], "path": ["0", "0", "5", "6", "8"], "rt": [2200, 210, 447], "actions": ["right", "right", "down"], "actionTimes": [3940, 4670, 5633], "queries": {"click": {"state": {"target": [], "time": []}, "edge": {"target": [], "time": []}}, "mouseover": {"state": {"target": [], "time": []}, "edge": {"target": [], "time": []}}, "mouseout": {"state": {"target": ["0", "0"], "time": [852, 8313]}, "edge": {"target": [], "time": []}}}, "displayed_time": "10.79", "trialTime": 11430, "trial_type": "mouselab-mdp", "trial_index": 67, "time_elapsed": 1001350, "internal_node_id": "0.0-4.0-3.0-27.0"}}, {"uniqueid": "w35461366:a81069147", "current_trial": 68, "dateTime": 1664874097750, "trialdata": {"revealed_states": [], "num_clicks_accrued": [0, 0, 0, 0, 0, 0, 0, 0, 0, 0, 0, 0, 0], "stateRewards": ["", -4, -8, -48, -48, 4, -8, 48, 48, 2, 8, 48, 24], "withholdReward": true, "trial_id": "mdp_880437222492", "block": "test2", "trialIndex": 60, "score": 63, "costs": 0, "simulationMode": [null, null, null], "rewards": [2, 8, 48], "path": ["0", "0", "9", "10", "11"], "rt": [1326, 354, 932], "actions": ["left", "left", "up"], "actionTimes": [3151, 4017, 5458], "queries": {"click": {"state": {"target": [], "time": []}, "edge": {"target": [], "time": []}}, "mouseover": {"state": {"target": [], "time": []}, "edge": {"target": [], "time": []}}, "mouseout": {"state": {"target": ["0"], "time": [1758]}, "edge": {"target": [], "time": []}}}, "displayed_time": "9.85", "trialTime": 10506, "trial_type": "mouselab-mdp", "trial_index": 68, "time_elapsed": 1011956, "internal_node_id": "0.0-4.0-3.0-28.0"}}, {"uniqueid": "w35461366:a81069147", "current_trial": 69, "dateTime": 1664874107812, "trialdata": {"revealed_states": [], "num_clicks_accrued": [0, 0, 0, 0, 0, 0, 0, 0, 0, 0, 0, 0, 0], "stateRewards": ["", -2, 8, -48, 48, -4, 8, -24, 24, 4, -4, 24, -48], "withholdReward": false, "trial_id": "mdp_904238083902", "block": "test2", "trialIndex": 61, "score": -43, "costs": 0, "simulationMode": [null, null, null], "rewards": [4, -4, -48], "path": ["0", "0", "9", "10", "12"], "rt": [1470, 322, 797], "actions": ["left", "left", "down"], "actionTimes": [2985, 3828, 5148], "queries": {"click": {"state": {"target": [], "time": []}, "edge": {"target": [], "time": []}}, "mouseover": {"state": {"target": [], "time": []}, "edge": {"target": [], "time": []}}, "mouseout": {"state": {"target": ["0"], "time": [1459]}, "edge": {"target": [], "time": []}}}, "displayed_time": "9.58", "trialTime": 9965, "trial_type": "mouselab-mdp", "trial_index": 69, "time_elapsed": 1022018, "internal_node_id": "0.0-4.0-3.0-29.0"}}, {"uniqueid": "w35461366:a81069147", "current_trial": 70, "dateTime": 1664874114719, "trialdata": {"rt": 6902, "stimulus": "<h1> End of block! </h1>\n\nYou have reached the end of the block 2/4. If you need a short break, feel free to take one now before moving on.\n\n<br><br>\nIn the next block, you will complete another 30 rounds of this game.\n\n<br><br>\n<div style='text-align: center;'>Press <code>space</code> to begin.</div>\n<br><br>\n<div style='text-align: center;'>(If the experiment doesn't continue, try clicking on the text and then pressing <code>space</code>.)</div>", "response": " ", "trial_id": "mdp_ready_3", "trial_type": "html-keyboard-response", "trial_index": 70, "time_elapsed": 1028925, "internal_node_id": "0.0-4.0-4.0"}}, {"uniqueid": "w35461366:a81069147", "current_trial": 71, "dateTime": 1664874124123, "trialdata": {"revealed_states": [], "num_clicks_accrued": [0, 0, 0, 0, 0, 0, 0, 0, 0, 0, 0, 0, 0], "stateRewards": ["", 4, 4, 48, -48, -2, -8, -48, -24, 2, 4, -24, -48], "withholdReward": true, "trial_id": "mdp_239929662917", "block": "test3", "trialIndex": 62, "score": -53, "costs": 0, "simulationMode": [null, null, null], "rewards": [-2, -8, -48], "path": ["0", "0", "5", "6", "7"], "rt": [2402, 301, 696], "actions": ["right", "right", "up"], "actionTimes": [4404, 5231, 6450], "queries": {"click": {"state": {"target": [], "time": []}, "edge": {"target": [], "time": []}}, "mouseover": {"state": {"target": [], "time": []}, "edge": {"target": [], "time": []}}, "mouseout": {"state": {"target": ["2", "1", "0", "0"], "time": [648, 686, 725, 1166]}, "edge": {"target": [], "time": []}}}, "displayed_time": "9.02", "trialTime": 9307, "trial_type": "mouselab-mdp", "trial_index": 71, "time_elapsed": 1038328, "internal_node_id": "0.0-4.0-5.0-0.0"}}, {"uniqueid": "w35461366:a81069147", "current_trial": 72, "dateTime": 1664874133622, "trialdata": {"revealed_states": [], "num_clicks_accrued": [0, 0, 0, 0, 0, 0, 0, 0, 0, 0, 0, 0, 0], "stateRewards": ["", 2, 4, 48, 24, -4, 8, 48, 48, 2, -4, -48, -24], "withholdReward": true, "trial_id": "mdp_822099887466", "block": "test3", "trialIndex": 63, "score": 57, "costs": 0, "simulationMode": [null, null, null], "rewards": [-4, 8, 48], "path": ["0", "0", "5", "6", "8"], "rt": [1309, 282, 457], "actions": ["right", "right", "down"], "actionTimes": [3268, 4063, 5043], "queries": {"click": {"state": {"target": [], "time": []}, "edge": {"target": [], "time": []}}, "mouseover": {"state": {"target": [], "time": []}, "edge": {"target": [], "time": []}}, "mouseout": {"state": {"target": ["0"], "time": [1055]}, "edge": {"target": [], "time": []}}}, "displayed_time": "9.01", "trialTime": 9398, "trial_type": "mouselab-mdp", "trial_index": 72, "time_elapsed": 1047828, "internal_node_id": "0.0-4.0-5.0-1.0"}}, {"uniqueid": "w35461366:a81069147", "current_trial": 73, "dateTime": 1664874142382, "trialdata": {"revealed_states": [], "num_clicks_accrued": [0, 0, 0, 0, 0, 0, 0, 0, 0, 0, 0, 0, 0], "stateRewards": ["", -4, -8, 48, 48, -4, 4, 48, -24, 4, 8, -24, -48], "withholdReward": true, "trial_id": "mdp_142906093415", "block": "test3", "trialIndex": 64, "score": 41, "costs": 0, "simulationMode": [null, null, null], "rewards": [-4, -8, 48], "path": ["0", "0", "1", "2", "3"], "rt": [1382, 366, 457], "actions": ["up", "up", "right"], "actionTimes": [2499, 3390, 4367], "queries": {"click": {"state": {"target": [], "time": []}, "edge": {"target": [], "time": []}}, "mouseover": {"state": {"target": [], "time": []}, "edge": {"target": [], "time": []}}, "mouseout": {"state": {"target": ["0"], "time": [1069]}, "edge": {"target": [], "time": []}}}, "displayed_time": "8.18", "trialTime": 8659, "trial_type": "mouselab-mdp", "trial_index": 73, "time_elapsed": 1056587, "internal_node_id": "0.0-4.0-5.0-2.0"}}, {"uniqueid": "w35461366:a81069147", "current_trial": 74, "dateTime": 1664874154001, "trialdata": {"revealed_states": [], "num_clicks_accrued": [0, 0, 0, 0, 0, 0, 0, 0, 0, 0, 0, 0, 0], "stateRewards": ["", 4, -8, -24, 24, 2, -4, 24, 24, 2, -4, 48, 48], "withholdReward": true, "trial_id": "mdp_457607480918", "block": "test3", "trialIndex": 65, "score": 25, "costs": 0, "simulationMode": [null, null, null], "rewards": [4, -8, 24], "path": ["0", "0", "1", "2", "4"], "rt": [1204, 248, 448], "actions": ["up", "up", "left"], "actionTimes": [3150, 3912, 4874], "queries": {"click": {"state": {"target": [], "time": []}, "edge": {"target": [], "time": []}}, "mouseover": {"state": {"target": [], "time": []}, "edge": {"target": [], "time": []}}, "mouseout": {"state": {"target": ["0"], "time": [1894]}, "edge": {"target": [], "time": []}}}, "displayed_time": "11.00", "trialTime": 11533, "trial_type": "mouselab-mdp", "trial_index": 74, "time_elapsed": 1068207, "internal_node_id": "0.0-4.0-5.0-3.0"}}, {"uniqueid": "w35461366:a81069147", "current_trial": 75, "dateTime": 1664874165621, "trialdata": {"revealed_states": [], "num_clicks_accrued": [0, 0, 0, 0, 0, 0, 0, 0, 0, 0, 0, 0, 0], "stateRewards": ["", -4, -8, 48, 24, 4, -8, 24, -48, -2, -8, 24, -48], "withholdReward": true, "trial_id": "mdp_952038635544", "block": "test3", "trialIndex": 66, "score": 19, "costs": 0, "simulationMode": [null, null, null], "rewards": [-2, -8, 24], "path": ["0", "0", "9", "10", "11"], "rt": [1086, 228, 582], "actions": ["left", "left", "up"], "actionTimes": [3002, 3749, 4847], "queries": {"click": {"state": {"target": [], "time": []}, "edge": {"target": [], "time": []}}, "mouseover": {"state": {"target": [], "time": []}, "edge": {"target": [], "time": []}}, "mouseout": {"state": {"target": ["0"], "time": [1007]}, "edge": {"target": [], "time": []}}}, "displayed_time": "10.97", "trialTime": 11537, "trial_type": "mouselab-mdp", "trial_index": 75, "time_elapsed": 1079827, "internal_node_id": "0.0-4.0-5.0-4.0"}}, {"uniqueid": "w35461366:a81069147", "current_trial": 76, "dateTime": 1664874176323, "trialdata": {"revealed_states": [], "num_clicks_accrued": [0, 0, 0, 0, 0, 0, 0, 0, 0, 0, 0, 0, 0], "stateRewards": ["", -4, 8, -24, -48, 2, 8, -48, -24, -2, -4, 48, -48], "withholdReward": false, "trial_id": "mdp_599927291428", "block": "test3", "trialIndex": 67, "score": -49, "costs": 0, "simulationMode": [null, null, null], "rewards": [-2, -4, -48], "path": ["0", "0", "9", "10", "12"], "rt": [1040, 379, 415], "actions": ["left", "left", "down"], "actionTimes": [2208, 3098, 4035], "queries": {"click": {"state": {"target": [], "time": []}, "edge": {"target": [], "time": []}}, "mouseover": {"state": {"target": [], "time": []}, "edge": {"target": [], "time": []}}, "mouseout": {"state": {"target": ["0"], "time": [1110]}, "edge": {"target": [], "time": []}}}, "displayed_time": "10.23", "trialTime": 10623, "trial_type": "mouselab-mdp", "trial_index": 76, "time_elapsed": 1090529, "internal_node_id": "0.0-4.0-5.0-5.0"}}, {"uniqueid": "w35461366:a81069147", "current_trial": 77, "dateTime": 1664874187736, "trialdata": {"revealed_states": [], "num_clicks_accrued": [0, 0, 0, 0, 0, 0, 0, 0, 0, 0, 0, 0, 0], "stateRewards": ["", 4, 8, -24, 48, 4, -8, -48, 48, -4, 8, -24, -48], "withholdReward": false, "trial_id": "mdp_376126356841", "block": "test3", "trialIndex": 68, "score": 65, "costs": 0, "simulationMode": [null, null, null], "rewards": [4, 8, 48], "path": ["0", "0", "1", "2", "4"], "rt": [1308, 73, 388], "actions": ["up", "up", "left"], "actionTimes": [3142, 3723, 4620], "queries": {"click": {"state": {"target": [], "time": []}, "edge": {"target": [], "time": []}}, "mouseover": {"state": {"target": [], "time": []}, "edge": {"target": [], "time": []}}, "mouseout": {"state": {"target": ["0"], "time": [920]}, "edge": {"target": [], "time": []}}}, "displayed_time": "10.91", "trialTime": 11311, "trial_type": "mouselab-mdp", "trial_index": 77, "time_elapsed": 1101942, "internal_node_id": "0.0-4.0-5.0-6.0"}}, {"uniqueid": "w35461366:a81069147", "current_trial": 78, "dateTime": 1664874200217, "trialdata": {"revealed_states": [], "num_clicks_accrued": [0, 0, 0, 0, 0, 0, 0, 0, 0, 0, 0, 0, 0], "stateRewards": ["", -4, 8, 24, 24, -2, 8, -48, 48, 4, -8, 48, -48], "withholdReward": true, "trial_id": "mdp_295249220524", "block": "test3", "trialIndex": 69, "score": 33, "costs": 0, "simulationMode": [null, null, null], "rewards": [-4, 8, 24], "path": ["0", "0", "1", "2", "3"], "rt": [966, 165, 603], "actions": ["up", "up", "right"], "actionTimes": [2824, 3506, 4627], "queries": {"click": {"state": {"target": [], "time": []}, "edge": {"target": [], "time": []}}, "mouseover": {"state": {"target": [], "time": []}, "edge": {"target": [], "time": []}}, "mouseout": {"state": {"target": ["0"], "time": [1009]}, "edge": {"target": [], "time": []}}}, "displayed_time": "11.94", "trialTime": 12371, "trial_type": "mouselab-mdp", "trial_index": 78, "time_elapsed": 1114423, "internal_node_id": "0.0-4.0-5.0-7.0"}}, {"uniqueid": "w35461366:a81069147", "current_trial": 79, "dateTime": 1664874212148, "trialdata": {"revealed_states": [], "num_clicks_accrued": [0, 0, 0, 0, 0, 0, 0, 0, 0, 0, 0, 0, 0], "stateRewards": ["", -4, -4, -24, 24, -4, 4, -24, 48, -2, 4, 48, -48], "withholdReward": true, "trial_id": "mdp_774757609669", "block": "test3", "trialIndex": 70, "score": -19, "costs": 0, "simulationMode": [null, null, null], "rewards": [-4, 4, -24], "path": ["0", "0", "5", "6", "7"], "rt": [1555, 316, 704], "actions": ["right", "right", "up"], "actionTimes": [3930, 4757, 5968], "queries": {"click": {"state": {"target": [], "time": []}, "edge": {"target": [], "time": []}}, "mouseover": {"state": {"target": [], "time": []}, "edge": {"target": [], "time": []}}, "mouseout": {"state": {"target": ["0"], "time": [2324]}, "edge": {"target": [], "time": []}}}, "displayed_time": "11.47", "trialTime": 11838, "trial_type": "mouselab-mdp", "trial_index": 79, "time_elapsed": 1126354, "internal_node_id": "0.0-4.0-5.0-8.0"}}, {"uniqueid": "w35461366:a81069147", "current_trial": 80, "dateTime": 1664874225608, "trialdata": {"revealed_states": [], "num_clicks_accrued": [0, 0, 0, 0, 0, 0, 0, 0, 0, 0, 0, 0, 0], "stateRewards": ["", -2, -8, 48, 24, -2, 8, -48, -24, -2, 4, -48, 48], "withholdReward": true, "trial_id": "mdp_295220852217", "block": "test3", "trialIndex": 71, "score": -13, "costs": 0, "simulationMode": [null, null, null], "rewards": [-2, 8, -24], "path": ["0", "0", "5", "6", "8"], "rt": [967, 64, 740], "actions": ["right", "right", "down"], "actionTimes": [3659, 4239, 5497], "queries": {"click": {"state": {"target": [], "time": []}, "edge": {"target": [], "time": []}}, "mouseover": {"state": {"target": [], "time": []}, "edge": {"target": [], "time": []}}, "mouseout": {"state": {"target": ["0"], "time": [1034]}, "edge": {"target": [], "time": []}}}, "displayed_time": "12.79", "trialTime": 13375, "trial_type": "mouselab-mdp", "trial_index": 80, "time_elapsed": 1139814, "internal_node_id": "0.0-4.0-5.0-9.0"}}, {"uniqueid": "w35461366:a81069147", "current_trial": 81, "dateTime": 1664874236444, "trialdata": {"revealed_states": [], "num_clicks_accrued": [0, 0, 0, 0, 0, 0, 0, 0, 0, 0, 0, 0, 0], "stateRewards": ["", -4, 4, 24, 24, -2, 8, 24, -48, 4, -8, -24, -48], "withholdReward": true, "trial_id": "mdp_651542905861", "block": "test3", "trialIndex": 72, "score": 29, "costs": 0, "simulationMode": [null, null, null], "rewards": [-4, 4, 24], "path": ["0", "0", "1", "2", "3"], "rt": [1195, 159, 443], "actions": ["up", "up", "right"], "actionTimes": [2487, 3154, 4122], "queries": {"click": {"state": {"target": [], "time": []}, "edge": {"target": [], "time": []}}, "mouseover": {"state": {"target": [], "time": []}, "edge": {"target": [], "time": []}}, "mouseout": {"state": {"target": ["0"], "time": [1166]}, "edge": {"target": [], "time": []}}}, "displayed_time": "10.34", "trialTime": 10733, "trial_type": "mouselab-mdp", "trial_index": 81, "time_elapsed": 1150650, "internal_node_id": "0.0-4.0-5.0-10.0"}}, {"uniqueid": "w35461366:a81069147", "current_trial": 82, "dateTime": 1664874246475, "trialdata": {"revealed_states": [], "num_clicks_accrued": [0, 0, 0, 0, 0, 0, 0, 0, 0, 0, 0, 0, 0], "stateRewards": ["", 4, 4, 48, -24, -4, -8, 24, -24, 2, -8, -24, 24], "withholdReward": false, "trial_id": "mdp_933201675789", "block": "test3", "trialIndex": 73, "score": -11, "costs": 0, "simulationMode": [null, null, null], "rewards": [4, 4, -24], "path": ["0", "0", "1", "2", "4"], "rt": [618, 186, 308], "actions": ["up", "up", "left"], "actionTimes": [2134, 2833, 3660], "queries": {"click": {"state": {"target": [], "time": []}, "edge": {"target": [], "time": []}}, "mouseover": {"state": {"target": [], "time": []}, "edge": {"target": [], "time": []}}, "mouseout": {"state": {"target": ["0"], "time": [1437]}, "edge": {"target": [], "time": []}}}, "displayed_time": "9.55", "trialTime": 9926, "trial_type": "mouselab-mdp", "trial_index": 82, "time_elapsed": 1160681, "internal_node_id": "0.0-4.0-5.0-11.0"}}, {"uniqueid": "w35461366:a81069147", "current_trial": 83, "dateTime": 1664874255781, "trialdata": {"revealed_states": [], "num_clicks_accrued": [0, 0, 0, 0, 0, 0, 0, 0, 0, 0, 0, 0, 0], "stateRewards": ["", -2, -8, -24, 24, -2, -8, -48, 24, -2, -8, 24, 24], "withholdReward": true, "trial_id": "mdp_336617436097", "block": "test3", "trialIndex": 74, "score": 19, "costs": 0, "simulationMode": [null, null, null], "rewards": [-2, -8, 24], "path": ["0", "0", "9", "10", "11"], "rt": [1481, 244, 642], "actions": ["left", "left", "up"], "actionTimes": [3297, 4068, 5229], "queries": {"click": {"state": {"target": [], "time": []}, "edge": {"target": [], "time": []}}, "mouseover": {"state": {"target": [], "time": []}, "edge": {"target": [], "time": []}}, "mouseout": {"state": {"target": ["0"], "time": [1361]}, "edge": {"target": [], "time": []}}}, "displayed_time": "8.84", "trialTime": 9193, "trial_type": "mouselab-mdp", "trial_index": 83, "time_elapsed": 1169987, "internal_node_id": "0.0-4.0-5.0-12.0"}}, {"uniqueid": "w35461366:a81069147", "current_trial": 84, "dateTime": 1664874266858, "trialdata": {"revealed_states": [], "num_clicks_accrued": [0, 0, 0, 0, 0, 0, 0, 0, 0, 0, 0, 0, 0], "stateRewards": ["", -4, -8, 24, 48, 2, -4, -24, 24, -4, 8, 48, 48], "withholdReward": false, "trial_id": "mdp_496672670022", "block": "test3", "trialIndex": 75, "score": 57, "costs": 0, "simulationMode": [null, null, null], "rewards": [-4, 8, 48], "path": ["0", "0", "9", "10", "12"], "rt": [1039, 641, 492], "actions": ["left", "left", "down"], "actionTimes": [4344, 5507, 6523], "queries": {"click": {"state": {"target": [], "time": []}, "edge": {"target": [], "time": []}}, "mouseover": {"state": {"target": [], "time": []}, "edge": {"target": [], "time": []}}, "mouseout": {"state": {"target": ["0"], "time": [1085]}, "edge": {"target": [], "time": []}}}, "displayed_time": "10.33", "trialTime": 10982, "trial_type": "mouselab-mdp", "trial_index": 84, "time_elapsed": 1181064, "internal_node_id": "0.0-4.0-5.0-13.0"}}, {"uniqueid": "w35461366:a81069147", "current_trial": 85, "dateTime": 1664874277296, "trialdata": {"revealed_states": [], "num_clicks_accrued": [0, 0, 0, 0, 0, 0, 0, 0, 0, 0, 0, 0, 0], "stateRewards": ["", 2, 4, -48, -48, 4, 4, -48, -48, -2, -8, 48, -24], "withholdReward": true, "trial_id": "mdp_175327338412", "block": "test3", "trialIndex": 76, "score": -37, "costs": 0, "simulationMode": [null, null, null], "rewards": [2, 4, -48], "path": ["0", "0", "1", "2", "4"], "rt": [1377, 157, 373], "actions": ["up", "up", "left"], "actionTimes": [3377, 4060, 4958], "queries": {"click": {"state": {"target": [], "time": []}, "edge": {"target": [], "time": []}}, "mouseover": {"state": {"target": [], "time": []}, "edge": {"target": [], "time": []}}, "mouseout": {"state": {"target": ["0"], "time": [1070]}, "edge": {"target": [], "time": []}}}, "displayed_time": "10.05", "trialTime": 10349, "trial_type": "mouselab-mdp", "trial_index": 85, "time_elapsed": 1191502, "internal_node_id": "0.0-4.0-5.0-14.0"}}, {"uniqueid": "w35461366:a81069147", "current_trial": 86, "dateTime": 1664874286109, "trialdata": {"revealed_states": [], "num_clicks_accrued": [0, 0, 0, 0, 0, 0, 0, 0, 0, 0, 0, 0, 0], "stateRewards": ["", -2, 4, 24, 48, 2, 4, -48, -48, -2, 8, 48, -24], "withholdReward": true, "trial_id": "mdp_305701202606", "block": "test3", "trialIndex": 77, "score": 31, "costs": 0, "simulationMode": [null, null, null], "rewards": [-2, 4, 24], "path": ["0", "0", "1", "2", "3"], "rt": [1259, 420, 628], "actions": ["up", "up", "right"], "actionTimes": [2614, 3545, 4697], "queries": {"click": {"state": {"target": [], "time": []}, "edge": {"target": [], "time": []}}, "mouseover": {"state": {"target": [], "time": []}, "edge": {"target": [], "time": []}}, "mouseout": {"state": {"target": ["0"], "time": [669]}, "edge": {"target": [], "time": []}}}, "displayed_time": "8.40", "trialTime": 8719, "trial_type": "mouselab-mdp", "trial_index": 86, "time_elapsed": 1200315, "internal_node_id": "0.0-4.0-5.0-15.0"}}, {"uniqueid": "w35461366:a81069147", "current_trial": 87, "dateTime": 1664874296508, "trialdata": {"revealed_states": [], "num_clicks_accrued": [0, 0, 0, 0, 0, 0, 0, 0, 0, 0, 0, 0, 0], "stateRewards": ["", -4, 8, 24, -24, -2, 4, -24, 48, -2, 8, -48, -24], "withholdReward": true, "trial_id": "mdp_799359103169", "block": "test3", "trialIndex": 78, "score": -17, "costs": 0, "simulationMode": [null, null, null], "rewards": [-2, 4, -24], "path": ["0", "0", "5", "6", "7"], "rt": [1288, 317, 944], "actions": ["right", "right", "up"], "actionTimes": [3134, 3977, 5426], "queries": {"click": {"state": {"target": [], "time": []}, "edge": {"target": [], "time": []}}, "mouseover": {"state": {"target": [], "time": []}, "edge": {"target": [], "time": []}}, "mouseout": {"state": {"target": ["0", "0"], "time": [1010, 1729]}, "edge": {"target": [], "time": []}}}, "displayed_time": "9.88", "trialTime": 10307, "trial_type": "mouselab-mdp", "trial_index": 87, "time_elapsed": 1210714, "internal_node_id": "0.0-4.0-5.0-16.0"}}, {"uniqueid": "w35461366:a81069147", "current_trial": 88, "dateTime": 1664874307830, "trialdata": {"revealed_states": [], "num_clicks_accrued": [0, 0, 0, 0, 0, 0, 0, 0, 0, 0, 0, 0, 0], "stateRewards": ["", 4, 4, 48, -24, 2, -4, 48, 24, -4, -4, -48, 24], "withholdReward": false, "trial_id": "mdp_496003763005", "block": "test3", "trialIndex": 79, "score": 27, "costs": 0, "simulationMode": [null, null, null], "rewards": [2, -4, 24], "path": ["0", "0", "5", "6", "8"], "rt": [997, 166, 232], "actions": ["right", "right", "down"], "actionTimes": [2275, 2967, 3714], "queries": {"click": {"state": {"target": [], "time": []}, "edge": {"target": [], "time": []}}, "mouseover": {"state": {"target": [], "time": []}, "edge": {"target": [], "time": []}}, "mouseout": {"state": {"target": ["0"], "time": [1214]}, "edge": {"target": [], "time": []}}}, "displayed_time": "10.38", "trialTime": 11223, "trial_type": "mouselab-mdp", "trial_index": 88, "time_elapsed": 1222035, "internal_node_id": "0.0-4.0-5.0-17.0"}}, {"uniqueid": "w35461366:a81069147", "current_trial": 89, "dateTime": 1664874319113, "trialdata": {"revealed_states": [], "num_clicks_accrued": [0, 0, 0, 0, 0, 0, 0, 0, 0, 0, 0, 0, 0], "stateRewards": ["", 4, -4, 48, -48, 2, 8, -48, 24, -2, -4, -24, 48], "withholdReward": true, "trial_id": "mdp_937564992306", "block": "test3", "trialIndex": 80, "score": 53, "costs": 0, "simulationMode": [null, null, null], "rewards": [4, -4, 48], "path": ["0", "0", "1", "2", "3"], "rt": [1153, 191, 373], "actions": ["up", "up", "right"], "actionTimes": [2998, 3705, 4594], "queries": {"click": {"state": {"target": [], "time": []}, "edge": {"target": [], "time": []}}, "mouseover": {"state": {"target": [], "time": []}, "edge": {"target": [], "time": []}}, "mouseout": {"state": {"target": ["0"], "time": [1161]}, "edge": {"target": [], "time": []}}}, "displayed_time": "10.88", "trialTime": 11182, "trial_type": "mouselab-mdp", "trial_index": 89, "time_elapsed": 1233319, "internal_node_id": "0.0-4.0-5.0-18.0"}}, {"uniqueid": "w35461366:a81069147", "current_trial": 90, "dateTime": 1664874330977, "trialdata": {"revealed_states": [], "num_clicks_accrued": [0, 0, 0, 0, 0, 0, 0, 0, 0, 0, 0, 0, 0], "stateRewards": ["", -4, -8, -48, 48, -2, 8, 48, 48, -2, -4, -48, -48], "withholdReward": true, "trial_id": "mdp_752833580638", "block": "test3", "trialIndex": 81, "score": 41, "costs": 0, "simulationMode": [null, null, null], "rewards": [-4, -8, 48], "path": ["0", "0", "1", "2", "4"], "rt": [1124, 132, 452], "actions": ["up", "up", "left"], "actionTimes": [3513, 4156, 5118], "queries": {"click": {"state": {"target": [], "time": []}, "edge": {"target": [], "time": []}}, "mouseover": {"state": {"target": [], "time": []}, "edge": {"target": [], "time": []}}, "mouseout": {"state": {"target": ["0"], "time": [976]}, "edge": {"target": [], "time": []}}}, "displayed_time": "11.40", "trialTime": 11759, "trial_type": "mouselab-mdp", "trial_index": 90, "time_elapsed": 1245182, "internal_node_id": "0.0-4.0-5.0-19.0"}}, {"uniqueid": "w35461366:a81069147", "current_trial": 91, "dateTime": 1664874340744, "trialdata": {"revealed_states": [], "num_clicks_accrued": [0, 0, 0, 0, 0, 0, 0, 0, 0, 0, 0, 0, 0], "stateRewards": ["", -2, -4, -24, -48, -2, 8, -48, 24, 4, -4, -24, -24], "withholdReward": true, "trial_id": "mdp_915304165774", "block": "test3", "trialIndex": 82, "score": -19, "costs": 0, "simulationMode": [null, null, null], "rewards": [4, -4, -24], "path": ["0", "0", "9", "10", "11"], "rt": [1257, 486, 606], "actions": ["left", "left", "up"], "actionTimes": [3223, 4232, 5362], "queries": {"click": {"state": {"target": [], "time": []}, "edge": {"target": [], "time": []}}, "mouseover": {"state": {"target": [], "time": []}, "edge": {"target": [], "time": []}}, "mouseout": {"state": {"target": ["0"], "time": [1903]}, "edge": {"target": [], "time": []}}}, "displayed_time": "8.99", "trialTime": 9676, "trial_type": "mouselab-mdp", "trial_index": 91, "time_elapsed": 1254950, "internal_node_id": "0.0-4.0-5.0-20.0"}}, {"uniqueid": "w35461366:a81069147", "current_trial": 92, "dateTime": 1664874351995, "trialdata": {"revealed_states": [], "num_clicks_accrued": [0, 0, 0, 0, 0, 0, 0, 0, 0, 0, 0, 0, 0], "stateRewards": ["", 2, -4, -48, 24, 4, 4, 48, -48, -2, -4, -24, -48], "withholdReward": true, "trial_id": "mdp_858916930936", "block": "test3", "trialIndex": 83, "score": -49, "costs": 0, "simulationMode": [null, null, null], "rewards": [-2, -4, -48], "path": ["0", "0", "9", "10", "12"], "rt": [1064, 244, 404], "actions": ["left", "left", "down"], "actionTimes": [2840, 3602, 4523], "queries": {"click": {"state": {"target": [], "time": []}, "edge": {"target": [], "time": []}}, "mouseover": {"state": {"target": [], "time": []}, "edge": {"target": [], "time": []}}, "mouseout": {"state": {"target": ["0"], "time": [1720]}, "edge": {"target": [], "time": []}}}, "displayed_time": "10.83", "trialTime": 11150, "trial_type": "mouselab-mdp", "trial_index": 92, "time_elapsed": 1266200, "internal_node_id": "0.0-4.0-5.0-21.0"}}, {"uniqueid": "w35461366:a81069147", "current_trial": 93, "dateTime": 1664874363086, "trialdata": {"revealed_states": [], "num_clicks_accrued": [0, 0, 0, 0, 0, 0, 0, 0, 0, 0, 0, 0, 0], "stateRewards": ["", 4, 4, 48, -48, -2, 4, 48, -48, -4, 4, -24, -24], "withholdReward": false, "trial_id": "mdp_753324812898", "block": "test3", "trialIndex": 84, "score": -35, "costs": 0, "simulationMode": [null, null, null], "rewards": [4, 4, -48], "path": ["0", "0", "1", "2", "4"], "rt": [1142, 222, 409], "actions": ["up", "up", "left"], "actionTimes": [2640, 3371, 4302], "queries": {"click": {"state": {"target": [], "time": []}, "edge": {"target": [], "time": []}}, "mouseover": {"state": {"target": [], "time": []}, "edge": {"target": [], "time": []}}, "mouseout": {"state": {"target": ["0", "0"], "time": [1428, 6159]}, "edge": {"target": [], "time": []}}}, "displayed_time": "10.58", "trialTime": 10999, "trial_type": "mouselab-mdp", "trial_index": 93, "time_elapsed": 1277292, "internal_node_id": "0.0-4.0-5.0-22.0"}}, {"uniqueid": "w35461366:a81069147", "current_trial": 94, "dateTime": 1664874373907, "trialdata": {"revealed_states": [], "num_clicks_accrued": [0, 0, 0, 0, 0, 0, 0, 0, 0, 0, 0, 0, 0], "stateRewards": ["", -4, 4, 48, 24, -4, 4, -24, 48, -2, -8, 24, -48], "withholdReward": true, "trial_id": "mdp_261501605436", "block": "test3", "trialIndex": 85, "score": 53, "costs": 0, "simulationMode": [null, null, null], "rewards": [-4, 4, 48], "path": ["0", "0", "1", "2", "3"], "rt": [1112, 172, 395], "actions": ["up", "up", "right"], "actionTimes": [2373, 3063, 3968], "queries": {"click": {"state": {"target": [], "time": []}, "edge": {"target": [], "time": []}}, "mouseover": {"state": {"target": [], "time": []}, "edge": {"target": [], "time": []}}, "mouseout": {"state": {"target": ["0"], "time": [1189]}, "edge": {"target": [], "time": []}}}, "displayed_time": "10.32", "trialTime": 10730, "trial_type": "mouselab-mdp", "trial_index": 94, "time_elapsed": 1288112, "internal_node_id": "0.0-4.0-5.0-23.0"}}, {"uniqueid": "w35461366:a81069147", "current_trial": 95, "dateTime": 1664874384835, "trialdata": {"revealed_states": [], "num_clicks_accrued": [0, 0, 0, 0, 0, 0, 0, 0, 0, 0, 0, 0, 0], "stateRewards": ["", -2, -4, -24, 24, -2, 4, -24, -24, -4, 4, 24, -24], "withholdReward": true, "trial_id": "mdp_999419261719", "block": "test3", "trialIndex": 86, "score": -17, "costs": 0, "simulationMode": [null, null, null], "rewards": [-2, 4, -24], "path": ["0", "0", "5", "6", "7"], "rt": [1637, 299, 512], "actions": ["right", "right", "up"], "actionTimes": [3551, 4362, 5397], "queries": {"click": {"state": {"target": [], "time": []}, "edge": {"target": [], "time": []}}, "mouseover": {"state": {"target": [], "time": []}, "edge": {"target": [], "time": []}}, "mouseout": {"state": {"target": ["0"], "time": [931]}, "edge": {"target": [], "time": []}}}, "displayed_time": "9.96", "trialTime": 10831, "trial_type": "mouselab-mdp", "trial_index": 95, "time_elapsed": 1299040, "internal_node_id": "0.0-4.0-5.0-24.0"}}, {"uniqueid": "w35461366:a81069147", "current_trial": 96, "dateTime": 1664874395351, "trialdata": {"revealed_states": [], "num_clicks_accrued": [0, 0, 0, 0, 0, 0, 0, 0, 0, 0, 0, 0, 0], "stateRewards": ["", -2, 8, 48, 48, 4, -8, -48, 48, 2, -4, -48, 48], "withholdReward": true, "trial_id": "mdp_132958048709", "block": "test3", "trialIndex": 87, "score": 49, "costs": 0, "simulationMode": [null, null, null], "rewards": [4, -8, 48], "path": ["0", "0", "5", "6", "8"], "rt": [1558, 240, 482], "actions": ["right", "right", "down"], "actionTimes": [3459, 4221, 5230], "queries": {"click": {"state": {"target": [], "time": []}, "edge": {"target": [], "time": []}}, "mouseover": {"state": {"target": [], "time": []}, "edge": {"target": [], "time": []}}, "mouseout": {"state": {"target": ["0"], "time": [1848]}, "edge": {"target": [], "time": []}}}, "displayed_time": "9.98", "trialTime": 10417, "trial_type": "mouselab-mdp", "trial_index": 96, "time_elapsed": 1309557, "internal_node_id": "0.0-4.0-5.0-25.0"}}, {"uniqueid": "w35461366:a81069147", "current_trial": 97, "dateTime": 1664874405787, "trialdata": {"revealed_states": [], "num_clicks_accrued": [0, 0, 0, 0, 0, 0, 0, 0, 0, 0, 0, 0, 0], "stateRewards": ["", -2, 8, 48, -48, 4, -8, 24, 24, 4, 4, -48, -24], "withholdReward": true, "trial_id": "mdp_746937869927", "block": "test3", "trialIndex": 88, "score": 59, "costs": 0, "simulationMode": [null, null, null], "rewards": [-2, 8, 48], "path": ["0", "0", "1", "2", "3"], "rt": [1275, 252, 397], "actions": ["up", "up", "right"], "actionTimes": [3124, 3886, 4798], "queries": {"click": {"state": {"target": [], "time": []}, "edge": {"target": [], "time": []}}, "mouseover": {"state": {"target": [], "time": []}, "edge": {"target": [], "time": []}}, "mouseout": {"state": {"target": ["0"], "time": [1794]}, "edge": {"target": [], "time": []}}}, "displayed_time": "9.92", "trialTime": 10336, "trial_type": "mouselab-mdp", "trial_index": 97, "time_elapsed": 1319993, "internal_node_id": "0.0-4.0-5.0-26.0"}}, {"uniqueid": "w35461366:a81069147", "current_trial": 98, "dateTime": 1664874416565, "trialdata": {"revealed_states": [], "num_clicks_accrued": [0, 0, 0, 0, 0, 0, 0, 0, 0, 0, 0, 0, 0], "stateRewards": ["", 4, -8, -48, 48, -2, 8, -48, 48, -2, -4, 24, -48], "withholdReward": false, "trial_id": "mdp_400558136089", "block": "test3", "trialIndex": 89, "score": 49, "costs": 0, "simulationMode": [null, null, null], "rewards": [4, -8, 48], "path": ["0", "0", "1", "2", "4"], "rt": [1133, 172, 426], "actions": ["up", "up", "left"], "actionTimes": [2290, 2981, 3918], "queries": {"click": {"state": {"target": [], "time": []}, "edge": {"target": [], "time": []}}, "mouseover": {"state": {"target": [], "time": []}, "edge": {"target": [], "time": []}}, "mouseout": {"state": {"target": ["0"], "time": [533]}, "edge": {"target": [], "time": []}}}, "displayed_time": "10.21", "trialTime": 10681, "trial_type": "mouselab-mdp", "trial_index": 98, "time_elapsed": 1330771, "internal_node_id": "0.0-4.0-5.0-27.0"}}, {"uniqueid": "w35461366:a81069147", "current_trial": 99, "dateTime": 1664874426045, "trialdata": {"revealed_states": [], "num_clicks_accrued": [0, 0, 0, 0, 0, 0, 0, 0, 0, 0, 0, 0, 0], "stateRewards": ["", -2, 4, 48, -24, 2, 8, 24, 48, 2, 4, -24, -48], "withholdReward": true, "trial_id": "mdp_892412058587", "block": "test3", "trialIndex": 90, "score": -13, "costs": 0, "simulationMode": [null, null, null], "rewards": [2, 4, -24], "path": ["0", "0", "9", "10", "11"], "rt": [1208, 387, 604], "actions": ["left", "left", "up"], "actionTimes": [2376, 3273, 4393], "queries": {"click": {"state": {"target": [], "time": []}, "edge": {"target": [], "time": []}}, "mouseover": {"state": {"target": [], "time": []}, "edge": {"target": [], "time": []}}, "mouseout": {"state": {"target": ["0"], "time": [1119]}, "edge": {"target": [], "time": []}}}, "displayed_time": "8.19", "trialTime": 9388, "trial_type": "mouselab-mdp", "trial_index": 99, "time_elapsed": 1340251, "internal_node_id": "0.0-4.0-5.0-28.0"}}, {"uniqueid": "w35461366:a81069147", "current_trial": 100, "dateTime": 1664874435733, "trialdata": {"revealed_states": [], "num_clicks_accrued": [0, 0, 0, 0, 0, 0, 0, 0, 0, 0, 0, 0, 0], "stateRewards": ["", -4, 8, -48, -48, -4, 4, -24, -48, 2, -4, -24, 24], "withholdReward": true, "trial_id": "mdp_183773275291", "block": "test3", "trialIndex": 91, "score": 27, "costs": 0, "simulationMode": [null, null, null], "rewards": [2, -4, 24], "path": ["0", "0", "9", "10", "12"], "rt": [1268, 294, 410], "actions": ["left", "left", "down"], "actionTimes": [2451, 3260, 4180], "queries": {"click": {"state": {"target": [], "time": []}, "edge": {"target": [], "time": []}}, "mouseover": {"state": {"target": [], "time": []}, "edge": {"target": [], "time": []}}, "mouseout": {"state": {"target": ["0"], "time": [1128]}, "edge": {"target": [], "time": []}}}, "displayed_time": "9.29", "trialTime": 9591, "trial_type": "mouselab-mdp", "trial_index": 100, "time_elapsed": 1349939, "internal_node_id": "0.0-4.0-5.0-29.0"}}, {"uniqueid": "w35461366:a81069147", "current_trial": 101, "dateTime": 1664874439361, "trialdata": {"rt": 3623, "stimulus": "<h1> End of block! </h1>\n\nYou have reached the end of the block 3/4. If you need a short break, feel free to take one now before moving on.\n\n<br><br>\nIn the next block, you will complete another 30 rounds of this game.\n\n<br><br>\n<div style='text-align: center;'>Press <code>space</code> to begin.</div>\n<br><br>\n<div style='text-align: center;'>(If the experiment doesn't continue, try clicking on the text and then pressing <code>space</code>.)</div>", "response": " ", "trial_id": "mdp_ready_4", "trial_type": "html-keyboard-response", "trial_index": 101, "time_elapsed": 1353567, "internal_node_id": "0.0-4.0-6.0"}}, {"uniqueid": "w35461366:a81069147", "current_trial": 102, "dateTime": 1664874449772, "trialdata": {"revealed_states": [], "num_clicks_accrued": [0, 0, 0, 0, 0, 0, 0, 0, 0, 0, 0, 0, 0], "stateRewards": ["", 4, 4, -24