{"condition": 1, "counterbalance": 0, "assignmentId": "a77251351", "workerId": "w87134252", "hitId": "h52928719", "currenttrial": 155, "bonus": 0, "data": [{"uniqueid": "w87134252:a77251351", "current_trial": 0, "dateTime": 1664463547534, "trialdata": {"success": true, "trial_type": "fullscreen", "trial_index": 0, "time_elapsed": 6118, "internal_node_id": "0.0-0.0"}}, {"uniqueid": "w87134252:a77251351", "current_trial": 1, "dateTime": 1664463556951, "trialdata": {"view_history": [{"page_index": 0, "viewing_time": 9412}], "rt": 9413, "trial_id": "exp_instructions_no_distractor", "trial_type": "instructions", "trial_index": 1, "time_elapsed": 15535, "internal_node_id": "0.0-1.0"}}, {"uniqueid": "w87134252:a77251351", "current_trial": 2, "dateTime": 1664463559816, "trialdata": {"success": true, "trial_type": "fullscreen", "trial_index": 2, "time_elapsed": 18400, "internal_node_id": "0.0-2.0-0.0"}}, {"uniqueid": "w87134252:a77251351", "current_trial": 3, "dateTime": 1664463579921, "trialdata": {"view_history": [{"page_index": 0, "viewing_time": 9360}, {"page_index": 1, "viewing_time": 4850}, {"page_index": 2, "viewing_time": 2582}, {"page_index": 3, "viewing_time": 1964}, {"page_index": 4, "viewing_time": 1346}], "rt": 20103, "trial_id": "mouselab_instructions_1", "trial_type": "instructions", "trial_index": 3, "time_elapsed": 38504, "internal_node_id": "0.0-2.0-1.0"}}, {"uniqueid": "w87134252:a77251351", "current_trial": 4, "dateTime": 1664463627919, "trialdata": {"revealed_states": [], "num_clicks_accrued": [0, 0, 0, 0, 0, 0, 0, 0, 0, 0, 0, 0, 0], "stateRewards": ["", 10, 10, 10, 10, 10, -10, 10, -10, 10, -10, 10, -10], "withholdReward": false, "trial_id": "practice_1", "block": "test", "trialIndex": 0, "score": -8.75, "costs": -0.75, "simulationMode": [null, null, null], "rewards": [10, -10, -10], "path": ["0", "0", "5", "6", "8"], "rt": [20790, 14251, 1920], "actions": ["right", "right", "down"], "actionTimes": [26012, 40782, 43217], "queries": {"click": {"state": {"target": ["9", "10", "1"], "time": [8949, 13644, 15322]}, "edge": {"target": [], "time": []}}, "mouseover": {"state": {"target": ["0", "5", "9", "11", "10", "1", "1", "4", "0", "0", "5", "6", "5", "12"], "time": [5460, 6550, 8729, 12163, 12544, 14596, 14996, 16280, 16712, 17028, 17279, 17712, 18045, 22280]}, "edge": {"target": [], "time": []}}, "mouseout": {"state": {"target": ["0", "0", "5", "9", "11", "10", "1", "1", "4", "0", "0", "5", "6", "5", "12", "0", "5", "0", "5", "6", "8", "6"], "time": [4797, 6111, 7429, 10529, 12479, 14428, 14646, 16046, 16630, 16746, 17229, 17328, 17745, 19129, 22328, 30344, 34261, 37811, 37896, 38477, 39996, 40229]}, "edge": {"target": [], "time": []}}}, "displayed_time": "43.73", "trialTime": 47785, "trial_type": "mouselab-mdp", "trial_index": 4, "time_elapsed": 86501, "internal_node_id": "0.0-2.0-2.0-0.0"}}, {"uniqueid": "w87134252:a77251351", "current_trial": 5, "dateTime": 1664463649039, "trialdata": {"revealed_states": [], "num_clicks_accrued": [0, 0, 0, 0, 0, 0, 0, 0, 0, 0, 0, 0, 0], "stateRewards": ["", -10, -10, -10, 10, -10, 10, -10, 10, -10, 10, 10, 10], "withholdReward": false, "trial_id": "practice_2", "block": "test", "trialIndex": 1, "score": 11.75, "costs": -0.25, "simulationMode": [null, null, null], "rewards": [-10, 10, 10], "path": ["0", "0", "9", "10", "12"], "rt": [4839, 391, 6450], "actions": ["left", "left", "down"], "actionTimes": [7788, 8697, 15657], "queries": {"click": {"state": {"target": ["1"], "time": [4640]}, "edge": {"target": [], "time": []}}, "mouseover": {"state": {"target": ["1"], "time": [3954]}, "edge": {"target": [], "time": []}}, "mouseout": {"state": {"target": ["5", "0", "1", "9", "11", "10", "12", "9"], "time": [1522, 3791, 6739, 11557, 13705, 13939, 14788, 20839]}, "edge": {"target": [], "time": []}}}, "displayed_time": "16.17", "trialTime": 21050, "trial_type": "mouselab-mdp", "trial_index": 5, "time_elapsed": 107623, "internal_node_id": "0.0-2.0-2.0-1.0"}}, {"uniqueid": "w87134252:a77251351", "current_trial": 6, "dateTime": 1664463669398, "trialdata": {"view_history": [{"page_index": 0, "viewing_time": 15063}, {"page_index": 1, "viewing_time": 3573}, {"page_index": 2, "viewing_time": 1717}], "rt": 20354, "trial_id": "mouselab_instructions_2_scarce", "trial_type": "instructions", "trial_index": 6, "time_elapsed": 127982, "internal_node_id": "0.0-2.0-3.0"}}, {"uniqueid": "w87134252:a77251351", "current_trial": 7, "dateTime": 1664463711660, "trialdata": {"rt": 42255, "response": {"Q0": "$-48 to $48", "Q1": "The cost is always $0.25.", "Q2": "No.", "Q3": "Yes.", "Q4": "The values of the nodes walked through from start to finish.", "Q5": "Yes."}, "question_order": [0, 1, 2, 3, 4, 5], "correct": {"Q0": "$-48 to $48", "Q1": "The cost is always $0.25.", "Q2": "The better I perform the higher my bonus will be.", "Q3": "No, the amount of cash at each node of the web may be different each time.", "Q4": "The values of the nodes walked through from start to finish.", "Q5": "No, the spider might forget to count the money on some rounds."}, "trial_id": "mouselab_quiz_scarce", "trial_type": "survey-multi-choice", "trial_index": 7, "time_elapsed": 170244, "internal_node_id": "0.0-2.0-4.0"}}, {"uniqueid": "w87134252:a77251351", "current_trial": 8, "dateTime": 1664463717261, "trialdata": {"success": true, "trial_type": "fullscreen", "trial_index": 8, "time_elapsed": 175845, "internal_node_id": "0.0-2.1-0.1"}}, {"uniqueid": "w87134252:a77251351", "current_trial": 9, "dateTime": 1664463737698, "trialdata": {"view_history": [{"page_index": 0, "viewing_time": 2992}, {"page_index": 1, "viewing_time": 12745}, {"page_index": 2, "viewing_time": 2136}, {"page_index": 3, "viewing_time": 1523}, {"page_index": 4, "viewing_time": 1038}], "rt": 20434, "trial_id": "mouselab_instructions_1", "trial_type": "instructions", "trial_index": 9, "time_elapsed": 196282, "internal_node_id": "0.0-2.1-1.1"}}, {"uniqueid": "w87134252:a77251351", "current_trial": 10, "dateTime": 1664463762253, "trialdata": {"revealed_states": [], "num_clicks_accrued": [0, 0, 0, 0, 0, 0, 0, 0, 0, 0, 0, 0, 0], "stateRewards": ["", 10, 10, 10, 10, 10, -10, 10, -10, 10, -10, 10, -10], "withholdReward": false, "trial_id": "practice_1", "block": "test", "trialIndex": 2, "score": 31.5, "costs": -0.5, "simulationMode": [null, null, null], "rewards": [10, 10, 10], "path": ["0", "0", "1", "2", "4"], "rt": [12767, 114, 6303], "actions": ["up", "up", "left"], "actionTimes": [14363, 14993, 21815], "queries": {"click": {"state": {"target": ["1", "2"], "time": [7166, 13109]}, "edge": {"target": [], "time": []}}, "mouseover": {"state": {"target": ["5", "5", "1", "2"], "time": [5796, 6079, 6963, 12761]}, "edge": {"target": [], "time": []}}, "mouseout": {"state": {"target": ["5", "5", "1", "2", "1", "4", "4"], "time": [5912, 6528, 12679, 13396, 13694, 17845, 21228]}, "edge": {"target": [], "time": []}}}, "displayed_time": "22.33", "trialTime": 24490, "trial_type": "mouselab-mdp", "trial_index": 10, "time_elapsed": 220837, "internal_node_id": "0.0-2.1-2.1-0.1"}}, {"uniqueid": "w87134252:a77251351", "current_trial": 11, "dateTime": 1664463776759, "trialdata": {"revealed_states": [], "num_clicks_accrued": [0, 0, 0, 0, 0, 0, 0, 0, 0, 0, 0, 0, 0], "stateRewards": ["", -10, -10, -10, 10, -10, 10, -10, 10, -10, 10, 10, 10], "withholdReward": false, "trial_id": "practice_2", "block": "test", "trialIndex": 3, "score": -8.75, "costs": -0.75, "simulationMode": [null, null, null], "rewards": [-10, 10, -10], "path": ["0", "0", "5", "6", "7"], "rt": [9130, 156, 503], "actions": ["right", "right", "up"], "actionTimes": [10557, 11234, 12248], "queries": {"click": {"state": {"target": ["5", "6", "7"], "time": [5256, 7674, 9354]}, "edge": {"target": [], "time": []}}, "mouseover": {"state": {"target": ["1", "5", "6", "7"], "time": [2527, 4511, 6609, 8927]}, "edge": {"target": [], "time": []}}, "mouseout": {"state": {"target": ["2", "1", "1", "5", "6"], "time": [943, 1027, 4427, 6560, 8844]}, "edge": {"target": [], "time": []}}}, "displayed_time": "12.76", "trialTime": 14445, "trial_type": "mouselab-mdp", "trial_index": 11, "time_elapsed": 235343, "internal_node_id": "0.0-2.1-2.1-1.1"}}, {"uniqueid": "w87134252:a77251351", "current_trial": 12, "dateTime": 1664463781201, "trialdata": {"view_history": [{"page_index": 0, "viewing_time": 1505}, {"page_index": 1, "viewing_time": 1543}, {"page_index": 2, "viewing_time": 1391}], "rt": 4439, "trial_id": "mouselab_instructions_2_scarce", "trial_type": "instructions", "trial_index": 12, "time_elapsed": 239785, "internal_node_id": "0.0-2.1-3.1"}}, {"uniqueid": "w87134252:a77251351", "current_trial": 13, "dateTime": 1664463798150, "trialdata": {"rt": 16945, "response": {"Q0": "$-48 to $48", "Q1": "The cost is always $0.25.", "Q2": "No.", "Q3": "Yes.", "Q4": "The values of the nodes walked through from start to finish.", "Q5": "Yes."}, "question_order": [0, 1, 2, 3, 4, 5], "correct": {"Q0": "$-48 to $48", "Q1": "The cost is always $0.25.", "Q2": "The better I perform the higher my bonus will be.", "Q3": "No, the amount of cash at each node of the web may be different each time.", "Q4": "The values of the nodes walked through from start to finish.", "Q5": "No, the spider might forget to count the money on some rounds."}, "trial_id": "mouselab_quiz_scarce", "trial_type": "survey-multi-choice", "trial_index": 13, "time_elapsed": 256734, "internal_node_id": "0.0-2.1-4.1"}}, {"uniqueid": "w87134252:a77251351", "current_trial": 14, "dateTime": 1664463812370, "trialdata": {"success": true, "trial_type": "fullscreen", "trial_index": 14, "time_elapsed": 270954, "internal_node_id": "0.0-2.2-0.2"}}, {"uniqueid": "w87134252:a77251351", "current_trial": 15, "dateTime": 1664463914625, "trialdata": {"view_history": [{"page_index": 0, "viewing_time": 57304}, {"page_index": 1, "viewing_time": 29897}, {"page_index": 2, "viewing_time": 10977}, {"page_index": 3, "viewing_time": 1488}, {"page_index": 4, "viewing_time": 2587}], "rt": 102253, "trial_id": "mouselab_instructions_1", "trial_type": "instructions", "trial_index": 15, "time_elapsed": 373209, "internal_node_id": "0.0-2.2-1.2"}}, {"uniqueid": "w87134252:a77251351", "current_trial": 16, "dateTime": 1664463930984, "trialdata": {"revealed_states": [], "num_clicks_accrued": [0, 0, 0, 0, 0, 0, 0, 0, 0, 0, 0, 0, 0], "stateRewards": ["", 10, 10, 10, 10, 10, -10, 10, -10, 10, -10, 10, -10], "withholdReward": false, "trial_id": "practice_1", "block": "test", "trialIndex": 4, "score": -8.25, "costs": -0.25, "simulationMode": [null, null, null], "rewards": [10, -10, -10], "path": ["0", "0", "5", "6", "8"], "rt": [10866, 199, 793], "actions": ["right", "right", "down"], "actionTimes": [12090, 12810, 14119], "queries": {"click": {"state": {"target": ["12"], "time": [6731]}, "edge": {"target": [], "time": []}}, "mouseover": {"state": {"target": ["9", "10", "12", "9", "1", "6", "7"], "time": [5042, 5959, 6342, 7841, 7910, 9692, 10058]}, "edge": {"target": [], "time": []}}, "mouseout": {"state": {"target": ["0", "9", "10", "12", "9", "1", "6", "7", "5", "0"], "time": [4893, 5908, 6310, 7793, 7859, 9494, 9975, 15358, 15409, 15424]}, "edge": {"target": [], "time": []}}}, "displayed_time": "14.63", "trialTime": 16287, "trial_type": "mouselab-mdp", "trial_index": 16, "time_elapsed": 389568, "internal_node_id": "0.0-2.2-2.2-0.2"}}, {"uniqueid": "w87134252:a77251351", "current_trial": 17, "dateTime": 1664463943682, "trialdata": {"revealed_states": [], "num_clicks_accrued": [0, 0, 0, 0, 0, 0, 0, 0, 0, 0, 0, 0, 0], "stateRewards": ["", -10, -10, -10, 10, -10, 10, -10, 10, -10, 10, 10, 10], "withholdReward": false, "trial_id": "practice_2", "block": "test", "trialIndex": 5, "score": 11.5, "costs": -0.5, "simulationMode": [null, null, null], "rewards": [-10, 10, 10], "path": ["0", "0", "9", "10", "11"], "rt": [5475, 204, 2097], "actions": ["left", "left", "up"], "actionTimes": [6932, 7645, 10255], "queries": {"click": {"state": {"target": ["5", "10"], "time": [4018, 5776]}, "edge": {"target": [], "time": []}}, "mouseover": {"state": {"target": ["1", "1", "5", "6", "5", "0", "9", "10"], "time": [2340, 3041, 3158, 3525, 3741, 4942, 5007, 5476]}, "edge": {"target": [], "time": []}}, "mouseout": {"state": {"target": ["0", "1", "1", "5", "6", "5", "5", "0", "9", "10"], "time": [1258, 2841, 3091, 3176, 3691, 4475, 4908, 4957, 5408, 11974]}, "edge": {"target": [], "time": []}}}, "displayed_time": "10.76", "trialTime": 12633, "trial_type": "mouselab-mdp", "trial_index": 17, "time_elapsed": 402266, "internal_node_id": "0.0-2.2-2.2-1.2"}}, {"uniqueid": "w87134252:a77251351", "current_trial": 18, "dateTime": 1664463952847, "trialdata": {"view_history": [{"page_index": 0, "viewing_time": 5817}, {"page_index": 1, "viewing_time": 1873}, {"page_index": 2, "viewing_time": 1472}], "rt": 9162, "trial_id": "mouselab_instructions_2_scarce", "trial_type": "instructions", "trial_index": 18, "time_elapsed": 411431, "internal_node_id": "0.0-2.2-3.2"}}, {"uniqueid": "w87134252:a77251351", "current_trial": 19, "dateTime": 1664464015564, "trialdata": {"rt": 62713, "response": {"Q0": "$-48 to $48", "Q1": "The cost is always $0.25.", "Q2": "The better I perform the higher my bonus will be.", "Q3": "No, the amount of cash at each node of the web may be different each time.", "Q4": "The values of the nodes walked through from start to finish.", "Q5": "Yes."}, "question_order": [0, 1, 2, 3, 4, 5], "correct": {"Q0": "$-48 to $48", "Q1": "The cost is always $0.25.", "Q2": "The better I perform the higher my bonus will be.", "Q3": "No, the amount of cash at each node of the web may be different each time.", "Q4": "The values of the nodes walked through from start to finish.", "Q5": "No, the spider might forget to count the money on some rounds."}, "trial_id": "mouselab_quiz_scarce", "trial_type": "survey-multi-choice", "trial_index": 19, "time_elapsed": 474148, "internal_node_id": "0.0-2.2-4.2"}}, {"uniqueid": "w87134252:a77251351", "current_trial": 20, "dateTime": 1664464024903, "trialdata": {"success": true, "trial_type": "fullscreen", "trial_index": 20, "time_elapsed": 483487, "internal_node_id": "0.0-2.3-0.3"}}, {"uniqueid": "w87134252:a77251351", "current_trial": 21, "dateTime": 1664464039928, "trialdata": {"view_history": [{"page_index": 0, "viewing_time": 3833}, {"page_index": 1, "viewing_time": 3774}, {"page_index": 2, "viewing_time": 5273}, {"page_index": 3, "viewing_time": 1265}, {"page_index": 4, "viewing_time": 876}], "rt": 15021, "trial_id": "mouselab_instructions_1", "trial_type": "instructions", "trial_index": 21, "time_elapsed": 498512, "internal_node_id": "0.0-2.3-1.3"}}, {"uniqueid": "w87134252:a77251351", "current_trial": 22, "dateTime": 1664464048074, "trialdata": {"revealed_states": [], "num_clicks_accrued": [0, 0, 0, 0, 0, 0, 0, 0, 0, 0, 0, 0, 0], "stateRewards": ["", 10, 10, 10, 10, 10, -10, 10, -10, 10, -10, 10, -10], "withholdReward": false, "trial_id": "practice_1", "block": "test", "trialIndex": 6, "score": 31.5, "costs": -0.5, "simulationMode": [null, null, null], "rewards": [10, 10, 10], "path": ["0", "0", "1", "2", "3"], "rt": [3478, 94, 756], "actions": ["up", "up", "right"], "actionTimes": [4416, 5017, 6279], "queries": {"click": {"state": {"target": ["10", "1"], "time": [1997, 3447]}, "edge": {"target": [], "time": []}}, "mouseover": {"state": {"target": ["9", "10", "9", "1"], "time": [1621, 1722, 2788, 3205]}, "edge": {"target": [], "time": []}}, "mouseout": {"state": {"target": ["0", "9", "10", "9", "1", "1", "0"], "time": [1588, 1672, 2773, 2805, 3989, 7338, 7371]}, "edge": {"target": [], "time": []}}}, "displayed_time": "6.79", "trialTime": 8075, "trial_type": "mouselab-mdp", "trial_index": 22, "time_elapsed": 506658, "internal_node_id": "0.0-2.3-2.3-0.3"}}, {"uniqueid": "w87134252:a77251351", "current_trial": 23, "dateTime": 1664464056040, "trialdata": {"revealed_states": [], "num_clicks_accrued": [0, 0, 0, 0, 0, 0, 0, 0, 0, 0, 0, 0, 0], "stateRewards": ["", -10, -10, -10, 10, -10, 10, -10, 10, -10, 10, 10, 10], "withholdReward": false, "trial_id": "practice_2", "block": "test", "trialIndex": 7, "score": 11.5, "costs": -0.5, "simulationMode": [null, null, null], "rewards": [-10, 10, 10], "path": ["0", "0", "9", "10", "12"], "rt": [3853, 132, 152], "actions": ["left", "left", "down"], "actionTimes": [5116, 5764, 6435], "queries": {"click": {"state": {"target": ["1", "10"], "time": [2311, 4267]}, "edge": {"target": [], "time": []}}, "mouseover": {"state": {"target": ["1", "9", "10", "12", "10"], "time": [1865, 3283, 3483, 3632, 4016]}, "edge": {"target": [], "time": []}}, "mouseout": {"state": {"target": ["0", "1", "9", "10", "12", "10"], "time": [831, 3200, 3315, 3565, 3983, 7466]}, "edge": {"target": [], "time": []}}}, "displayed_time": "6.93", "trialTime": 7901, "trial_type": "mouselab-mdp", "trial_index": 23, "time_elapsed": 514624, "internal_node_id": "0.0-2.3-2.3-1.3"}}, {"uniqueid": "w87134252:a77251351", "current_trial": 24, "dateTime": 1664464076067, "trialdata": {"view_history": [{"page_index": 0, "viewing_time": 1156}, {"page_index": 1, "viewing_time": 17138}, {"page_index": 2, "viewing_time": 1727}], "rt": 20023, "trial_id": "mouselab_instructions_2_scarce", "trial_type": "instructions", "trial_index": 24, "time_elapsed": 534650, "internal_node_id": "0.0-2.3-3.3"}}, {"uniqueid": "w87134252:a77251351", "current_trial": 25, "dateTime": 1664464113594, "trialdata": {"rt": 37522, "response": {"Q0": "$-48 to $48", "Q1": "The cost is always $0.25.", "Q2": "The better I perform the higher my bonus will be.", "Q3": "No, the amount of cash at each node of the web may be different each time.", "Q4": "The values of the nodes walked through from start to finish.", "Q5": "Yes."}, "question_order": [0, 1, 2, 3, 4, 5], "correct": {"Q0": "$-48 to $48", "Q1": "The cost is always $0.25.", "Q2": "The better I perform the higher my bonus will be.", "Q3": "No, the amount of cash at each node of the web may be different each time.", "Q4": "The values of the nodes walked through from start to finish.", "Q5": "No, the spider might forget to count the money on some rounds."}, "trial_id": "mouselab_quiz_scarce", "trial_type": "survey-multi-choice", "trial_index": 25, "time_elapsed": 572177, "internal_node_id": "0.0-2.3-4.3"}}, {"uniqueid": "w87134252:a77251351", "current_trial": 26, "dateTime": 1664464117674, "trialdata": {"rt": 4069, "stimulus": "\n<h1> Get ready to start the game! </h1>\n\nThank you for reading the instructions. Get ready start with the first of 4 block(s) of this game.\n<br><br>\nIn this first block, you will complete 30 rounds of this game before moving on.\n<br><br>\nRemember, the more money the spider gets, the bigger your bonus will be!\n<br><br>\n<div style='text-align: center;'>Press <code>space</code> to begin.</div>\n\n<br><br>\n(If, at any point, the <code>space</code> key does not take you to the next page, click once on the text and try again.)", "response": " ", "trial_id": "mdp_ready_1", "trial_type": "html-keyboard-response", "trial_index": 26, "time_elapsed": 576258, "internal_node_id": "0.0-4.0-0.0"}}, {"uniqueid": "w87134252:a77251351", "current_trial": 27, "dateTime": 1664464134717, "trialdata": {"revealed_states": [], "num_clicks_accrued": [0, 0, 0, 0, 0, 0, 0, 0, 0, 0, 0, 0, 0], "stateRewards": ["", -4, 8, -48, -48, -4, 4, -24, -48, 2, -4, -24, 24], "withholdReward": true, "trial_id": "mdp_183773275291", "block": "test1", "trialIndex": 8, "score": -39.5, "costs": -0.5, "simulationMode": [null, null, null], "rewards": [-4, 8, -48], "path": ["0", "0", "1", "2", "4"], "rt": [11092, 400, 493], "actions": ["up", "up", "left"], "actionTimes": [12817, 13714, 14724], "queries": {"click": {"state": {"target": ["10", "8"], "time": [4552, 7999]}, "edge": {"target": [], "time": []}}, "mouseover": {"state": {"target": ["9", "10", "5", "6", "8", "5", "1", "1"], "time": [2464, 3180, 7314, 7495, 7830, 9747, 10346, 11012]}, "edge": {"target": [], "time": []}}, "mouseout": {"state": {"target": ["9", "10", "5", "6", "8", "5", "1"], "time": [3046, 6564, 7380, 7630, 9563, 9864, 10613]}, "edge": {"target": [], "time": []}}}, "displayed_time": "15.23", "trialTime": 16977, "trial_type": "mouselab-mdp", "trial_index": 27, "time_elapsed": 593301, "internal_node_id": "0.0-4.0-1.0-0.0"}}, {"uniqueid": "w87134252:a77251351", "current_trial": 28, "dateTime": 1664464147686, "trialdata": {"revealed_states": [], "num_clicks_accrued": [0, 0, 0, 0, 0, 0, 0, 0, 0, 0, 0, 0, 0], "stateRewards": ["", 2, 8, -48, -24, 2, -4, -48, 24, 2, -4, -24, -24], "withholdReward": true, "trial_id": "mdp_954659099093", "block": "test1", "trialIndex": 9, "score": -45.5, "costs": -0.5, "simulationMode": [null, null, null], "rewards": [2, -4, -48], "path": ["0", "0", "5", "6", "7"], "rt": [7234, 259, 239], "actions": ["right", "right", "up"], "actionTimes": [8586, 9352, 10098], "queries": {"click": {"state": {"target": ["4", "5"], "time": [3585, 7114]}, "edge": {"target": [], "time": []}}, "mouseover": {"state": {"target": ["9", "1", "2", "4", "1", "5", "5", "6"], "time": [2276, 2759, 3159, 3375, 5510, 5826, 6943, 7825]}, "edge": {"target": [], "time": []}}, "mouseout": {"state": {"target": ["1", "9", "1", "2", "4", "1", "5", "5", "6"], "time": [976, 2693, 3093, 3194, 5443, 5592, 6860, 7810, 7842]}, "edge": {"target": [], "time": []}}}, "displayed_time": "10.61", "trialTime": 12908, "trial_type": "mouselab-mdp", "trial_index": 28, "time_elapsed": 606269, "internal_node_id": "0.0-4.0-1.0-1.0"}}, {"uniqueid": "w87134252:a77251351", "current_trial": 29, "dateTime": 1664464161310, "trialdata": {"revealed_states": [], "num_clicks_accrued": [0, 0, 0, 0, 0, 0, 0, 0, 0, 0, 0, 0, 0], "stateRewards": ["", -2, -4, -48, -48, 4, 8, 24, -48, 4, -8, 24, 24], "withholdReward": true, "trial_id": "mdp_749799219195", "block": "test1", "trialIndex": 10, "score": 40.75, "costs": -0.25, "simulationMode": [null, null, null], "rewards": [4, 8, 24], "path": ["0", "0", "5", "6", "7"], "rt": [4888, 223, 349], "actions": ["right", "right", "up"], "actionTimes": [6680, 7422, 8283], "queries": {"click": {"state": {"target": ["6"], "time": [4881]}, "edge": {"target": [], "time": []}}, "mouseover": {"state": {"target": ["5", "5", "6"], "time": [2550, 2949, 4115]}, "edge": {"target": [], "time": []}}, "mouseout": {"state": {"target": ["6", "5", "5", "5"], "time": [1082, 1183, 2616, 4065]}, "edge": {"target": [], "time": []}}}, "displayed_time": "11.80", "trialTime": 13556, "trial_type": "mouselab-mdp", "trial_index": 29, "time_elapsed": 619894, "internal_node_id": "0.0-4.0-1.0-2.0"}}, {"uniqueid": "w87134252:a77251351", "current_trial": 30, "dateTime": 1664464175011, "trialdata": {"revealed_states": [], "num_clicks_accrued": [0, 0, 0, 0, 0, 0, 0, 0, 0, 0, 0, 0, 0], "stateRewards": ["", -4, -8, -48, -48, 4, -8, 48, 48, 2, 8, 48, 24], "withholdReward": true, "trial_id": "mdp_880437222492", "block": "test1", "trialIndex": 11, "score": 38, "costs": -1, "simulationMode": [null, null, null], "rewards": [2, 8, 24], "path": ["0", "0", "9", "10", "12"], "rt": [8513, 342, 733], "actions": ["left", "left", "down"], "actionTimes": [9663, 10525, 11765], "queries": {"click": {"state": {"target": ["1", "12", "10", "9"], "time": [2451, 4074, 6983, 8682]}, "edge": {"target": [], "time": []}}, "mouseover": {"state": {"target": ["1", "9", "12", "10", "9", "9"], "time": [2116, 3415, 3799, 6699, 8182, 8515]}, "edge": {"target": [], "time": []}}, "mouseout": {"state": {"target": ["6", "5", "0", "1", "9", "12", "10", "9"], "time": [699, 766, 2017, 3400, 3465, 6648, 8151, 8248]}, "edge": {"target": [], "time": []}}}, "displayed_time": "12.28", "trialTime": 13641, "trial_type": "mouselab-mdp", "trial_index": 30, "time_elapsed": 633595, "internal_node_id": "0.0-4.0-1.0-3.0"}}, {"uniqueid": "w87134252:a77251351", "current_trial": 31, "dateTime": 1664464197657, "trialdata": {"revealed_states": [], "num_clicks_accrued": [0, 0, 0, 0, 0, 0, 0, 0, 0, 0, 0, 0, 0], "stateRewards": ["", 4, 4, -48, -24, -2, -4, 48, 24, -4, 4, 24, -48], "withholdReward": true, "trial_id": "mdp_617383046444", "block": "test1", "trialIndex": 12, "score": 44.75, "costs": -2.25, "simulationMode": [null, null, null], "rewards": [-2, -4, 48], "path": ["0", "0", "5", "6", "7"], "rt": [17445, 167, 249], "actions": ["right", "right", "up"], "actionTimes": [18977, 19651, 20416], "queries": {"click": {"state": {"target": ["5", "1", "4", "3", "12", "8", "9", "7", "6"], "time": [3655, 5125, 6320, 7380, 8923, 10265, 13324, 14761, 17701]}, "edge": {"target": [], "time": []}}, "mouseover": {"state": {"target": ["5", "1", "2", "4", "2", "3", "9", "12", "9", "0", "8", "6", "0", "9", "7", "6"], "time": [3284, 4649, 5799, 6099, 6934, 6982, 8334, 8549, 9616, 9651, 9715, 11483, 12866, 13083, 14285, 17483]}, "edge": {"target": [], "time": []}}, "mouseout": {"state": {"target": ["9", "0", "5", "1", "2", "4", "2", "3", "1", "9", "12", "9", "0", "5", "8", "6", "5", "0", "9", "7"], "time": [1031, 3233, 4599, 5665, 5966, 6917, 6949, 8000, 8066, 8349, 9533, 9650, 9666, 9699, 11232, 12351, 12450, 12966, 14182, 17217]}, "edge": {"target": [], "time": []}}}, "displayed_time": "20.93", "trialTime": 22587, "trial_type": "mouselab-mdp", "trial_index": 31, "time_elapsed": 656241, "internal_node_id": "0.0-4.0-1.0-4.0"}}, {"uniqueid": "w87134252:a77251351", "current_trial": 32, "dateTime": 1664464209564, "trialdata": {"revealed_states": [], "num_clicks_accrued": [0, 0, 0, 0, 0, 0, 0, 0, 0, 0, 0, 0, 0], "stateRewards": ["", -4, -4, -24, 24, 4, 4, -24, -24, -4, 4, 24, 24], "withholdReward": false, "trial_id": "mdp_787781487383", "block": "test1", "trialIndex": 13, "score": 20.5, "costs": -0.5, "simulationMode": [null, null, null], "rewards": [-4, -4, 24], "path": ["0", "0", "1", "2", "4"], "rt": [6789, 168, 704], "actions": ["up", "up", "left"], "actionTimes": [7886, 8559, 9777], "queries": {"click": {"state": {"target": ["10", "4"], "time": [2562, 4435]}, "edge": {"target": [], "time": []}}, "mouseover": {"state": {"target": ["0", "9", "10", "10", "11", "4", "4"], "time": [1956, 1974, 2006, 2355, 3523, 3923, 4255]}, "edge": {"target": [], "time": []}}, "mouseout": {"state": {"target": ["6", "5", "0", "9", "10", "10", "11", "4"], "time": [756, 856, 1973, 1989, 2073, 3289, 3873, 4022]}, "edge": {"target": [], "time": []}}}, "displayed_time": "10.29", "trialTime": 11852, "trial_type": "mouselab-mdp", "trial_index": 32, "time_elapsed": 668148, "internal_node_id": "0.0-4.0-1.0-5.0"}}, {"uniqueid": "w87134252:a77251351", "current_trial": 33, "dateTime": 1664464226148, "trialdata": {"revealed_states": [], "num_clicks_accrued": [0, 0, 0, 0, 0, 0, 0, 0, 0, 0, 0, 0, 0], "stateRewards": ["", 4, -8, 24, 48, 2, 4, 48, 48, 2, 8, -48, -48], "withholdReward": true, "trial_id": "mdp_783704746330", "block": "test1", "trialIndex": 14, "score": 57.75, "costs": -1.25, "simulationMode": [null, null, null], "rewards": [2, 4, 48], "path": ["0", "0", "5", "6", "8"], "rt": [12427, 196, 68], "actions": ["right", "right", "down"], "actionTimes": [13603, 14314, 14902], "queries": {"click": {"state": {"target": ["5", "3", "12", "11", "8"], "time": [2570, 5358, 7373, 9386, 10713]}, "edge": {"target": [], "time": []}}, "mouseover": {"state": {"target": ["5", "2", "4", "2", "3", "12", "9", "9", "11", "6", "8"], "time": [1984, 4133, 4517, 4999, 5049, 6484, 7966, 8451, 8800, 10199, 10483]}, "edge": {"target": [], "time": []}}, "mouseout": {"state": {"target": ["4", "1", "0", "5", "2", "4", "2", "3", "12", "9", "9", "11", "5", "6", "8"], "time": [700, 799, 1934, 3984, 4466, 4983, 5034, 6365, 7951, 8000, 8466, 10101, 10183, 10216, 11201]}, "edge": {"target": [], "time": []}}}, "displayed_time": "15.42", "trialTime": 16530, "trial_type": "mouselab-mdp", "trial_index": 33, "time_elapsed": 684732, "internal_node_id": "0.0-4.0-1.0-6.0"}}, {"uniqueid": "w87134252:a77251351", "current_trial": 34, "dateTime": 1664464238697, "trialdata": {"revealed_states": [], "num_clicks_accrued": [0, 0, 0, 0, 0, 0, 0, 0, 0, 0, 0, 0, 0], "stateRewards": ["", 2, -8, -24, 48, 4, -8, -24, -24, 2, 8, -24, 24], "withholdReward": false, "trial_id": "mdp_480787552818", "block": "test1", "trialIndex": 15, "score": 38.5, "costs": -0.5, "simulationMode": [null, null, null], "rewards": [2, 8, 24], "path": ["0", "0", "9", "10", "12"], "rt": [6621, 52, 127], "actions": ["left", "left", "down"], "actionTimes": [9186, 9759, 10400], "queries": {"click": {"state": {"target": ["2", "12"], "time": [4299, 5658]}, "edge": {"target": [], "time": []}}, "mouseover": {"state": {"target": ["1", "2", "1", "2", "1", "0", "12"], "time": [3323, 3389, 3789, 4089, 4907, 4972, 5407]}, "edge": {"target": [], "time": []}}, "mouseout": {"state": {"target": ["0", "1", "2", "1", "2", "1", "0"], "time": [3273, 3356, 3756, 3956, 4888, 4939, 4989]}, "edge": {"target": [], "time": []}}}, "displayed_time": "11.57", "trialTime": 12485, "trial_type": "mouselab-mdp", "trial_index": 34, "time_elapsed": 697281, "internal_node_id": "0.0-4.0-1.0-7.0"}}, {"uniqueid": "w87134252:a77251351", "current_trial": 35, "dateTime": 1664464251839, "trialdata": {"revealed_states": [], "num_clicks_accrued": [0, 0, 0, 0, 0, 0, 0, 0, 0, 0, 0, 0, 0], "stateRewards": ["", -2, -4, -48, 48, -4, 4, -48, 24, -4, -8, 24, 48], "withholdReward": true, "trial_id": "mdp_264482284450", "block": "test1", "trialIndex": 16, "score": 28.25, "costs": -0.75, "simulationMode": [null, null, null], "rewards": [-4, 4, 24], "path": ["0", "0", "5", "6", "8"], "rt": [7462, 141, 167], "actions": ["right", "right", "down"], "actionTimes": [9719, 10379, 11052], "queries": {"click": {"state": {"target": ["1", "8", "6"], "time": [4123, 6000, 7800]}, "edge": {"target": [], "time": []}}, "mouseover": {"state": {"target": ["9", "1", "9", "0", "8", "8", "6"], "time": [2936, 3369, 4870, 5036, 5436, 5836, 7436]}, "edge": {"target": [], "time": []}}, "mouseout": {"state": {"target": ["12", "10", "9", "0", "9", "1", "9", "0", "8", "8", "6"], "time": [1202, 1801, 1952, 2854, 3269, 4770, 4952, 5069, 5486, 7386, 8835]}, "edge": {"target": [], "time": []}}}, "displayed_time": "11.57", "trialTime": 13073, "trial_type": "mouselab-mdp", "trial_index": 35, "time_elapsed": 710422, "internal_node_id": "0.0-4.0-1.0-8.0"}}, {"uniqueid": "w87134252:a77251351", "current_trial": 36, "dateTime": 1664464271984, "trialdata": {"revealed_states": [], "num_clicks_accrued": [0, 0, 0, 0, 0, 0, 0, 0, 0, 0, 0, 0, 0], "stateRewards": ["", -2, -4, -24, 24, -2, 4, -24, -24, -4, 4, 24, -24], "withholdReward": true, "trial_id": "mdp_999419261719", "block": "test1", "trialIndex": 17, "score": 26.25, "costs": -2.75, "simulationMode": [null, null, null], "rewards": [-4, 4, 24], "path": ["0", "0", "9", "10", "11"], "rt": [14735, 3, 1243], "actions": ["left", "left", "up"], "actionTimes": [16178, 16692, 18465], "queries": {"click": {"state": {"target": ["9", "12", "11", "6", "7", "2", "3", "5", "8", "10", "1"], "time": [3159, 4073, 5171, 7512, 8567, 9921, 10716, 11511, 12457, 13601, 14630]}, "edge": {"target": [], "time": []}}, "mouseover": {"state": {"target": ["9", "12", "10", "11", "4", "5", "6", "7", "2", "3", "5", "8", "10", "1"], "time": [2070, 3837, 4770, 4870, 6153, 7120, 7255, 8154, 9738, 10521, 11286, 12236, 13338, 14270]}, "edge": {"target": [], "time": []}}, "mouseout": {"state": {"target": ["9", "12", "10", "11", "4", "5", "6", "7", "2", "3", "5", "8", "9", "10", "1"], "time": [3770, 4755, 4804, 6020, 6354, 7187, 8087, 9621, 10454, 11172, 12154, 13037, 13170, 14088, 15471]}, "edge": {"target": [], "time": []}}}, "displayed_time": "18.97", "trialTime": 20087, "trial_type": "mouselab-mdp", "trial_index": 36, "time_elapsed": 730568, "internal_node_id": "0.0-4.0-1.0-9.0"}}, {"uniqueid": "w87134252:a77251351", "current_trial": 37, "dateTime": 1664464283208, "trialdata": {"revealed_states": [], "num_clicks_accrued": [0, 0, 0, 0, 0, 0, 0, 0, 0, 0, 0, 0, 0], "stateRewards": ["", -2, 4, -48, 24, -4, 8, 48, 24, -2, 4, -48, -24], "withholdReward": true, "trial_id": "mdp_740882974347", "block": "test1", "trialIndex": 18, "score": 30.25, "costs": -0.75, "simulationMode": [null, null, null], "rewards": [-2, 4, 24], "path": ["0", "0", "1", "2", "4"], "rt": [4050, 89, 51], "actions": ["up", "up", "left"], "actionTimes": [5912, 6517, 7089], "queries": {"click": {"state": {"target": ["9", "2", "4"], "time": [2663, 3819, 4698]}, "edge": {"target": [], "time": []}}, "mouseover": {"state": {"target": ["9", "2", "4"], "time": [2428, 3362, 4511]}, "edge": {"target": [], "time": []}}, "mouseout": {"state": {"target": ["9", "2", "4", "4", "1"], "time": [3261, 4461, 9948, 10095, 10744]}, "edge": {"target": [], "time": []}}}, "displayed_time": "9.87", "trialTime": 11167, "trial_type": "mouselab-mdp", "trial_index": 37, "time_elapsed": 741791, "internal_node_id": "0.0-4.0-1.0-10.0"}}, {"uniqueid": "w87134252:a77251351", "current_trial": 38, "dateTime": 1664464298044, "trialdata": {"revealed_states": [], "num_clicks_accrued": [0, 0, 0, 0, 0, 0, 0, 0, 0, 0, 0, 0, 0], "stateRewards": ["", 2, -8, -24, 48, -4, -8, 24, -48, 4, -8, -24, -24], "withholdReward": false, "trial_id": "mdp_928911266656", "block": "test1", "trialIndex": 19, "score": 45.75, "costs": -1.25, "simulationMode": [null, null, null], "rewards": [2, -8, 48], "path": ["0", "0", "1", "2", "4"], "rt": [9785, 315, 388], "actions": ["up", "up", "left"], "actionTimes": [11346, 12166, 13072], "queries": {"click": {"state": {"target": ["8", "12", "4", "3", "7"], "time": [4298, 5537, 6629, 8690, 10129]}, "edge": {"target": [], "time": []}}, "mouseover": {"state": {"target": ["5", "8", "8", "12", "10", "4", "2", "3", "1", "7", "7"], "time": [3701, 3768, 4066, 5033, 6117, 6417, 8316, 8418, 9417, 9567, 9916]}, "edge": {"target": [], "time": []}}, "mouseout": {"state": {"target": ["0", "5", "8", "8", "12", "10", "4", "2", "3", "1", "7"], "time": [3682, 3734, 3868, 4949, 6100, 6150, 8267, 8368, 9300, 9483, 9650]}, "edge": {"target": [], "time": []}}}, "displayed_time": "13.58", "trialTime": 14777, "trial_type": "mouselab-mdp", "trial_index": 38, "time_elapsed": 756628, "internal_node_id": "0.0-4.0-1.0-11.0"}}, {"uniqueid": "w87134252:a77251351", "current_trial": 39, "dateTime": 1664464311594, "trialdata": {"revealed_states": [], "num_clicks_accrued": [0, 0, 0, 0, 0, 0, 0, 0, 0, 0, 0, 0, 0], "stateRewards": ["", 2, -8, 48, -24, -4, -8, -24, 48, -2, 4, 24, -48], "withholdReward": true, "trial_id": "mdp_186932504904", "block": "test1", "trialIndex": 20, "score": 40.5, "costs": -0.5, "simulationMode": [null, null, null], "rewards": [-4, -8, 48], "path": ["0", "0", "5", "6", "8"], "rt": [3911, 646, 83], "actions": ["right", "right", "down"], "actionTimes": [6213, 7378, 7980], "queries": {"click": {"state": {"target": ["4", "8"], "time": [3628, 4999]}, "edge": {"target": [], "time": []}}, "mouseover": {"state": {"target": ["1", "4", "2", "3", "5", "6", "8"], "time": [3164, 3380, 4249, 4346, 4497, 4547, 4847]}, "edge": {"target": [], "time": []}}, "mouseout": {"state": {"target": ["7", "5", "0", "1", "4", "2", "3", "5", "6"], "time": [1830, 1963, 3105, 3213, 4198, 4298, 4381, 4513, 4564]}, "edge": {"target": [], "time": []}}}, "displayed_time": "11.30", "trialTime": 13490, "trial_type": "mouselab-mdp", "trial_index": 39, "time_elapsed": 770178, "internal_node_id": "0.0-4.0-1.0-12.0"}}, {"uniqueid": "w87134252:a77251351", "current_trial": 40, "dateTime": 1664464323593, "trialdata": {"revealed_states": [], "num_clicks_accrued": [0, 0, 0, 0, 0, 0, 0, 0, 0, 0, 0, 0, 0], "stateRewards": ["", 2, 4, -48, 48, -4, 8, -48, -24, -4, -4, 48, 48], "withholdReward": true, "trial_id": "mdp_613582696541", "block": "test1", "trialIndex": 21, "score": 57.75, "costs": -1.25, "simulationMode": [null, null, null], "rewards": [2, 4, 48], "path": ["0", "0", "1", "2", "4"], "rt": [7239, 43, 147], "actions": ["up", "up", "left"], "actionTimes": [9060, 9616, 10268], "queries": {"click": {"state": {"target": ["5", "1", "10", "9", "4"], "time": [3273, 4523, 5695, 6688, 7817]}, "edge": {"target": [], "time": []}}, "mouseover": {"state": {"target": ["5", "1", "1", "9", "10", "9", "4", "7"], "time": [3054, 4037, 4353, 5304, 5437, 6387, 7555, 8518]}, "edge": {"target": [], "time": []}}, "mouseout": {"state": {"target": ["8", "0", "5", "1", "1", "9", "10", "9", "4", "1"], "time": [1319, 3020, 4004, 4086, 5104, 5320, 6338, 7453, 8370, 8452]}, "edge": {"target": [], "time": []}}}, "displayed_time": "10.79", "trialTime": 11930, "trial_type": "mouselab-mdp", "trial_index": 40, "time_elapsed": 782177, "internal_node_id": "0.0-4.0-1.0-13.0"}}, {"uniqueid": "w87134252:a77251351", "current_trial": 41, "dateTime": 1664464335413, "trialdata": {"revealed_states": [], "num_clicks_accrued": [0, 0, 0, 0, 0, 0, 0, 0, 0, 0, 0, 0, 0], "stateRewards": ["", -2, -8, -24, -48, -2, -4, 48, -48, 4, 4, -48, 48], "withholdReward": true, "trial_id": "mdp_156977432949", "block": "test1", "trialIndex": 22, "score": 46, "costs": -1, "simulationMode": [null, null, null], "rewards": [-2, -4, 48], "path": ["0", "0", "5", "6", "7"], "rt": [5611, 13, 249], "actions": ["right", "right", "up"], "actionTimes": [7440, 7958, 8727], "queries": {"click": {"state": {"target": ["8", "4", "3", "7"], "time": [3103, 4392, 5343, 6194]}, "edge": {"target": [], "time": []}}, "mouseover": {"state": {"target": ["5", "8", "8", "5", "1", "4", "2", "3", "7", "6"], "time": [2560, 2661, 2928, 3959, 3993, 4044, 4929, 5177, 5961, 6828]}, "edge": {"target": [], "time": []}}, "mouseout": {"state": {"target": ["7", "5", "8", "8", "5", "1", "4", "2", "3", "7", "6"], "time": [1127, 2612, 2678, 3943, 3976, 4009, 4928, 4944, 5911, 6795, 6893]}, "edge": {"target": [], "time": []}}}, "displayed_time": "10.83", "trialTime": 11757, "trial_type": "mouselab-mdp", "trial_index": 41, "time_elapsed": 793997, "internal_node_id": "0.0-4.0-1.0-14.0"}}, {"uniqueid": "w87134252:a77251351", "current_trial": 42, "dateTime": 1664464345762, "trialdata": {"revealed_states": [], "num_clicks_accrued": [0, 0, 0, 0, 0, 0, 0, 0, 0, 0, 0, 0, 0], "stateRewards": ["", -2, -4, -48, -48, 4, -4, 48, 24, 4, 4, 48, 48], "withholdReward": true, "trial_id": "mdp_950960813932", "block": "test1", "trialIndex": 23, "score": 60.75, "costs": -0.25, "simulationMode": [null, null, null], "rewards": [4, 4, 48], "path": ["0", "0", "9", "10", "12"], "rt": [3214, 108, 1689], "actions": ["left", "left", "down"], "actionTimes": [4722, 5336, 7536], "queries": {"click": {"state": {"target": ["9"], "time": [2818]}, "edge": {"target": [], "time": []}}, "mouseover": {"state": {"target": ["9", "5"], "time": [2527, 4227]}, "edge": {"target": [], "time": []}}, "mouseout": {"state": {"target": ["5", "0", "9", "5"], "time": [1210, 2478, 4078, 4243]}, "edge": {"target": [], "time": []}}}, "displayed_time": "9.51", "trialTime": 10290, "trial_type": "mouselab-mdp", "trial_index": 42, "time_elapsed": 804346, "internal_node_id": "0.0-4.0-1.0-15.0"}}, {"uniqueid": "w87134252:a77251351", "current_trial": 43, "dateTime": 1664464356966, "trialdata": {"revealed_states": [], "num_clicks_accrued": [0, 0, 0, 0, 0, 0, 0, 0, 0, 0, 0, 0, 0], "stateRewards": ["", 2, 4, -48, -24, 2, 8, 24, 48, -2, 4, 48, -48], "withholdReward": false, "trial_id": "mdp_551894842204", "block": "test1", "trialIndex": 24, "score": 62, "costs": -1, "simulationMode": [null, null, null], "rewards": [2, 8, 48], "path": ["0", "0", "5", "6", "8"], "rt": [5208, 106, 361], "actions": ["right", "right", "down"], "actionTimes": [6680, 7297, 8171], "queries": {"click": {"state": {"target": ["1", "4", "3", "8"], "time": [2605, 3583, 4348, 5473]}, "edge": {"target": [], "time": []}}, "mouseover": {"state": {"target": ["1", "1", "4", "2", "3", "7", "6", "8"], "time": [2141, 2408, 3391, 3975, 4075, 4874, 5175, 5224]}, "edge": {"target": [], "time": []}}, "mouseout": {"state": {"target": ["5", "1", "1", "4", "2", "3", "7", "6"], "time": [1140, 2258, 3242, 3924, 4040, 4742, 4890, 5208]}, "edge": {"target": [], "time": []}}}, "displayed_time": "10.48", "trialTime": 11141, "trial_type": "mouselab-mdp", "trial_index": 43, "time_elapsed": 815550, "internal_node_id": "0.0-4.0-1.0-16.0"}}, {"uniqueid": "w87134252:a77251351", "current_trial": 44, "dateTime": 1664464373821, "trialdata": {"revealed_states": [], "num_clicks_accrued": [0, 0, 0, 0, 0, 0, 0, 0, 0, 0, 0, 0, 0], "stateRewards": ["", -2, -4, 48, -24, -4, -4, -24, -24, -2, 4, -48, -24], "withholdReward": true, "trial_id": "mdp_410467837196", "block": "test1", "trialIndex": 25, "score": -29, "costs": -2, "simulationMode": [null, null, null], "rewards": [-4, -4, -24], "path": ["0", "0", "5", "6", "7"], "rt": [10682, 145, 340], "actions": ["right", "right", "up"], "actionTimes": [13242, 13879, 14723], "queries": {"click": {"state": {"target": ["12", "1", "5", "9", "10", "11", "7", "8"], "time": [4218, 5580, 6349, 7237, 7868, 9047, 10016, 11110]}, "edge": {"target": [], "time": []}}, "mouseover": {"state": {"target": ["9", "10", "12", "12", "10", "4", "1", "5", "0", "9", "10", "11", "11", "3", "7", "6", "8"], "time": [3183, 3783, 3868, 4001, 4783, 4851, 5351, 6118, 6951, 7000, 7719, 8400, 8900, 9600, 9851, 10550, 10768]}, "edge": {"target": [], "time": []}}, "mouseout": {"state": {"target": ["8", "0", "9", "10", "12", "12", "10", "4", "1", "5", "0", "9", "10", "11", "11", "3", "7", "6", "8", "8"], "time": [1950, 3151, 3717, 3834, 3968, 4768, 4799, 4867, 6066, 6918, 6967, 7668, 8368, 8468, 9572, 9616, 10535, 10601, 11785, 16201]}, "edge": {"target": [], "time": []}}}, "displayed_time": "15.23", "trialTime": 16788, "trial_type": "mouselab-mdp", "trial_index": 44, "time_elapsed": 832405, "internal_node_id": "0.0-4.0-1.0-17.0"}}, {"uniqueid": "w87134252:a77251351", "current_trial": 45, "dateTime": 1664464388099, "trialdata": {"revealed_states": [], "num_clicks_accrued": [0, 0, 0, 0, 0, 0, 0, 0, 0, 0, 0, 0, 0], "stateRewards": ["", 2, -8, 24, -24, -2, 8, -48, -48, 2, -8, -24, -48], "withholdReward": false, "trial_id": "mdp_744278669205", "block": "test1", "trialIndex": 26, "score": -50.75, "costs": -1.75, "simulationMode": [null, null, null], "rewards": [2, -8, -48], "path": ["0", "0", "9", "10", "12"], "rt": [8557, 707, 386], "actions": ["left", "left", "down"], "actionTimes": [10114, 11334, 12229], "queries": {"click": {"state": {"target": ["8", "9", "10", "11", "12", "4", "2"], "time": [2473, 4004, 4943, 5883, 6689, 7651, 8419]}, "edge": {"target": [], "time": []}}, "mouseover": {"state": {"target": ["5", "8", "0", "9", "10", "11", "12", "4", "2", "5", "0"], "time": [2092, 2159, 3593, 3792, 4725, 5675, 6526, 7276, 8125, 9293, 9541]}, "edge": {"target": [], "time": []}}, "mouseout": {"state": {"target": ["0", "5", "8", "0", "9", "10", "11", "10", "12", "4", "2", "5", "0"], "time": [2059, 2125, 3493, 3709, 4675, 5625, 6343, 6392, 7110, 8092, 9060, 9327, 9575]}, "edge": {"target": [], "time": []}}}, "displayed_time": "12.74", "trialTime": 14209, "trial_type": "mouselab-mdp", "trial_index": 45, "time_elapsed": 846683, "internal_node_id": "0.0-4.0-1.0-18.0"}}, {"uniqueid": "w87134252:a77251351", "current_trial": 46, "dateTime": 1664464398985, "trialdata": {"revealed_states": [], "num_clicks_accrued": [0, 0, 0, 0, 0, 0, 0, 0, 0, 0, 0, 0, 0], "stateRewards": ["", -2, 4, -24, 24, -4, -8, 24, -48, -4, -4, -48, -24], "withholdReward": false, "trial_id": "mdp_753137520419", "block": "test1", "trialIndex": 27, "score": 30, "costs": -1, "simulationMode": [null, null, null], "rewards": [-2, 4, 24], "path": ["0", "0", "1", "2", "4"], "rt": [5521, 71, 95], "actions": ["up", "up", "left"], "actionTimes": [6541, 7130, 7739], "queries": {"click": {"state": {"target": ["6", "5", "1", "2"], "time": [2186, 2889, 4001, 4847]}, "edge": {"target": [], "time": []}}, "mouseover": {"state": {"target": ["5", "6", "6", "5", "1", "2", "3"], "time": [1558, 1608, 1994, 2726, 3792, 4626, 5458]}, "edge": {"target": [], "time": []}}, "mouseout": {"state": {"target": ["9", "0", "5", "6", "6", "5", "1", "2", "3", "2"], "time": [707, 1542, 1591, 1658, 2676, 3358, 4559, 5425, 5792, 5876]}, "edge": {"target": [], "time": []}}}, "displayed_time": "10.02", "trialTime": 10828, "trial_type": "mouselab-mdp", "trial_index": 46, "time_elapsed": 857569, "internal_node_id": "0.0-4.0-1.0-19.0"}}, {"uniqueid": "w87134252:a77251351", "current_trial": 47, "dateTime": 1664464411287, "trialdata": {"revealed_states": [], "num_clicks_accrued": [0, 0, 0, 0, 0, 0, 0, 0, 0, 0, 0, 0, 0], "stateRewards": ["", -4, -8, -24, 24, 2, 8, 24, 48, 2, 4, 24, -48], "withholdReward": false, "trial_id": "mdp_122352383932", "block": "test1", "trialIndex": 28, "score": 38.5, "costs": -0.5, "simulationMode": [null, null, null], "rewards": [2, 8, 24], "path": ["0", "0", "5", "6", "7"], "rt": [3384, 187, 312], "actions": ["right", "right", "up"], "actionTimes": [6338, 7037, 7861], "queries": {"click": {"state": {"target": ["5", "7"], "time": [3859, 5029]}, "edge": {"target": [], "time": []}}, "mouseover": {"state": {"target": ["5", "7"], "time": [3632, 4798]}, "edge": {"target": [], "time": []}}, "mouseout": {"state": {"target": ["1", "5"], "time": [2514, 4666]}, "edge": {"target": [], "time": []}}}, "displayed_time": "10.96", "trialTime": 12237, "trial_type": "mouselab-mdp", "trial_index": 47, "time_elapsed": 869871, "internal_node_id": "0.0-4.0-1.0-20.0"}}, {"uniqueid": "w87134252:a77251351", "current_trial": 48, "dateTime": 1664464426193, "trialdata": {"revealed_states": [], "num_clicks_accrued": [0, 0, 0, 0, 0, 0, 0, 0, 0, 0, 0, 0, 0], "stateRewards": ["", 2, -4, 48, -24, 4, -8, -24, 48, -2, -4, 24, -48], "withholdReward": true, "trial_id": "mdp_357328205509", "block": "test1", "trialIndex": 29, "score": 48.5, "costs": -0.5, "simulationMode": [null, null, null], "rewards": [4, -8, 48], "path": ["0", "0", "5", "6", "8"], "rt": [3919, 102, 226], "actions": ["right", "right", "down"], "actionTimes": [5701, 6318, 7059], "queries": {"click": {"state": {"target": ["5", "1"], "time": [2774, 4048]}, "edge": {"target": [], "time": []}}, "mouseover": {"state": {"target": ["5", "1", "7"], "time": [2348, 3783, 5166]}, "edge": {"target": [], "time": []}}, "mouseout": {"state": {"target": ["7", "5", "0", "5", "1", "7"], "time": [1230, 1315, 2332, 3715, 5083, 5182]}, "edge": {"target": [], "time": []}}}, "displayed_time": "10.79", "trialTime": 14843, "trial_type": "mouselab-mdp", "trial_index": 48, "time_elapsed": 884777, "internal_node_id": "0.0-4.0-1.0-21.0"}}, {"uniqueid": "w87134252:a77251351", "current_trial": 49, "dateTime": 1664464442681, "trialdata": {"revealed_states": [], "num_clicks_accrued": [0, 0, 0, 0, 0, 0, 0, 0, 0, 0, 0, 0, 0], "stateRewards": ["", 2, 4, -48, -48, 2, 4, 48, -24, -2, 8, 48, -48], "withholdReward": false, "trial_id": "mdp_258528916140", "block": "test1", "trialIndex": 30, "score": -39, "costs": -2, "simulationMode": [null, null, null], "rewards": [-2, 8, -48], "path": ["0", "0", "9", "10", "12"], "rt": [10621, 78, 1414], "actions": ["left", "left", "down"], "actionTimes": [11788, 12386, 14305], "queries": {"click": {"state": {"target": ["1", "11", "4", "3", "8", "5", "9", "10"], "time": [2507, 4307, 6208, 7328, 8456, 9215, 10122, 10994]}, "edge": {"target": [], "time": []}}, "mouseover": {"state": {"target": ["1", "9", "11", "4", "2", "3", "6", "8", "5", "0", "9", "10"], "time": [2183, 3641, 4058, 5790, 6908, 7074, 7942, 8274, 9041, 9708, 9943, 10841]}, "edge": {"target": [], "time": []}}, "mouseout": {"state": {"target": ["7", "5", "0", "1", "9", "11", "4", "2", "3", "6", "8", "5", "0", "9"], "time": [675, 758, 2008, 3559, 3891, 5725, 6875, 6992, 7876, 8179, 8958, 9674, 9792, 10791]}, "edge": {"target": [], "time": []}}}, "displayed_time": "14.83", "trialTime": 16423, "trial_type": "mouselab-mdp", "trial_index": 49, "time_elapsed": 901264, "internal_node_id": "0.0-4.0-1.0-22.0"}}, {"uniqueid": "w87134252:a77251351", "current_trial": 50, "dateTime": 1664464453995, "trialdata": {"revealed_states": [], "num_clicks_accrued": [0, 0, 0, 0, 0, 0, 0, 0, 0, 0, 0, 0, 0], "stateRewards": ["", 2, -8, 24, 24, 2, 4, -48, -48, 4, 4, -24, 48], "withholdReward": true, "trial_id": "mdp_985707010949", "block": "test1", "trialIndex": 31, "score": 60.25, "costs": -0.75, "simulationMode": [null, null, null], "rewards": [4, 4, 48], "path": ["0", "0", "9", "10", "12"], "rt": [4065, 95, 583], "actions": ["left", "left", "down"], "actionTimes": [5562, 6176, 7264], "queries": {"click": {"state": {"target": ["9", "11", "12"], "time": [2381, 3252, 4236]}, "edge": {"target": [], "time": []}}, "mouseover": {"state": {"target": ["9", "11", "10", "12"], "time": [2113, 3031, 3813, 4063]}, "edge": {"target": [], "time": []}}, "mouseout": {"state": {"target": ["10", "9", "0", "9", "11", "10", "12"], "time": [830, 946, 2081, 2914, 3779, 3863, 4731]}, "edge": {"target": [], "time": []}}}, "displayed_time": "10.50", "trialTime": 11243, "trial_type": "mouselab-mdp", "trial_index": 50, "time_elapsed": 912579, "internal_node_id": "0.0-4.0-1.0-23.0"}}, {"uniqueid": "w87134252:a77251351", "current_trial": 51, "dateTime": 1664464464740, "trialdata": {"revealed_states": [], "num_clicks_accrued": [0, 0, 0, 0, 0, 0, 0, 0, 0, 0, 0, 0, 0], "stateRewards": ["", -2, 8, 48, 48, 4, -8, -48, 48, 2, -4, -48, 48], "withholdReward": true, "trial_id": "mdp_132958048709", "block": "test1", "trialIndex": 32, "score": 47.75, "costs": -1.25, "simulationMode": [null, null, null], "rewards": [4, -8, 48], "path": ["0", "0", "5", "6", "8"], "rt": [5173, 125, 56], "actions": ["right", "right", "down"], "actionTimes": [6862, 7497, 8060], "queries": {"click": {"state": {"target": ["6", "7", "1", "11", "8"], "time": [2555, 3242, 3967, 4657, 5613]}, "edge": {"target": [], "time": []}}, "mouseover": {"state": {"target": ["5", "6", "7", "1", "11", "9", "0", "5", "8"], "time": [2153, 2237, 3054, 3753, 4438, 5120, 5138, 5172, 5289]}, "edge": {"target": [], "time": []}}, "mouseout": {"state": {"target": ["9", "0", "5", "6", "7", "1", "11", "9", "0", "5", "8"], "time": [1386, 2138, 2186, 3003, 3637, 4371, 5053, 5137, 5171, 5203, 6019]}, "edge": {"target": [], "time": []}}}, "displayed_time": "9.69", "trialTime": 10679, "trial_type": "mouselab-mdp", "trial_index": 51, "time_elapsed": 923324, "internal_node_id": "0.0-4.0-1.0-24.0"}}, {"uniqueid": "w87134252:a77251351", "current_trial": 52, "dateTime": 1664464476960, "trialdata": {"revealed_states": [], "num_clicks_accrued": [0, 0, 0, 0, 0, 0, 0, 0, 0, 0, 0, 0, 0], "stateRewards": ["", -2, 8, 24, -48, -2, -4, 24, 48, 2, 8, -48, -48], "withholdReward": true, "trial_id": "mdp_562228697607", "block": "test1", "trialIndex": 33, "score": 45.5, "costs": -1.5, "simulationMode": [null, null, null], "rewards": [-2, -4, 48], "path": ["0", "0", "5", "6", "8"], "rt": [6618, 165, 188], "actions": ["right", "right", "down"], "actionTimes": [8217, 8886, 9593], "queries": {"click": {"state": {"target": ["1", "11", "12", "8", "5", "6"], "time": [2431, 3609, 4624, 5391, 6519, 7217]}, "edge": {"target": [], "time": []}}, "mouseover": {"state": {"target": ["1", "11", "10", "12", "8", "5", "6"], "time": [2189, 3406, 4089, 4423, 5173, 6072, 7022]}, "edge": {"target": [], "time": []}}, "mouseout": {"state": {"target": ["5", "0", "1", "11", "10", "12", "8", "5", "6"], "time": [1339, 1405, 3122, 4039, 4355, 4990, 5956, 6989, 7722]}, "edge": {"target": [], "time": []}}}, "displayed_time": "10.60", "trialTime": 12151, "trial_type": "mouselab-mdp", "trial_index": 52, "time_elapsed": 935544, "internal_node_id": "0.0-4.0-1.0-25.0"}}, {"uniqueid": "w87134252:a77251351", "current_trial": 53, "dateTime": 1664464488360, "trialdata": {"revealed_states": [], "num_clicks_accrued": [0, 0, 0, 0, 0, 0, 0, 0, 0, 0, 0, 0, 0], "stateRewards": ["", 4, 4, 48, -24, -4, -8, 24, -24, 2, -8, -24, 24], "withholdReward": true, "trial_id": "mdp_933201675789", "block": "test1", "trialIndex": 34, "score": 60.25, "costs": -0.75, "simulationMode": [null, null, null], "rewards": [4, 4, 48], "path": ["0", "0", "1", "2", "3"], "rt": [5780, 160, 175], "actions": ["up", "up", "right"], "actionTimes": [7110, 7790, 8470], "queries": {"click": {"state": {"target": ["1", "4", "3"], "time": [3062, 4947, 6058]}, "edge": {"target": [], "time": []}}, "mouseover": {"state": {"target": ["5", "1", "2", "4", "2", "3"], "time": [2063, 2861, 4262, 4462, 5411, 5512]}, "edge": {"target": [], "time": []}}, "mouseout": {"state": {"target": ["6", "5", "0", "5", "1", "2", "4", "2", "3"], "time": [794, 861, 1996, 2662, 4196, 4429, 5394, 5460, 9661]}, "edge": {"target": [], "time": []}}}, "displayed_time": "9.33", "trialTime": 11323, "trial_type": "mouselab-mdp", "trial_index": 53, "time_elapsed": 946943, "internal_node_id": "0.0-4.0-1.0-26.0"}}, {"uniqueid": "w87134252:a77251351", "current_trial": 54, "dateTime": 1664464502154, "trialdata": {"revealed_states": [], "num_clicks_accrued": [0, 0, 0, 0, 0, 0, 0, 0, 0, 0, 0, 0, 0], "stateRewards": ["", -2, 8, -48, -24, -2, 8, 48, -48, -4, 8, 24, 48], "withholdReward": true, "trial_id": "mdp_160707003673", "block": "test1", "trialIndex": 35, "score": 31.25, "costs": -1.75, "simulationMode": [null, null, null], "rewards": [-4, 8, 24], "path": ["0", "0", "9", "10", "11"], "rt": [7494, 106, 351], "actions": ["left", "left", "up"], "actionTimes": [9442, 10054, 10899], "queries": {"click": {"state": {"target": ["5", "8", "3", "4", "11", "10", "9"], "time": [3291, 4596, 5607, 6315, 7138, 7843, 8606]}, "edge": {"target": [], "time": []}}, "mouseover": {"state": {"target": ["5", "6", "8", "3", "2", "4", "11", "10", "9"], "time": [2781, 4097, 4397, 5462, 6031, 6113, 6780, 7546, 8380]}, "edge": {"target": [], "time": []}}, "mouseout": {"state": {"target": ["0", "0", "5", "6", "8", "3", "2", "4", "11", "10", "9"], "time": [1646, 2730, 4064, 4346, 5129, 6014, 6080, 6715, 7480, 8313, 9048]}, "edge": {"target": [], "time": []}}}, "displayed_time": "11.41", "trialTime": 13719, "trial_type": "mouselab-mdp", "trial_index": 54, "time_elapsed": 960737, "internal_node_id": "0.0-4.0-1.0-27.0"}}, {"uniqueid": "w87134252:a77251351", "current_trial": 55, "dateTime": 1664464515303, "trialdata": {"revealed_states": [], "num_clicks_accrued": [0, 0, 0, 0, 0, 0, 0, 0, 0, 0, 0, 0, 0], "stateRewards": ["", -2, 4, 24, 48, 2, 4, -48, -48, 2, 8, 48, -48], "withholdReward": true, "trial_id": "mdp_409609775558", "block": "test1", "trialIndex": 36, "score": 62, "costs": -1, "simulationMode": [null, null, null], "rewards": [2, 8, 48], "path": ["0", "0", "9", "10", "11"], "rt": [5327, 175, 1836], "actions": ["left", "left", "up"], "actionTimes": [7616, 8306, 10666], "queries": {"click": {"state": {"target": ["9", "12", "11", "10"], "time": [3193, 5022, 6129, 6800]}, "edge": {"target": [], "time": []}}, "mouseover": {"state": {"target": ["9", "11", "10", "12", "10", "11", "10"], "time": [2980, 4281, 4663, 4798, 5595, 5765, 6597]}, "edge": {"target": [], "time": []}}, "mouseout": {"state": {"target": ["0", "9", "11", "10", "12", "10", "11", "10"], "time": [2914, 4213, 4612, 4713, 5580, 5680, 6513, 7114]}, "edge": {"target": [], "time": []}}}, "displayed_time": "11.18", "trialTime": 13069, "trial_type": "mouselab-mdp", "trial_index": 55, "time_elapsed": 973887, "internal_node_id": "0.0-4.0-1.0-28.0"}}, {"uniqueid": "w87134252:a77251351", "current_trial": 56, "dateTime": 1664464527038, "trialdata": {"revealed_states": [], "num_clicks_accrued": [0, 0, 0, 0, 0, 0, 0, 0, 0, 0, 0, 0, 0], "stateRewards": ["", -2, 8, -48, 48, 4, -8, -48, 48, 4, -4, -24, 48], "withholdReward": true, "trial_id": "mdp_144739116828", "block": "test1", "trialIndex": 37, "score": 48.25, "costs": -0.75, "simulationMode": [null, null, null], "rewards": [4, -8, 48], "path": ["0", "0", "5", "6", "8"], "rt": [4224, 217, 293], "actions": ["right", "right", "down"], "actionTimes": [6030, 6766, 7575], "queries": {"click": {"state": {"target": ["5", "6", "8"], "time": [2729, 3864, 4784]}, "edge": {"target": [], "time": []}}, "mouseover": {"state": {"target": ["5", "6", "8"], "time": [2432, 3682, 4549]}, "edge": {"target": [], "time": []}}, "mouseout": {"state": {"target": ["5", "6"], "time": [3516, 4516]}, "edge": {"target": [], "time": []}}}, "displayed_time": "10.81", "trialTime": 11673, "trial_type": "mouselab-mdp", "trial_index": 56, "time_elapsed": 985622, "internal_node_id": "0.0-4.0-1.0-29.0"}}, {"uniqueid": "w87134252:a77251351", "current_trial": 57, "dateTime": 1664464534122, "trialdata": {"rt": 7079, "stimulus": "<h1> End of block! </h1>\n\nYou have reached the end of the block 1/4. If you need a short break, feel free to take one now before moving on.\n\n<br><br>\nIn the next block, you will complete another 30 rounds of this game.\n\n<br><br>\n<div style='text-align: center;'>Press <code>space</code> to begin.</div>\n<br><br>\n<div style='text-align: center;'>(If the experiment doesn't continue, try clicking on the text and then pressing <code>space</code>.)</div>", "response": " ", "trial_id": "mdp_ready_2", "trial_type": "html-keyboard-response", "trial_index": 57, "time_elapsed": 992705, "internal_node_id": "0.0-4.0-2.0"}}, {"uniqueid": "w87134252:a77251351", "current_trial": 58, "dateTime": 1664464551625, "trialdata": {"revealed_states": [], "num_clicks_accrued": [0, 0, 0, 0, 0, 0, 0, 0, 0, 0, 0, 0, 0], "stateRewards": ["", 2, -8, 24, -24, -2, 8, -48, -48, 2, -8, -24, -48], "withholdReward": true, "trial_id": "mdp_744278669205", "block": "test2", "trialIndex": 38, "score": 21.75, "costs": -1.25, "simulationMode": [null, null, null], "rewards": [2, -8, 24], "path": ["0", "0", "1", "2", "3"], "rt": [7165, 45, 171], "actions": ["up", "up", "right"], "actionTimes": [14288, 14843, 15518], "queries": {"click": {"state": {"target": ["5", "1", "2", "4", "3"], "time": [9218, 10275, 10954, 11613, 12641]}, "edge": {"target": [], "time": []}}, "mouseover": {"state": {"target": ["5", "1", "2", "4", "3"], "time": [9014, 9998, 10780, 11447, 12499]}, "edge": {"target": [], "time": []}}, "mouseout": {"state": {"target": ["8", "5", "0", "5", "1", "2", "4", "2", "3", "3", "0"], "time": [6714, 6782, 8983, 9881, 10730, 11415, 12180, 12216, 16564, 16616, 16697]}, "edge": {"target": [], "time": []}}}, "displayed_time": "16.03", "trialTime": 17443, "trial_type": "mouselab-mdp", "trial_index": 58, "time_elapsed": 1010209, "internal_node_id": "0.0-4.0-3.0-0.0"}}, {"uniqueid": "w87134252:a77251351", "current_trial": 59, "dateTime": 1664464564231, "trialdata": {"revealed_states": [], "num_clicks_accrued": [0, 0, 0, 0, 0, 0, 0, 0, 0, 0, 0, 0, 0], "stateRewards": ["", 4, 8, -24, 48, -2, -4, 24, -24, -2, 4, 24, 24], "withholdReward": false, "trial_id": "mdp_948713805479", "block": "test2", "trialIndex": 39, "score": 30.25, "costs": -0.75, "simulationMode": [null, null, null], "rewards": [-2, 4, 24], "path": ["0", "0", "9", "10", "12"], "rt": [3606, 79, 181], "actions": ["left", "left", "down"], "actionTimes": [4828, 5413, 6099], "queries": {"click": {"state": {"target": ["5", "10", "12"], "time": [1981, 3374, 3922]}, "edge": {"target": [], "time": []}}, "mouseover": {"state": {"target": ["5", "10", "12"], "time": [1732, 3218, 3768]}, "edge": {"target": [], "time": []}}, "mouseout": {"state": {"target": ["0", "5", "10", "12"], "time": [1684, 2551, 3683, 4283]}, "edge": {"target": [], "time": []}}}, "displayed_time": "10.22", "trialTime": 12534, "trial_type": "mouselab-mdp", "trial_index": 59, "time_elapsed": 1022815, "internal_node_id": "0.0-4.0-3.0-1.0"}}, {"uniqueid": "w87134252:a77251351", "current_trial": 60, "dateTime": 1664464576432, "trialdata": {"revealed_states": [], "num_clicks_accrued": [0, 0, 0, 0, 0, 0, 0, 0, 0, 0, 0, 0, 0], "stateRewards": ["", 4, -4, 48, -48, -4, -4, 48, -48, 4, 4, -48, -24], "withholdReward": true, "trial_id": "mdp_490058671112", "block": "test2", "trialIndex": 40, "score": 52.25, "costs": -0.75, "simulationMode": [null, null, null], "rewards": [4, -4, 48], "path": ["0", "0", "1", "2", "3"], "rt": [3953, 12, 198], "actions": ["up", "up", "right"], "actionTimes": [7067, 7584, 8303], "queries": {"click": {"state": {"target": ["1", "3", "2"], "time": [4469, 5186, 6008]}, "edge": {"target": [], "time": []}}, "mouseover": {"state": {"target": ["1", "3", "2"], "time": [4256, 4938, 5855]}, "edge": {"target": [], "time": []}}, "mouseout": {"state": {"target": ["0", "1", "3", "2", "5"], "time": [2921, 4905, 5788, 6354, 9753]}, "edge": {"target": [], "time": []}}}, "displayed_time": "11.12", "trialTime": 12124, "trial_type": "mouselab-mdp", "trial_index": 60, "time_elapsed": 1035016, "internal_node_id": "0.0-4.0-3.0-2.0"}}, {"uniqueid": "w87134252:a77251351", "current_trial": 61, "dateTime": 1664464588584, "trialdata": {"revealed_states": [], "num_clicks_accrued": [0, 0, 0, 0, 0, 0, 0, 0, 0, 0, 0, 0, 0], "stateRewards": ["", 2, -4, 48, 24, 2, 8, 24, 24, -2, 4, 24, 24], "withholdReward": false, "trial_id": "mdp_813974524300", "block": "test2", "trialIndex": 41, "score": 38.25, "costs": -0.75, "simulationMode": [null, null, null], "rewards": [2, 8, 24], "path": ["0", "0", "5", "6", "7"], "rt": [4405, 104, 49], "actions": ["right", "right", "up"], "actionTimes": [7411, 8022, 8603], "queries": {"click": {"state": {"target": ["5", "7", "6"], "time": [3878, 5857, 6569]}, "edge": {"target": [], "time": []}}, "mouseover": {"state": {"target": ["5", "6", "8", "8", "6", "7", "6"], "time": [3651, 4534, 4651, 5300, 5400, 5450, 6301]}, "edge": {"target": [], "time": []}}, "mouseout": {"state": {"target": ["0", "5", "6", "8", "8", "6", "7", "6", "0"], "time": [2784, 4484, 4617, 4750, 5367, 5434, 6250, 6983, 10801]}, "edge": {"target": [], "time": []}}}, "displayed_time": "11.01", "trialTime": 12072, "trial_type": "mouselab-mdp", "trial_index": 61, "time_elapsed": 1047168, "internal_node_id": "0.0-4.0-3.0-3.0"}}, {"uniqueid": "w87134252:a77251351", "current_trial": 62, "dateTime": 1664464598526, "trialdata": {"revealed_states": [], "num_clicks_accrued": [0, 0, 0, 0, 0, 0, 0, 0, 0, 0, 0, 0, 0], "stateRewards": ["", 2, 8, -48, 24, -4, 8, 48, -24, 2, 8, 24, 24], "withholdReward": true, "trial_id": "mdp_175372499314", "block": "test2", "trialIndex": 42, "score": 38.25, "costs": -0.75, "simulationMode": [null, null, null], "rewards": [2, 8, 24], "path": ["0", "0", "9", "10", "12"], "rt": [5441, 74, 202], "actions": ["left", "left", "down"], "actionTimes": [6736, 7327, 8036], "queries": {"click": {"state": {"target": ["12", "10", "9"], "time": [4433, 5292, 5940]}, "edge": {"target": [], "time": []}}, "mouseover": {"state": {"target": ["5", "1", "2", "4", "11", "10", "12", "12", "10", "9"], "time": [1835, 2535, 2801, 3168, 3284, 3568, 3819, 4169, 5018, 5713]}, "edge": {"target": [], "time": []}}, "mouseout": {"state": {"target": ["0", "5", "1", "2", "4", "11", "10", "12", "12", "10"], "time": [1133, 2185, 2735, 2835, 3202, 3535, 3770, 3852, 4951, 5685]}, "edge": {"target": [], "time": []}}}, "displayed_time": "9.30", "trialTime": 9865, "trial_type": "mouselab-mdp", "trial_index": 62, "time_elapsed": 1057110, "internal_node_id": "0.0-4.0-3.0-4.0"}}, {"uniqueid": "w87134252:a77251351", "current_trial": 63, "dateTime": 1664464613523, "trialdata": {"revealed_states": [], "num_clicks_accrued": [0, 0, 0, 0, 0, 0, 0, 0, 0, 0, 0, 0, 0], "stateRewards": ["", -2, 8, -48, 48, 4, -8, -48, 48, 4, -4, -24, 48], "withholdReward": false, "trial_id": "mdp_144739116828", "block": "test2", "trialIndex": 43, "score": 57.5, "costs": -1.5, "simulationMode": [null, null, null], "rewards": [-2, 8, 48], "path": ["0", "0", "1", "2", "4"], "rt": [7789, 112, 56], "actions": ["up", "up", "left"], "actionTimes": [11536, 12169, 12745], "queries": {"click": {"state": {"target": ["1", "6", "10", "11", "9", "2"], "time": [4935, 6243, 7360, 8145, 8995, 9876]}, "edge": {"target": [], "time": []}}, "mouseover": {"state": {"target": ["0", "1", "5", "6", "10", "11", "9", "2"], "time": [4406, 4762, 5690, 5740, 7189, 7805, 8738, 9672]}, "edge": {"target": [], "time": []}}, "mouseout": {"state": {"target": ["9", "0", "1", "5", "6", "10", "11", "9", "1", "2", "1", "0"], "time": [3421, 4423, 5655, 5705, 6639, 7772, 8455, 9489, 9590, 10321, 14056, 14171]}, "edge": {"target": [], "time": []}}}, "displayed_time": "13.26", "trialTime": 14916, "trial_type": "mouselab-mdp", "trial_index": 63, "time_elapsed": 1072107, "internal_node_id": "0.0-4.0-3.0-5.0"}}, {"uniqueid": "w87134252:a77251351", "current_trial": 64, "dateTime": 1664464625412, "trialdata": {"revealed_states": [], "num_clicks_accrued": [0, 0, 0, 0, 0, 0, 0, 0, 0, 0, 0, 0, 0], "stateRewards": ["", 4, 4, -24, -48, 2, 4, 24, -48, 2, 4, 24, 24], "withholdReward": true, "trial_id": "mdp_223558518218", "block": "test2", "trialIndex": 44, "score": 34, "costs": -1, "simulationMode": [null, null, null], "rewards": [2, 4, 24], "path": ["0", "0", "9", "10", "12"], "rt": [6789, 70, 282], "actions": ["left", "left", "down"], "actionTimes": [8589, 9179, 9975], "queries": {"click": {"state": {"target": ["9", "4", "3", "5"], "time": [2926, 4145, 5009, 6032]}, "edge": {"target": [], "time": []}}, "mouseover": {"state": {"target": ["9", "4", "2", "3", "5", "0", "10"], "time": [2759, 3976, 4658, 4725, 5541, 6643, 7375]}, "edge": {"target": [], "time": []}}, "mouseout": {"state": {"target": ["0", "9", "4", "2", "3", "5", "0", "9"], "time": [2542, 3710, 4642, 4692, 5492, 6558, 7259, 7325]}, "edge": {"target": [], "time": []}}}, "displayed_time": "10.49", "trialTime": 11825, "trial_type": "mouselab-mdp", "trial_index": 64, "time_elapsed": 1083996, "internal_node_id": "0.0-4.0-3.0-6.0"}}, {"uniqueid": "w87134252:a77251351", "current_trial": 65, "dateTime": 1664464638918, "trialdata": {"revealed_states": [], "num_clicks_accrued": [0, 0, 0, 0, 0, 0, 0, 0, 0, 0, 0, 0, 0], "stateRewards": ["", 2, 8, 24, 24, 2, -8, -24, -48, 2, 8, -48, 48], "withholdReward": true, "trial_id": "mdp_745175888812", "block": "test2", "trialIndex": 45, "score": 61, "costs": -2, "simulationMode": [null, null, null], "rewards": [2, 8, 48], "path": ["0", "0", "9", "10", "12"], "rt": [8082, 76, 154], "actions": ["left", "left", "down"], "actionTimes": [10142, 10727, 11389], "queries": {"click": {"state": {"target": ["5", "6", "8", "7", "9", "10", "11", "12"], "time": [2809, 3793, 4519, 5396, 6667, 7372, 8249, 9129]}, "edge": {"target": [], "time": []}}, "mouseover": {"state": {"target": ["5", "6", "8", "7", "1", "9", "10", "11", "12"], "time": [2583, 3417, 4284, 5100, 6083, 6415, 7183, 8068, 8899]}, "edge": {"target": [], "time": []}}, "mouseout": {"state": {"target": ["10", "9", "0", "5", "6", "8", "6", "7", "1", "9", "10", "11", "10", "12", "12"], "time": [1501, 1734, 1850, 3335, 4250, 5017, 5069, 6050, 6116, 7150, 8033, 8701, 8799, 12975, 13033]}, "edge": {"target": [], "time": []}}}, "displayed_time": "11.90", "trialTime": 13405, "trial_type": "mouselab-mdp", "trial_index": 65, "time_elapsed": 1097501, "internal_node_id": "0.0-4.0-3.0-7.0"}}, {"uniqueid": "w87134252:a77251351", "current_trial": 66, "dateTime": 1664464649216, "trialdata": {"revealed_states": [], "num_clicks_accrued": [0, 0, 0, 0, 0, 0, 0, 0, 0, 0, 0, 0, 0], "stateRewards": ["", 2, 8, -48, -24, 4, 4, 24, 48, 4, -4, -48, 48], "withholdReward": true, "trial_id": "mdp_665096999232", "block": "test2", "trialIndex": 46, "score": -9.75, "costs": -0.75, "simulationMode": [null, null, null], "rewards": [2, 8, -24], "path": ["0", "0", "1", "2", "4"], "rt": [2846, 124, 31], "actions": ["up", "up", "left"], "actionTimes": [4345, 4968, 5507], "queries": {"click": {"state": {"target": ["1", "2", "3"], "time": [2247, 2928, 3550]}, "edge": {"target": [], "time": []}}, "mouseover": {"state": {"target": ["1", "2", "3"], "time": [2044, 2743, 3343]}, "edge": {"target": [], "time": []}}, "mouseout": {"state": {"target": ["0", "1", "2", "3", "0"], "time": [1927, 2676, 3310, 6594, 6709]}, "edge": {"target": [], "time": []}}}, "displayed_time": "9.50", "trialTime": 10230, "trial_type": "mouselab-mdp", "trial_index": 66, "time_elapsed": 1107800, "internal_node_id": "0.0-4.0-3.0-8.0"}}, {"uniqueid": "w87134252:a77251351", "current_trial": 67, "dateTime": 1664464670903, "trialdata": {"revealed_states": [], "num_clicks_accrued": [0, 0, 0, 0, 0, 0, 0, 0, 0, 0, 0, 0, 0], "stateRewards": ["", -4, 4, 24, 24, 4, -8, 48, -48, -2, -8, 24, 24], "withholdReward": true, "trial_id": "mdp_395264223239", "block": "test2", "trialIndex": 47, "score": 28, "costs": -1, "simulationMode": [null, null, null], "rewards": [-4, 4, 24], "path": ["0", "0", "1", "2", "3"], "rt": [5926, 92, 35], "actions": ["up", "up", "right"], "actionTimes": [18100, 18703, 19248], "queries": {"click": {"state": {"target": ["10", "2", "3", "1"], "time": [14302, 15450, 16281, 17362]}, "edge": {"target": [], "time": []}}, "mouseover": {"state": {"target": ["9", "10", "1", "2", "3", "1"], "time": [13811, 14188, 14995, 15279, 15911, 17012]}, "edge": {"target": [], "time": []}}, "mouseout": {"state": {"target": ["0", "9", "10", "1", "2", "3", "1"], "time": [12977, 13997, 14911, 15011, 15879, 16744, 20711]}, "edge": {"target": [], "time": []}}}, "displayed_time": "21.18", "trialTime": 21602, "trial_type": "mouselab-mdp", "trial_index": 67, "time_elapsed": 1129487, "internal_node_id": "0.0-4.0-3.0-9.0"}}, {"uniqueid": "w87134252:a77251351", "current_trial": 68, "dateTime": 1664464683130, "trialdata": {"revealed_states": [], "num_clicks_accrued": [0, 0, 0, 0, 0, 0, 0, 0, 0, 0, 0, 0, 0], "stateRewards": ["", 2, 4, 48, 48, -2, 4, 48, -24, -4, 8, -48, 48], "withholdReward": true, "trial_id": "mdp_407586865939", "block": "test2", "trialIndex": 48, "score": 58, "costs": -1, "simulationMode": [null, null, null], "rewards": [2, 4, 48], "path": ["0", "0", "1", "2", "4"], "rt": [4351, 155, 278], "actions": ["up", "up", "left"], "actionTimes": [6883, 7545, 8334], "queries": {"click": {"state": {"target": ["9", "1", "2", "4"], "time": [3300, 4188, 5066, 5862]}, "edge": {"target": [], "time": []}}, "mouseover": {"state": {"target": ["9", "1", "2", "4"], "time": [3106, 3889, 4822, 5724]}, "edge": {"target": [], "time": []}}, "mouseout": {"state": {"target": ["0", "0", "9", "1", "2", "4", "2", "1"], "time": [1071, 3073, 3856, 4740, 5574, 6256, 11723, 11755]}, "edge": {"target": [], "time": []}}}, "displayed_time": "10.54", "trialTime": 12140, "trial_type": "mouselab-mdp", "trial_index": 68, "time_elapsed": 1141714, "internal_node_id": "0.0-4.0-3.0-10.0"}}, {"uniqueid": "w87134252:a77251351", "current_trial": 69, "dateTime": 1664464696914, "trialdata": {"revealed_states": [], "num_clicks_accrued": [0, 0, 0, 0, 0, 0, 0, 0, 0, 0, 0, 0, 0], "stateRewards": ["", 2, -4, -24, 24, 2, 8, 48, 48, 2, -8, 48, -24], "withholdReward": false, "trial_id": "mdp_330392242530", "block": "test2", "trialIndex": 49, "score": 62.25, "costs": -0.75, "simulationMode": [null, null, null], "rewards": [2, 8, 48], "path": ["0", "0", "5", "6", "8"], "rt": [3213, 120, 184], "actions": ["right", "right", "down"], "actionTimes": [7256, 7889, 8585], "queries": {"click": {"state": {"target": ["5", "6", "8"], "time": [5030, 5748, 6398]}, "edge": {"target": [], "time": []}}, "mouseover": {"state": {"target": ["5", "5", "6", "8"], "time": [4551, 4867, 5517, 6184]}, "edge": {"target": [], "time": []}}, "mouseout": {"state": {"target": ["0", "5", "5", "6", "8"], "time": [4519, 4600, 5468, 6134, 10975]}, "edge": {"target": [], "time": []}}}, "displayed_time": "13.05", "trialTime": 13719, "trial_type": "mouselab-mdp", "trial_index": 69, "time_elapsed": 1155498, "internal_node_id": "0.0-4.0-3.0-11.0"}}, {"uniqueid": "w87134252:a77251351", "current_trial": 70, "dateTime": 1664464709305, "trialdata": {"revealed_states": [], "num_clicks_accrued": [0, 0, 0, 0, 0, 0, 0, 0, 0, 0, 0, 0, 0], "stateRewards": ["", -2, -8, -24, -48, 4, -8, 48, 24, 2, 4, -48, -48], "withholdReward": false, "trial_id": "mdp_898082967464", "block": "test2", "trialIndex": 50, "score": 47.5, "costs": -1.5, "simulationMode": [null, null, null], "rewards": [4, -8, 48], "path": ["0", "0", "5", "6", "7"], "rt": [7365, 102, 134], "actions": ["right", "right", "up"], "actionTimes": [9019, 9642, 10289], "queries": {"click": {"state": {"target": ["9", "12", "11", "5", "6", "7"], "time": [3235, 4240, 5218, 6487, 7206, 8090]}, "edge": {"target": [], "time": []}}, "mouseover": {"state": {"target": ["9", "10", "12", "10", "11", "5", "5", "6", "7"], "time": [3022, 3755, 4021, 4738, 5005, 6088, 6321, 6988, 7905]}, "edge": {"target": [], "time": []}}, "mouseout": {"state": {"target": ["8", "0", "9", "10", "12", "10", "11", "9", "5", "5", "6", "7", "6"], "time": [1004, 2971, 3722, 3972, 4671, 4921, 5589, 6020, 6171, 6954, 7889, 8539, 11355]}, "edge": {"target": [], "time": []}}}, "displayed_time": "10.80", "trialTime": 12315, "trial_type": "mouselab-mdp", "trial_index": 70, "time_elapsed": 1167889, "internal_node_id": "0.0-4.0-3.0-12.0"}}, {"uniqueid": "w87134252:a77251351", "current_trial": 71, "dateTime": 1664464722369, "trialdata": {"revealed_states": [], "num_clicks_accrued": [0, 0, 0, 0, 0, 0, 0, 0, 0, 0, 0, 0, 0], "stateRewards": ["", -2, -8, -24, -48, -2, -4, 48, -48, 4, 4, -48, 48], "withholdReward": false, "trial_id": "mdp_156977432949", "block": "test2", "trialIndex": 51, "score": 45.5, "costs": -1.5, "simulationMode": [null, null, null], "rewards": [-2, -4, 48], "path": ["0", "0", "5", "6", "7"], "rt": [6882, 155, 3], "actions": ["right", "right", "up"], "actionTimes": [10394, 11059, 11574], "queries": {"click": {"state": {"target": ["4", "3", "8", "7", "5", "6"], "time": [5019, 5894, 7122, 8116, 9207, 9816]}, "edge": {"target": [], "time": []}}, "mouseover": {"state": {"target": ["1", "4", "2", "3", "5", "8", "6", "7", "5", "6"], "time": [4669, 4803, 5553, 5620, 6703, 6852, 7820, 7903, 8835, 9602]}, "edge": {"target": [], "time": []}}, "mouseout": {"state": {"target": ["0", "1", "4", "2", "3", "5", "8", "6", "7", "5", "6"], "time": [3419, 4702, 5529, 5586, 6385, 6737, 7569, 7835, 8704, 9552, 12586]}, "edge": {"target": [], "time": []}}}, "displayed_time": "12.52", "trialTime": 12993, "trial_type": "mouselab-mdp", "trial_index": 71, "time_elapsed": 1180952, "internal_node_id": "0.0-4.0-3.0-13.0"}}, {"uniqueid": "w87134252:a77251351", "current_trial": 72, "dateTime": 1664464735329, "trialdata": {"revealed_states": [], "num_clicks_accrued": [0, 0, 0, 0, 0, 0, 0, 0, 0, 0, 0, 0, 0], "stateRewards": ["", -2, 4, -48, -48, 4, 4, 48, -48, 2, 8, 24, 48], "withholdReward": false, "trial_id": "mdp_686771069745", "block": "test2", "trialIndex": 52, "score": 62, "costs": -1, "simulationMode": [null, null, null], "rewards": [2, 8, 48], "path": ["0", "0", "9", "10", "12"], "rt": [5508, 213, 343], "actions": ["left", "left", "down"], "actionTimes": [8854, 9581, 10444], "queries": {"click": {"state": {"target": ["9", "10", "11", "12"], "time": [4169, 5334, 6246, 7704]}, "edge": {"target": [], "time": []}}, "mouseover": {"state": {"target": ["9", "10", "11", "12", "12"], "time": [3867, 5035, 6001, 7151, 7505]}, "edge": {"target": [], "time": []}}, "mouseout": {"state": {"target": ["0", "9", "10", "11", "10", "12", "12"], "time": [3852, 4834, 5918, 7068, 7118, 7234, 8117]}, "edge": {"target": [], "time": []}}}, "displayed_time": "11.35", "trialTime": 12886, "trial_type": "mouselab-mdp", "trial_index": 72, "time_elapsed": 1193913, "internal_node_id": "0.0-4.0-3.0-14.0"}}, {"uniqueid": "w87134252:a77251351", "current_trial": 73, "dateTime": 1664464748628, "trialdata": {"revealed_states": [], "num_clicks_accrued": [0, 0, 0, 0, 0, 0, 0, 0, 0, 0, 0, 0, 0], "stateRewards": ["", -2, 4, -24, 48, 4, -8, 48, -48, 2, -8, 48, 24], "withholdReward": true, "trial_id": "mdp_501111216502", "block": "test2", "trialIndex": 53, "score": 46, "costs": -1, "simulationMode": [null, null, null], "rewards": [2, -8, 48], "path": ["0", "0", "9", "10", "11"], "rt": [7030, 137, 224], "actions": ["left", "left", "up"], "actionTimes": [8603, 9257, 9992], "queries": {"click": {"state": {"target": ["11", "10", "9", "12"], "time": [4255, 5266, 6441, 7272]}, "edge": {"target": [], "time": []}}, "mouseover": {"state": {"target": ["1", "2", "11", "10", "9", "12"], "time": [2836, 3202, 4087, 5018, 5902, 6986]}, "edge": {"target": [], "time": []}}, "mouseout": {"state": {"target": ["0", "1", "2", "11", "10", "9"], "time": [2618, 2951, 3719, 4919, 5870, 6935]}, "edge": {"target": [], "time": []}}}, "displayed_time": "10.50", "trialTime": 13235, "trial_type": "mouselab-mdp", "trial_index": 73, "time_elapsed": 1207211, "internal_node_id": "0.0-4.0-3.0-15.0"}}, {"uniqueid": "w87134252:a77251351", "current_trial": 74, "dateTime": 1664464762781, "trialdata": {"revealed_states": [], "num_clicks_accrued": [0, 0, 0, 0, 0, 0, 0, 0, 0, 0, 0, 0, 0], "stateRewards": ["", -2, 8, 48, -24, 2, 4, -48, -24, -4, 8, -48, -48], "withholdReward": true, "trial_id": "mdp_539167561933", "block": "test2", "trialIndex": 54, "score": 56.75, "costs": -2.25, "simulationMode": [null, null, null], "rewards": [-2, 8, 48], "path": ["0", "0", "1", "2", "3"], "rt": [9652, 120, 107], "actions": ["up", "up", "right"], "actionTimes": [11017, 11652, 12271], "queries": {"click": {"state": {"target": ["5", "1", "7", "8", "11", "12", "4", "2", "3"], "time": [2956, 3753, 4637, 5581, 6560, 7269, 8286, 9084, 9984]}, "edge": {"target": [], "time": []}}, "mouseover": {"state": {"target": ["5", "1", "7", "7", "6", "8", "9", "10", "11", "10", "12", "4", "4", "2", "3"], "time": [2103, 3552, 4236, 4485, 5135, 5386, 6002, 6035, 6386, 6901, 7036, 7836, 8136, 8847, 9762]}, "edge": {"target": [], "time": []}}, "mouseout": {"state": {"target": ["12", "0", "5", "1", "7", "7", "6", "8", "9", "10", "11", "10", "12", "4", "4", "2", "3"], "time": [702, 1968, 3468, 4186, 4286, 5118, 5186, 5953, 6019, 6052, 6886, 6968, 7635, 7902, 8798, 9709, 10379]}, "edge": {"target": [], "time": []}}}, "displayed_time": "12.78", "trialTime": 14072, "trial_type": "mouselab-mdp", "trial_index": 74, "time_elapsed": 1221364, "internal_node_id": "0.0-4.0-3.0-16.0"}}, {"uniqueid": "w87134252:a77251351", "current_trial": 75, "dateTime": 1664464778449, "trialdata": {"revealed_states": [], "num_clicks_accrued": [0, 0, 0, 0, 0, 0, 0, 0, 0, 0, 0, 0, 0], "stateRewards": ["", -4, -8, -24, 24, 2, 8, 24, 48, 2, 4, 24, -48], "withholdReward": true, "trial_id": "mdp_122352383932", "block": "test2", "trialIndex": 55, "score": 15.75, "costs": -1.25, "simulationMode": [null, null, null], "rewards": [-4, -8, 24], "path": ["0", "0", "1", "2", "4"], "rt": [9842, 41, 312], "actions": ["up", "up", "left"], "actionTimes": [11226, 11785, 12607], "queries": {"click": {"state": {"target": ["1", "4", "2", "3", "12"], "time": [2563, 4067, 6479, 7933, 9362]}, "edge": {"target": [], "time": []}}, "mouseover": {"state": {"target": ["1", "4", "10", "2", "2", "3", "11", "10", "12", "10", "11"], "time": [2361, 3761, 4710, 6012, 6294, 7727, 8777, 9010, 9059, 9860, 10061]}, "edge": {"target": [], "time": []}}, "mouseout": {"state": {"target": ["1", "4", "10", "2", "2", "3", "2", "11", "10", "12", "10", "11", "4"], "time": [3660, 4560, 5544, 6027, 7577, 8410, 8477, 8860, 9043, 9810, 10026, 10126, 10228]}, "edge": {"target": [], "time": []}}}, "displayed_time": "13.11", "trialTime": 15588, "trial_type": "mouselab-mdp", "trial_index": 75, "time_elapsed": 1237033, "internal_node_id": "0.0-4.0-3.0-17.0"}}, {"uniqueid": "w87134252:a77251351", "current_trial": 76, "dateTime": 1664464789940, "trialdata": {"revealed_states": [], "num_clicks_accrued": [0, 0, 0, 0, 0, 0, 0, 0, 0, 0, 0, 0, 0], "stateRewards": ["", 2, 8, 48, -24, -4, 4, 48, 24, -2, 8, 24, 24], "withholdReward": true, "trial_id": "mdp_123436106791", "block": "test2", "trialIndex": 56, "score": 52, "costs": -1, "simulationMode": [null, null, null], "rewards": [-4, 4, 48], "path": ["0", "0", "5", "6", "7"], "rt": [4182, 239, 120], "actions": ["right", "right", "up"], "actionTimes": [5927, 6679, 7311], "queries": {"click": {"state": {"target": ["5", "6", "8", "7"], "time": [2459, 3180, 3919, 4806]}, "edge": {"target": [], "time": []}}, "mouseover": {"state": {"target": ["5", "6", "8", "7"], "time": [2238, 2989, 3740, 4522]}, "edge": {"target": [], "time": []}}, "mouseout": {"state": {"target": ["0", "5", "6", "8", "6", "7"], "time": [2189, 2922, 3623, 4389, 4472, 5290]}, "edge": {"target": [], "time": []}}}, "displayed_time": "10.75", "trialTime": 11408, "trial_type": "mouselab-mdp", "trial_index": 76, "time_elapsed": 1248524, "internal_node_id": "0.0-4.0-3.0-18.0"}}, {"uniqueid": "w87134252:a77251351", "current_trial": 77, "dateTime": 1664464806493, "trialdata": {"revealed_states": [], "num_clicks_accrued": [0, 0, 0, 0, 0, 0, 0, 0, 0, 0, 0, 0, 0], "stateRewards": ["", 2, -4, -48, 24, -4, 4, 24, 24, 2, -8, -24, -48], "withholdReward": true, "trial_id": "mdp_807654778305", "block": "test2", "trialIndex": 57, "score": 26.5, "costs": -2.5, "simulationMode": [null, null, null], "rewards": [-4, 4, 24], "path": ["0", "0", "5", "6", "7"], "rt": [10812, 271, 253], "actions": ["right", "right", "up"], "actionTimes": [12508, 13287, 14052], "queries": {"click": {"state": {"target": ["9", "10", "11", "1", "4", "3", "2", "8", "6", "7"], "time": [2709, 3622, 4415, 5262, 6034, 7212, 7873, 8949, 9796, 10638]}, "edge": {"target": [], "time": []}}, "mouseover": {"state": {"target": ["9", "10", "11", "1", "4", "2", "3", "3", "2", "8", "6", "7", "5"], "time": [2300, 3417, 4232, 5016, 5798, 6483, 6565, 7065, 7698, 8699, 9399, 10399, 11516]}, "edge": {"target": [], "time": []}}, "mouseout": {"state": {"target": ["6", "5", "0", "9", "10", "11", "1", "4", "2", "3", "3", "2", "1", "8", "6", "7", "5"], "time": [1049, 1080, 2249, 3364, 4165, 4899, 5732, 6433, 6531, 6681, 7665, 8316, 8348, 9350, 10316, 11432, 16049]}, "edge": {"target": [], "time": []}}}, "displayed_time": "14.57", "trialTime": 16487, "trial_type": "mouselab-mdp", "trial_index": 77, "time_elapsed": 1265077, "internal_node_id": "0.0-4.0-3.0-19.0"}}, {"uniqueid": "w87134252:a77251351", "current_trial": 78, "dateTime": 1664464819109, "trialdata": {"revealed_states": [], "num_clicks_accrued": [0, 0, 0, 0, 0, 0, 0, 0, 0, 0, 0, 0, 0], "stateRewards": ["", -2, -8, 48, 24, 2, 8, -48, 24, -4, 8, 48, 48], "withholdReward": true, "trial_id": "mdp_875436109858", "block": "test2", "trialIndex": 58, "score": 56, "costs": -1, "simulationMode": [null, null, null], "rewards": [-4, 8, 48], "path": ["0", "0", "9", "10", "12"], "rt": [4972, 54, 125], "actions": ["left", "left", "down"], "actionTimes": [7053, 7624, 8263], "queries": {"click": {"state": {"target": ["9", "11", "12", "10"], "time": [3076, 3864, 5413, 6222]}, "edge": {"target": [], "time": []}}, "mouseover": {"state": {"target": ["9", "11", "10", "12", "10"], "time": [2904, 3654, 4919, 5120, 6003]}, "edge": {"target": [], "time": []}}, "mouseout": {"state": {"target": ["0", "9", "11", "10", "12", "10"], "time": [2803, 3570, 4855, 5091, 5953, 11736]}, "edge": {"target": [], "time": []}}}, "displayed_time": "11.09", "trialTime": 12541, "trial_type": "mouselab-mdp", "trial_index": 78, "time_elapsed": 1277693, "internal_node_id": "0.0-4.0-3.0-20.0"}}, {"uniqueid": "w87134252:a77251351", "current_trial": 79, "dateTime": 1664464831639, "trialdata": {"revealed_states": [], "num_clicks_accrued": [0, 0, 0, 0, 0, 0, 0, 0, 0, 0, 0, 0, 0], "stateRewards": ["", -2, -4, 48, 48, 2, 4, -48, 24, 4, -8, 24, -24], "withholdReward": true, "trial_id": "mdp_628613319495", "block": "test2", "trialIndex": 59, "score": 46.25, "costs": -0.75, "simulationMode": [null, null, null], "rewards": [-2, -4, 48], "path": ["0", "0", "1", "2", "3"], "rt": [3543, 107, 85], "actions": ["up", "up", "right"], "actionTimes": [6053, 6671, 7268], "queries": {"click": {"state": {"target": ["9", "4", "3"], "time": [3314, 4095, 4884]}, "edge": {"target": [], "time": []}}, "mouseover": {"state": {"target": ["9", "4", "2", "3"], "time": [3144, 3861, 4560, 4677]}, "edge": {"target": [], "time": []}}, "mouseout": {"state": {"target": ["0", "9", "4", "2", "3", "5"], "time": [2260, 3744, 4527, 4628, 5227, 11928]}, "edge": {"target": [], "time": []}}}, "displayed_time": "11.52", "trialTime": 12461, "trial_type": "mouselab-mdp", "trial_index": 79, "time_elapsed": 1290222, "internal_node_id": "0.0-4.0-3.0-21.0"}}, {"uniqueid": "w87134252:a77251351", "current_trial": 80, "dateTime": 1664464842934, "trialdata": {"revealed_states": [], "num_clicks_accrued": [0, 0, 0, 0, 0, 0, 0, 0, 0, 0, 0, 0, 0], "stateRewards": ["", 2, 4, -48, -24, 2, 8, 24, 48, -2, 4, 48, -48], "withholdReward": true, "trial_id": "mdp_551894842204", "block": "test2", "trialIndex": 60, "score": 62, "costs": -1, "simulationMode": [null, null, null], "rewards": [2, 8, 48], "path": ["0", "0", "5", "6", "8"], "rt": [3790, 77, 40], "actions": ["right", "right", "down"], "actionTimes": [5012, 5607, 6152], "queries": {"click": {"state": {"target": ["9", "8", "6", "7"], "time": [2036, 2893, 3590, 4254]}, "edge": {"target": [], "time": []}}, "mouseover": {"state": {"target": ["9", "0", "5", "8", "6", "7"], "time": [1861, 2495, 2545, 2595, 3346, 4063]}, "edge": {"target": [], "time": []}}, "mouseout": {"state": {"target": ["0", "9", "0", "5", "8", "6", "7", "5"], "time": [928, 2479, 2529, 2562, 3279, 4030, 10730, 10796]}, "edge": {"target": [], "time": []}}}, "displayed_time": "10.22", "trialTime": 11225, "trial_type": "mouselab-mdp", "trial_index": 80, "time_elapsed": 1301518, "internal_node_id": "0.0-4.0-3.0-22.0"}}, {"uniqueid": "w87134252:a77251351", "current_trial": 81, "dateTime": 1664464854268, "trialdata": {"revealed_states": [], "num_clicks_accrued": [0, 0, 0, 0, 0, 0, 0, 0, 0, 0, 0, 0, 0], "stateRewards": ["", -4, 8, -24, -24, 2, 4, 48, 48, -2, 4, 24, -48], "withholdReward": true, "trial_id": "mdp_397308196941", "block": "test2", "trialIndex": 61, "score": 57.5, "costs": -1.5, "simulationMode": [null, null, null], "rewards": [2, 4, 48], "path": ["0", "0", "5", "6", "8"], "rt": [5543, 107, 113], "actions": ["right", "right", "down"], "actionTimes": [6858, 7474, 8096], "queries": {"click": {"state": {"target": ["1", "4", "3", "8", "6", "7"], "time": [2166, 2920, 3698, 4538, 5368, 5996]}, "edge": {"target": [], "time": []}}, "mouseover": {"state": {"target": ["1", "4", "2", "3", "6", "8", "6", "7"], "time": [1950, 2732, 3301, 3350, 4184, 4233, 5100, 5801]}, "edge": {"target": [], "time": []}}, "mouseout": {"state": {"target": ["0", "1", "4", "2", "3", "6", "8", "6", "7", "6"], "time": [1833, 2618, 3283, 3334, 4116, 4216, 5017, 5766, 6332, 10933]}, "edge": {"target": [], "time": []}}}, "displayed_time": "10.32", "trialTime": 11262, "trial_type": "mouselab-mdp", "trial_index": 81, "time_elapsed": 1312851, "internal_node_id": "0.0-4.0-3.0-23.0"}}, {"uniqueid": "w87134252:a77251351", "current_trial": 82, "dateTime": 1664464864564, "trialdata": {"revealed_states": [], "num_clicks_accrued": [0, 0, 0, 0, 0, 0, 0, 0, 0, 0, 0, 0, 0], "stateRewards": ["", -2, -4, -24, 24, -2, 4, -24, -24, -4, 4, 24, -24], "withholdReward": true, "trial_id": "mdp_999419261719", "block": "test2", "trialIndex": 62, "score": 28.25, "costs": -0.75, "simulationMode": [null, null, null], "rewards": [-4, 4, 24], "path": ["0", "0", "9", "10", "11"], "rt": [3725, 142, 212], "actions": ["left", "left", "up"], "actionTimes": [4938, 5586, 6311], "queries": {"click": {"state": {"target": ["10", "11", "12"], "time": [2232, 2937, 3766]}, "edge": {"target": [], "time": []}}, "mouseover": {"state": {"target": ["9", "10", "11", "12", "12"], "time": [1725, 2041, 2758, 3343, 3626]}, "edge": {"target": [], "time": []}}, "mouseout": {"state": {"target": ["0", "9", "10", "11", "10", "12", "12"], "time": [1692, 2008, 2725, 3292, 3342, 3392, 8109]}, "edge": {"target": [], "time": []}}}, "displayed_time": "9.21", "trialTime": 10218, "trial_type": "mouselab-mdp", "trial_index": 82, "time_elapsed": 1323148, "internal_node_id": "0.0-4.0-3.0-24.0"}}, {"uniqueid": "w87134252:a77251351", "current_trial": 83, "dateTime": 1664464874776, "trialdata": {"revealed_states": [], "num_clicks_accrued": [0, 0, 0, 0, 0, 0, 0, 0, 0, 0, 0, 0, 0], "stateRewards": ["", 2, -4, 48, -48, 2, 4, -24, 24, -4, -8, 24, -48], "withholdReward": false, "trial_id": "mdp_238810765895", "block": "test2", "trialIndex": 63, "score": 34, "costs": -1, "simulationMode": [null, null, null], "rewards": [2, 4, 24], "path": ["0", "0", "5", "6", "8"], "rt": [4377, 125, 114], "actions": ["right", "right", "down"], "actionTimes": [6050, 6687, 7308], "queries": {"click": {"state": {"target": ["2", "8", "6", "7"], "time": [2571, 3583, 4533, 5132]}, "edge": {"target": [], "time": []}}, "mouseover": {"state": {"target": ["1", "2", "8", "6", "7"], "time": [2211, 2260, 3393, 4410, 4994]}, "edge": {"target": [], "time": []}}, "mouseout": {"state": {"target": ["0", "1", "2", "8", "6", "7"], "time": [2160, 2245, 3009, 3943, 4944, 5683]}, "edge": {"target": [], "time": []}}}, "displayed_time": "9.68", "trialTime": 10131, "trial_type": "mouselab-mdp", "trial_index": 83, "time_elapsed": 1333359, "internal_node_id": "0.0-4.0-3.0-25.0"}}, {"uniqueid": "w87134252:a77251351", "current_trial": 84, "dateTime": 1664464887226, "trialdata": {"revealed_states": [], "num_clicks_accrued": [0, 0, 0, 0, 0, 0, 0, 0, 0, 0, 0, 0, 0], "stateRewards": ["", -4, 4, -24, 48, 2, 4, -48, 24, 4, -8, -24, 24], "withholdReward": true, "trial_id": "mdp_740130150937", "block": "test2", "trialIndex": 64, "score": 52.25, "costs": -0.75, "simulationMode": [null, null, null], "rewards": [-4, 4, 48], "path": ["0", "0", "1", "2", "4"], "rt": [4346, 87, 28], "actions": ["up", "up", "left"], "actionTimes": [6845, 7448, 7990], "queries": {"click": {"state": {"target": ["2", "4", "3"], "time": [3879, 4722, 5467]}, "edge": {"target": [], "time": []}}, "mouseover": {"state": {"target": ["1", "2", "2", "4", "3"], "time": [3009, 3075, 3725, 4444, 5225]}, "edge": {"target": [], "time": []}}, "mouseout": {"state": {"target": ["6", "0", "1", "2", "2", "4", "2", "3"], "time": [2125, 2958, 3042, 3210, 4360, 5144, 5193, 5943]}, "edge": {"target": [], "time": []}}}, "displayed_time": "11.50", "trialTime": 12364, "trial_type": "mouselab-mdp", "trial_index": 84, "time_elapsed": 1345810, "internal_node_id": "0.0-4.0-3.0-26.0"}}, {"uniqueid": "w87134252:a77251351", "current_trial": 85, "dateTime": 1664464897638, "trialdata": {"revealed_states": [], "num_clicks_accrued": [0, 0, 0, 0, 0, 0, 0, 0, 0, 0, 0, 0, 0], "stateRewards": ["", 4, -8, 48, 24, 4, -4, 48, 48, -4, 8, -48, 24], "withholdReward": true, "trial_id": "mdp_303828806348", "block": "test2", "trialIndex": 65, "score": 51.75, "costs": -1.25, "simulationMode": [null, null, null], "rewards": [4, -4, 48], "path": ["0", "0", "5", "6", "7"], "rt": [5455, 173, 134], "actions": ["right", "right", "up"], "actionTimes": [6655, 7332, 7978], "queries": {"click": {"state": {"target": ["10", "11", "12", "6", "7"], "time": [2175, 3013, 4010, 5017, 5643]}, "edge": {"target": [], "time": []}}, "mouseover": {"state": {"target": ["9", "10", "11", "12", "0", "5", "6", "7"], "time": [1809, 1975, 2810, 3693, 4543, 4560, 4875, 5459]}, "edge": {"target": [], "time": []}}, "mouseout": {"state": {"target": ["0", "9", "10", "11", "10", "12", "0", "5", "6", "7", "6"], "time": [1725, 1944, 2759, 3493, 3559, 4493, 4559, 4575, 5426, 6093, 9227]}, "edge": {"target": [], "time": []}}}, "displayed_time": "9.20", "trialTime": 10342, "trial_type": "mouselab-mdp", "trial_index": 85, "time_elapsed": 1356222, "internal_node_id": "0.0-4.0-3.0-27.0"}}, {"uniqueid": "w87134252:a77251351", "current_trial": 86, "dateTime": 1664464909059, "trialdata": {"revealed_states": [], "num_clicks_accrued": [0, 0, 0, 0, 0, 0, 0, 0, 0, 0, 0, 0, 0], "stateRewards": ["", -2, -4, -48, -48, 4, -4, 48, 24, 4, 4, 48, 48], "withholdReward": true, "trial_id": "mdp_950960813932", "block": "test2", "trialIndex": 66, "score": 52.25, "costs": -0.75, "simulationMode": [null, null, null], "rewards": [4, -4, 48], "path": ["0", "0", "5", "6", "7"], "rt": [3642, 94, 208], "actions": ["right", "right", "up"], "actionTimes": [4912, 5514, 6229], "queries": {"click": {"state": {"target": ["8", "7", "6"], "time": [2069, 2872, 3775]}, "edge": {"target": [], "time": []}}, "mouseover": {"state": {"target": ["8", "6", "7", "6"], "time": [1804, 2602, 2669, 3387]}, "edge": {"target": [], "time": []}}, "mouseout": {"state": {"target": ["0", "8", "6", "7", "6"], "time": [1704, 2570, 2636, 3336, 11002]}, "edge": {"target": [], "time": []}}}, "displayed_time": "10.28", "trialTime": 11340, "trial_type": "mouselab-mdp", "trial_index": 86, "time_elapsed": 1367642, "internal_node_id": "0.0-4.0-3.0-28.0"}}, {"uniqueid": "w87134252:a77251351", "current_trial": 87, "dateTime": 1664464927642, "trialdata": {"revealed_states": [], "num_clicks_accrued": [0, 0, 0, 0, 0, 0, 0, 0, 0, 0, 0, 0, 0], "stateRewards": ["", 4, 8, -48, -48, 2, 4, -24, -48, 2, 8, 48, -48], "withholdReward": true, "trial_id": "mdp_902172716465", "block": "test2", "trialIndex": 67, "score": 60, "costs": -3, "simulationMode": [null, null, null], "rewards": [2, 8, 48], "path": ["0", "0", "9", "10", "11"], "rt": [14326, 130, 201], "actions": ["left", "left", "up"], "actionTimes": [15415, 16034, 16756], "queries": {"click": {"state": {"target": ["2", "4", "3", "8", "12", "11", "10", "9", "1", "6", "5", "7"], "time": [1875, 2561, 3452, 4339, 5329, 6214, 7018, 7719, 8675, 10661, 11491, 12805]}, "edge": {"target": [], "time": []}}, "mouseover": {"state": {"target": ["1", "2", "4", "3", "6", "8", "12", "10", "11", "10", "9", "1", "6", "5", "7"], "time": [1553, 1603, 2354, 3036, 3920, 4155, 5203, 5770, 6021, 6788, 7504, 8322, 10237, 11238, 12105]}, "edge": {"target": [], "time": []}}, "mouseout": {"state": {"target": ["5", "0", "1", "2", "4", "2", "3", "6", "8", "12", "10", "11", "10", "9", "1", "6", "5", "7"], "time": [870, 1520, 1588, 2321, 2987, 3019, 3820, 4037, 4804, 5739, 5836, 6604, 7487, 8205, 9971, 11120, 11920, 13475]}, "edge": {"target": [], "time": []}}}, "displayed_time": "17.27", "trialTime": 18508, "trial_type": "mouselab-mdp", "trial_index": 87, "time_elapsed": 1386226, "internal_node_id": "0.0-4.0-3.0-29.0"}}, {"uniqueid": "w87134252:a77251351", "current_trial": 88, "dateTime": 1664464945841, "trialdata": {"rt": 18193, "stimulus": "<h1> End of block! </h1>\n\nYou have reached the end of the block 2/4. If you need a short break, feel free to take one now before moving on.\n\n<br><br>\nIn the next block, you will complete another 30 rounds of this game.\n\n<br><br>\n<div style='text-align: center;'>Press <code>space</code> to begin.</div>\n<br><br>\n<div style='text-align: center;'>(If the experiment doesn't continue, try clicking on the text and then pressing <code>space</code>.)</div>", "response": " ", "trial_id": "mdp_ready_3", "trial_type": "html-keyboard-response", "trial_index": 88, "time_elapsed": 1404425, "internal_node_id": "0.0-4.0-4.0"}}, {"uniqueid": "w87134252:a77251351", "current_trial": 89, "dateTime": 1664464962523, "trialdata": {"revealed_states": [], "num_clicks_accrued": [0, 0, 0, 0, 0, 0, 0, 0, 0, 0, 0, 0, 0], "stateRewards": ["", -2, -8, 48, 24, -2, 8, -48, -24, -2, 4, -48, 48], "withholdReward": false, "trial_id": "mdp_295220852217", "block": "test3", "trialIndex": 68, "score": 54, "costs": -1, "simulationMode": [null, null, null], "rewards": [-2, 4, 48], "path": ["0", "0", "9", "10", "12"], "rt": [7836, 131, 192], "actions": ["left", "left", "down"], "actionTimes": [9132, 9783, 10479], "queries": {"click": {"state": {"target": ["1", "2", "10", "12"], "time": [5757, 6456, 7257, 8472]}, "edge": {"target": [], "time": []}}, "mouseover": {"state": {"target": ["1", "1", "2", "10", "12"], "time": [5150, 5602, 6184, 7084, 7973]}, "edge": {"target": [], "time": []}}, "mouseout": {"state": {"target": ["0", "1", "1", "2", "10", "12", "12"], "time": [4816, 5251, 6151, 6801, 7735, 15964, 16017]}, "edge": {"target": [], "time": []}}}, "displayed_time": "10.98", "trialTime": 16602, "trial_type": "mouselab-mdp", "trial_index": 89, "time_elapsed": 1421106, "internal_node_id": "0.0-4.0-5.0-0.0"}}, {"uniqueid": "w87134252:a77251351", "current_trial": 90, "dateTime": 1664464976909, "trialdata": {"revealed_states": [], "num_clicks_accrued": [0, 0, 0, 0, 0, 0, 0, 0, 0, 0, 0, 0, 0], "stateRewards": ["", 2, -8, -24, 48, -4, -8, 24, -48, 4, -8, -24, -24], "withholdReward": true, "trial_id": "mdp_928911266656", "block": "test3", "trialIndex": 69, "score": 15.25, "costs": -1.75, "simulationMode": [null, null, null], "rewards": [-4, -8, 24], "path": ["0", "0", "5", "6", "7"], "rt": [6851, 36, 36], "actions": ["right", "right", "up"], "actionTimes": [11023, 11570, 12121], "queries": {"click": {"state": {"target": ["9", "2", "6", "5", "7", "1", "11"], "time": [4876, 6187, 7153, 7750, 8402, 9149, 10096]}, "edge": {"target": [], "time": []}}, "mouseover": {"state": {"target": ["9", "10", "11", "4", "2", "5", "6", "5", "7", "1", "11"], "time": [4716, 5417, 5683, 5766, 5901, 6633, 6901, 7566, 8167, 8984, 9817]}, "edge": {"target": [], "time": []}}, "mouseout": {"state": {"target": ["0", "9", "10", "11", "4", "2", "5", "6", "5", "7", "1", "11", "5"], "time": [4034, 5333, 5667, 5716, 5817, 6566, 6716, 7533, 8101, 8718, 9584, 10467, 10583]}, "edge": {"target": [], "time": []}}}, "displayed_time": "13.18", "trialTime": 14305, "trial_type": "mouselab-mdp", "trial_index": 90, "time_elapsed": 1435493, "internal_node_id": "0.0-4.0-5.0-1.0"}}, {"uniqueid": "w87134252:a77251351", "current_trial": 91, "dateTime": 1664464986306, "trialdata": {"revealed_states": [], "num_clicks_accrued": [0, 0, 0, 0, 0, 0, 0, 0, 0, 0, 0, 0, 0], "stateRewards": ["", -2, -8, 48, -24, 2, -4, -48, -24, -2, -4, -48, 48], "withholdReward": true, "trial_id": "mdp_143798438087", "block": "test3", "trialIndex": 70, "score": 41.75, "costs": -1.25, "simulationMode": [null, null, null], "rewards": [-2, -8, 48], "path": ["0", "0", "1", "2", "3"], "rt": [5036, 660, 64], "actions": ["up", "up", "right"], "actionTimes": [5914, 7106, 7678], "queries": {"click": {"state": {"target": ["5", "8", "2", "3", "4"], "time": [1599, 2627, 3667, 4276, 5033]}, "edge": {"target": [], "time": []}}, "mouseover": {"state": {"target": ["5", "8", "6", "7", "2", "3", "4"], "time": [1413, 2230, 3114, 3263, 3431, 4080, 4814]}, "edge": {"target": [], "time": []}}, "mouseout": {"state": {"target": ["0", "5", "8", "6", "7", "2", "3", "2", "4"], "time": [1329, 2115, 3081, 3179, 3279, 4047, 4681, 4747, 8747]}, "edge": {"target": [], "time": []}}}, "displayed_time": "8.88", "trialTime": 9315, "trial_type": "mouselab-mdp", "trial_index": 91, "time_elapsed": 1444890, "internal_node_id": "0.0-4.0-5.0-2.0"}}, {"uniqueid": "w87134252:a77251351", "current_trial": 92, "dateTime": 1664464999304, "trialdata": {"revealed_states": [], "num_clicks_accrued": [0, 0, 0, 0, 0, 0, 0, 0, 0, 0, 0, 0, 0], "stateRewards": ["", 4, -8, 24, 48, 2, -4, 48, 48, 4, -8, 48, 48], "withholdReward": true, "trial_id": "mdp_962498334245", "block": "test3", "trialIndex": 71, "score": 50, "costs": -1, "simulationMode": [null, null, null], "rewards": [2, -4, 48], "path": ["0", "0", "5", "6", "8"], "rt": [4430, 122, 661], "actions": ["right", "right", "down"], "actionTimes": [9752, 10388, 11562], "queries": {"click": {"state": {"target": ["9", "1", "6", "8"], "time": [6054, 6878, 7880, 8653]}, "edge": {"target": [], "time": []}}, "mouseover": {"state": {"target": ["9", "1", "5", "6", "8"], "time": [5900, 6567, 7415, 7682, 8399]}, "edge": {"target": [], "time": []}}, "mouseout": {"state": {"target": ["9", "1", "5", "6", "8"], "time": [6465, 7348, 7448, 8348, 9066]}, "edge": {"target": [], "time": []}}}, "displayed_time": "12.33", "trialTime": 12915, "trial_type": "mouselab-mdp", "trial_index": 92, "time_elapsed": 1457888, "internal_node_id": "0.0-4.0-5.0-3.0"}}, {"uniqueid": "w87134252:a77251351", "current_trial": 93, "dateTime": 1664465017750, "trialdata": {"revealed_states": [], "num_clicks_accrued": [0, 0, 0, 0, 0, 0, 0, 0, 0, 0, 0, 0, 0], "stateRewards": ["", 4, 8, -24, 48, -2, -4, 24, -24, -2, 4, 24, 24], "withholdReward": true, "trial_id": "mdp_948713805479", "block": "test3", "trialIndex": 72, "score": 64, "costs": -1, "simulationMode": [null, null, null], "rewards": [4, 8, 48], "path": ["0", "0", "1", "2", "4"], "rt": [3469, 17, 82], "actions": ["up", "up", "left"], "actionTimes": [7518, 8038, 8638], "queries": {"click": {"state": {"target": ["9", "1", "2", "4"], "time": [4765, 5426, 6009, 6648]}, "edge": {"target": [], "time": []}}, "mouseover": {"state": {"target": ["9", "1", 