{"condition": 0, "counterbalance": 0, "assignmentId": "a90289757", "workerId": "w40294886", "hitId": "h88885168", "currenttrial": 808, "bonus": 0, "data": [{"uniqueid": "w40294886:a90289757", "current_trial": 0, "dateTime": 1664464039447, "trialdata": {"success": true, "trial_type": "fullscreen", "trial_index": 0, "time_elapsed": 5510, "internal_node_id": "0.0-0.0"}}, {"uniqueid": "w40294886:a90289757", "current_trial": 1, "dateTime": 1664464064298, "trialdata": {"view_history": [{"page_index": 0, "viewing_time": 24847}], "rt": 24847, "trial_id": "exp_instructions_distractor", "trial_type": "instructions", "trial_index": 1, "time_elapsed": 30361, "internal_node_id": "0.0-1.0"}}, {"uniqueid": "w40294886:a90289757", "current_trial": 2, "dateTime": 1664464113897, "trialdata": {"view_history": [{"page_index": 0, "viewing_time": 49597}], "rt": 49597, "trial_id": "color_game_instructions", "trial_type": "instructions", "trial_index": 2, "time_elapsed": 79960, "internal_node_id": "0.0-2.0"}}, {"uniqueid": "w40294886:a90289757", "current_trial": 3, "dateTime": 1664464120894, "trialdata": {"rt": 6996, "stimulus": "<h1> Get ready to start the game! </h1>\n\nThank you for reading the instructions. Get ready start with the first of 5 block(s) of this game.\n<br><br>\nIn this first block, you will complete 90 rounds of this game before moving on.\n<br><br>\nRemember, the better you perform, the bigger your bonus will be!\n<br><br>\n<div style='text-align: center;'>Press <code>space</code> to begin.</div>", "response": " ", "trial_id": "stroop_1_ready_1", "trial_type": "html-keyboard-response", "trial_index": 3, "time_elapsed": 86957, "internal_node_id": "0.0-3.0"}}, {"uniqueid": "w40294886:a90289757", "current_trial": 4, "dateTime": 1664464122345, "trialdata": {"rt": 1447, "stimulus": "<p id='stroop-text' class='stroop-green'>FORK</p>", "response": "g", "stimulus-type": "unrelated", "word": "FORK", "color": "green", "correct_response": "g", "trial_id": "stroop-trial-1-unrelated-4", "trial_type": "html-keyboard-response", "trial_index": 4, "time_elapsed": 88408, "internal_node_id": "0.0-4.0-0.0"}}, {"uniqueid": "w40294886:a90289757", "current_trial": 5, "dateTime": 1664464123761, "trialdata": {"rt": 914, "stimulus": "<p id='stroop-text' class='stroop-green'>GREEN</p>", "response": "g", "stimulus-type": "congruent", "word": "green", "color": "green", "correct_response": "g", "trial_id": "stroop-trial-1-congruent-28", "trial_type": "html-keyboard-response", "trial_index": 5, "time_elapsed": 89824, "internal_node_id": "0.0-4.0-1.0"}}, {"uniqueid": "w40294886:a90289757", "current_trial": 6, "dateTime": 1664464125110, "trialdata": {"rt": 846, "stimulus": "<p id='stroop-text' class='stroop-blue'>SHIP</p>", "response": "b", "stimulus-type": "unrelated", "word": "SHIP", "color": "blue", "correct_response": "b", "trial_id": "stroop-trial-1-unrelated-5", "trial_type": "html-keyboard-response", "trial_index": 6, "time_elapsed": 91172, "internal_node_id": "0.0-4.0-2.0"}}, {"uniqueid": "w40294886:a90289757", "current_trial": 7, "dateTime": 1664464126872, "trialdata": {"rt": 1261, "stimulus": "<p id='stroop-text' class='stroop-yellow'>RED</p>", "response": "y", "stimulus-type": "incongruent", "word": "red", "color": "yellow", "correct_response": "y", "trial_id": "stroop-trial-1-incongruent-2", "trial_type": "html-keyboard-response", "trial_index": 7, "time_elapsed": 92935, "internal_node_id": "0.0-4.0-3.0"}}, {"uniqueid": "w40294886:a90289757", "current_trial": 8, "dateTime": 1664464128882, "trialdata": {"rt": 1508, "stimulus": "<p id='stroop-text' class='stroop-blue'>BLUE</p>", "response": "b", "stimulus-type": "congruent", "word": "blue", "color": "blue", "correct_response": "b", "trial_id": "stroop-trial-1-congruent-4", "trial_type": "html-keyboard-response", "trial_index": 8, "time_elapsed": 94945, "internal_node_id": "0.0-4.0-4.0"}}, {"uniqueid": "w40294886:a90289757", "current_trial": 9, "dateTime": 1664464130469, "trialdata": {"rt": 1086, "stimulus": "<p id='stroop-text' class='stroop-blue'>RED</p>", "response": "b", "stimulus-type": "incongruent", "word": "red", "color": "blue", "correct_response": "b", "trial_id": "stroop-trial-1-incongruent-6", "trial_type": "html-keyboard-response", "trial_index": 9, "time_elapsed": 96532, "internal_node_id": "0.0-4.0-5.0"}}, {"uniqueid": "w40294886:a90289757", "current_trial": 10, "dateTime": 1664464132022, "trialdata": {"rt": 1051, "stimulus": "<p id='stroop-text' class='stroop-yellow'>YELLOW</p>", "response": "y", "stimulus-type": "congruent", "word": "yellow", "color": "yellow", "correct_response": "y", "trial_id": "stroop-trial-1-congruent-2", "trial_type": "html-keyboard-response", "trial_index": 10, "time_elapsed": 98085, "internal_node_id": "0.0-4.0-6.0"}}, {"uniqueid": "w40294886:a90289757", "current_trial": 11, "dateTime": 1664464133586, "trialdata": {"rt": 1063, "stimulus": "<p id='stroop-text' class='stroop-yellow'>RED</p>", "response": "y", "stimulus-type": "incongruent", "word": "red", "color": "yellow", "correct_response": "y", "trial_id": "stroop-trial-1-incongruent-23", "trial_type": "html-keyboard-response", "trial_index": 11, "time_elapsed": 99649, "internal_node_id": "0.0-4.0-7.0"}}, {"uniqueid": "w40294886:a90289757", "current_trial": 12, "dateTime": 1664464135322, "trialdata": {"rt": 1235, "stimulus": "<p id='stroop-text' class='stroop-green'>GREEN</p>", "response": "g", "stimulus-type": "congruent", "word": "green", "color": "green", "correct_response": "g", "trial_id": "stroop-trial-1-congruent-23", "trial_type": "html-keyboard-response", "trial_index": 12, "time_elapsed": 101385, "internal_node_id": "0.0-4.0-8.0"}}, {"uniqueid": "w40294886:a90289757", "current_trial": 13, "dateTime": 1664464136506, "trialdata": {"rt": 682, "stimulus": "<p id='stroop-text' class='stroop-red'>FORK</p>", "response": "r", "stimulus-type": "unrelated", "word": "FORK", "color": "red", "correct_response": "r", "trial_id": "stroop-trial-1-unrelated-25", "trial_type": "html-keyboard-response", "trial_index": 13, "time_elapsed": 102569, "internal_node_id": "0.0-4.0-9.0"}}, {"uniqueid": "w40294886:a90289757", "current_trial": 14, "dateTime": 1664464137741, "trialdata": {"rt": 733, "stimulus": "<p id='stroop-text' class='stroop-yellow'>YELLOW</p>", "response": "y", "stimulus-type": "congruent", "word": "yellow", "color": "yellow", "correct_response": "y", "trial_id": "stroop-trial-1-congruent-29", "trial_type": "html-keyboard-response", "trial_index": 14, "time_elapsed": 103804, "internal_node_id": "0.0-4.0-10.0"}}, {"uniqueid": "w40294886:a90289757", "current_trial": 15, "dateTime": 1664464139180, "trialdata": {"rt": 938, "stimulus": "<p id='stroop-text' class='stroop-red'>BOTTLE</p>", "response": "r", "stimulus-type": "unrelated", "word": "BOTTLE", "color": "red", "correct_response": "r", "trial_id": "stroop-trial-1-unrelated-28", "trial_type": "html-keyboard-response", "trial_index": 15, "time_elapsed": 105243, "internal_node_id": "0.0-4.0-11.0"}}, {"uniqueid": "w40294886:a90289757", "current_trial": 16, "dateTime": 1664464140519, "trialdata": {"rt": 838, "stimulus": "<p id='stroop-text' class='stroop-red'>SHIP</p>", "response": "r", "stimulus-type": "unrelated", "word": "SHIP", "color": "red", "correct_response": "r", "trial_id": "stroop-trial-1-unrelated-27", "trial_type": "html-keyboard-response", "trial_index": 16, "time_elapsed": 106582, "internal_node_id": "0.0-4.0-12.0"}}, {"uniqueid": "w40294886:a90289757", "current_trial": 17, "dateTime": 1664464141900, "trialdata": {"rt": 879, "stimulus": "<p id='stroop-text' class='stroop-yellow'>BLUE</p>", "response": "y", "stimulus-type": "incongruent", "word": "blue", "color": "yellow", "correct_response": "y", "trial_id": "stroop-trial-1-incongruent-11", "trial_type": "html-keyboard-response", "trial_index": 17, "time_elapsed": 107963, "internal_node_id": "0.0-4.0-13.0"}}, {"uniqueid": "w40294886:a90289757", "current_trial": 18, "dateTime": 1664464143277, "trialdata": {"rt": 875, "stimulus": "<p id='stroop-text' class='stroop-blue'>RED</p>", "response": "b", "stimulus-type": "incongruent", "word": "red", "color": "blue", "correct_response": "b", "trial_id": "stroop-trial-1-incongruent-28", "trial_type": "html-keyboard-response", "trial_index": 18, "time_elapsed": 109340, "internal_node_id": "0.0-4.0-14.0"}}, {"uniqueid": "w40294886:a90289757", "current_trial": 19, "dateTime": 1664464144318, "trialdata": {"rt": 539, "stimulus": "<p id='stroop-text' class='stroop-green'>FORK</p>", "response": "g", "stimulus-type": "unrelated", "word": "FORK", "color": "green", "correct_response": "g", "trial_id": "stroop-trial-1-unrelated-14", "trial_type": "html-keyboard-response", "trial_index": 19, "time_elapsed": 110381, "internal_node_id": "0.0-4.0-15.0"}}, {"uniqueid": "w40294886:a90289757", "current_trial": 20, "dateTime": 1664464145819, "trialdata": {"rt": 999, "stimulus": "<p id='stroop-text' class='stroop-yellow'>GREEN</p>", "response": "y", "stimulus-type": "incongruent", "word": "green", "color": "yellow", "correct_response": "y", "trial_id": "stroop-trial-1-incongruent-9", "trial_type": "html-keyboard-response", "trial_index": 20, "time_elapsed": 111882, "internal_node_id": "0.0-4.0-16.0"}}, {"uniqueid": "w40294886:a90289757", "current_trial": 21, "dateTime": 1664464146893, "trialdata": {"rt": 573, "stimulus": "<p id='stroop-text' class='stroop-yellow'>GREEN</p>", "response": "y", "stimulus-type": "incongruent", "word": "green", "color": "yellow", "correct_response": "y", "trial_id": "stroop-trial-1-incongruent-22", "trial_type": "html-keyboard-response", "trial_index": 21, "time_elapsed": 112956, "internal_node_id": "0.0-4.0-17.0"}}, {"uniqueid": "w40294886:a90289757", "current_trial": 22, "dateTime": 1664464147960, "trialdata": {"rt": 566, "stimulus": "<p id='stroop-text' class='stroop-red'>RED</p>", "response": "r", "stimulus-type": "congruent", "word": "red", "color": "red", "correct_response": "r", "trial_id": "stroop-trial-1-congruent-30", "trial_type": "html-keyboard-response", "trial_index": 22, "time_elapsed": 114023, "internal_node_id": "0.0-4.0-18.0"}}, {"uniqueid": "w40294886:a90289757", "current_trial": 23, "dateTime": 1664464149707, "trialdata": {"rt": 1246, "stimulus": "<p id='stroop-text' class='stroop-green'>YELLOW</p>", "response": "g", "stimulus-type": "incongruent", "word": "yellow", "color": "green", "correct_response": "g", "trial_id": "stroop-trial-1-incongruent-16", "trial_type": "html-keyboard-response", "trial_index": 23, "time_elapsed": 115770, "internal_node_id": "0.0-4.0-19.0"}}, {"uniqueid": "w40294886:a90289757", "current_trial": 24, "dateTime": 1664464151400, "trialdata": {"rt": 1190, "stimulus": "<p id='stroop-text' class='stroop-red'>GREEN</p>", "response": "r", "stimulus-type": "incongruent", "word": "green", "color": "red", "correct_response": "r", "trial_id": "stroop-trial-1-incongruent-29", "trial_type": "html-keyboard-response", "trial_index": 24, "time_elapsed": 117463, "internal_node_id": "0.0-4.0-20.0"}}, {"uniqueid": "w40294886:a90289757", "current_trial": 25, "dateTime": 1664464152790, "trialdata": {"rt": 889, "stimulus": "<p id='stroop-text' class='stroop-blue'>YELLOW</p>", "response": "b", "stimulus-type": "incongruent", "word": "yellow", "color": "blue", "correct_response": "b", "trial_id": "stroop-trial-1-incongruent-17", "trial_type": "html-keyboard-response", "trial_index": 25, "time_elapsed": 118853, "internal_node_id": "0.0-4.0-21.0"}}, {"uniqueid": "w40294886:a90289757", "current_trial": 26, "dateTime": 1664464153989, "trialdata": {"rt": 698, "stimulus": "<p id='stroop-text' class='stroop-red'>DOG</p>", "response": "r", "stimulus-type": "unrelated", "word": "DOG", "color": "red", "correct_response": "r", "trial_id": "stroop-trial-1-unrelated-17", "trial_type": "html-keyboard-response", "trial_index": 26, "time_elapsed": 120052, "internal_node_id": "0.0-4.0-22.0"}}, {"uniqueid": "w40294886:a90289757", "current_trial": 27, "dateTime": 1664464155404, "trialdata": {"rt": 913, "stimulus": "<p id='stroop-text' class='stroop-blue'>BLUE</p>", "response": "b", "stimulus-type": "congruent", "word": "blue", "color": "blue", "correct_response": "b", "trial_id": "stroop-trial-1-congruent-9", "trial_type": "html-keyboard-response", "trial_index": 27, "time_elapsed": 121467, "internal_node_id": "0.0-4.0-23.0"}}, {"uniqueid": "w40294886:a90289757", "current_trial": 28, "dateTime": 1664464156477, "trialdata": {"rt": 571, "stimulus": "<p id='stroop-text' class='stroop-blue'>BOTTLE</p>", "response": "b", "stimulus-type": "unrelated", "word": "BOTTLE", "color": "blue", "correct_response": "b", "trial_id": "stroop-trial-1-unrelated-20", "trial_type": "html-keyboard-response", "trial_index": 28, "time_elapsed": 122540, "internal_node_id": "0.0-4.0-24.0"}}, {"uniqueid": "w40294886:a90289757", "current_trial": 29, "dateTime": 1664464157483, "trialdata": {"rt": 504, "stimulus": "<p id='stroop-text' class='stroop-red'>RED</p>", "response": "r", "stimulus-type": "congruent", "word": "red", "color": "red", "correct_response": "r", "trial_id": "stroop-trial-1-congruent-27", "trial_type": "html-keyboard-response", "trial_index": 29, "time_elapsed": 123546, "internal_node_id": "0.0-4.0-25.0"}}, {"uniqueid": "w40294886:a90289757", "current_trial": 30, "dateTime": 1664464158550, "trialdata": {"rt": 565, "stimulus": "<p id='stroop-text' class='stroop-red'>YELLOW</p>", "response": "r", "stimulus-type": "incongruent", "word": "yellow", "color": "red", "correct_response": "r", "trial_id": "stroop-trial-1-incongruent-13", "trial_type": "html-keyboard-response", "trial_index": 30, "time_elapsed": 124613, "internal_node_id": "0.0-4.0-26.0"}}, {"uniqueid": "w40294886:a90289757", "current_trial": 31, "dateTime": 1664464159519, "trialdata": {"rt": 467, "stimulus": "<p id='stroop-text' class='stroop-red'>GREEN</p>", "response": "r", "stimulus-type": "incongruent", "word": "green", "color": "red", "correct_response": "r", "trial_id": "stroop-trial-1-incongruent-12", "trial_type": "html-keyboard-response", "trial_index": 31, "time_elapsed": 125582, "internal_node_id": "0.0-4.0-27.0"}}, {"uniqueid": "w40294886:a90289757", "current_trial": 32, "dateTime": 1664464160403, "trialdata": {"rt": 382, "stimulus": "<p id='stroop-text' class='stroop-red'>RED</p>", "response": "r", "stimulus-type": "congruent", "word": "red", "color": "red", "correct_response": "r", "trial_id": "stroop-trial-1-congruent-21", "trial_type": "html-keyboard-response", "trial_index": 32, "time_elapsed": 126466, "internal_node_id": "0.0-4.0-28.0"}}, {"uniqueid": "w40294886:a90289757", "current_trial": 33, "dateTime": 1664464161663, "trialdata": {"rt": 758, "stimulus": "<p id='stroop-text' class='stroop-green'>GREEN</p>", "response": "g", "stimulus-type": "congruent", "word": "green", "color": "green", "correct_response": "g", "trial_id": "stroop-trial-1-congruent-7", "trial_type": "html-keyboard-response", "trial_index": 33, "time_elapsed": 127725, "internal_node_id": "0.0-4.0-29.0"}}, {"uniqueid": "w40294886:a90289757", "current_trial": 34, "dateTime": 1664464162974, "trialdata": {"rt": 811, "stimulus": "<p id='stroop-text' class='stroop-yellow'>BOTTLE</p>", "response": "y", "stimulus-type": "unrelated", "word": "BOTTLE", "color": "yellow", "correct_response": "y", "trial_id": "stroop-trial-1-unrelated-21", "trial_type": "html-keyboard-response", "trial_index": 34, "time_elapsed": 129037, "internal_node_id": "0.0-4.0-30.0"}}, {"uniqueid": "w40294886:a90289757", "current_trial": 35, "dateTime": 1664464164194, "trialdata": {"rt": 718, "stimulus": "<p id='stroop-text' class='stroop-blue'>BOTTLE</p>", "response": "b", "stimulus-type": "unrelated", "word": "BOTTLE", "color": "blue", "correct_response": "b", "trial_id": "stroop-trial-1-unrelated-9", "trial_type": "html-keyboard-response", "trial_index": 35, "time_elapsed": 130257, "internal_node_id": "0.0-4.0-31.0"}}, {"uniqueid": "w40294886:a90289757", "current_trial": 36, "dateTime": 1664464165494, "trialdata": {"rt": 798, "stimulus": "<p id='stroop-text' class='stroop-red'>RED</p>", "response": "r", "stimulus-type": "congruent", "word": "red", "color": "red", "correct_response": "r", "trial_id": "stroop-trial-1-congruent-11", "trial_type": "html-keyboard-response", "trial_index": 36, "time_elapsed": 131557, "internal_node_id": "0.0-4.0-32.0"}}, {"uniqueid": "w40294886:a90289757", "current_trial": 37, "dateTime": 1664464166680, "trialdata": {"rt": 684, "stimulus": "<p id='stroop-text' class='stroop-blue'>BOAT</p>", "response": "b", "stimulus-type": "unrelated", "word": "BOAT", "color": "blue", "correct_response": "b", "trial_id": "stroop-trial-1-unrelated-29", "trial_type": "html-keyboard-response", "trial_index": 37, "time_elapsed": 132742, "internal_node_id": "0.0-4.0-33.0"}}, {"uniqueid": "w40294886:a90289757", "current_trial": 38, "dateTime": 1664464167715, "trialdata": {"rt": 535, "stimulus": "<p id='stroop-text' class='stroop-green'>GREEN</p>", "response": "g", "stimulus-type": "congruent", "word": "green", "color": "green", "correct_response": "g", "trial_id": "stroop-trial-1-congruent-17", "trial_type": "html-keyboard-response", "trial_index": 38, "time_elapsed": 133778, "internal_node_id": "0.0-4.0-34.0"}}, {"uniqueid": "w40294886:a90289757", "current_trial": 39, "dateTime": 1664464168832, "trialdata": {"rt": 615, "stimulus": "<p id='stroop-text' class='stroop-blue'>BOTTLE</p>", "response": "b", "stimulus-type": "unrelated", "word": "BOTTLE", "color": "blue", "correct_response": "b", "trial_id": "stroop-trial-1-unrelated-3", "trial_type": "html-keyboard-response", "trial_index": 39, "time_elapsed": 134895, "internal_node_id": "0.0-4.0-35.0"}}, {"uniqueid": "w40294886:a90289757", "current_trial": 40, "dateTime": 1664464169829, "trialdata": {"rt": 495, "stimulus": "<p id='stroop-text' class='stroop-red'>BLUE</p>", "response": "r", "stimulus-type": "incongruent", "word": "blue", "color": "red", "correct_response": "r", "trial_id": "stroop-trial-1-incongruent-4", "trial_type": "html-keyboard-response", "trial_index": 40, "time_elapsed": 135892, "internal_node_id": "0.0-4.0-36.0"}}, {"uniqueid": "w40294886:a90289757", "current_trial": 41, "dateTime": 1664464171035, "trialdata": {"rt": 705, "stimulus": "<p id='stroop-text' class='stroop-green'>CHAIR</p>", "response": "g", "stimulus-type": "unrelated", "word": "CHAIR", "color": "green", "correct_response": "g", "trial_id": "stroop-trial-1-unrelated-19", "trial_type": "html-keyboard-response", "trial_index": 41, "time_elapsed": 137098, "internal_node_id": "0.0-4.0-37.0"}}, {"uniqueid": "w40294886:a90289757", "current_trial": 42, "dateTime": 1664464172491, "trialdata": {"rt": 955, "stimulus": "<p id='stroop-text' class='stroop-red'>GREEN</p>", "response": "r", "stimulus-type": "incongruent", "word": "green", "color": "red", "correct_response": "r", "trial_id": "stroop-trial-1-incongruent-26", "trial_type": "html-keyboard-response", "trial_index": 42, "time_elapsed": 138554, "internal_node_id": "0.0-4.0-38.0"}}, {"uniqueid": "w40294886:a90289757", "current_trial": 43, "dateTime": 1664464173827, "trialdata": {"rt": 834, "stimulus": "<p id='stroop-text' class='stroop-blue'>BOTTLE</p>", "response": "b", "stimulus-type": "unrelated", "word": "BOTTLE", "color": "blue", "correct_response": "b", "trial_id": "stroop-trial-1-unrelated-23", "trial_type": "html-keyboard-response", "trial_index": 43, "time_elapsed": 139889, "internal_node_id": "0.0-4.0-39.0"}}, {"uniqueid": "w40294886:a90289757", "current_trial": 44, "dateTime": 1664464175252, "trialdata": {"rt": 923, "stimulus": "<p id='stroop-text' class='stroop-green'>GREEN</p>", "response": "g", "stimulus-type": "congruent", "word": "green", "color": "green", "correct_response": "g", "trial_id": "stroop-trial-1-congruent-18", "trial_type": "html-keyboard-response", "trial_index": 44, "time_elapsed": 141315, "internal_node_id": "0.0-4.0-40.0"}}, {"uniqueid": "w40294886:a90289757", "current_trial": 45, "dateTime": 1664464176702, "trialdata": {"rt": 948, "stimulus": "<p id='stroop-text' class='stroop-blue'>SHIP</p>", "response": "b", "stimulus-type": "unrelated", "word": "SHIP", "color": "blue", "correct_response": "b", "trial_id": "stroop-trial-1-unrelated-11", "trial_type": "html-keyboard-response", "trial_index": 45, "time_elapsed": 142765, "internal_node_id": "0.0-4.0-41.0"}}, {"uniqueid": "w40294886:a90289757", "current_trial": 46, "dateTime": 1664464178859, "trialdata": {"rt": 1655, "stimulus": "<p id='stroop-text' class='stroop-green'>BLUE</p>", "response": "g", "stimulus-type": "incongruent", "word": "blue", "color": "green", "correct_response": "g", "trial_id": "stroop-trial-1-incongruent-20", "trial_type": "html-keyboard-response", "trial_index": 46, "time_elapsed": 144922, "internal_node_id": "0.0-4.0-42.0"}}, {"uniqueid": "w40294886:a90289757", "current_trial": 47, "dateTime": 1664464180005, "trialdata": {"rt": 641, "stimulus": "<p id='stroop-text' class='stroop-yellow'>YELLOW</p>", "response": "y", "stimulus-type": "congruent", "word": "yellow", "color": "yellow", "correct_response": "y", "trial_id": "stroop-trial-1-congruent-1", "trial_type": "html-keyboard-response", "trial_index": 47, "time_elapsed": 146068, "internal_node_id": "0.0-4.0-43.0"}}, {"uniqueid": "w40294886:a90289757", "current_trial": 48, "dateTime": 1664464181400, "trialdata": {"rt": 892, "stimulus": "<p id='stroop-text' class='stroop-green'>BOAT</p>", "response": "g", "stimulus-type": "unrelated", "word": "BOAT", "color": "green", "correct_response": "g", "trial_id": "stroop-trial-1-unrelated-6", "trial_type": "html-keyboard-response", "trial_index": 48, "time_elapsed": 147462, "internal_node_id": "0.0-4.0-44.0"}}, {"uniqueid": "w40294886:a90289757", "current_trial": 49, "dateTime": 1664464182910, "trialdata": {"rt": 1009, "stimulus": "<p id='stroop-text' class='stroop-yellow'>GREEN</p>", "response": "y", "stimulus-type": "incongruent", "word": "green", "color": "yellow", "correct_response": "y", "trial_id": "stroop-trial-1-incongruent-15", "trial_type": "html-keyboard-response", "trial_index": 49, "time_elapsed": 148973, "internal_node_id": "0.0-4.0-45.0"}}, {"uniqueid": "w40294886:a90289757", "current_trial": 50, "dateTime": 1664464183995, "trialdata": {"rt": 581, "stimulus": "<p id='stroop-text' class='stroop-blue'>BLUE</p>", "response": "b", "stimulus-type": "congruent", "word": "blue", "color": "blue", "correct_response": "b", "trial_id": "stroop-trial-1-congruent-12", "trial_type": "html-keyboard-response", "trial_index": 50, "time_elapsed": 150057, "internal_node_id": "0.0-4.0-46.0"}}, {"uniqueid": "w40294886:a90289757", "current_trial": 51, "dateTime": 1664464185532, "trialdata": {"rt": 1035, "stimulus": "<p id='stroop-text' class='stroop-yellow'>BLUE</p>", "response": "y", "stimulus-type": "incongruent", "word": "blue", "color": "yellow", "correct_response": "y", "trial_id": "stroop-trial-1-incongruent-1", "trial_type": "html-keyboard-response", "trial_index": 51, "time_elapsed": 151595, "internal_node_id": "0.0-4.0-47.0"}}, {"uniqueid": "w40294886:a90289757", "current_trial": 52, "dateTime": 1664464187109, "trialdata": {"rt": 1075, "stimulus": "<p id='stroop-text' class='stroop-red'>BLUE</p>", "response": "r", "stimulus-type": "incongruent", "word": "blue", "color": "red", "correct_response": "r", "trial_id": "stroop-trial-1-incongruent-8", "trial_type": "html-keyboard-response", "trial_index": 52, "time_elapsed": 153172, "internal_node_id": "0.0-4.0-48.0"}}, {"uniqueid": "w40294886:a90289757", "current_trial": 53, "dateTime": 1664464188680, "trialdata": {"rt": 1070, "stimulus": "<p id='stroop-text' class='stroop-yellow'>BOAT</p>", "response": "y", "stimulus-type": "unrelated", "word": "BOAT", "color": "yellow", "correct_response": "y", "trial_id": "stroop-trial-1-unrelated-30", "trial_type": "html-keyboard-response", "trial_index": 53, "time_elapsed": 154743, "internal_node_id": "0.0-4.0-49.0"}}, {"uniqueid": "w40294886:a90289757", "current_trial": 54, "dateTime": 1664464190454, "trialdata": {"rt": 1272, "stimulus": "<p id='stroop-text' class='stroop-blue'>BLUE</p>", "response": "b", "stimulus-type": "congruent", "word": "blue", "color": "blue", "correct_response": "b", "trial_id": "stroop-trial-1-congruent-8", "trial_type": "html-keyboard-response", "trial_index": 54, "time_elapsed": 156517, "internal_node_id": "0.0-4.0-50.0"}}, {"uniqueid": "w40294886:a90289757", "current_trial": 55, "dateTime": 1664464191544, "trialdata": {"rt": 589, "stimulus": "<p id='stroop-text' class='stroop-red'>RED</p>", "response": "r", "stimulus-type": "congruent", "word": "red", "color": "red", "correct_response": "r", "trial_id": "stroop-trial-1-congruent-3", "trial_type": "html-keyboard-response", "trial_index": 55, "time_elapsed": 157607, "internal_node_id": "0.0-4.0-51.0"}}, {"uniqueid": "w40294886:a90289757", "current_trial": 56, "dateTime": 1664464192540, "trialdata": {"rt": 494, "stimulus": "<p id='stroop-text' class='stroop-red'>YELLOW</p>", "response": "r", "stimulus-type": "incongruent", "word": "yellow", "color": "red", "correct_response": "r", "trial_id": "stroop-trial-1-incongruent-3", "trial_type": "html-keyboard-response", "trial_index": 56, "time_elapsed": 158603, "internal_node_id": "0.0-4.0-52.0"}}, {"uniqueid": "w40294886:a90289757", "current_trial": 57, "dateTime": 1664464193479, "trialdata": {"rt": 438, "stimulus": "<p id='stroop-text' class='stroop-red'>BRIDGE</p>", "response": "r", "stimulus-type": "unrelated", "word": "BRIDGE", "color": "red", "correct_response": "r", "trial_id": "stroop-trial-1-unrelated-15", "trial_type": "html-keyboard-response", "trial_index": 57, "time_elapsed": 159542, "internal_node_id": "0.0-4.0-53.0"}}, {"uniqueid": "w40294886:a90289757", "current_trial": 58, "dateTime": 1664464194707, "trialdata": {"rt": 711, "stimulus": "<p id='stroop-text' class='stroop-green'>SHIP</p>", "response": "g", "stimulus-type": "unrelated", "word": "SHIP", "color": "green", "correct_response": "g", "trial_id": "stroop-trial-1-unrelated-16", "trial_type": "html-keyboard-response", "trial_index": 58, "time_elapsed": 160770, "internal_node_id": "0.0-4.0-54.0"}}, {"uniqueid": "w40294886:a90289757", "current_trial": 59, "dateTime": 1664464195702, "trialdata": {"rt": 494, "stimulus": "<p id='stroop-text' class='stroop-red'>RED</p>", "response": "r", "stimulus-type": "congruent", "word": "red", "color": "red", "correct_response": "r", "trial_id": "stroop-trial-1-congruent-6", "trial_type": "html-keyboard-response", "trial_index": 59, "time_elapsed": 161765, "internal_node_id": "0.0-4.0-55.0"}}, {"uniqueid": "w40294886:a90289757", "current_trial": 60, "dateTime": 1664464196859, "trialdata": {"rt": 655, "stimulus": "<p id='stroop-text' class='stroop-blue'>BOAT</p>", "response": "b", "stimulus-type": "unrelated", "word": "BOAT", "color": "blue", "correct_response": "b", "trial_id": "stroop-trial-1-unrelated-18", "trial_type": "html-keyboard-response", "trial_index": 60, "time_elapsed": 162922, "internal_node_id": "0.0-4.0-56.0"}}, {"uniqueid": "w40294886:a90289757", "current_trial": 61, "dateTime": 1664464198154, "trialdata": {"rt": 794, "stimulus": "<p id='stroop-text' class='stroop-green'>GREEN</p>", "response": "g", "stimulus-type": "congruent", "word": "green", "color": "green", "correct_response": "g", "trial_id": "stroop-trial-1-congruent-15", "trial_type": "html-keyboard-response", "trial_index": 61, "time_elapsed": 164217, "internal_node_id": "0.0-4.0-57.0"}}, {"uniqueid": "w40294886:a90289757", "current_trial": 62, "dateTime": 1664464199301, "trialdata": {"rt": 644, "stimulus": "<p id='stroop-text' class='stroop-blue'>BLUE</p>", "response": "b", "stimulus-type": "congruent", "word": "blue", "color": "blue", "correct_response": "b", "trial_id": "stroop-trial-1-congruent-25", "trial_type": "html-keyboard-response", "trial_index": 62, "time_elapsed": 165364, "internal_node_id": "0.0-4.0-58.0"}}, {"uniqueid": "w40294886:a90289757", "current_trial": 63, "dateTime": 1664464200274, "trialdata": {"rt": 471, "stimulus": "<p id='stroop-text' class='stroop-blue'>BLUE</p>", "response": "b", "stimulus-type": "congruent", "word": "blue", "color": "blue", "correct_response": "b", "trial_id": "stroop-trial-1-congruent-24", "trial_type": "html-keyboard-response", "trial_index": 63, "time_elapsed": 166337, "internal_node_id": "0.0-4.0-59.0"}}, {"uniqueid": "w40294886:a90289757", "current_trial": 64, "dateTime": 1664464201652, "trialdata": {"rt": 877, "stimulus": "<p id='stroop-text' class='stroop-yellow'>YELLOW</p>", "response": "y", "stimulus-type": "congruent", "word": "yellow", "color": "yellow", "correct_response": "y", "trial_id": "stroop-trial-1-congruent-10", "trial_type": "html-keyboard-response", "trial_index": 64, "time_elapsed": 167715, "internal_node_id": "0.0-4.0-60.0"}}, {"uniqueid": "w40294886:a90289757", "current_trial": 65, "dateTime": 1664464202938, "trialdata": {"rt": 784, "stimulus": "<p id='stroop-text' class='stroop-blue'>FORK</p>", "response": "b", "stimulus-type": "unrelated", "word": "FORK", "color": "blue", "correct_response": "b", "trial_id": "stroop-trial-1-unrelated-1", "trial_type": "html-keyboard-response", "trial_index": 65, "time_elapsed": 169001, "internal_node_id": "0.0-4.0-61.0"}}, {"uniqueid": "w40294886:a90289757", "current_trial": 66, "dateTime": 1664464204052, "trialdata": {"rt": 612, "stimulus": "<p id='stroop-text' class='stroop-red'>RED</p>", "response": "r", "stimulus-type": "congruent", "word": "red", "color": "red", "correct_response": "r", "trial_id": "stroop-trial-1-congruent-16", "trial_type": "html-keyboard-response", "trial_index": 66, "time_elapsed": 170115, "internal_node_id": "0.0-4.0-62.0"}}, {"uniqueid": "w40294886:a90289757", "current_trial": 67, "dateTime": 1664464205322, "trialdata": {"rt": 769, "stimulus": "<p id='stroop-text' class='stroop-green'>STONE</p>", "response": "g", "stimulus-type": "unrelated", "word": "STONE", "color": "green", "correct_response": "g", "trial_id": "stroop-trial-1-unrelated-10", "trial_type": "html-keyboard-response", "trial_index": 67, "time_elapsed": 171385, "internal_node_id": "0.0-4.0-63.0"}}, {"uniqueid": "w40294886:a90289757", "current_trial": 68, "dateTime": 1664464206433, "trialdata": {"rt": 608, "stimulus": "<p id='stroop-text' class='stroop-red'>BLUE</p>", "response": "r", "stimulus-type": "incongruent", "word": "blue", "color": "red", "correct_response": "r", "trial_id": "stroop-trial-1-incongruent-19", "trial_type": "html-keyboard-response", "trial_index": 68, "time_elapsed": 172496, "internal_node_id": "0.0-4.0-64.0"}}, {"uniqueid": "w40294886:a90289757", "current_trial": 69, "dateTime": 1664464208062, "trialdata": {"rt": 1127, "stimulus": "<p id='stroop-text' class='stroop-blue'>RED</p>", "response": "b", "stimulus-type": "incongruent", "word": "red", "color": "blue", "correct_response": "b", "trial_id": "stroop-trial-1-incongruent-30", "trial_type": "html-keyboard-response", "trial_index": 69, "time_elapsed": 174125, "internal_node_id": "0.0-4.0-65.0"}}, {"uniqueid": "w40294886:a90289757", "current_trial": 70, "dateTime": 1664464209265, "trialdata": {"rt": 700, "stimulus": "<p id='stroop-text' class='stroop-blue'>BLUE</p>", "response": "b", "stimulus-type": "congruent", "word": "blue", "color": "blue", "correct_response": "b", "trial_id": "stroop-trial-1-congruent-19", "trial_type": "html-keyboard-response", "trial_index": 70, "time_elapsed": 175327, "internal_node_id": "0.0-4.0-66.0"}}, {"uniqueid": "w40294886:a90289757", "current_trial": 71, "dateTime": 1664464210423, "trialdata": {"rt": 657, "stimulus": "<p id='stroop-text' class='stroop-green'>GREEN</p>", "response": "g", "stimulus-type": "congruent", "word": "green", "color": "green", "correct_response": "g", "trial_id": "stroop-trial-1-congruent-5", "trial_type": "html-keyboard-response", "trial_index": 71, "time_elapsed": 176486, "internal_node_id": "0.0-4.0-67.0"}}, {"uniqueid": "w40294886:a90289757", "current_trial": 72, "dateTime": 1664464212005, "trialdata": {"rt": 1080, "stimulus": "<p id='stroop-text' class='stroop-red'>DOG</p>", "response": "r", "stimulus-type": "unrelated", "word": "DOG", "color": "red", "correct_response": "r", "trial_id": "stroop-trial-1-unrelated-13", "trial_type": "html-keyboard-response", "trial_index": 72, "time_elapsed": 178068, "internal_node_id": "0.0-4.0-68.0"}}, {"uniqueid": "w40294886:a90289757", "current_trial": 73, "dateTime": 1664464213475, "trialdata": {"rt": 968, "stimulus": "<p id='stroop-text' class='stroop-green'>STONE</p>", "response": "g", "stimulus-type": "unrelated", "word": "STONE", "color": "green", "correct_response": "g", "trial_id": "stroop-trial-1-unrelated-8", "trial_type": "html-keyboard-response", "trial_index": 73, "time_elapsed": 179538, "internal_node_id": "0.0-4.0-69.0"}}, {"uniqueid": "w40294886:a90289757", "current_trial": 74, "dateTime": 1664464214974, "trialdata": {"rt": 998, "stimulus": "<p id='stroop-text' class='stroop-red'>BRAIN</p>", "response": "r", "stimulus-type": "unrelated", "word": "BRAIN", "color": "red", "correct_response": "r", "trial_id": "stroop-trial-1-unrelated-26", "trial_type": "html-keyboard-response", "trial_index": 74, "time_elapsed": 181037, "internal_node_id": "0.0-4.0-70.0"}}, {"uniqueid": "w40294886:a90289757", "current_trial": 75, "dateTime": 1664464216397, "trialdata": {"rt": 921, "stimulus": "<p id='stroop-text' class='stroop-blue'>FORK</p>", "response": "b", "stimulus-type": "unrelated", "word": "FORK", "color": "blue", "correct_response": "b", "trial_id": "stroop-trial-1-unrelated-24", "trial_type": "html-keyboard-response", "trial_index": 75, "time_elapsed": 182460, "internal_node_id": "0.0-4.0-71.0"}}, {"uniqueid": "w40294886:a90289757", "current_trial": 76, "dateTime": 1664464217620, "trialdata": {"rt": 722, "stimulus": "<p id='stroop-text' class='stroop-green'>STONE</p>", "response": "g", "stimulus-type": "unrelated", "word": "STONE", "color": "green", "correct_response": "g", "trial_id": "stroop-trial-1-unrelated-22", "trial_type": "html-keyboard-response", "trial_index": 76, "time_elapsed": 183683, "internal_node_id": "0.0-4.0-72.0"}}, {"uniqueid": "w40294886:a90289757", "current_trial": 77, "dateTime": 1664464219631, "trialdata": {"rt": 1510, "stimulus": "<p id='stroop-text' class='stroop-blue'>RED</p>", "response": "b", "stimulus-type": "incongruent", "word": "red", "color": "blue", "correct_response": "b", "trial_id": "stroop-trial-1-incongruent-7", "trial_type": "html-keyboard-response", "trial_index": 77, "time_elapsed": 185694, "internal_node_id": "0.0-4.0-73.0"}}, {"uniqueid": "w40294886:a90289757", "current_trial": 78, "dateTime": 1664464220674, "trialdata": {"rt": 542, "stimulus": "<p id='stroop-text' class='stroop-blue'>BLUE</p>", "response": "b", "stimulus-type": "congruent", "word": "blue", "color": "blue", "correct_response": "b", "trial_id": "stroop-trial-1-congruent-20", "trial_type": "html-keyboard-response", "trial_index": 78, "time_elapsed": 186737, "internal_node_id": "0.0-4.0-74.0"}}, {"uniqueid": "w40294886:a90289757", "current_trial": 79, "dateTime": 1664464222085, "trialdata": {"rt": 908, "stimulus": "<p id='stroop-text' class='stroop-yellow'>BRAIN</p>", "response": "y", "stimulus-type": "unrelated", "word": "BRAIN", "color": "yellow", "correct_response": "y", "trial_id": "stroop-trial-1-unrelated-12", "trial_type": "html-keyboard-response", "trial_index": 79, "time_elapsed": 188148, "internal_node_id": "0.0-4.0-75.0"}}, {"uniqueid": "w40294886:a90289757", "current_trial": 80, "dateTime": 1664464223320, "trialdata": {"rt": 733, "stimulus": "<p id='stroop-text' class='stroop-green'>GREEN</p>", "response": "g", "stimulus-type": "congruent", "word": "green", "color": "green", "correct_response": "g", "trial_id": "stroop-trial-1-congruent-26", "trial_type": "html-keyboard-response", "trial_index": 80, "time_elapsed": 189383, "internal_node_id": "0.0-4.0-76.0"}}, {"uniqueid": "w40294886:a90289757", "current_trial": 81, "dateTime": 1664464224895, "trialdata": {"rt": 1072, "stimulus": "<p id='stroop-text' class='stroop-blue'>RED</p>", "response": "b", "stimulus-type": "incongruent", "word": "red", "color": "blue", "correct_response": "b", "trial_id": "stroop-trial-1-incongruent-27", "trial_type": "html-keyboard-response", "trial_index": 81, "time_elapsed": 190958, "internal_node_id": "0.0-4.0-77.0"}}, {"uniqueid": "w40294886:a90289757", "current_trial": 82, "dateTime": 1664464226211, "trialdata": {"rt": 814, "stimulus": "<p id='stroop-text' class='stroop-green'>BOTTLE</p>", "response": "g", "stimulus-type": "unrelated", "word": "BOTTLE", "color": "green", "correct_response": "g", "trial_id": "stroop-trial-1-unrelated-7", "trial_type": "html-keyboard-response", "trial_index": 82, "time_elapsed": 192274, "internal_node_id": "0.0-4.0-78.0"}}, {"uniqueid": "w40294886:a90289757", "current_trial": 83, "dateTime": 1664464227229, "trialdata": {"rt": 515, "stimulus": "<p id='stroop-text' class='stroop-green'>BLUE</p>", "response": "g", "stimulus-type": "incongruent", "word": "blue", "color": "green", "correct_response": "g", "trial_id": "stroop-trial-1-incongruent-10", "trial_type": "html-keyboard-response", "trial_index": 83, "time_elapsed": 193292, "internal_node_id": "0.0-4.0-79.0"}}, {"uniqueid": "w40294886:a90289757", "current_trial": 84, "dateTime": 1664464228197, "trialdata": {"rt": 467, "stimulus": "<p id='stroop-text' class='stroop-green'>YELLOW</p>", "response": "g", "stimulus-type": "incongruent", "word": "yellow", "color": "green", "correct_response": "g", "trial_id": "stroop-trial-1-incongruent-5", "trial_type": "html-keyboard-response", "trial_index": 84, "time_elapsed": 194260, "internal_node_id": "0.0-4.0-80.0"}}, {"uniqueid": "w40294886:a90289757", "current_trial": 85, "dateTime": 1664464229680, "trialdata": {"rt": 981, "stimulus": "<p id='stroop-text' class='stroop-yellow'>BLUE</p>", "response": "y", "stimulus-type": "incongruent", "word": "blue", "color": "yellow", "correct_response": "y", "trial_id": "stroop-trial-1-incongruent-25", "trial_type": "html-keyboard-response", "trial_index": 85, "time_elapsed": 195743, "internal_node_id": "0.0-4.0-81.0"}}, {"uniqueid": "w40294886:a90289757", "current_trial": 86, "dateTime": 1664464231223, "trialdata": {"rt": 1040, "stimulus": "<p id='stroop-text' class='stroop-yellow'>RED</p>", "response": "y", "stimulus-type": "incongruent", "word": "red", "color": "yellow", "correct_response": "y", "trial_id": "stroop-trial-1-incongruent-18", "trial_type": "html-keyboard-response", "trial_index": 86, "time_elapsed": 197286, "internal_node_id": "0.0-4.0-82.0"}}, {"uniqueid": "w40294886:a90289757", "current_trial": 87, "dateTime": 1664464232596, "trialdata": {"rt": 872, "stimulus": "<p id='stroop-text' class='stroop-green'>GREEN</p>", "response": "g", "stimulus-type": "congruent", "word": "green", "color": "green", "correct_response": "g", "trial_id": "stroop-trial-1-congruent-22", "trial_type": "html-keyboard-response", "trial_index": 87, "time_elapsed": 198659, "internal_node_id": "0.0-4.0-83.0"}}, {"uniqueid": "w40294886:a90289757", "current_trial": 88, "dateTime": 1664464233870, "trialdata": {"rt": 772, "stimulus": "<p id='stroop-text' class='stroop-blue'>BLUE</p>", "response": "b", "stimulus-type": "congruent", "word": "blue", "color": "blue", "correct_response": "b", "trial_id": "stroop-trial-1-congruent-14", "trial_type": "html-keyboard-response", "trial_index": 88, "time_elapsed": 199933, "internal_node_id": "0.0-4.0-84.0"}}, {"uniqueid": "w40294886:a90289757", "current_trial": 89, "dateTime": 1664464235067, "trialdata": {"rt": 693, "stimulus": "<p id='stroop-text' class='stroop-red'>RED</p>", "response": "r", "stimulus-type": "congruent", "word": "red", "color": "red", "correct_response": "r", "trial_id": "stroop-trial-1-congruent-13", "trial_type": "html-keyboard-response", "trial_index": 89, "time_elapsed": 201129, "internal_node_id": "0.0-4.0-85.0"}}, {"uniqueid": "w40294886:a90289757", "current_trial": 90, "dateTime": 1664464236471, "trialdata": {"rt": 902, "stimulus": "<p id='stroop-text' class='stroop-yellow'>DOG</p>", "response": "y", "stimulus-type": "unrelated", "word": "DOG", "color": "yellow", "correct_response": "y", "trial_id": "stroop-trial-1-unrelated-2", "trial_type": "html-keyboard-response", "trial_index": 90, "time_elapsed": 202534, "internal_node_id": "0.0-4.0-86.0"}}, {"uniqueid": "w40294886:a90289757", "current_trial": 91, "dateTime": 1664464237957, "trialdata": {"rt": 983, "stimulus": "<p id='stroop-text' class='stroop-blue'>YELLOW</p>", "response": "b", "stimulus-type": "incongruent", "word": "yellow", "color": "blue", "correct_response": "b", "trial_id": "stroop-trial-1-incongruent-21", "trial_type": "html-keyboard-response", "trial_index": 91, "time_elapsed": 204019, "internal_node_id": "0.0-4.0-87.0"}}, {"uniqueid": "w40294886:a90289757", "current_trial": 92, "dateTime": 1664464239130, "trialdata": {"rt": 672, "stimulus": "<p id='stroop-text' class='stroop-red'>BLUE</p>", "response": "r", "stimulus-type": "incongruent", "word": "blue", "color": "red", "correct_response": "r", "trial_id": "stroop-trial-1-incongruent-14", "trial_type": "html-keyboard-response", "trial_index": 92, "time_elapsed": 205193, "internal_node_id": "0.0-4.0-88.0"}}, {"uniqueid": "w40294886:a90289757", "current_trial": 93, "dateTime": 1664464240630, "trialdata": {"rt": 998, "stimulus": "<p id='stroop-text' class='stroop-blue'>YELLOW</p>", "response": "b", "stimulus-type": "incongruent", "word": "yellow", "color": "blue", "correct_response": "b", "trial_id": "stroop-trial-1-incongruent-24", "trial_type": "html-keyboard-response", "trial_index": 93, "time_elapsed": 206693, "internal_node_id": "0.0-4.0-89.0"}}, {"uniqueid": "w40294886:a90289757", "current_trial": 94, "dateTime": 1664464246168, "trialdata": {"rt": 5034, "stimulus": "  <h1> End of block! </h1>\n\n  You have reached the end of the block 1/5. If you need a short break, feel free to take one now before moving on.\n\n  <br><br>\n  In the next block, you will complete another 90 rounds of this game.\n\n  <br><br>\n  <div style='text-align: center;'>Press <code>space</code> to begin.</div>\n  <br><br>\n<div style='text-align: center;'>(If the experiment doesn't continue, try clicking on the text and then pressing <code>space</code>.)</div>", "response": " ", "trial_id": "stroop_1_ready_2", "trial_type": "html-keyboard-response", "trial_index": 94, "time_elapsed": 212231, "internal_node_id": "0.0-5.0"}}, {"uniqueid": "w40294886:a90289757", "current_trial": 95, "dateTime": 1664464247147, "trialdata": {"rt": 977, "stimulus": "<p id='stroop-text' class='stroop-green'>RED</p>", "response": "g", "stimulus-type": "incongruent", "word": "red", "color": "green", "correct_response": "g", "trial_id": "stroop-trial-1-incongruent-5", "trial_type": "html-keyboard-response", "trial_index": 95, "time_elapsed": 213210, "internal_node_id": "0.0-6.0-0.0"}}, {"uniqueid": "w40294886:a90289757", "current_trial": 96, "dateTime": 1664464248143, "trialdata": {"rt": 494, "stimulus": "<p id='stroop-text' class='stroop-blue'>BOAT</p>", "response": "b", "stimulus-type": "unrelated", "word": "BOAT", "color": "blue", "correct_response": "b", "trial_id": "stroop-trial-1-unrelated-8", "trial_type": "html-keyboard-response", "trial_index": 96, "time_elapsed": 214206, "internal_node_id": "0.0-6.0-1.0"}}, {"uniqueid": "w40294886:a90289757", "current_trial": 97, "dateTime": 1664464249335, "trialdata": {"rt": 691, "stimulus": "<p id='stroop-text' class='stroop-yellow'>BLUE</p>", "response": "y", "stimulus-type": "incongruent", "word": "blue", "color": "yellow", "correct_response": "y", "trial_id": "stroop-trial-1-incongruent-9", "trial_type": "html-keyboard-response", "trial_index": 97, "time_elapsed": 215398, "internal_node_id": "0.0-6.0-2.0"}}, {"uniqueid": "w40294886:a90289757", "current_trial": 98, "dateTime": 1664464250576, "trialdata": {"rt": 738, "stimulus": "<p id='stroop-text' class='stroop-green'>YELLOW</p>", "response": "g", "stimulus-type": "incongruent", "word": "yellow", "color": "green", "correct_response": "g", "trial_id": "stroop-trial-1-incongruent-11", "trial_type": "html-keyboard-response", "trial_index": 98, "time_elapsed": 216639, "internal_node_id": "0.0-6.0-3.0"}}, {"uniqueid": "w40294886:a90289757", "current_trial": 99, "dateTime": 1664464252490, "trialdata": {"rt": 1412, "stimulus": "<p id='stroop-text' class='stroop-yellow'>GREEN</p>", "response": "y", "stimulus-type": "incongruent", "word": "green", "color": "yellow", "correct_response": "y", "trial_id": "stroop-trial-1-incongruent-21", "trial_type": "html-keyboard-response", "trial_index": 99, "time_elapsed": 218553, "internal_node_id": "0.0-6.0-4.0"}}, {"uniqueid": "w40294886:a90289757", "current_trial": 100, "dateTime": 1664464253500, "trialdata": {"rt": 508, "stimulus": "<p id='stroop-text' class='stroop-red'>RED</p>", "response": "r", "stimulus-type": "congruent", "word": "red", "color": "red", "correct_response": "r", "trial_id": "stroop-trial-1-congruent-25", "trial_type": "html-keyboard-response", "trial_index": 100, "time_elapsed": 219563, "internal_node_id": "0.0-6.0-5.0"}}, {"uniqueid": "w40294886:a90289757", "current_trial": 101, "dateTime": 1664464254648, "trialdata": {"rt": 646, "stimulus": "<p id='stroop-text' class='stroop-green'>RED</p>", "response": "g", "stimulus-type": "incongruent", "word": "red", "color": "green", "correct_response": "g", "trial_id": "stroop-trial-1-incongruent-3", "trial_type": "html-keyboard-response", "trial_index": 101, "time_elapsed": 220711, "internal_node_id": "0.0-6.0-6.0"}}, {"uniqueid": "w40294886:a90289757", "current_trial": 102, "dateTime": 1664464255987, "trialdata": {"rt": 835, "stimulus": "<p id='stroop-text' class='stroop-red'>YELLOW</p>", "response": "r", "stimulus-type": "incongruent", "word": "yellow", "color": "red", "correct_response": "r", "trial_id": "stroop-trial-1-incongruent-18", "trial_type": "html-keyboard-response", "trial_index": 102, "time_elapsed": 222049, "internal_node_id": "0.0-6.0-7.0"}}, {"uniqueid": "w40294886:a90289757", "current_trial": 103, "dateTime": 1664464257806, "trialdata": {"rt": 1316, "stimulus": "<p id='stroop-text' class='stroop-green'>BLUE</p>", "response": "g", "stimulus-type": "incongruent", "word": "blue", "color": "green", "correct_response": "g", "trial_id": "stroop-trial-1-incongruent-20", "trial_type": "html-keyboard-response", "trial_index": 103, "time_elapsed": 223869, "internal_node_id": "0.0-6.0-8.0"}}, {"uniqueid": "w40294886:a90289757", "current_trial": 104, "dateTime": 1664464259375, "trialdata": {"rt": 1065, "stimulus": "<p id='stroop-text' class='stroop-yellow'>YELLOW</p>", "response": "y", "stimulus-type": "congruent", "word": "yellow", "color": "yellow", "correct_response": "y", "trial_id": "stroop-trial-1-congruent-6", "trial_type": "html-keyboard-response", "trial_index": 104, "time_elapsed": 225438, "internal_node_id": "0.0-6.0-9.0"}}, {"uniqueid": "w40294886:a90289757", "current_trial": 105, "dateTime": 1664464260637, "trialdata": {"rt": 759, "stimulus": "<p id='stroop-text' class='stroop-green'>CHAIR</p>", "response": "g", "stimulus-type": "unrelated", "word": "CHAIR", "color": "green", "correct_response": "g", "trial_id": "stroop-trial-1-unrelated-7", "trial_type": "html-keyboard-response", "trial_index": 105, "time_elapsed": 226700, "internal_node_id": "0.0-6.0-10.0"}}, {"uniqueid": "w40294886:a90289757", "current_trial": 106, "dateTime": 1664464262136, "trialdata": {"rt": 996, "stimulus": "<p id='stroop-text' class='stroop-red'>RED</p>", "response": "r", "stimulus-type": "congruent", "word": "red", "color": "red", "correct_response": "r", "trial_id": "stroop-trial-1-congruent-27", "trial_type": "html-keyboard-response", "trial_index": 106, "time_elapsed": 228199, "internal_node_id": "0.0-6.0-11.0"}}, {"uniqueid": "w40294886:a90289757", "current_trial": 107, "dateTime": 1664464263135, "trialdata": {"rt": 495, "stimulus": "<p id='stroop-text' class='stroop-red'>RED</p>", "response": "r", "stimulus-type": "congruent", "word": "red", "color": "red", "correct_response": "r", "trial_id": "stroop-trial-1-congruent-28", "trial_type": "html-keyboard-response", "trial_index": 107, "time_elapsed": 229198, "internal_node_id": "0.0-6.0-12.0"}}, {"uniqueid": "w40294886:a90289757", "current_trial": 108, "dateTime": 1664464264403, "trialdata": {"rt": 765, "stimulus": "<p id='stroop-text' class='stroop-yellow'>GREEN</p>", "response": "y", "stimulus-type": "incongruent", "word": "green", "color": "yellow", "correct_response": "y", "trial_id": "stroop-trial-1-incongruent-30", "trial_type": "html-keyboard-response", "trial_index": 108, "time_elapsed": 230466, "internal_node_id": "0.0-6.0-13.0"}}, {"uniqueid": "w40294886:a90289757", "current_trial": 109, "dateTime": 1664464265638, "trialdata": {"rt": 732, "stimulus": "<p id='stroop-text' class='stroop-green'>GREEN</p>", "response": "g", "stimulus-type": "congruent", "word": "green", "color": "green", "correct_response": "g", "trial_id": "stroop-trial-1-congruent-5", "trial_type": "html-keyboard-response", "trial_index": 109, "time_elapsed": 231701, "internal_node_id": "0.0-6.0-14.0"}}, {"uniqueid": "w40294886:a90289757", "current_trial": 110, "dateTime": 1664464266654, "trialdata": {"rt": 514, "stimulus": "<p id='stroop-text' class='stroop-green'>BRAIN</p>", "response": "g", "stimulus-type": "unrelated", "word": "BRAIN", "color": "green", "correct_response": "g", "trial_id": "stroop-trial-1-unrelated-11", "trial_type": "html-keyboard-response", "trial_index": 110, "time_elapsed": 232717, "internal_node_id": "0.0-6.0-15.0"}}, {"uniqueid": "w40294886:a90289757", "current_trial": 111, "dateTime": 1664464267661, "trialdata": {"rt": 504, "stimulus": "<p id='stroop-text' class='stroop-blue'>BLUE</p>", "response": "b", "stimulus-type": "congruent", "word": "blue", "color": "blue", "correct_response": "b", "trial_id": "stroop-trial-1-congruent-24", "trial_type": "html-keyboard-response", "trial_index": 111, "time_elapsed": 233724, "internal_node_id": "0.0-6.0-16.0"}}, {"uniqueid": "w40294886:a90289757", "current_trial": 112, "dateTime": 1664464268813, "trialdata": {"rt": 650, "stimulus": "<p id='stroop-text' class='stroop-green'>MONKEY</p>", "response": "g", "stimulus-type": "unrelated", "word": "MONKEY", "color": "green", "correct_response": "g", "trial_id": "stroop-trial-1-unrelated-26", "trial_type": "html-keyboard-response", "trial_index": 112, "time_elapsed": 234876, "internal_node_id": "0.0-6.0-17.0"}}, {"uniqueid": "w40294886:a90289757", "current_trial": 113, "dateTime": 1664464269768, "trialdata": {"rt": 453, "stimulus": "<p id='stroop-text' class='stroop-green'>GREEN</p>", "response": "g", "stimulus-type": "congruent", "word": "green", "color": "green", "correct_response": "g", "trial_id": "stroop-trial-1-congruent-20", "trial_type": "html-keyboard-response", "trial_index": 113, "time_elapsed": 235831, "internal_node_id": "0.0-6.0-18.0"}}, {"uniqueid": "w40294886:a90289757", "current_trial": 114, "dateTime": 1664464270662, "trialdata": {"rt": 392, "stimulus": "<p id='stroop-text' class='stroop-green'>BRAIN</p>", "response": "g", "stimulus-type": "unrelated", "word": "BRAIN", "color": "green", "correct_response": "g", "trial_id": "stroop-trial-1-unrelated-1", "trial_type": "html-keyboard-response", "trial_index": 114, "time_elapsed": 236725, "internal_node_id": "0.0-6.0-19.0"}}, {"uniqueid": "w40294886:a90289757", "current_trial": 115, "dateTime": 1664464271983, "trialdata": {"rt": 819, "stimulus": "<p id='stroop-text' class='stroop-blue'>RED</p>", "response": "b", "stimulus-type": "incongruent", "word": "red", "color": "blue", "correct_response": "b", "trial_id": "stroop-trial-1-incongruent-12", "trial_type": "html-keyboard-response", "trial_index": 115, "time_elapsed": 238046, "internal_node_id": "0.0-6.0-20.0"}}, {"uniqueid": "w40294886:a90289757", "current_trial": 116, "dateTime": 1664464273011, "trialdata": {"rt": 526, "stimulus": "<p id='stroop-text' class='stroop-red'>YELLOW</p>", "response": "r", "stimulus-type": "incongruent", "word": "yellow", "color": "red", "correct_response": "r", "trial_id": "stroop-trial-1-incongruent-27", "trial_type": "html-keyboard-response", "trial_index": 116, "time_elapsed": 239074, "internal_node_id": "0.0-6.0-21.0"}}, {"uniqueid": "w40294886:a90289757", "current_trial": 117, "dateTime": 1664464274123, "trialdata": {"rt": 603, "stimulus": "<p id='stroop-text' class='stroop-blue'>BLUE</p>", "response": "b", "stimulus-type": "congruent", "word": "blue", "color": "blue", "correct_response": "b", "trial_id": "stroop-trial-1-congruent-16", "trial_type": "html-keyboard-response", "trial_index": 117, "time_elapsed": 240186, "internal_node_id": "0.0-6.0-22.0"}}, {"uniqueid": "w40294886:a90289757", "current_trial": 118, "dateTime": 1664464275105, "trialdata": {"rt": 480, "stimulus": "<p id='stroop-text' class='stroop-blue'>STONE</p>", "response": "b", "stimulus-type": "unrelated", "word": "STONE", "color": "blue", "correct_response": "b", "trial_id": "stroop-trial-1-unrelated-25", "trial_type": "html-keyboard-response", "trial_index": 118, "time_elapsed": 241168, "internal_node_id": "0.0-6.0-23.0"}}, {"uniqueid": "w40294886:a90289757", "current_trial": 119, "dateTime": 1664464276034, "trialdata": {"rt": 428, "stimulus": "<p id='stroop-text' class='stroop-blue'>RED</p>", "response": "b", "stimulus-type": "incongruent", "word": "red", "color": "blue", "correct_response": "b", "trial_id": "stroop-trial-1-incongruent-16", "trial_type": "html-keyboard-response", "trial_index": 119, "time_elapsed": 242097, "internal_node_id": "0.0-6.0-24.0"}}, {"uniqueid": "w40294886:a90289757", "current_trial": 120, "dateTime": 1664464277117, "trialdata": {"rt": 581, "stimulus": "<p id='stroop-text' class='stroop-yellow'>FORK</p>", "response": "y", "stimulus-type": "unrelated", "word": "FORK", "color": "yellow", "correct_response": "y", "trial_id": "stroop-trial-1-unrelated-30", "trial_type": "html-keyboard-response", "trial_index": 120, "time_elapsed": 243180, "internal_node_id": "0.0-6.0-25.0"}}, {"uniqueid": "w40294886:a90289757", "current_trial": 121, "dateTime": 1664464278203, "trialdata": {"rt": 584, "stimulus": "<p id='stroop-text' class='stroop-blue'>RED</p>", "response": "b", "stimulus-type": "incongruent", "word": "red", "color": "blue", "correct_response": "b", "trial_id": "stroop-trial-1-incongruent-1", "trial_type": "html-keyboard-response", "trial_index": 121, "time_elapsed": 244266, "internal_node_id": "0.0-6.0-26.0"}}, {"uniqueid": "w40294886:a90289757", "current_trial": 122, "dateTime": 1664464279251, "trialdata": {"rt": 546, "stimulus": "<p id='stroop-text' class='stroop-red'>RED</p>", "response": "r", "stimulus-type": "congruent", "word": "red", "color": "red", "correct_response": "r", "trial_id": "stroop-trial-1-congruent-21", "trial_type": "html-keyboard-response", "trial_index": 122, "time_elapsed": 245314, "internal_node_id": "0.0-6.0-27.0"}}, {"uniqueid": "w40294886:a90289757", "current_trial": 123, "dateTime": 1664464280487, "trialdata": {"rt": 733, "stimulus": "<p id='stroop-text' class='stroop-yellow'>SHIP</p>", "response": "y", "stimulus-type": "unrelated", "word": "SHIP", "color": "yellow", "correct_response": "y", "trial_id": "stroop-trial-1-unrelated-3", "trial_type": "html-keyboard-response", "trial_index": 123, "time_elapsed": 246550, "internal_node_id": "0.0-6.0-28.0"}}, {"uniqueid": "w40294886:a90289757", "current_trial": 124, "dateTime": 1664464281555, "trialdata": {"rt": 566, "stimulus": "<p id='stroop-text' class='stroop-blue'>BLUE</p>", "response": "b", "stimulus-type": "congruent", "word": "blue", "color": "blue", "correct_response": "b", "trial_id": "stroop-trial-1-congruent-8", "trial_type": "html-keyboard-response", "trial_index": 124, "time_elapsed": 247618, "internal_node_id": "0.0-6.0-29.0"}}, {"uniqueid": "w40294886:a90289757", "current_trial": 125, "dateTime": 1664464282475, "trialdata": {"rt": 419, "stimulus": "<p id='stroop-text' class='stroop-blue'>BLUE</p>", "response": "b", "stimulus-type": "congruent", "word": "blue", "color": "blue", "correct_response": "b", "trial_id": "stroop-trial-1-congruent-10", "trial_type": "html-keyboard-response", "trial_index": 125, "time_elapsed": 248538, "internal_node_id": "0.0-6.0-30.0"}}, {"uniqueid": "w40294886:a90289757", "current_trial": 126, "dateTime": 1664464283541, "trialdata": {"rt": 564, "stimulus": "<p id='stroop-text' class='stroop-red'>RED</p>", "response": "r", "stimulus-type": "congruent", "word": "red", "color": "red", "correct_response": "r", "trial_id": "stroop-trial-1-congruent-14", "trial_type": "html-keyboard-response", "trial_index": 126, "time_elapsed": 249604, "internal_node_id": "0.0-6.0-31.0"}}, {"uniqueid": "w40294886:a90289757", "current_trial": 127, "dateTime": 1664464284564, "trialdata": {"rt": 521, "stimulus": "<p id='stroop-text' class='stroop-red'>WINDOW</p>", "response": "r", "stimulus-type": "unrelated", "word": "WINDOW", "color": "red", "correct_response": "r", "trial_id": "stroop-trial-1-unrelated-24", "trial_type": "html-keyboard-response", "trial_index": 127, "time_elapsed": 250627, "internal_node_id": "0.0-6.0-32.0"}}, {"uniqueid": "w40294886:a90289757", "current_trial": 128, "dateTime": 1664464285474, "trialdata": {"rt": 408, "stimulus": "<p id='stroop-text' class='stroop-red'>RED</p>", "response": "r", "stimulus-type": "congruent", "word": "red", "color": "red", "correct_response": "r", "trial_id": "stroop-trial-1-congruent-29", "trial_type": "html-keyboard-response", "trial_index": 128, "time_elapsed": 251537, "internal_node_id": "0.0-6.0-33.0"}}, {"uniqueid": "w40294886:a90289757", "current_trial": 129, "dateTime": 1664464286373, "trialdata": {"rt": 397, "stimulus": "<p id='stroop-text' class='stroop-red'>BOTTLE</p>", "response": "r", "stimulus-type": "unrelated", "word": "BOTTLE", "color": "red", "correct_response": "r", "trial_id": "stroop-trial-1-unrelated-16", "trial_type": "html-keyboard-response", "trial_index": 129, "time_elapsed": 252436, "internal_node_id": "0.0-6.0-34.0"}}, {"uniqueid": "w40294886:a90289757", "current_trial": 130, "dateTime": 1664464287444, "trialdata": {"rt": 569, "stimulus": "<p id='stroop-text' class='stroop-green'>GREEN</p>", "response": "g", "stimulus-type": "congruent", "word": "green", "color": "green", "correct_response": "g", "trial_id": "stroop-trial-1-congruent-30", "trial_type": "html-keyboard-response", "trial_index": 130, "time_elapsed": 253506, "internal_node_id": "0.0-6.0-35.0"}}, {"uniqueid": "w40294886:a90289757", "current_trial": 131, "dateTime": 1664464288795, "trialdata": {"rt": 848, "stimulus": "<p id='stroop-text' class='stroop-yellow'>BLUE</p>", "response": "y", "stimulus-type": "incongruent", "word": "blue", "color": "yellow", "correct_response": "y", "trial_id": "stroop-trial-1-incongruent-4", "trial_type": "html-keyboard-response", "trial_index": 131, "time_elapsed": 254858, "internal_node_id": "0.0-6.0-36.0"}}, {"uniqueid": "w40294886:a90289757", "current_trial": 132, "dateTime": 1664464289870, "trialdata": {"rt": 572, "stimulus": "<p id='stroop-text' class='stroop-red'>BRAIN</p>", "response": "r", "stimulus-type": "unrelated", "word": "BRAIN", "color": "red", "correct_response": "r", "trial_id": "stroop-trial-1-unrelated-5", "trial_type": "html-keyboard-response", "trial_index": 132, "time_elapsed": 255933, "internal_node_id": "0.0-6.0-37.0"}}, {"uniqueid": "w40294886:a90289757", "current_trial": 133, "dateTime": 1664464290806, "trialdata": {"rt": 433, "stimulus": "<p id='stroop-text' class='stroop-red'>RED</p>", "response": "r", "stimulus-type": "congruent", "word": "red", "color": "red", "correct_response": "r", "trial_id": "stroop-trial-1-congruent-3", "trial_type": "html-keyboard-response", "trial_index": 133, "time_elapsed": 256868, "internal_node_id": "0.0-6.0-38.0"}}, {"uniqueid": "w40294886:a90289757", "current_trial": 134, "dateTime": 1664464291907, "trialdata": {"rt": 599, "stimulus": "<p id='stroop-text' class='stroop-green'>GREEN</p>", "response": "g", "stimulus-type": "congruent", "word": "green", "color": "green", "correct_response": "g", "trial_id": "stroop-trial-1-congruent-1", "trial_type": "html-keyboard-response", "trial_index": 134, "time_elapsed": 257970, "internal_node_id": "0.0-6.0-39.0"}}, {"uniqueid": "w40294886:a90289757", "current_trial": 135, "dateTime": 1664464293111, "trialdata": {"rt": 702, "stimulus": "<p id='stroop-text' class='stroop-blue'>RED</p>", "response": "b", "stimulus-type": "incongruent", "word": "red", "color": "blue", "correct_response": "b", "trial_id": "stroop-trial-1-incongruent-25", "trial_type": "html-keyboard-response", "trial_index": 135, "time_elapsed": 259174, "internal_node_id": "0.0-6.0-40.0"}}, {"uniqueid": "w40294886:a90289757", "current_trial": 136, "dateTime": 1664464294188, "trialdata": {"rt": 575, "stimulus": "<p id='stroop-text' class='stroop-green'>CHAIR</p>", "response": "g", "stimulus-type": "unrelated", "word": "CHAIR", "color": "green", "correct_response": "g", "trial_id": "stroop-trial-1-unrelated-23", "trial_type": "html-keyboard-response", "trial_index": 136, "time_elapsed": 260251, "internal_node_id": "0.0-6.0-41.0"}}, {"uniqueid": "w40294886:a90289757", "current_trial": 137, "dateTime": 1664464295297, "trialdata": {"rt": 608, "stimulus": "<p id='stroop-text' class='stroop-red'>DOG</p>", "response": "r", "stimulus-type": "unrelated", "word": "DOG", "color": "red", "correct_response": "r", "trial_id": "stroop-trial-1-unrelated-10", "trial_type": "html-keyboard-response", "trial_index": 137, "time_elapsed": 261360, "internal_node_id": "0.0-6.0-42.0"}}, {"uniqueid": "w40294886:a90289757", "current_trial": 138, "dateTime": 1664464296228, "trialdata": {"rt": 429, "stimulus": "<p id='stroop-text' class='stroop-red'>STONE</p>", "response": "r", "stimulus-type": "unrelated", "word": "STONE", "color": "red", "correct_response": "r", "trial_id": "stroop-trial-1-unrelated-17", "trial_type": "html-keyboard-response", "trial_index": 138, "time_elapsed": 262291, "internal_node_id": "0.0-6.0-43.0"}}, {"uniqueid": "w40294886:a90289757", "current_trial": 139, "dateTime": 1664464297481, "trialdata": {"rt": 750, "stimulus": "<p id='stroop-text' class='stroop-yellow'>BRIDGE</p>", "response": "y", "stimulus-type": "unrelated", "word": "BRIDGE", "color": "yellow", "correct_response": "y", "trial_id": "stroop-trial-1-unrelated-20", "trial_type": "html-keyboard-response", "trial_index": 139, "time_elapsed": 263544, "internal_node_id": "0.0-6.0-44.0"}}, {"uniqueid": "w40294886:a90289757", "current_trial": 140, "dateTime": 1664464298832, "trialdata": {"rt": 849, "stimulus": "<p id='stroop-text' class='stroop-red'>BLUE</p>", "response": "r", "stimulus-type": "incongruent", "word": "blue", "color": "red", "correct_response": "r", "trial_id": "stroop-trial-1-incongruent-13", "trial_type": "html-keyboard-response", "trial_index": 140, "time_elapsed": 264895, "internal_node_id": "0.0-6.0-45.0"}}, {"uniqueid": "w40294886:a90289757", "current_trial": 141, "dateTime": 1664464300294, "trialdata": {"rt": 959, "stimulus": "<p id='stroop-text' class='stroop-blue'>BLUE</p>", "response": "b", "stimulus-type": "congruent", "word": "blue", "color": "blue", "correct_response": "b", "trial_id": "stroop-trial-1-congruent-4", "trial_type": "html-keyboard-response", "trial_index": 141, "time_elapsed": 266357, "internal_node_id": "0.0-6.0-46.0"}}, {"uniqueid": "w40294886:a90289757", "current_trial": 142, "dateTime": 1664464301363, "trialdata": {"rt": 567, "stimulus": "<p id='stroop-text' class='stroop-red'>RED</p>", "response": "r", "stimulus-type": "congruent", "word": "red", "color": "red", "correct_response": "r", "trial_id": "stroop-trial-1-congruent-17", "trial_type": "html-keyboard-response", "trial_index": 142, "time_elapsed": 267426, "internal_node_id": "0.0-6.0-47.0"}}, {"uniqueid": "w40294886:a90289757", "current_trial": 143, "dateTime": 1664464302290, "trialdata": {"rt": 424, "stimulus": "<p id='stroop-text' class='stroop-blue'>BRIDGE</p>", "response": "b", "stimulus-type": "unrelated", "word": "BRIDGE", "color": "blue", "correct_response": "b", "trial_id": "stroop-trial-1-unrelated-28", "trial_type": "html-keyboard-response", "trial_index": 143, "time_elapsed": 268353, "internal_node_id": "0.0-6.0-48.0"}}, {"uniqueid": "w40294886:a90289757", "current_trial": 144, "dateTime": 1664464303444, "trialdata": {"rt": 653, "stimulus": "<p id='stroop-text' class='stroop-yellow'>YELLOW</p>", "response": "y", "stimulus-type": "congruent", "word": "yellow", "color": "yellow", "correct_response": "y", "trial_id": "stroop-trial-1-congruent-18", "trial_type": "html-keyboard-response", "trial_index": 144, "time_elapsed": 269507, "internal_node_id": "0.0-6.0-49.0"}}, {"uniqueid": "w40294886:a90289757", "current_trial": 145, "dateTime": 1664464304632, "trialdata": {"rt": 684, "stimulus": "<p id='stroop-text' class='stroop-blue'>CHAIR</p>", "response": "b", "stimulus-type": "unrelated", "word": "CHAIR", "color": "blue", "correct_response": "b", "trial_id": "stroop-trial-1-unrelated-14", "trial_type": "html-keyboard-response", "trial_index": 145, "time_elapsed": 270695, "internal_node_id": "0.0-6.0-50.0"}}, {"uniqueid": "w40294886:a90289757", "current_trial": 146, "dateTime": 1664464305949, "trialdata": {"rt": 815, "stimulus": "<p id='stroop-text' class='stroop-blue'>BLUE</p>", "response": "b", "stimulus-type": "congruent", "word": "blue", "color": "blue", "correct_response": "b", "trial_id": "stroop-trial-1-congruent-13", "trial_type": "html-keyboard-response", "trial_index": 146, "time_elapsed": 272012, "internal_node_id": "0.0-6.0-51.0"}}, {"uniqueid": "w40294886:a90289757", "current_trial": 147, "dateTime": 1664464307209, "trialdata": {"rt": 758, "stimulus": "<p id='stroop-text' class='stroop-blue'>YELLOW</p>", "response": "b", "stimulus-type": "incongruent", "word": "yellow", "color": "blue", "correct_response": "b", "trial_id": "stroop-trial-1-incongruent-10", "trial_type": "html-keyboard-response", "trial_index": 147, "time_elapsed": 273272, "internal_node_id": "0.0-6.0-52.0"}}, {"uniqueid": "w40294886:a90289757", "current_trial": 148, "dateTime": 1664464308467, "trialdata": {"rt": 743, "stimulus": "<p id='stroop-text' class='stroop-yellow'>WINDOW</p>", "response": "y", "stimulus-type": "unrelated", "word": "WINDOW", "color": "yellow", "correct_response": "y", "trial_id": "stroop-trial-1-unrelated-27", "trial_type": "html-keyboard-response", "trial_index": 148, "time_elapsed": 274530, "internal_node_id": "0.0-6.0-53.0"}}, {"uniqueid": "w40294886:a90289757", "current_trial": 149, "dateTime": 1664464309520, "trialdata": {"rt": 550, "stimulus": "<p id='stroop-text' class='stroop-green'>BRIDGE</p>", "response": "g", "stimulus-type": "unrelated", "word": "BRIDGE", "color": "green", "correct_response": "g", "trial_id": "stroop-trial-1-unrelated-21", "trial_type": "html-keyboard-response", "trial_index": 149, "time_elapsed": 275582, "internal_node_id": "0.0-6.0-54.0"}}, {"uniqueid": "w40294886:a90289757", "current_trial": 150, "dateTime": 1664464310436, "trialdata": {"rt": 406, "stimulus": "<p id='stroop-text' class='stroop-green'>GREEN</p>", "response": "g", "stimulus-type": "congruent", "word": "green", "color": "green", "correct_response": "g", "trial_id": "stroop-trial-1-congruent-22", "trial_type": "html-keyboard-response", "trial_index": 150, "time_elapsed": 276499, "internal_node_id": "0.0-6.0-55.0"}}, {"uniqueid": "w40294886:a90289757", "current_trial": 151, "dateTime": 1664464311754, "trialdata": {"rt": 816, "stimulus": "<p id='stroop-text' class='stroop-yellow'>GREEN</p>", "response": "y", "stimulus-type": "incongruent", "word": "green", "color": "yellow", "correct_response": "y", "trial_id": "stroop-trial-1-incongruent-22", "trial_type": "html-keyboard-response", "trial_index": 151, "time_elapsed": 277817, "internal_node_id": "0.0-6.0-56.0"}}, {"uniqueid": "w40294886:a90289757", "current_trial": 152, "dateTime": 1664464312906, "trialdata": {"rt": 650, "stimulus": "<p id='stroop-text' class='stroop-green'>GREEN</p>", "response": "g", "stimulus-type": "congruent", "word": "green", "color": "green", "correct_response": "g", "trial_id": "stroop-trial-1-congruent-11", "trial_type": "html-keyboard-response", "trial_index": 152, "time_elapsed": 278969, "internal_node_id": "0.0-6.0-57.0"}}, {"uniqueid": "w40294886:a90289757", "current_trial": 153, "dateTime": 1664464314367, "trialdata": {"rt": 957, "stimulus": "<p id='stroop-text' class='stroop-yellow'>BRAIN</p>", "response": "y", "stimulus-type": "unrelated", "word": "BRAIN", "color": "yellow", "correct_response": "y", "trial_id": "stroop-trial-1-unrelated-15", "trial_type": "html-keyboard-response", "trial_index": 153, "time_elapsed": 280430, "internal_node_id": "0.0-6.0-58.0"}}, {"uniqueid": "w40294886:a90289757", "current_trial": 154, "dateTime": 1664464315824, "trialdata": {"rt": 955, "stimulus": "<p id='stroop-text' class='stroop-green'>GREEN</p>", "response": "g", "stimulus-type": "congruent", "word": "green", "color": "green", "correct_response": "g", "trial_id": "stroop-trial-1-congruent-23", "trial_type": "html-keyboard-response", "trial_index": 154, "time_elapsed": 281887, "internal_node_id": "0.0-6.0-59.0"}}, {"uniqueid": "w40294886:a90289757", "current_trial": 155, "dateTime": 1664464316843, "trialdata": {"rt": 518, "stimulus": "<p id='stroop-text' class='stroop-green'>WINDOW</p>", "response": "g", "stimulus-type": "unrelated", "word": "WINDOW", "color": "green", "correct_response": "g", "trial_id": "stroop-trial-1-unrelated-18", "trial_type": "html-keyboard-response", "trial_index": 155, "time_elapsed": 282906, "internal_node_id": "0.0-6.0-60.0"}}, {"uniqueid": "w40294886:a90289757", "current_trial": 156, "dateTime": 1664464318017, "trialdata": {"rt": 671, "stimulus": "<p id='stroop-text' class='stroop-green'>YELLOW</p>", "response": "g", "stimulus-type": "incongruent", "word": "yellow", "color": "green", "correct_response": "g", "trial_id": "stroop-trial-1-incongruent-6", "trial_type": "html-keyboard-response", "trial_index": 156, "time_elapsed": 284080, "internal_node_id": "0.0-6.0-61.0"}}, {"uniqueid": "w40294886:a90289757", "current_trial": 157, "dateTime": 1664464318992, "trialdata": {"rt": 474, "stimulus": "<p id='stroop-text' class='stroop-green'>SHIP</p>", "response": "g", "stimulus-type": "unrelated", "word": "SHIP", "color": "green", "correct_response": "g", "trial_id": "stroop-trial-1-unrelated-4", "trial_type": "html-keyboard-response", "trial_index": 157, "time_elapsed": 285055, "internal_node_id": "0.0-6.0-62.0"}}, {"uniqueid": "w40294886:a90289757", "current_trial": 158, "dateTime": 1664464319916, "trialdata": {"rt": 422, "stimulus": "<p id='stroop-text' class='stroop-green'>GREEN</p>", "response": "g", "stimulus-type": "congruent", "word": "green", "color": "green", "correct_response": "g", "trial_id": "stroop-trial-1-congruent-15", "trial_type": "html-keyboard-response", "trial_index": 158, "time_elapsed": 285979, "internal_node_id": "0.0-6.0-63.0"}}, {"uniqueid": "w40294886:a90289757", "current_trial": 159, "dateTime": 1664464320915, "trialdata": {"rt": 497, "stimulus": "<p id='stroop-text' class='stroop-red'>YELLOW</p>", "response": "r", "stimulus-type": "incongruent", "word": "yellow", "color": "red", "correct_response": "r", "trial_id": "stroop-trial-1-incongruent-17", "trial_type": "html-keyboard-response", "trial_index": 159, "time_elapsed": 286978, "internal_node_id": "0.0-6.0-64.0"}}, {"uniqueid": "w40294886:a90289757", "current_trial": 160, "dateTime": 1664464322170, "trialdata": {"rt": 754, "stimulus": "<p id='stroop-text' class='stroop-yellow'>BLUE</p>", "response": "y", "stimulus-type": "incongruent", "word": "blue", "color": "yellow", "correct_response": "y", "trial_id": "stroop-trial-1-incongruent-26", "trial_type": "html-keyboard-response", "trial_index": 160, "time_elapsed": 288233, "internal_node_id": "0.0-6.0-65.0"}}, {"uniqueid": "w40294886:a90289757", "current_trial": 161, "dateTime": 1664464323293, "trialdata": {"rt": 621, "stimulus": "<p id='stroop-text' class='stroop-yellow'>DOG</p>", "response": "y", "stimulus-type": "unrelated", "word": "DOG", "color": "yellow", "correct_response": "y", "trial_id": "stroop-trial-1-unrelated-2", "trial_type": "html-keyboard-response", "trial_index": 161, "time_elapsed": 289356, "internal_node_id": "0.0-6.0-66.0"}}, {"uniqueid": "w40294886:a90289757", "current_trial": 162, "dateTime": 1664464324427, "trialdata": {"rt": 631, "stimulus": "<p id='stroop-text' class='stroop-red'>BLUE</p>", "response": "r", "stimulus-type": "incongruent", "word": "blue", "color": "red", "correct_response": "r", "trial_id": "stroop-trial-1-incongruent-29", "trial_type": "html-keyboard-response", "trial_index": 162, "time_elapsed": 290490, "internal_node_id": "0.0-6.0-67.0"}}, {"uniqueid": "w40294886:a90289757", "current_trial": 163, "dateTime": 1664464325665, "trialdata": {"rt": 736, "stimulus": "<p id='stroop-text' class='stroop-blue'>RED</p>", "response": "b", "stimulus-type": "incongruent", "word": "red", "color": "blue", "correct_response": "b", "trial_id": "stroop-trial-1-incongruent-8", "trial_type": "html-keyboard-response", "trial_index": 163, "time_elapsed": 291728, "internal_node_id": "0.0-6.0-68.0"}}, {"uniqueid": "w40294886:a90289757", "current_trial": 164, "dateTime": 1664464326884, "trialdata": {"rt": 717, "stimulus": "<p id='stroop-text' class='stroop-red'>GREEN</p>", "response": "r", "stimulus-type": "incongruent", "word": "green", "color": "red", "correct_response": "r", "trial_id": "stroop-trial-1-incongruent-23", "trial_type": "html-keyboard-response", "trial_index": 164, "time_elapsed": 292947, "internal_node_id": "0.0-6.0-69.0"}}, {"uniqueid": "w40294886:a90289757", "current_trial": 165, "dateTime": 1664464328406, "trialdata": {"rt": 1020, "stimulus": "<p id='stroop-text' class='stroop-yellow'>GREEN</p>", "response": "y", "stimulus-type": "incongruent", "word": "green", "color": "yellow", "correct_response": "y", "trial_id": "stroop-trial-1-incongruent-2", "trial_type": "html-keyboard-response", "trial_index": 165, "time_elapsed": 294469, "internal_node_id": "0.0-6.0-70.0"}}, {"uniqueid": "w40294886:a90289757", "current_trial": 166, "dateTime": 1664464329521, "trialdata": {"rt": 613, "stimulus": "<p id='stroop-text' class='stroop-red'>DOG</p>", "response": "r", "stimulus-type": "unrelated", "word": "DOG", "color": "red", "correct_response": "r", "trial_id": "stroop-trial-1-unrelated-9", "trial_type": "html-keyboard-response", "trial_index": 166, "time_elapsed": 295584, "internal_node_id": "0.0-6.0-71.0"}}, {"uniqueid": "w40294886:a90289757", "current_trial": 167, "dateTime": 1664464330635, "trialdata": {"rt": 611, "stimulus": "<p id='stroop-text' class='stroop-green'>BLUE</p>", "response": "g", "stimulus-type": "incongruent", "word": "blue", "color": "green", "correct_response": "g", "trial_id": "stroop-trial-1-incongruent-28", "trial_type": "html-keyboard-response", "trial_index": 167, "time_elapsed": 296698, "internal_node_id": "0.0-6.0-72.0"}}, {"uniqueid": "w40294886:a90289757", "current_trial": 168, "dateTime": 1664464331543, "trialdata": {"rt": 405, "stimulus": "<p id='stroop-text' class='stroop-green'>GREEN</p>", "response": "g", "stimulus-type": "congruent", "word": "green", "color": "green", "correct_response": "g", "trial_id": "stroop-trial-1-congruent-2", "trial_type": "html-keyboard-response", "trial_index": 168, "time_elapsed": 297606, "internal_node_id": "0.0-6.0-73.0"}}, {"uniqueid": "w40294886:a90289757", "current_trial": 169, "dateTime": 1664464332722, "trialdata": {"rt": 677, "stimulus": "<p id='stroop-text' class='stroop-yellow'>YELLOW</p>", "response": "y", "stimulus-type": "congruent", "word": "yellow", "color": "yellow", "correct_response": "y", "trial_id": "stroop-trial-1-congruent-19", "trial_type": "html-keyboard-response", "trial_index": 169, "time_elapsed": 298785, "internal_node_id": "0.0-6.0-74.0"}}, {"uniqueid": "w40294886:a90289757", "current_trial": 170, "dateTime": 1664464333717, "trialdata": {"rt": 492, "stimulus": "<p id='stroop-text' class='stroop-blue'>BOTTLE</p>", "response": "b", "stimulus-type": "unrelated", "word": "BOTTLE", "color": "blue", "correct_response": "b", "trial_id": "stroop-trial-1-unrelated-29", "trial_type": "html-keyboard-response", "trial_index": 170, "time_elapsed": 299780, "internal_node_id": "0.0-6.0-75.0"}}, {"uniqueid": "w40294886:a90289757", "current_trial": 171, "dateTime": 1664464334777, "trialdata": {"rt": 557, "stimulus": "<p id='stroop-text' class='stroop-blue'>MONKEY</p>", "response": "b", "stimulus-type": "unrelated", "word": "MONKEY", "color": "blue", "correct_response": "b", "trial_id": "stroop-trial-1-unrelated-22", "trial_type": "html-keyboard-response", "trial_index": 171, "time_elapsed": 300840, "internal_node_id": "0.0-6.0-76.0"}}, {"uniqueid": "w40294886:a90289757", "current_trial": 172, "dateTime": 1664464335700, "trialdata": {"rt": 421, "stimulus": "<p id='stroop-text' class='stroop-blue'>FORK</p>", "response": "b", "stimulus-type": "unrelated", "word": "FORK", "color": "blue", "correct_response": "b", "trial_id": "stroop-trial-1-unrelated-6", "trial_type": "html-keyboard-response", "trial_index": 172, "time_elapsed": 301763, "internal_node_id": "0.0-6.0-77.0"}}, {"uniqueid": "w40294886:a90289757", "current_trial": 173, "dateTime": 1664464336671, "trialdata": {"rt": 469, "stimulus": "<p id='stroop-text' class='stroop-red'>YELLOW</p>", "response": "r", "stimulus-type": "incongruent", "word": "yellow", "color": "red", "correct_response": "r", "trial_id": "stroop-trial-1-incongruent-7", "trial_type": "html-keyboard-response", "trial_index": 173, "time_elapsed": 302734, "internal_node_id": "0.0-6.0-78.0"}}, {"uniqueid": "w40294886:a90289757", "current_trial": 174, "dateTime": 1664464337629, "trialdata": {"rt": 455, "stimulus": "<p id='stroop-text' class='stroop-red'>BOAT</p>", "response": "r", "stimulus-type": "unrelated", "word": "BOAT", "color": "red", "correct_response": "r", "trial_id": "stroop-trial-1-unrelated-12", "trial_type": "html-keyboard-response", "trial_index": 174, "time_elapsed": 303692, "internal_node_id": "0.0-6.0-79.0"}}, {"uniqueid": "w40294886:a90289757", "current_trial": 175, "dateTime": 1664464338724, "trialdata": {"rt": 591, "stimulus": "<p id='stroop-text' class='stroop-yellow'>BOTTLE</p>", "response": "y", "stimulus-type": "unrelated", "word": "BOTTLE", "color": "yellow", "correct_response": "y", "trial_id": "stroop-trial-1-unrelated-19", "trial_type": "html-keyboard-response", "trial_index": 175, "time_elapsed": 304786, "internal_node_id": "0.0-6.0-80.0"}}, {"uniqueid": "w40294886:a90289757", "current_trial": 176, "dateTime": 1664464339723, "trialdata": {"rt": 494, "stimulus": "<p id='stroop-text' class='stroop-green'>RED</p>", "response": "g", "stimulus-type": "incongruent", "word": "red", "color": "green", "correct_response": "g", "trial_id": "stroop-trial-1-incongruent-15", "trial_type": "html-keyboard-response", "trial_index": 176, "time_elapsed": 305786, "internal_node_id": "0.0-6.0-81.0"}}, {"uniqueid": "w40294886:a90289757", "current_trial": 177, "dateTime": 1664464340754, "trialdata": {"rt": 520, "stimulus": "<p id='stroop-text' class='stroop-red'>RED</p>", "response": "r", "stimulus-type": "congruent", "word": "red", "color": "red", "correct_response": "r", "trial_id": "stroop-trial-1-congruent-26", "trial_type": "html-keyboard-response", "trial_index": 177, "time_elapsed": 306817, "internal_node_id": "0.0-6.0-82.0"}}, {"uniqueid": "w40294886:a90289757", "current_trial": 178, "dateTime": 1664464341906, "trialdata": {"rt": 650, "stimulus": "<p id='stroop-text' class='stroop-blue'>BLUE</p>", "response": "b", "stimulus-type": "congruent", "word": "blue", "color": "blue", "correct_response": "b", "trial_id": "stroop-trial-1-congruent-12", "trial_type": "html-keyboard-response", "trial_index": 178, "time_elapsed": 307969, "internal_node_id": "0.0-6.0-83.0"}}, {"uniqueid": "w40294886:a90289757", "current_trial": 179, "dateTime": 1664464342953, "trialdata": {"rt": 545, "stimulus": "<p id='stroop-text' class='stroop-red'>DOG</p>", "response": "r", "stimulus-type": "unrelated", "word": "DOG", "color": "red", "correct_response": "r", "trial_id": "stroop-trial-1-unrelated-13", "trial_type": "html-keyboard-response", "trial_index": 179, "time_elapsed": 309016, "internal_node_id": "0.0-6.0-84.0"}}, {"uniqueid": "w40294886:a90289757", "current_trial": 180, "dateTime": 1664464344161, "trialdata": {"rt": 706, "stimulus": "<p id='stroop-text' class='stroop-yellow'>BLUE</p>", "response": "y", "stimulus-type": "incongruent", "word": "blue", "color": "yellow", "correct_response": "y", "trial_id": "stroop-trial-1-incongruent-19", "trial_type": "html-keyboard-response", "trial_index": 180, "time_elapsed": 310224, "internal_node_id": "0.0-6.0-85.0"}}, {"uniqueid": "w40294886:a90289757", "current_trial": 181, "dateTime": 1664464345201, "trialdata": {"rt": 538, "stimulus": "<p id='stroop-text' class='stroop-blue'>RED</p>", "response": "b", "stimulus-type": "incongruent", "word": "red", "color": "blue", "correct_response": "b", "trial_id": "stroop-trial-1-incongruent-24", "trial_type": "html-keyboard-response", "trial_index": 181, "time_elapsed": 311264, "internal_node_id": "0.0-6.0-86.0"}}, {"uniqueid": "w40294886:a90289757", "current_trial": 182, "dateTime": 1664464346074, "trialdata": {"rt": 370, "stimulus": "<p id='stroop-text' class='stroop-blue'>BLUE</p>", "response": "b", "stimulus-type": "congruent", "word": "blue", "color": "blue", "correct_response": "b", "trial_id": "stroop-trial-1-congruent-9", "trial_type": "html-keyboard-response", "trial_index": 182, "time_elapsed": 312137, "internal_node_id": "0.0-6.0-87.0"}}, {"uniqueid": "w40294886:a90289757", "current_trial": 183, "dateTime": 1664464347013, "trialdata": {"rt": 437, "stimulus": "<p id='stroop-text' class='stroop-red'>RED</p>", "response": "r", "stimulus-type": "congruent", "word": "red", "color": "red", "correct_response": "r", "trial_id": "stroop-trial-1-congruent-7", "trial_type": "html-keyboard-response", "trial_index": 183, "time_elapsed": 313076, "internal_node_id": "0.0-6.0-88.0"}}, {"uniqueid": "w40294886:a90289757", "current_trial": 184, "dateTime": 1664464347860, "trialdata": {"rt": 344, "stimulus": "<p id='stroop-text' class='stroop-red'>GREEN</p>", "response": "r", "stimulus-type": "incongruent", "word": "green", "color": "red", "correct_response": "r", "trial_id": "stroop-trial-1-incongruent-14", "trial_type": "html-keyboard-response", "trial_index": 184, "time_elapsed": 313923, "internal_node_id": "0.0-6.0-89.0"}}, {"uniqueid": "w40294886:a90289757", "current_trial": 185, "dateTime": 1664464361218, "trialdata": {"rt": 12855, "stimulus": "  <h1> End of block! </h1>\n\n  You have reached the end of the block 2/5. If you need a short break, feel free to take one now before moving on.\n\n  <br><br>\n  In the next block, you will complete another 90 rounds of this game.\n\n  <br><br>\n  <div style='text-align: center;'>Press <code>space</code> to begin.</div>\n  <br><br>\n<div style='text-align: center;'>(If the experiment doesn't continue, try clicking on the text and then pressing <code>space</code>.)</div>", "response": " ", "trial_id": "stroop_1_ready_3", "trial_type": "html-keyboard-response", "trial_index": 185, "time_elapsed": 327281, "internal_node_id": "0.0-7.0"}}, {"uniqueid": "w40294886:a90289757", "current_trial": 186, "dateTime": 1664464362236, "trialdata": {"rt": 1016, "stimulus": "<p id='stroop-text' class='stroop-blue'>WINDOW</p>", "response": "b", "stimulus-type": "unrelated", "word": "WINDOW", "color": "blue", "correct_response": "b", "trial_id": "stroop-trial-1-unrelated-28", "trial_type": "html-keyboard-response", "trial_index": 186, "time_elapsed": 328299, "internal_node_id": "0.0-8.0-0.0"}}, {"uniqueid": "w40294886:a90289757", "current_trial": 187, "dateTime": 1664464363424, "trialdata": {"rt": 685, "stimulus": "<p id='stroop-text' class='stroop-green'>RED</p>", "response": "g", "stimulus-type": "incongruent", "word": "red", "color": "green", "correct_response": "g", "trial_id": "stroop-trial-1-incongruent-21", "trial_type": "html-keyboard-response", "trial_index": 187, "time_elapsed": 329487, "internal_node_id": "0.0-8.0-1.0"}}, {"uniqueid": "w40294886:a90289757", "current_trial": 188, "dateTime": 1664464364403, "trialdata": {"rt": 476, "stimulus": "<p id='stroop-text' class='stroop-blue'>BLUE</p>", "response": "b", "stimulus-type": "congruent", "word": "blue", "color": "blue", "correct_response": "b", "trial_id": "stroop-trial-1-congruent-8", "trial_type": "html-keyboard-response", "trial_index": 188, "time_elapsed": 330466, "internal_node_id": "0.0-8.0-2.0"}}, {"uniqueid": "w40294886:a90289757", "current_trial": 189, "dateTime": 1664464365430, "trialdata": {"rt": 525, "stimulus": "<p id='stroop-text' class='stroop-red'>RED</p>", "response": "r", "stimulus-type": "congruent", "word": "red", "color": "red", "correct_response": "r", "trial_id": "stroop-trial-1-congruent-4", "trial_type": "html-keyboard-response", "trial_index": 189, "time_elapsed": 331493, "internal_node_id": "0.0-8.0-3.0"}}, {"uniqueid": "w40294886:a90289757", "current_trial": 190, "dateTime": 1664464366328, "trialdata": {"rt": 395, "stimulus": "<p id='stroop-text' class='stroop-red'>GREEN</p>", "response": "r", "stimulus-type": "incongruent", "word": "green", "color": "red", "correct_response": "r", "trial_id": "stroop-trial-1-incongruent-3", "trial_type": "html-keyboard-response", "trial_index": 190, "time_elapsed": 332391, "internal_node_id": "0.0-8.0-4.0"}}, {"uniqueid": "w40294886:a90289757", "current_trial": 191, "dateTime": 1664464367856, "trialdata": {"rt": 1026, "stimulus": "<p id='stroop-text' class='stroop-green'>YELLOW</p>", "response": "g", "stimulus-type": "incongruent", "word": "yellow", "color": "green", "correct_response": "g", "trial_id": "stroop-trial-1-incongruent-5", "trial_type": "html-keyboard-response", "trial_index": 191, "time_elapsed": 333919, "internal_node_id": "0.0-8.0-5.0"}}, {"uniqueid": "w40294886:a90289757", "current_trial": 192, "dateTime": 1664464369367, "trialdata": {"rt": 1008, "stimulus": "<p id='stroop-text' class='stroop-yellow'>SHIP</p>", "response": "y", "stimulus-type": "unrelated", "word": "SHIP", "color": "yellow", "correct_response": "y", "trial_id": "stroop-trial-1-unrelated-26", "trial_type": "html-keyboard-response", "trial_index": 192, "time_elapsed": 335429, "internal_node_id": "0.0-8.0-6.0"}}, {"uniqueid": "w40294886:a90289757", "current_trial": 193, "dateTime": 1664464370684, "trialdata": {"rt": 815, "stimulus": "<p id='stroop-text' class='stroop-red'>BLUE</p>", "response": "r", "stimulus-type": "incongruent", "word": "blue", "color": "red", "correct_response": "r", "trial_id": "stroop-trial-1-incongruent-24", "trial_type": "html-keyboard-response", "trial_index": 193, "time_elapsed": 336747, "internal_node_id": "0.0-8.0-7.0"}}, {"uniqueid": "w40294886:a90289757", "current_trial": 194, "dateTime": 1664464372056, "trialdata": {"rt": 869, "stimulus": "<p id='stroop-text' class='stroop-yellow'>SHIP</p>", "response": "y", "stimulus-type": "unrelated", "word": "SHIP", "color": "yellow", "correct_response": "y", "trial_id": "stroop-trial-1-unrelated-30", "trial_type": "html-keyboard-response", "trial_index": 194, "time_elapsed": 338119, "internal_node_id": "0.0-8.0-8.0"}}, {"uniqueid": "w40294886:a90289757", "current_trial": 195, "dateTime": 1664464372997, "trialdata": {"rt": 439, "stimulus": "<p id='stroop-text' class='stroop-yellow'>CHAIR</p>", "response": "y", "stimulus-type": "unrelated", "word": "CHAIR", "color": "yellow", "correct_response": "y", "trial_id": "stroop-trial-1-unrelated-8", "trial_type": "html-keyboard-response", "trial_index": 195, "time_elapsed": 339060, "internal_node_id": "0.0-8.0-9.0"}}, {"uniqueid": "w40294886:a90289757", "current_trial": 196, "dateTime": 1664464374059, "trialdata": {"rt": 560, "stimulus": "<p id='stroop-text' class='stroop-red'>RED</p>", "response": "r", "stimulus-type": "congruent", "word": "red", "color": "red", "correct_response": "r", "trial_id": "stroop-trial-1-congruent-13", "trial_type": "html-keyboard-response", "trial_index": 196, "time_elapsed": 340122, "internal_node_id": "0.0-8.0-10.0"}}, {"uniqueid": "w40294886:a90289757", "current_trial": 197, "dateTime": 1664464374971, "trialdata": {"rt": 408, "stimulus": "<p id='stroop-text' class='stroop-red'>RED</p>", "response": "r", "stimulus-type": "congruent", "word": "red", "color": "red", "correct_response": "r", "trial_id": "stroop-trial-1-congruent-14", "trial_type": "html-keyboard-response", "trial_index": 197, "time_elapsed": 341033, "internal_node_id": "0.0-8.0-11.0"}}, {"uniqueid": "w40294886:a90289757", "current_trial": 198, "dateTime": 1664464375993, "trialdata": {"rt": 520, "stimulus": "<p id='stroop-text' class='stroop-green'>GREEN</p>", "response": "g", "stimulus-type": "congruent", "word": "green", "color": "green", "correct_response": "g", "trial_id": "stroop-trial-1-congruent-24", "trial_type": "html-keyboard-response", "trial_index": 198, "time_elapsed": 342056, "internal_node_id": "0.0-8.0-12.0"}}, {"uniqueid": "w40294886:a90289757", "current_trial": 199, "dateTime": 1664464376987, "trialdata": {"rt": 491, "stimulus": "<p id='stroop-text' class='stroop-red'>RED</p>", "response": "r", "stimulus-type": "congruent", "word": "red", "color": "red", "correct_response": "r", "trial_id": "stroop-trial-1-congruent-29", "trial_type": "html-keyboard-response", "trial_index": 199, "time_elapsed": 343050, "internal_node_id": "0.0-8.0-13.0"}}, {"uniqueid": "w40294886:a90289757", "current_trial": 200, "dateTime": 1664464378364, "trialdata": {"rt": 862, "stimulus": "<p id='stroop-text' class='stroop-blue'>BRIDGE</p>", "response": "b", "stimulus-type": "unrelated", "word": "BRIDGE", "color": "blue", "correct_response": "b", "trial_id": "stroop-trial-1-unrelated-14", "trial_type": "html-keyboard-response", "trial_index": 200, "time_elapsed": 344427, "internal_node_id": "0.0-8.0-14.0"}}, {"uniqueid": "w40294886:a90289757", "current_trial": 201, "dateTime": 1664464379228, "trialdata": {"rt": 361, "stimulus": "<p id='stroop-text' class='stroop-blue'>BLUE</p>", "response": "b", "stimulus-type": "congruent", "word": "blue", "color": "blue", "correct_response": "b", "trial_id": "stroop-trial-1-congruent-6", "trial_type": "html-keyboard-response", "trial_index": 201, "time_elapsed": 345291, "internal_node_id": "0.0-8.0-15.0"}}, {"uniqueid": "w40294886:a90289757", "current_trial": 202, "dateTime": 1664464380287, "trialdata": {"rt": 556, "stimulus": "<p id='stroop-text' class='stroop-yellow'>YELLOW</p>", "response": "y", "stimulus-type": "congruent", "word": "yellow", "color": "yellow", "correct_response": "y", "trial_id": "stroop-trial-1-congruent-2", "trial_type": "html-keyboard-response", "trial_index": 202, "time_elapsed": 346350, "internal_node_id": "0.0-8.0-16.0"}}, {"uniqueid": "w40294886:a90289757", "current_trial": 203, "dateTime": 1664464381403, "trialdata": {"rt": 613, "stimulus": "<p id='stroop-text' class='stroop-red'>BLUE</p>", "response": "r", "stimulus-type": "incongruent", "word": "blue", "color": "red", "correct_response": "r", "trial_id": "stroop-trial-1-incongruent-22", "trial_type": "html-keyboard-response", "trial_index": 203, "time_elapsed": 347466, "internal_node_id": "0.0-8.0-17.0"}}, {"uniqueid": "w40294886:a90289757", "current_trial": 204, "dateTime": 1664464382751, "trialdata": {"rt": 846, "stimulus": "<p id='stroop-text' class='stroop-yellow'>YELLOW</p>", "response": "y", "stimulus-type": "congruent", "word": "yellow", "color": "yellow", "correct_response": "y", "trial_id": "stroop-trial-1-congruent-16", "trial_type": "html-keyboard-response", "trial_index": 204, "time_elapsed": 348814, "internal_node_id": "0.0-8.0-18.0"}}, {"uniqueid": "w40294886:a90289757", "current_trial": 205, "dateTime": 1664464383824, "trialdata": {"rt": 560, "stimulus": "<p id='stroop-text' class='stroop-green'>GREEN</p>", "response": "g", "stimulus-type": "congruent", "word": "green", "color": "green", "correct_response": "g", "trial_id": "stroop-trial-1-congruent-9", "trial_type": "html-keyboard-response", "trial_index": 205, "time_elapsed": 349887, "internal_node_id": "0.0-8.0-19.0"}}, {"uniqueid": "w40294886:a90289757", "current_trial": 206, "dateTime": 1664464384854, "trialdata": {"rt": 528, "stimulus": "<p id='stroop-text' class='stroop-red'>FORK</p>", "response": "r", "stimulus-type": "unrelated", "word": "FORK", "color": "red", "correct_response": "r", "trial_id": "stroop-trial-1-unrelated-25", "trial_type": "html-keyboard-response", "trial_index": 206, "time_elapsed": 350917, "internal_node_id": "0.0-8.0-20.0"}}, {"uniqueid": "w40294886:a90289757", "current_trial": 207, "dateTime": 1664464385765, "trialdata": {"rt": 408, "stimulus": "<p id='stroop-text' class='stroop-red'>GREEN</p>", "response": "r", "stimulus-type": "incongruent", "word": "green", "color": "red", "correct_response": "r", "trial_id": "stroop-trial-1-incongruent-4", "trial_type": "html-keyboard-response", "trial_index": 207, "time_elapsed": 351828, "internal_node_id": "0.0-8.0-21.0"}}, {"uniqueid": "w40294886:a90289757", "current_trial": 208, "dateTime": 1664464386666, "trialdata": {"rt": 398, "stimulus": "<p id='stroop-text' class='stroop-red'>DOG</p>", "response": "r", "stimulus-type": "unrelated", "word": "DOG", "color": "red", "correct_response": "r", "trial_id": "stroop-trial-1-unrelated-1", "trial_type": "html-keyboard-response", "trial_index": 208, "time_elapsed": 352729, "internal_node_id": "0.0-8.0-22.0"}}, {"uniqueid": "w40294886:a90289757", "current_trial": 209, "dateTime": 1664464387510, "trialdata": {"rt": 342, "stimulus": "<p id='stroop-text' class='stroop-red'>RED</p>", "response": "r", "stimulus-type": "congruent", "word": "red", "color": "red", "correct_response": "r", "trial_id": "stroop-trial-1-congruent-25", "trial_type": "html-keyboard-response", "trial_index": 209, "time_elapsed": 353573, "internal_node_id": "0.0-8.0-23.0"}}, {"uniqueid": "w40294886:a90289757", "current_trial": 210, "dateTime": 1664464388385, "trialdata": {"rt": 372, "stimulus": "<p id='stroop-text' class='stroop-red'>GREEN</p>", "response": "r", "stimulus-type": "incongruent", "word": "green", "color": "red", "correct_response": "r", "trial_id": "stroop-trial-1-incongruent-13", "trial_type": "html-keyboard-response", "trial_index": 210, "time_elapsed": 354448, "internal_node_id": "0.0-8.0-24.0"}}, {"uniqueid": "w40294886:a90289757", "current_trial": 211, "dateTime": 1664464389254, "trialdata": {"rt": 366, "stimulus": "<p id='stroop-text' class='stroop-red'>MONKEY</p>", "response": "r", "stimulus-type": "unrelated", "word": "MONKEY", "color": "red", "correct_response": "r", "trial_id": "stroop-trial-1-unrelated-17", "trial_type": "html-keyboard-response", "trial_index": 211, "time_elapsed": 355317, "internal_node_id": "0.0-8.0-25.0"}}, {"uniqueid": "w40294886:a90289757", "current_trial": 212, "dateTime": 1664464390363, "trialdata": {"rt": 606, "stimulus": "<p id='stroop-text' class='stroop-blue'>BOTTLE</p>", "response": "b", "stimulus-type": "unrelated", "word": "BOTTLE", "color": "blue", "correct_response": "b", "trial_id": "stroop-trial-1-unrelated-20", "trial_type": "html-keyboard-response", "trial_index": 212, "time_elapsed": 356426, "internal_node_id": "0.0-8.0-26.0"}}, {"uniqueid": "w40294886:a90289757", "current_trial": 213, "dateTime": 1664464391465, "trialdata": {"rt": 600, "stimulus": "<p id='stroop-text' class='stroop-blue'>YELLOW</p>", "response": "b", "stimulus-type": "incongruent", "word": "yellow", "color": "blue", "correct_response": "b", "trial_id": "stroop-trial-1-incongruent-7", "trial_type": "html-keyboard-response", "trial_index": 213, "time_elapsed": 357528, "internal_node_id": "0.0-8.0-27.0"}}, {"uniqueid": "w40294886:a90289757", "current_trial": 214, "dateTime": 1664464392533, "trialdata": {"rt": 566, "stimulus": "<p id='stroop-text' class='stroop-red'>YELLOW</p>", "response": "r", "stimulus-type": "incongruent", "word": "yellow", "color": "red", "correct_response": "r", "trial_id": "stroop-trial-1-incongruent-9", "trial_type": "html-keyboard-response", "trial_index": 214, "time_elapsed": 358596, "internal_node_id": "0.0-8.0-28.0"}}, {"uniqueid": "w40294886:a90289757", "current_trial": 215, "dateTime": 1664464393721, "trialdata": {"rt": 685, "stimulus": "<p id='stroop-text' class='stroop-yellow'>BLUE</p>", "response": "y", "stimulus-type": "incongruent", "word": "blue", "color": "yellow", "correct_response": "y", "trial_id": "stroop-trial-1-incongruent-16", "trial_type": "html-keyboard-response", "trial_index": 215, "time_elapsed": 359784, "internal_node_id": "0.0-8.0-29.0"}}, {"uniqueid": "w40294886:a90289757", "current_trial": 216, "dateTime": 1664464394716, "trialdata": {"rt": 491, "stimulus": "<p id='stroop-text' class='stroop-red'>WINDOW</p>", "response": "r", "stimulus-type": "unrelated", "word": "WINDOW", "color": "red", "correct_response": "r", "trial_id": "stroop-trial-1-unrelated-10", "trial_type": "html-keyboard-response", "trial_index": 216, "time_elapsed": 360779, "internal_node_id": "0.0-8.0-30.0"}}, {"uniqueid": "w40294886:a90289757", "current_trial": 217, "dateTime": 1664464395914, "trialdata": {"rt": 696, "stimulus": "<p id='stroop-text' class='stroop-blue'>BRIDGE</p>", "response": "b", "stimulus-type": "unrelated", "word": "BRIDGE", "color": "blue", "correct_response": "b", "trial_id": "stroop-trial-1-unrelated-13", "trial_type": "html-keyboard-response", "trial_index": 217, "time_elapsed": 361977, "internal_node_id": "0.0-8.0-31.0"}}, {"uniqueid": "w40294886:a90289757", "current_trial": 218, "dateTime": 1664464397111, "trialdata": {"rt": 694, "stimulus": "<p id='stroop-text' class='stroop-yellow'>SHIP</p>", "response": "y", "stimulus-type": "unrelated", "word": "SHIP", "color": "yellow", "correct_response": "y", "trial_id": "stroop-trial-1-unrelated-11", "trial_type": "html-keyboard-response", "trial_index": 218, "time_elapsed": 363174, "internal_node_id": "0.0-8.0-32.0"}}, {"uniqueid": "w40294886:a90289757", "current_trial": 219, "dateTime": 1664464398226, "trialdata": {"rt": 612, "stimulus": "<p id='stroop-text' class='stroop-green'>RED</p>", "response": "g", "stimulus-type": "incongruent", "word": "red", "color": "green", "correct_response": "g", "trial_id": "stroop-trial-1-incongruent-25", "trial_type": "html-keyboard-response", "trial_index": 219, "time_elapsed": 364289, "internal_node_id": "0.0-8.0-33.0"}}, {"uniqueid": "w40294886:a90289757", "current_trial": 220, "dateTime": 1664464399161, "trialdata": {"rt": 432, "stimulus": "<p id='stroop-text' class='stroop-green'>BRAIN</p>", "response": "g", "stimulus-type": "unrelated", "word": "BRAIN", "color": "green", "correct_response": "g", "trial_id": "stroop-trial-1-unrelated-23", "trial_type": "html-keyboard-response", "trial_index": 220, "time_elapsed": 365224, "internal_node_id": "0.0-8.0-34.0"}}, {"uniqueid": "w40294886:a90289757", "current_trial": 221, "dateTime": 1664464400044, "trialdata": {"rt": 380, "stimulus": "<p id='stroop-text' class='stroop-green'>BRIDGE</p>", "response": "g", "stimulus-type": "unrelated", "word": "BRIDGE", "color": "green", "correct_response": "g", "trial_id": "stroop-trial-1-unrelated-24", "trial_type": "html-keyboard-response", "trial_index": 221, "time_elapsed": 366107, "internal_node_id": "0.0-8.0-35.0"}}, {"uniqueid": "w40294886:a90289757", "current_trial": 222, "dateTime": 1664464401311, "trialdata": {"rt": 764, "stimulus": "<p id='stroop-text' class='stroop-yellow'>YELLOW</p>", "response": "y", "stimulus-type": "congruent", "word": "yellow", "color": "yellow", "correct_response": "y", "trial_id": "stroop-trial-1-congruent-20", "trial_type": "html-keyboard-response", "trial_index": 222, "time_elapsed": 367374, "internal_node_id": "0.0-8.0-36.0"}}, {"uniqueid": "w40294886:a90289757", "current_trial": 223, "dateTim