{"condition": 0, "counterbalance": 0, "assignmentId": "a66051473", "workerId": "w75745673", "hitId": "h86730283", "currenttrial": 959, "bonus": 0, "data": [{"uniqueid": "w75745673:a66051473", "current_trial": 0, "dateTime": 1664464028455, "trialdata": {"success": true, "trial_type": "fullscreen", "trial_index": 0, "time_elapsed": 4034, "internal_node_id": "0.0-0.0"}}, {"uniqueid": "w75745673:a66051473", "current_trial": 1, "dateTime": 1664464076838, "trialdata": {"view_history": [{"page_index": 0, "viewing_time": 48375}], "rt": 48376, "trial_id": "exp_instructions_distractor", "trial_type": "instructions", "trial_index": 1, "time_elapsed": 52418, "internal_node_id": "0.0-1.0"}}, {"uniqueid": "w75745673:a66051473", "current_trial": 2, "dateTime": 1664464379822, "trialdata": {"view_history": [{"page_index": 0, "viewing_time": 302980}], "rt": 302981, "trial_id": "color_game_instructions", "trial_type": "instructions", "trial_index": 2, "time_elapsed": 355402, "internal_node_id": "0.0-2.0"}}, {"uniqueid": "w75745673:a66051473", "current_trial": 3, "dateTime": 1664464387230, "trialdata": {"rt": 7405, "stimulus": "<h1> Get ready to start the game! </h1>\n\nThank you for reading the instructions. Get ready start with the first of 5 block(s) of this game.\n<br><br>\nIn this first block, you will complete 90 rounds of this game before moving on.\n<br><br>\nRemember, the better you perform, the bigger your bonus will be!\n<br><br>\n<div style='text-align: center;'>Press <code>space</code> to begin.</div>", "response": " ", "trial_id": "stroop_1_ready_1", "trial_type": "html-keyboard-response", "trial_index": 3, "time_elapsed": 362810, "internal_node_id": "0.0-3.0"}}, {"uniqueid": "w75745673:a66051473", "current_trial": 4, "dateTime": 1664464388706, "trialdata": {"rt": 1459, "stimulus": "<p id='stroop-text' class='stroop-red'>WINDOW</p>", "response": "r", "stimulus-type": "unrelated", "word": "WINDOW", "color": "red", "correct_response": "r", "trial_id": "stroop-trial-1-unrelated-4", "trial_type": "html-keyboard-response", "trial_index": 4, "time_elapsed": 364285, "internal_node_id": "0.0-4.0-0.0"}}, {"uniqueid": "w75745673:a66051473", "current_trial": 5, "dateTime": 1664464390205, "trialdata": {"rt": 994, "stimulus": "<p id='stroop-text' class='stroop-red'>RED</p>", "response": "r", "stimulus-type": "congruent", "word": "red", "color": "red", "correct_response": "r", "trial_id": "stroop-trial-1-congruent-19", "trial_type": "html-keyboard-response", "trial_index": 5, "time_elapsed": 365784, "internal_node_id": "0.0-4.0-1.0"}}, {"uniqueid": "w75745673:a66051473", "current_trial": 6, "dateTime": 1664464391539, "trialdata": {"rt": 825, "stimulus": "<p id='stroop-text' class='stroop-yellow'>YELLOW</p>", "response": "y", "stimulus-type": "congruent", "word": "yellow", "color": "yellow", "correct_response": "y", "trial_id": "stroop-trial-1-congruent-14", "trial_type": "html-keyboard-response", "trial_index": 6, "time_elapsed": 367118, "internal_node_id": "0.0-4.0-2.0"}}, {"uniqueid": "w75745673:a66051473", "current_trial": 7, "dateTime": 1664464392822, "trialdata": {"rt": 777, "stimulus": "<p id='stroop-text' class='stroop-yellow'>DOG</p>", "response": "y", "stimulus-type": "unrelated", "word": "DOG", "color": "yellow", "correct_response": "y", "trial_id": "stroop-trial-1-unrelated-2", "trial_type": "html-keyboard-response", "trial_index": 7, "time_elapsed": 368401, "internal_node_id": "0.0-4.0-3.0"}}, {"uniqueid": "w75745673:a66051473", "current_trial": 8, "dateTime": 1664464394479, "trialdata": {"rt": 1146, "stimulus": "<p id='stroop-text' class='stroop-blue'>YELLOW</p>", "response": "b", "stimulus-type": "incongruent", "word": "yellow", "color": "blue", "correct_response": "b", "trial_id": "stroop-trial-1-incongruent-22", "trial_type": "html-keyboard-response", "trial_index": 8, "time_elapsed": 370058, "internal_node_id": "0.0-4.0-4.0"}}, {"uniqueid": "w75745673:a66051473", "current_trial": 9, "dateTime": 1664464395972, "trialdata": {"rt": 986, "stimulus": "<p id='stroop-text' class='stroop-yellow'>RED</p>", "response": "y", "stimulus-type": "incongruent", "word": "red", "color": "yellow", "correct_response": "y", "trial_id": "stroop-trial-1-incongruent-7", "trial_type": "html-keyboard-response", "trial_index": 9, "time_elapsed": 371551, "internal_node_id": "0.0-4.0-5.0"}}, {"uniqueid": "w75745673:a66051473", "current_trial": 10, "dateTime": 1664464397362, "trialdata": {"rt": 886, "stimulus": "<p id='stroop-text' class='stroop-green'>GREEN</p>", "response": "g", "stimulus-type": "congruent", "word": "green", "color": "green", "correct_response": "g", "trial_id": "stroop-trial-1-congruent-26", "trial_type": "html-keyboard-response", "trial_index": 10, "time_elapsed": 372942, "internal_node_id": "0.0-4.0-6.0"}}, {"uniqueid": "w75745673:a66051473", "current_trial": 11, "dateTime": 1664464399089, "trialdata": {"rt": 1224, "stimulus": "<p id='stroop-text' class='stroop-red'>BLUE</p>", "response": "r", "stimulus-type": "incongruent", "word": "blue", "color": "red", "correct_response": "r", "trial_id": "stroop-trial-1-incongruent-21", "trial_type": "html-keyboard-response", "trial_index": 11, "time_elapsed": 374669, "internal_node_id": "0.0-4.0-7.0"}}, {"uniqueid": "w75745673:a66051473", "current_trial": 12, "dateTime": 1664464400377, "trialdata": {"rt": 783, "stimulus": "<p id='stroop-text' class='stroop-yellow'>WINDOW</p>", "response": "y", "stimulus-type": "unrelated", "word": "WINDOW", "color": "yellow", "correct_response": "y", "trial_id": "stroop-trial-1-unrelated-24", "trial_type": "html-keyboard-response", "trial_index": 12, "time_elapsed": 375957, "internal_node_id": "0.0-4.0-8.0"}}, {"uniqueid": "w75745673:a66051473", "current_trial": 13, "dateTime": 1664464401961, "trialdata": {"rt": 1070, "stimulus": "<p id='stroop-text' class='stroop-blue'>RED</p>", "response": "b", "stimulus-type": "incongruent", "word": "red", "color": "blue", "correct_response": "b", "trial_id": "stroop-trial-1-incongruent-10", "trial_type": "html-keyboard-response", "trial_index": 13, "time_elapsed": 377541, "internal_node_id": "0.0-4.0-9.0"}}, {"uniqueid": "w75745673:a66051473", "current_trial": 14, "dateTime": 1664464403227, "trialdata": {"rt": 758, "stimulus": "<p id='stroop-text' class='stroop-yellow'>STONE</p>", "response": "y", "stimulus-type": "unrelated", "word": "STONE", "color": "yellow", "correct_response": "y", "trial_id": "stroop-trial-1-unrelated-9", "trial_type": "html-keyboard-response", "trial_index": 14, "time_elapsed": 378806, "internal_node_id": "0.0-4.0-10.0"}}, {"uniqueid": "w75745673:a66051473", "current_trial": 15, "dateTime": 1664464404307, "trialdata": {"rt": 575, "stimulus": "<p id='stroop-text' class='stroop-red'>RED</p>", "response": "r", "stimulus-type": "congruent", "word": "red", "color": "red", "correct_response": "r", "trial_id": "stroop-trial-1-congruent-9", "trial_type": "html-keyboard-response", "trial_index": 15, "time_elapsed": 379887, "internal_node_id": "0.0-4.0-11.0"}}, {"uniqueid": "w75745673:a66051473", "current_trial": 16, "dateTime": 1664464405986, "trialdata": {"rt": 1174, "stimulus": "<p id='stroop-text' class='stroop-blue'>BLUE</p>", "response": "b", "stimulus-type": "congruent", "word": "blue", "color": "blue", "correct_response": "b", "trial_id": "stroop-trial-1-congruent-24", "trial_type": "html-keyboard-response", "trial_index": 16, "time_elapsed": 381566, "internal_node_id": "0.0-4.0-12.0"}}, {"uniqueid": "w75745673:a66051473", "current_trial": 17, "dateTime": 1664464407312, "trialdata": {"rt": 813, "stimulus": "<p id='stroop-text' class='stroop-green'>WINDOW</p>", "response": "g", "stimulus-type": "unrelated", "word": "WINDOW", "color": "green", "correct_response": "g", "trial_id": "stroop-trial-1-unrelated-25", "trial_type": "html-keyboard-response", "trial_index": 17, "time_elapsed": 382892, "internal_node_id": "0.0-4.0-13.0"}}, {"uniqueid": "w75745673:a66051473", "current_trial": 18, "dateTime": 1664464408509, "trialdata": {"rt": 691, "stimulus": "<p id='stroop-text' class='stroop-yellow'>CHAIR</p>", "response": "y", "stimulus-type": "unrelated", "word": "CHAIR", "color": "yellow", "correct_response": "y", "trial_id": "stroop-trial-1-unrelated-16", "trial_type": "html-keyboard-response", "trial_index": 18, "time_elapsed": 384089, "internal_node_id": "0.0-4.0-14.0"}}, {"uniqueid": "w75745673:a66051473", "current_trial": 19, "dateTime": 1664464409661, "trialdata": {"rt": 646, "stimulus": "<p id='stroop-text' class='stroop-yellow'>YELLOW</p>", "response": "y", "stimulus-type": "congruent", "word": "yellow", "color": "yellow", "correct_response": "y", "trial_id": "stroop-trial-1-congruent-2", "trial_type": "html-keyboard-response", "trial_index": 19, "time_elapsed": 385241, "internal_node_id": "0.0-4.0-15.0"}}, {"uniqueid": "w75745673:a66051473", "current_trial": 20, "dateTime": 1664464411012, "trialdata": {"rt": 840, "stimulus": "<p id='stroop-text' class='stroop-red'>WINDOW</p>", "response": "r", "stimulus-type": "unrelated", "word": "WINDOW", "color": "red", "correct_response": "r", "trial_id": "stroop-trial-1-unrelated-19", "trial_type": "html-keyboard-response", "trial_index": 20, "time_elapsed": 386592, "internal_node_id": "0.0-4.0-16.0"}}, {"uniqueid": "w75745673:a66051473", "current_trial": 21, "dateTime": 1664464412272, "trialdata": {"rt": 757, "stimulus": "<p id='stroop-text' class='stroop-blue'>YELLOW</p>", "response": "b", "stimulus-type": "incongruent", "word": "yellow", "color": "blue", "correct_response": "b", "trial_id": "stroop-trial-1-incongruent-2", "trial_type": "html-keyboard-response", "trial_index": 21, "time_elapsed": 387852, "internal_node_id": "0.0-4.0-17.0"}}, {"uniqueid": "w75745673:a66051473", "current_trial": 22, "dateTime": 1664464413611, "trialdata": {"rt": 833, "stimulus": "<p id='stroop-text' class='stroop-green'>MONKEY</p>", "response": "g", "stimulus-type": "unrelated", "word": "MONKEY", "color": "green", "correct_response": "g", "trial_id": "stroop-trial-1-unrelated-7", "trial_type": "html-keyboard-response", "trial_index": 22, "time_elapsed": 389191, "internal_node_id": "0.0-4.0-18.0"}}, {"uniqueid": "w75745673:a66051473", "current_trial": 23, "dateTime": 1664464414908, "trialdata": {"rt": 791, "stimulus": "<p id='stroop-text' class='stroop-red'>RED</p>", "response": "r", "stimulus-type": "congruent", "word": "red", "color": "red", "correct_response": "r", "trial_id": "stroop-trial-1-congruent-11", "trial_type": "html-keyboard-response", "trial_index": 23, "time_elapsed": 390488, "internal_node_id": "0.0-4.0-19.0"}}, {"uniqueid": "w75745673:a66051473", "current_trial": 24, "dateTime": 1664464416171, "trialdata": {"rt": 751, "stimulus": "<p id='stroop-text' class='stroop-blue'>BLUE</p>", "response": "b", "stimulus-type": "congruent", "word": "blue", "color": "blue", "correct_response": "b", "trial_id": "stroop-trial-1-congruent-16", "trial_type": "html-keyboard-response", "trial_index": 24, "time_elapsed": 391751, "internal_node_id": "0.0-4.0-20.0"}}, {"uniqueid": "w75745673:a66051473", "current_trial": 25, "dateTime": 1664464417467, "trialdata": {"rt": 791, "stimulus": "<p id='stroop-text' class='stroop-yellow'>RED</p>", "response": "y", "stimulus-type": "incongruent", "word": "red", "color": "yellow", "correct_response": "y", "trial_id": "stroop-trial-1-incongruent-1", "trial_type": "html-keyboard-response", "trial_index": 25, "time_elapsed": 393047, "internal_node_id": "0.0-4.0-21.0"}}, {"uniqueid": "w75745673:a66051473", "current_trial": 26, "dateTime": 1664464418707, "trialdata": {"rt": 731, "stimulus": "<p id='stroop-text' class='stroop-blue'>BLUE</p>", "response": "b", "stimulus-type": "congruent", "word": "blue", "color": "blue", "correct_response": "b", "trial_id": "stroop-trial-1-congruent-20", "trial_type": "html-keyboard-response", "trial_index": 26, "time_elapsed": 394286, "internal_node_id": "0.0-4.0-22.0"}}, {"uniqueid": "w75745673:a66051473", "current_trial": 27, "dateTime": 1664464419918, "trialdata": {"rt": 707, "stimulus": "<p id='stroop-text' class='stroop-red'>BLUE</p>", "response": "r", "stimulus-type": "incongruent", "word": "blue", "color": "red", "correct_response": "r", "trial_id": "stroop-trial-1-incongruent-12", "trial_type": "html-keyboard-response", "trial_index": 27, "time_elapsed": 395498, "internal_node_id": "0.0-4.0-23.0"}}, {"uniqueid": "w75745673:a66051473", "current_trial": 28, "dateTime": 1664464421129, "trialdata": {"rt": 701, "stimulus": "<p id='stroop-text' class='stroop-yellow'>WINDOW</p>", "response": "y", "stimulus-type": "unrelated", "word": "WINDOW", "color": "yellow", "correct_response": "y", "trial_id": "stroop-trial-1-unrelated-5", "trial_type": "html-keyboard-response", "trial_index": 28, "time_elapsed": 396708, "internal_node_id": "0.0-4.0-24.0"}}, {"uniqueid": "w75745673:a66051473", "current_trial": 29, "dateTime": 1664464422371, "trialdata": {"rt": 735, "stimulus": "<p id='stroop-text' class='stroop-blue'>BLUE</p>", "response": "b", "stimulus-type": "congruent", "word": "blue", "color": "blue", "correct_response": "b", "trial_id": "stroop-trial-1-congruent-3", "trial_type": "html-keyboard-response", "trial_index": 29, "time_elapsed": 397950, "internal_node_id": "0.0-4.0-25.0"}}, {"uniqueid": "w75745673:a66051473", "current_trial": 30, "dateTime": 1664464423656, "trialdata": {"rt": 766, "stimulus": "<p id='stroop-text' class='stroop-yellow'>DOG</p>", "response": "y", "stimulus-type": "unrelated", "word": "DOG", "color": "yellow", "correct_response": "y", "trial_id": "stroop-trial-1-unrelated-11", "trial_type": "html-keyboard-response", "trial_index": 30, "time_elapsed": 399235, "internal_node_id": "0.0-4.0-26.0"}}, {"uniqueid": "w75745673:a66051473", "current_trial": 31, "dateTime": 1664464424933, "trialdata": {"rt": 770, "stimulus": "<p id='stroop-text' class='stroop-green'>BLUE</p>", "response": "g", "stimulus-type": "incongruent", "word": "blue", "color": "green", "correct_response": "g", "trial_id": "stroop-trial-1-incongruent-14", "trial_type": "html-keyboard-response", "trial_index": 31, "time_elapsed": 400513, "internal_node_id": "0.0-4.0-27.0"}}, {"uniqueid": "w75745673:a66051473", "current_trial": 32, "dateTime": 1664464426247, "trialdata": {"rt": 810, "stimulus": "<p id='stroop-text' class='stroop-yellow'>RED</p>", "response": "y", "stimulus-type": "incongruent", "word": "red", "color": "yellow", "correct_response": "y", "trial_id": "stroop-trial-1-incongruent-25", "trial_type": "html-keyboard-response", "trial_index": 32, "time_elapsed": 401826, "internal_node_id": "0.0-4.0-28.0"}}, {"uniqueid": "w75745673:a66051473", "current_trial": 33, "dateTime": 1664464427563, "trialdata": {"rt": 813, "stimulus": "<p id='stroop-text' class='stroop-blue'>BLUE</p>", "response": "b", "stimulus-type": "congruent", "word": "blue", "color": "blue", "correct_response": "b", "trial_id": "stroop-trial-1-congruent-12", "trial_type": "html-keyboard-response", "trial_index": 33, "time_elapsed": 403143, "internal_node_id": "0.0-4.0-29.0"}}, {"uniqueid": "w75745673:a66051473", "current_trial": 34, "dateTime": 1664464428872, "trialdata": {"rt": 800, "stimulus": "<p id='stroop-text' class='stroop-green'>BOAT</p>", "response": "g", "stimulus-type": "unrelated", "word": "BOAT", "color": "green", "correct_response": "g", "trial_id": "stroop-trial-1-unrelated-18", "trial_type": "html-keyboard-response", "trial_index": 34, "time_elapsed": 404452, "internal_node_id": "0.0-4.0-30.0"}}, {"uniqueid": "w75745673:a66051473", "current_trial": 35, "dateTime": 1664464430113, "trialdata": {"rt": 736, "stimulus": "<p id='stroop-text' class='stroop-red'>BOAT</p>", "response": "r", "stimulus-type": "unrelated", "word": "BOAT", "color": "red", "correct_response": "r", "trial_id": "stroop-trial-1-unrelated-13", "trial_type": "html-keyboard-response", "trial_index": 35, "time_elapsed": 405692, "internal_node_id": "0.0-4.0-31.0"}}, {"uniqueid": "w75745673:a66051473", "current_trial": 36, "dateTime": 1664464431453, "trialdata": {"rt": 835, "stimulus": "<p id='stroop-text' class='stroop-red'>RED</p>", "response": "r", "stimulus-type": "congruent", "word": "red", "color": "red", "correct_response": "r", "trial_id": "stroop-trial-1-congruent-6", "trial_type": "html-keyboard-response", "trial_index": 36, "time_elapsed": 407033, "internal_node_id": "0.0-4.0-32.0"}}, {"uniqueid": "w75745673:a66051473", "current_trial": 37, "dateTime": 1664464433329, "trialdata": {"rt": 1371, "stimulus": "<p id='stroop-text' class='stroop-blue'>YELLOW</p>", "response": "b", "stimulus-type": "incongruent", "word": "yellow", "color": "blue", "correct_response": "b", "trial_id": "stroop-trial-1-incongruent-11", "trial_type": "html-keyboard-response", "trial_index": 37, "time_elapsed": 408908, "internal_node_id": "0.0-4.0-33.0"}}, {"uniqueid": "w75745673:a66051473", "current_trial": 38, "dateTime": 1664464434524, "trialdata": {"rt": 690, "stimulus": "<p id='stroop-text' class='stroop-yellow'>YELLOW</p>", "response": "y", "stimulus-type": "congruent", "word": "yellow", "color": "yellow", "correct_response": "y", "trial_id": "stroop-trial-1-congruent-13", "trial_type": "html-keyboard-response", "trial_index": 38, "time_elapsed": 410104, "internal_node_id": "0.0-4.0-34.0"}}, {"uniqueid": "w75745673:a66051473", "current_trial": 39, "dateTime": 1664464435812, "trialdata": {"rt": 779, "stimulus": "<p id='stroop-text' class='stroop-yellow'>BOTTLE</p>", "response": "y", "stimulus-type": "unrelated", "word": "BOTTLE", "color": "yellow", "correct_response": "y", "trial_id": "stroop-trial-1-unrelated-26", "trial_type": "html-keyboard-response", "trial_index": 39, "time_elapsed": 411391, "internal_node_id": "0.0-4.0-35.0"}}, {"uniqueid": "w75745673:a66051473", "current_trial": 40, "dateTime": 1664464437200, "trialdata": {"rt": 878, "stimulus": "<p id='stroop-text' class='stroop-red'>BRIDGE</p>", "response": "r", "stimulus-type": "unrelated", "word": "BRIDGE", "color": "red", "correct_response": "r", "trial_id": "stroop-trial-1-unrelated-6", "trial_type": "html-keyboard-response", "trial_index": 40, "time_elapsed": 412780, "internal_node_id": "0.0-4.0-36.0"}}, {"uniqueid": "w75745673:a66051473", "current_trial": 41, "dateTime": 1664464438547, "trialdata": {"rt": 838, "stimulus": "<p id='stroop-text' class='stroop-green'>BRIDGE</p>", "response": "g", "stimulus-type": "unrelated", "word": "BRIDGE", "color": "green", "correct_response": "g", "trial_id": "stroop-trial-1-unrelated-17", "trial_type": "html-keyboard-response", "trial_index": 41, "time_elapsed": 414127, "internal_node_id": "0.0-4.0-37.0"}}, {"uniqueid": "w75745673:a66051473", "current_trial": 42, "dateTime": 1664464439813, "trialdata": {"rt": 758, "stimulus": "<p id='stroop-text' class='stroop-blue'>BLUE</p>", "response": "b", "stimulus-type": "congruent", "word": "blue", "color": "blue", "correct_response": "b", "trial_id": "stroop-trial-1-congruent-21", "trial_type": "html-keyboard-response", "trial_index": 42, "time_elapsed": 415393, "internal_node_id": "0.0-4.0-38.0"}}, {"uniqueid": "w75745673:a66051473", "current_trial": 43, "dateTime": 1664464441069, "trialdata": {"rt": 746, "stimulus": "<p id='stroop-text' class='stroop-blue'>WINDOW</p>", "response": "b", "stimulus-type": "unrelated", "word": "WINDOW", "color": "blue", "correct_response": "b", "trial_id": "stroop-trial-1-unrelated-21", "trial_type": "html-keyboard-response", "trial_index": 43, "time_elapsed": 416648, "internal_node_id": "0.0-4.0-39.0"}}, {"uniqueid": "w75745673:a66051473", "current_trial": 44, "dateTime": 1664464442561, "trialdata": {"rt": 977, "stimulus": "<p id='stroop-text' class='stroop-yellow'>YELLOW</p>", "response": "y", "stimulus-type": "congruent", "word": "yellow", "color": "yellow", "correct_response": "y", "trial_id": "stroop-trial-1-congruent-27", "trial_type": "html-keyboard-response", "trial_index": 44, "time_elapsed": 418141, "internal_node_id": "0.0-4.0-40.0"}}, {"uniqueid": "w75745673:a66051473", "current_trial": 45, "dateTime": 1664464443689, "trialdata": {"rt": 622, "stimulus": "<p id='stroop-text' class='stroop-yellow'>STONE</p>", "response": "y", "stimulus-type": "unrelated", "word": "STONE", "color": "yellow", "correct_response": "y", "trial_id": "stroop-trial-1-unrelated-20", "trial_type": "html-keyboard-response", "trial_index": 45, "time_elapsed": 419268, "internal_node_id": "0.0-4.0-41.0"}}, {"uniqueid": "w75745673:a66051473", "current_trial": 46, "dateTime": 1664464444839, "trialdata": {"rt": 642, "stimulus": "<p id='stroop-text' class='stroop-red'>BLUE</p>", "response": "r", "stimulus-type": "incongruent", "word": "blue", "color": "red", "correct_response": "r", "trial_id": "stroop-trial-1-incongruent-19", "trial_type": "html-keyboard-response", "trial_index": 46, "time_elapsed": 420419, "internal_node_id": "0.0-4.0-42.0"}}, {"uniqueid": "w75745673:a66051473", "current_trial": 47, "dateTime": 1664464446043, "trialdata": {"rt": 698, "stimulus": "<p id='stroop-text' class='stroop-green'>BLUE</p>", "response": "g", "stimulus-type": "incongruent", "word": "blue", "color": "green", "correct_response": "g", "trial_id": "stroop-trial-1-incongruent-26", "trial_type": "html-keyboard-response", "trial_index": 47, "time_elapsed": 421623, "internal_node_id": "0.0-4.0-43.0"}}, {"uniqueid": "w75745673:a66051473", "current_trial": 48, "dateTime": 1664464447269, "trialdata": {"rt": 722, "stimulus": "<p id='stroop-text' class='stroop-yellow'>BLUE</p>", "response": "y", "stimulus-type": "incongruent", "word": "blue", "color": "yellow", "correct_response": "y", "trial_id": "stroop-trial-1-incongruent-27", "trial_type": "html-keyboard-response", "trial_index": 48, "time_elapsed": 422849, "internal_node_id": "0.0-4.0-44.0"}}, {"uniqueid": "w75745673:a66051473", "current_trial": 49, "dateTime": 1664464448440, "trialdata": {"rt": 660, "stimulus": "<p id='stroop-text' class='stroop-yellow'>BRAIN</p>", "response": "y", "stimulus-type": "unrelated", "word": "BRAIN", "color": "yellow", "correct_response": "y", "trial_id": "stroop-trial-1-unrelated-15", "trial_type": "html-keyboard-response", "trial_index": 49, "time_elapsed": 424019, "internal_node_id": "0.0-4.0-45.0"}}, {"uniqueid": "w75745673:a66051473", "current_trial": 50, "dateTime": 1664464450004, "trialdata": {"rt": 1058, "stimulus": "<p id='stroop-text' class='stroop-green'>RED</p>", "response": "g", "stimulus-type": "incongruent", "word": "red", "color": "green", "correct_response": "g", "trial_id": "stroop-trial-1-incongruent-29", "trial_type": "html-keyboard-response", "trial_index": 50, "time_elapsed": 425584, "internal_node_id": "0.0-4.0-46.0"}}, {"uniqueid": "w75745673:a66051473", "current_trial": 51, "dateTime": 1664464451004, "trialdata": {"rt": 485, "stimulus": "<p id='stroop-text' class='stroop-yellow'>WINDOW</p>", "response": "y", "stimulus-type": "unrelated", "word": "WINDOW", "color": "yellow", "correct_response": "y", "trial_id": "stroop-trial-1-unrelated-10", "trial_type": "html-keyboard-response", "trial_index": 51, "time_elapsed": 426584, "internal_node_id": "0.0-4.0-47.0"}}, {"uniqueid": "w75745673:a66051473", "current_trial": 52, "dateTime": 1664464452547, "trialdata": {"rt": 1035, "stimulus": "<p id='stroop-text' class='stroop-green'>YELLOW</p>", "response": "g", "stimulus-type": "incongruent", "word": "yellow", "color": "green", "correct_response": "g", "trial_id": "stroop-trial-1-incongruent-30", "trial_type": "html-keyboard-response", "trial_index": 52, "time_elapsed": 428127, "internal_node_id": "0.0-4.0-48.0"}}, {"uniqueid": "w75745673:a66051473", "current_trial": 53, "dateTime": 1664464453555, "trialdata": {"rt": 502, "stimulus": "<p id='stroop-text' class='stroop-yellow'>YELLOW</p>", "response": "y", "stimulus-type": "congruent", "word": "yellow", "color": "yellow", "correct_response": "y", "trial_id": "stroop-trial-1-congruent-30", "trial_type": "html-keyboard-response", "trial_index": 53, "time_elapsed": 429134, "internal_node_id": "0.0-4.0-49.0"}}, {"uniqueid": "w75745673:a66051473", "current_trial": 54, "dateTime": 1664464454699, "trialdata": {"rt": 634, "stimulus": "<p id='stroop-text' class='stroop-yellow'>YELLOW</p>", "response": "y", "stimulus-type": "congruent", "word": "yellow", "color": "yellow", "correct_response": "y", "trial_id": "stroop-trial-1-congruent-25", "trial_type": "html-keyboard-response", "trial_index": 54, "time_elapsed": 430279, "internal_node_id": "0.0-4.0-50.0"}}, {"uniqueid": "w75745673:a66051473", "current_trial": 55, "dateTime": 1664464456021, "trialdata": {"rt": 815, "stimulus": "<p id='stroop-text' class='stroop-red'>YELLOW</p>", "response": "r", "stimulus-type": "incongruent", "word": "yellow", "color": "red", "correct_response": "r", "trial_id": "stroop-trial-1-incongruent-20", "trial_type": "html-keyboard-response", "trial_index": 55, "time_elapsed": 431600, "internal_node_id": "0.0-4.0-51.0"}}, {"uniqueid": "w75745673:a66051473", "current_trial": 56, "dateTime": 1664464457059, "trialdata": {"rt": 532, "stimulus": "<p id='stroop-text' class='stroop-red'>BRIDGE</p>", "response": "r", "stimulus-type": "unrelated", "word": "BRIDGE", "color": "red", "correct_response": "r", "trial_id": "stroop-trial-1-unrelated-27", "trial_type": "html-keyboard-response", "trial_index": 56, "time_elapsed": 432639, "internal_node_id": "0.0-4.0-52.0"}}, {"uniqueid": "w75745673:a66051473", "current_trial": 57, "dateTime": 1664464458273, "trialdata": {"rt": 698, "stimulus": "<p id='stroop-text' class='stroop-yellow'>YELLOW</p>", "response": "y", "stimulus-type": "congruent", "word": "yellow", "color": "yellow", "correct_response": "y", "trial_id": "stroop-trial-1-congruent-4", "trial_type": "html-keyboard-response", "trial_index": 57, "time_elapsed": 433853, "internal_node_id": "0.0-4.0-53.0"}}, {"uniqueid": "w75745673:a66051473", "current_trial": 58, "dateTime": 1664464460076, "trialdata": {"rt": 1296, "stimulus": "<p id='stroop-text' class='stroop-blue'>DOG</p>", "response": "b", "stimulus-type": "unrelated", "word": "DOG", "color": "blue", "correct_response": "b", "trial_id": "stroop-trial-1-unrelated-3", "trial_type": "html-keyboard-response", "trial_index": 58, "time_elapsed": 435655, "internal_node_id": "0.0-4.0-54.0"}}, {"uniqueid": "w75745673:a66051473", "current_trial": 59, "dateTime": 1664464461716, "trialdata": {"rt": 1122, "stimulus": "<p id='stroop-text' class='stroop-red'>CHAIR</p>", "response": "r", "stimulus-type": "unrelated", "word": "CHAIR", "color": "red", "correct_response": "r", "trial_id": "stroop-trial-1-unrelated-12", "trial_type": "html-keyboard-response", "trial_index": 59, "time_elapsed": 437296, "internal_node_id": "0.0-4.0-55.0"}}, {"uniqueid": "w75745673:a66051473", "current_trial": 60, "dateTime": 1664464462942, "trialdata": {"rt": 715, "stimulus": "<p id='stroop-text' class='stroop-yellow'>BLUE</p>", "response": "y", "stimulus-type": "incongruent", "word": "blue", "color": "yellow", "correct_response": "y", "trial_id": "stroop-trial-1-incongruent-9", "trial_type": "html-keyboard-response", "trial_index": 60, "time_elapsed": 438522, "internal_node_id": "0.0-4.0-56.0"}}, {"uniqueid": "w75745673:a66051473", "current_trial": 61, "dateTime": 1664464464461, "trialdata": {"rt": 1013, "stimulus": "<p id='stroop-text' class='stroop-blue'>YELLOW</p>", "response": "b", "stimulus-type": "incongruent", "word": "yellow", "color": "blue", "correct_response": "b", "trial_id": "stroop-trial-1-incongruent-24", "trial_type": "html-keyboard-response", "trial_index": 61, "time_elapsed": 440041, "internal_node_id": "0.0-4.0-57.0"}}, {"uniqueid": "w75745673:a66051473", "current_trial": 62, "dateTime": 1664464465563, "trialdata": {"rt": 583, "stimulus": "<p id='stroop-text' class='stroop-blue'>CHAIR</p>", "response": "b", "stimulus-type": "unrelated", "word": "CHAIR", "color": "blue", "correct_response": "b", "trial_id": "stroop-trial-1-unrelated-22", "trial_type": "html-keyboard-response", "trial_index": 62, "time_elapsed": 441143, "internal_node_id": "0.0-4.0-58.0"}}, {"uniqueid": "w75745673:a66051473", "current_trial": 63, "dateTime": 1664464466743, "trialdata": {"rt": 669, "stimulus": "<p id='stroop-text' class='stroop-green'>GREEN</p>", "response": "g", "stimulus-type": "congruent", "word": "green", "color": "green", "correct_response": "g", "trial_id": "stroop-trial-1-congruent-8", "trial_type": "html-keyboard-response", "trial_index": 63, "time_elapsed": 442323, "internal_node_id": "0.0-4.0-59.0"}}, {"uniqueid": "w75745673:a66051473", "current_trial": 64, "dateTime": 1664464468104, "trialdata": {"rt": 853, "stimulus": "<p id='stroop-text' class='stroop-blue'>BRIDGE</p>", "response": "b", "stimulus-type": "unrelated", "word": "BRIDGE", "color": "blue", "correct_response": "b", "trial_id": "stroop-trial-1-unrelated-28", "trial_type": "html-keyboard-response", "trial_index": 64, "time_elapsed": 443683, "internal_node_id": "0.0-4.0-60.0"}}, {"uniqueid": "w75745673:a66051473", "current_trial": 65, "dateTime": 1664464469242, "trialdata": {"rt": 633, "stimulus": "<p id='stroop-text' class='stroop-yellow'>YELLOW</p>", "response": "y", "stimulus-type": "congruent", "word": "yellow", "color": "yellow", "correct_response": "y", "trial_id": "stroop-trial-1-congruent-22", "trial_type": "html-keyboard-response", "trial_index": 65, "time_elapsed": 444822, "internal_node_id": "0.0-4.0-61.0"}}, {"uniqueid": "w75745673:a66051473", "current_trial": 66, "dateTime": 1664464470723, "trialdata": {"rt": 970, "stimulus": "<p id='stroop-text' class='stroop-blue'>RED</p>", "response": "b", "stimulus-type": "incongruent", "word": "red", "color": "blue", "correct_response": "b", "trial_id": "stroop-trial-1-incongruent-28", "trial_type": "html-keyboard-response", "trial_index": 66, "time_elapsed": 446303, "internal_node_id": "0.0-4.0-62.0"}}, {"uniqueid": "w75745673:a66051473", "current_trial": 67, "dateTime": 1664464471744, "trialdata": {"rt": 512, "stimulus": "<p id='stroop-text' class='stroop-yellow'>YELLOW</p>", "response": "y", "stimulus-type": "congruent", "word": "yellow", "color": "yellow", "correct_response": "y", "trial_id": "stroop-trial-1-congruent-28", "trial_type": "html-keyboard-response", "trial_index": 67, "time_elapsed": 447323, "internal_node_id": "0.0-4.0-63.0"}}, {"uniqueid": "w75745673:a66051473", "current_trial": 68, "dateTime": 1664464472849, "trialdata": {"rt": 594, "stimulus": "<p id='stroop-text' class='stroop-blue'>STONE</p>", "response": "b", "stimulus-type": "unrelated", "word": "STONE", "color": "blue", "correct_response": "b", "trial_id": "stroop-trial-1-unrelated-8", "trial_type": "html-keyboard-response", "trial_index": 68, "time_elapsed": 448428, "internal_node_id": "0.0-4.0-64.0"}}, {"uniqueid": "w75745673:a66051473", "current_trial": 69, "dateTime": 1664464474125, "trialdata": {"rt": 765, "stimulus": "<p id='stroop-text' class='stroop-green'>YELLOW</p>", "response": "g", "stimulus-type": "incongruent", "word": "yellow", "color": "green", "correct_response": "g", "trial_id": "stroop-trial-1-incongruent-8", "trial_type": "html-keyboard-response", "trial_index": 69, "time_elapsed": 449704, "internal_node_id": "0.0-4.0-65.0"}}, {"uniqueid": "w75745673:a66051473", "current_trial": 70, "dateTime": 1664464475256, "trialdata": {"rt": 625, "stimulus": "<p id='stroop-text' class='stroop-green'>GREEN</p>", "response": "g", "stimulus-type": "congruent", "word": "green", "color": "green", "correct_response": "g", "trial_id": "stroop-trial-1-congruent-18", "trial_type": "html-keyboard-response", "trial_index": 70, "time_elapsed": 450835, "internal_node_id": "0.0-4.0-66.0"}}, {"uniqueid": "w75745673:a66051473", "current_trial": 71, "dateTime": 1664464476472, "trialdata": {"rt": 710, "stimulus": "<p id='stroop-text' class='stroop-yellow'>RED</p>", "response": "y", "stimulus-type": "incongruent", "word": "red", "color": "yellow", "correct_response": "y", "trial_id": "stroop-trial-1-incongruent-16", "trial_type": "html-keyboard-response", "trial_index": 71, "time_elapsed": 452051, "internal_node_id": "0.0-4.0-67.0"}}, {"uniqueid": "w75745673:a66051473", "current_trial": 72, "dateTime": 1664464477509, "trialdata": {"rt": 523, "stimulus": "<p id='stroop-text' class='stroop-yellow'>YELLOW</p>", "response": "y", "stimulus-type": "congruent", "word": "yellow", "color": "yellow", "correct_response": "y", "trial_id": "stroop-trial-1-congruent-23", "trial_type": "html-keyboard-response", "trial_index": 72, "time_elapsed": 453088, "internal_node_id": "0.0-4.0-68.0"}}, {"uniqueid": "w75745673:a66051473", "current_trial": 73, "dateTime": 1664464478765, "trialdata": {"rt": 740, "stimulus": "<p id='stroop-text' class='stroop-blue'>BOAT</p>", "response": "b", "stimulus-type": "unrelated", "word": "BOAT", "color": "blue", "correct_response": "b", "trial_id": "stroop-trial-1-unrelated-14", "trial_type": "html-keyboard-response", "trial_index": 73, "time_elapsed": 454345, "internal_node_id": "0.0-4.0-69.0"}}, {"uniqueid": "w75745673:a66051473", "current_trial": 74, "dateTime": 1664464479852, "trialdata": {"rt": 580, "stimulus": "<p id='stroop-text' class='stroop-yellow'>GREEN</p>", "response": "y", "stimulus-type": "incongruent", "word": "green", "color": "yellow", "correct_response": "y", "trial_id": "stroop-trial-1-incongruent-17", "trial_type": "html-keyboard-response", "trial_index": 74, "time_elapsed": 455432, "internal_node_id": "0.0-4.0-70.0"}}, {"uniqueid": "w75745673:a66051473", "current_trial": 75, "dateTime": 1664464481103, "trialdata": {"rt": 739, "stimulus": "<p id='stroop-text' class='stroop-green'>RED</p>", "response": "g", "stimulus-type": "incongruent", "word": "red", "color": "green", "correct_response": "g", "trial_id": "stroop-trial-1-incongruent-23", "trial_type": "html-keyboard-response", "trial_index": 75, "time_elapsed": 456682, "internal_node_id": "0.0-4.0-71.0"}}, {"uniqueid": "w75745673:a66051473", "current_trial": 76, "dateTime": 1664464482297, "trialdata": {"rt": 683, "stimulus": "<p id='stroop-text' class='stroop-red'>BOAT</p>", "response": "r", "stimulus-type": "unrelated", "word": "BOAT", "color": "red", "correct_response": "r", "trial_id": "stroop-trial-1-unrelated-1", "trial_type": "html-keyboard-response", "trial_index": 76, "time_elapsed": 457876, "internal_node_id": "0.0-4.0-72.0"}}, {"uniqueid": "w75745673:a66051473", "current_trial": 77, "dateTime": 1664464484260, "trialdata": {"rt": 1452, "stimulus": "<p id='stroop-text' class='stroop-green'>BLUE</p>", "response": "g", "stimulus-type": "incongruent", "word": "blue", "color": "green", "correct_response": "g", "trial_id": "stroop-trial-1-incongruent-5", "trial_type": "html-keyboard-response", "trial_index": 77, "time_elapsed": 459840, "internal_node_id": "0.0-4.0-73.0"}}, {"uniqueid": "w75745673:a66051473", "current_trial": 78, "dateTime": 1664464486275, "trialdata": {"rt": 1506, "stimulus": "<p id='stroop-text' class='stroop-yellow'>GREEN</p>", "response": "y", "stimulus-type": "incongruent", "word": "green", "color": "yellow", "correct_response": "y", "trial_id": "stroop-trial-1-incongruent-3", "trial_type": "html-keyboard-response", "trial_index": 78, "time_elapsed": 461854, "internal_node_id": "0.0-4.0-74.0"}}, {"uniqueid": "w75745673:a66051473", "current_trial": 79, "dateTime": 1664464487993, "trialdata": {"rt": 1209, "stimulus": "<p id='stroop-text' class='stroop-red'>YELLOW</p>", "response": "r", "stimulus-type": "incongruent", "word": "yellow", "color": "red", "correct_response": "r", "trial_id": "stroop-trial-1-incongruent-6", "trial_type": "html-keyboard-response", "trial_index": 79, "time_elapsed": 463573, "internal_node_id": "0.0-4.0-75.0"}}, {"uniqueid": "w75745673:a66051473", "current_trial": 80, "dateTime": 1664464489586, "trialdata": {"rt": 1089, "stimulus": "<p id='stroop-text' class='stroop-green'>GREEN</p>", "response": "g", "stimulus-type": "congruent", "word": "green", "color": "green", "correct_response": "g", "trial_id": "stroop-trial-1-congruent-10", "trial_type": "html-keyboard-response", "trial_index": 80, "time_elapsed": 465165, "internal_node_id": "0.0-4.0-76.0"}}, {"uniqueid": "w75745673:a66051473", "current_trial": 81, "dateTime": 1664464490953, "trialdata": {"rt": 862, "stimulus": "<p id='stroop-text' class='stroop-green'>BRAIN</p>", "response": "g", "stimulus-type": "unrelated", "word": "BRAIN", "color": "green", "correct_response": "g", "trial_id": "stroop-trial-1-unrelated-23", "trial_type": "html-keyboard-response", "trial_index": 81, "time_elapsed": 466532, "internal_node_id": "0.0-4.0-77.0"}}, {"uniqueid": "w75745673:a66051473", "current_trial": 82, "dateTime": 1664464492086, "trialdata": {"rt": 618, "stimulus": "<p id='stroop-text' class='stroop-green'>GREEN</p>", "response": "g", "stimulus-type": "congruent", "word": "green", "color": "green", "correct_response": "g", "trial_id": "stroop-trial-1-congruent-7", "trial_type": "html-keyboard-response", "trial_index": 82, "time_elapsed": 467666, "internal_node_id": "0.0-4.0-78.0"}}, {"uniqueid": "w75745673:a66051473", "current_trial": 83, "dateTime": 1664464493328, "trialdata": {"rt": 732, "stimulus": "<p id='stroop-text' class='stroop-blue'>BLUE</p>", "response": "b", "stimulus-type": "congruent", "word": "blue", "color": "blue", "correct_response": "b", "trial_id": "stroop-trial-1-congruent-15", "trial_type": "html-keyboard-response", "trial_index": 83, "time_elapsed": 468907, "internal_node_id": "0.0-4.0-79.0"}}, {"uniqueid": "w75745673:a66051473", "current_trial": 84, "dateTime": 1664464494800, "trialdata": {"rt": 966, "stimulus": "<p id='stroop-text' class='stroop-blue'>YELLOW</p>", "response": "y", "stimulus-type": "incongruent", "word": "yellow", "color": "blue", "correct_response": "b", "trial_id": "stroop-trial-1-incongruent-15", "trial_type": "html-keyboard-response", "trial_index": 84, "time_elapsed": 470379, "internal_node_id": "0.0-4.0-80.0"}}, {"uniqueid": "w75745673:a66051473", "current_trial": 85, "dateTime": 1664464501400, "trialdata": {"rt": 6090, "stimulus": "<p id='stroop-text' class='stroop-yellow'>CHAIR</p>", "response": "y", "stimulus-type": "unrelated", "word": "CHAIR", "color": "yellow", "correct_response": "y", "trial_id": "stroop-trial-1-unrelated-29", "trial_type": "html-keyboard-response", "trial_index": 85, "time_elapsed": 476980, "internal_node_id": "0.0-4.0-81.0"}}, {"uniqueid": "w75745673:a66051473", "current_trial": 86, "dateTime": 1664464502952, "trialdata": {"rt": 1040, "stimulus": "<p id='stroop-text' class='stroop-blue'>YELLOW</p>", "response": "b", "stimulus-type": "incongruent", "word": "yellow", "color": "blue", "correct_response": "b", "trial_id": "stroop-trial-1-incongruent-4", "trial_type": "html-keyboard-response", "trial_index": 86, "time_elapsed": 478531, "internal_node_id": "0.0-4.0-82.0"}}, {"uniqueid": "w75745673:a66051473", "current_trial": 87, "dateTime": 1664464504168, "trialdata": {"rt": 701, "stimulus": "<p id='stroop-text' class='stroop-blue'>BOAT</p>", "response": "b", "stimulus-type": "unrelated", "word": "BOAT", "color": "blue", "correct_response": "b", "trial_id": "stroop-trial-1-unrelated-30", "trial_type": "html-keyboard-response", "trial_index": 87, "time_elapsed": 479747, "internal_node_id": "0.0-4.0-83.0"}}, {"uniqueid": "w75745673:a66051473", "current_trial": 88, "dateTime": 1664464505573, "trialdata": {"rt": 888, "stimulus": "<p id='stroop-text' class='stroop-yellow'>YELLOW</p>", "response": "y", "stimulus-type": "congruent", "word": "yellow", "color": "yellow", "correct_response": "y", "trial_id": "stroop-trial-1-congruent-17", "trial_type": "html-keyboard-response", "trial_index": 88, "time_elapsed": 481152, "internal_node_id": "0.0-4.0-84.0"}}, {"uniqueid": "w75745673:a66051473", "current_trial": 89, "dateTime": 1664464507202, "trialdata": {"rt": 1121, "stimulus": "<p id='stroop-text' class='stroop-yellow'>RED</p>", "response": "y", "stimulus-type": "incongruent", "word": "red", "color": "yellow", "correct_response": "y", "trial_id": "stroop-trial-1-incongruent-18", "trial_type": "html-keyboard-response", "trial_index": 89, "time_elapsed": 482781, "internal_node_id": "0.0-4.0-85.0"}}, {"uniqueid": "w75745673:a66051473", "current_trial": 90, "dateTime": 1664464509203, "trialdata": {"rt": 1491, "stimulus": "<p id='stroop-text' class='stroop-red'>RED</p>", "response": "r", "stimulus-type": "congruent", "word": "red", "color": "red", "correct_response": "r", "trial_id": "stroop-trial-1-congruent-29", "trial_type": "html-keyboard-response", "trial_index": 90, "time_elapsed": 484783, "internal_node_id": "0.0-4.0-86.0"}}, {"uniqueid": "w75745673:a66051473", "current_trial": 91, "dateTime": 1664464511174, "trialdata": {"rt": 1463, "stimulus": "<p id='stroop-text' class='stroop-red'>YELLOW</p>", "response": "r", "stimulus-type": "incongruent", "word": "yellow", "color": "red", "correct_response": "r", "trial_id": "stroop-trial-1-incongruent-13", "trial_type": "html-keyboard-response", "trial_index": 91, "time_elapsed": 486754, "internal_node_id": "0.0-4.0-87.0"}}, {"uniqueid": "w75745673:a66051473", "current_trial": 92, "dateTime": 1664464512378, "trialdata": {"rt": 699, "stimulus": "<p id='stroop-text' class='stroop-red'>RED</p>", "response": "r", "stimulus-type": "congruent", "word": "red", "color": "red", "correct_response": "r", "trial_id": "stroop-trial-1-congruent-5", "trial_type": "html-keyboard-response", "trial_index": 92, "time_elapsed": 487958, "internal_node_id": "0.0-4.0-88.0"}}, {"uniqueid": "w75745673:a66051473", "current_trial": 93, "dateTime": 1664464513839, "trialdata": {"rt": 952, "stimulus": "<p id='stroop-text' class='stroop-yellow'>YELLOW</p>", "response": "y", "stimulus-type": "congruent", "word": "yellow", "color": "yellow", "correct_response": "y", "trial_id": "stroop-trial-1-congruent-1", "trial_type": "html-keyboard-response", "trial_index": 93, "time_elapsed": 489418, "internal_node_id": "0.0-4.0-89.0"}}, {"uniqueid": "w75745673:a66051473", "current_trial": 94, "dateTime": 1664464536146, "trialdata": {"rt": 21797, "stimulus": "  <h1> End of block! </h1>\n\n  You have reached the end of the block 1/5. If you need a short break, feel free to take one now before moving on.\n\n  <br><br>\n  In the next block, you will complete another 90 rounds of this game.\n\n  <br><br>\n  <div style='text-align: center;'>Press <code>space</code> to begin.</div>\n  <br><br>\n<div style='text-align: center;'>(If the experiment doesn't continue, try clicking on the text and then pressing <code>space</code>.)</div>", "response": " ", "trial_id": "stroop_1_ready_2", "trial_type": "html-keyboard-response", "trial_index": 94, "time_elapsed": 511726, "internal_node_id": "0.0-5.0"}}, {"uniqueid": "w75745673:a66051473", "current_trial": 95, "dateTime": 1664464572175, "trialdata": {"rt": 36028, "stimulus": "<p id='stroop-text' class='stroop-yellow'>CHAIR</p>", "response": "y", "stimulus-type": "unrelated", "word": "CHAIR", "color": "yellow", "correct_response": "y", "trial_id": "stroop-trial-1-unrelated-15", "trial_type": "html-keyboard-response", "trial_index": 95, "time_elapsed": 547754, "internal_node_id": "0.0-6.0-0.0"}}, {"uniqueid": "w75745673:a66051473", "current_trial": 96, "dateTime": 1664464573422, "trialdata": {"rt": 740, "stimulus": "<p id='stroop-text' class='stroop-blue'>BLUE</p>", "response": "b", "stimulus-type": "congruent", "word": "blue", "color": "blue", "correct_response": "b", "trial_id": "stroop-trial-1-congruent-30", "trial_type": "html-keyboard-response", "trial_index": 96, "time_elapsed": 549001, "internal_node_id": "0.0-6.0-1.0"}}, {"uniqueid": "w75745673:a66051473", "current_trial": 97, "dateTime": 1664464574720, "trialdata": {"rt": 788, "stimulus": "<p id='stroop-text' class='stroop-green'>BRAIN</p>", "response": "g", "stimulus-type": "unrelated", "word": "BRAIN", "color": "green", "correct_response": "g", "trial_id": "stroop-trial-1-unrelated-18", "trial_type": "html-keyboard-response", "trial_index": 97, "time_elapsed": 550300, "internal_node_id": "0.0-6.0-2.0"}}, {"uniqueid": "w75745673:a66051473", "current_trial": 98, "dateTime": 1664464576129, "trialdata": {"rt": 892, "stimulus": "<p id='stroop-text' class='stroop-red'>WINDOW</p>", "response": "r", "stimulus-type": "unrelated", "word": "WINDOW", "color": "red", "correct_response": "r", "trial_id": "stroop-trial-1-unrelated-7", "trial_type": "html-keyboard-response", "trial_index": 98, "time_elapsed": 551708, "internal_node_id": "0.0-6.0-3.0"}}, {"uniqueid": "w75745673:a66051473", "current_trial": 99, "dateTime": 1664464577237, "trialdata": {"rt": 592, "stimulus": "<p id='stroop-text' class='stroop-red'>WINDOW</p>", "response": "r", "stimulus-type": "unrelated", "word": "WINDOW", "color": "red", "correct_response": "r", "trial_id": "stroop-trial-1-unrelated-4", "trial_type": "html-keyboard-response", "trial_index": 99, "time_elapsed": 552816, "internal_node_id": "0.0-6.0-4.0"}}, {"uniqueid": "w75745673:a66051473", "current_trial": 100, "dateTime": 1664464578451, "trialdata": {"rt": 706, "stimulus": "<p id='stroop-text' class='stroop-green'>DOG</p>", "response": "g", "stimulus-type": "unrelated", "word": "DOG", "color": "green", "correct_response": "g", "trial_id": "stroop-trial-1-unrelated-8", "trial_type": "html-keyboard-response", "trial_index": 100, "time_elapsed": 554030, "internal_node_id": "0.0-6.0-5.0"}}, {"uniqueid": "w75745673:a66051473", "current_trial": 101, "dateTime": 1664464579775, "trialdata": {"rt": 819, "stimulus": "<p id='stroop-text' class='stroop-yellow'>YELLOW</p>", "response": "y", "stimulus-type": "congruent", "word": "yellow", "color": "yellow", "correct_response": "y", "trial_id": "stroop-trial-1-congruent-15", "trial_type": "html-keyboard-response", "trial_index": 101, "time_elapsed": 555355, "internal_node_id": "0.0-6.0-6.0"}}, {"uniqueid": "w75745673:a66051473", "current_trial": 102, "dateTime": 1664464581064, "trialdata": {"rt": 773, "stimulus": "<p id='stroop-text' class='stroop-red'>FORK</p>", "response": "r", "stimulus-type": "unrelated", "word": "FORK", "color": "red", "correct_response": "r", "trial_id": "stroop-trial-1-unrelated-20", "trial_type": "html-keyboard-response", "trial_index": 102, "time_elapsed": 556644, "internal_node_id": "0.0-6.0-7.0"}}, {"uniqueid": "w75745673:a66051473", "current_trial": 103, "dateTime": 1664464582368, "trialdata": {"rt": 792, "stimulus": "<p id='stroop-text' class='stroop-blue'>BLUE</p>", "response": "b", "stimulus-type": "congruent", "word": "blue", "color": "blue", "correct_response": "b", "trial_id": "stroop-trial-1-congruent-21", "trial_type": "html-keyboard-response", "trial_index": 103, "time_elapsed": 557947, "internal_node_id": "0.0-6.0-8.0"}}, {"uniqueid": "w75745673:a66051473", "current_trial": 104, "dateTime": 1664464583917, "trialdata": {"rt": 1043, "stimulus": "<p id='stroop-text' class='stroop-red'>DOG</p>", "response": "r", "stimulus-type": "unrelated", "word": "DOG", "color": "red", "correct_response": "r", "trial_id": "stroop-trial-1-unrelated-9", "trial_type": "html-keyboard-response", "trial_index": 104, "time_elapsed": 559497, "internal_node_id": "0.0-6.0-9.0"}}, {"uniqueid": "w75745673:a66051473", "current_trial": 105, "dateTime": 1664464586172, "trialdata": {"rt": 1741, "stimulus": "<p id='stroop-text' class='stroop-red'>BLUE</p>", "response": "r", "stimulus-type": "incongruent", "word": "blue", "color": "red", "correct_response": "r", "trial_id": "stroop-trial-1-incongruent-27", "trial_type": "html-keyboard-response", "trial_index": 105, "time_elapsed": 561751, "internal_node_id": "0.0-6.0-10.0"}}, {"uniqueid": "w75745673:a66051473", "current_trial": 106, "dateTime": 1664464587684, "trialdata": {"rt": 1006, "stimulus": "<p id='stroop-text' class='stroop-green'>BOAT</p>", "response": "g", "stimulus-type": "unrelated", "word": "BOAT", "color": "green", "correct_response": "g", "trial_id": "stroop-trial-1-unrelated-14", "trial_type": "html-keyboard-response", "trial_index": 106, "time_elapsed": 563264, "internal_node_id": "0.0-6.0-11.0"}}, {"uniqueid": "w75745673:a66051473", "current_trial": 107, "dateTime": 1664464588902, "trialdata": {"rt": 697, "stimulus": "<p id='stroop-text' class='stroop-green'>WINDOW</p>", "response": "g", "stimulus-type": "unrelated", "word": "WINDOW", "color": "green", "correct_response": "g", "trial_id": "stroop-trial-1-unrelated-11", "trial_type": "html-keyboard-response", "trial_index": 107, "time_elapsed": 564482, "internal_node_id": "0.0-6.0-12.0"}}, {"uniqueid": "w75745673:a66051473", "current_trial": 108, "dateTime": 1664464590068, "trialdata": {"rt": 657, "stimulus": "<p id='stroop-text' class='stroop-blue'>MONKEY</p>", "response": "b", "stimulus-type": "unrelated", "word": "MONKEY", "color": "blue", "correct_response": "b", "trial_id": "stroop-trial-1-unrelated-3", "trial_type": "html-keyboard-response", "trial_index": 108, "time_elapsed": 565648, "internal_node_id": "0.0-6.0-13.0"}}, {"uniqueid": "w75745673:a66051473", "current_trial": 109, "dateTime": 1664464591404, "trialdata": {"rt": 819, "stimulus": "<p id='stroop-text' class='stroop-red'>BRAIN</p>", "response": "r", "stimulus-type": "unrelated", "word": "BRAIN", "color": "red", "correct_response": "r", "trial_id": "stroop-trial-1-unrelated-10", "trial_type": "html-keyboard-response", "trial_index": 109, "time_elapsed": 566984, "internal_node_id": "0.0-6.0-14.0"}}, {"uniqueid": "w75745673:a66051473", "current_trial": 110, "dateTime": 1664464593130, "trialdata": {"rt": 1207, "stimulus": "<p id='stroop-text' class='stroop-green'>YELLOW</p>", "response": "g", "stimulus-type": "incongruent", "word": "yellow", "color": "green", "correct_response": "g", "trial_id": "stroop-trial-1-incongruent-5", "trial_type": "html-keyboard-response", "trial_index": 110, "time_elapsed": 568710, "internal_node_id": "0.0-6.0-15.0"}}, {"uniqueid": "w75745673:a66051473", "current_trial": 111, "dateTime": 1664464594771, "trialdata": {"rt": 1137, "stimulus": "<p id='stroop-text' class='stroop-yellow'>BOAT</p>", "response": "y", "stimulus-type": "unrelated", "word": "BOAT", "color": "yellow", "correct_response": "y", "trial_id": "stroop-trial-1-unrelated-27", "trial_type": "html-keyboard-response", "trial_index": 111, "time_elapsed": 570351, "internal_node_id": "0.0-6.0-16.0"}}, {"uniqueid": "w75745673:a66051473", "current_trial": 112, "dateTime": 1664464598100, "trialdata": {"rt": 2819, "stimulus": "<p id='stroop-text' class='stroop-blue'>BLUE</p>", "response": "b", "stimulus-type": "congruent", "word": "blue", "color": "blue", "correct_response": "b", "trial_id": "stroop-trial-1-congruent-25", "trial_type": "html-keyboard-response", "trial_index": 112, "time_elapsed": 573679, "internal_node_id": "0.0-6.0-17.0"}}, {"uniqueid": "w75745673:a66051473", "current_trial": 113, "dateTime": 1664464599235, "trialdata": {"rt": 628, "stimulus": "<p id='stroop-text' class='stroop-yellow'>YELLOW</p>", "response": "y", "stimulus-type": "congruent", "word": "yellow", "color": "yellow", "correct_response": "y", "trial_id": "stroop-trial-1-congruent-5", "trial_type": "html-keyboard-response", "trial_index": 113, "time_elapsed": 574815, "internal_node_id": "0.0-6.0-18.0"}}, {"uniqueid": "w75745673:a66051473", "current_trial": 114, "dateTime": 1664464600397, "trialdata": {"rt": 654, "stimulus": "<p id='stroop-text' class='stroop-blue'>BLUE</p>", "response": "b", "stimulus-type": "congruent", "word": "blue", "color": "blue", "correct_response": "b", "trial_id": "stroop-trial-1-congruent-8", "trial_type": "html-keyboard-response", "trial_index": 114, "time_elapsed": 575976, "internal_node_id": "0.0-6.0-19.0"}}, {"uniqueid": "w75745673:a66051473", "current_trial": 115, "dateTime": 1664464603597, "trialdata": {"rt": 2681, "stimulus": "<p id='stroop-text' class='stroop-yellow'>BLUE</p>", "response": "y", "stimulus-type": "incongruent", "word": "blue", "color": "yellow", "correct_response": "y", "trial_id": "stroop-trial-1-incongruent-12", "trial_type": "html-keyboard-response", "trial_index": 115, "time_elapsed": 579177, "internal_node_id": "0.0-6.0-20.0"}}, {"uniqueid": "w75745673:a66051473", "current_trial": 116, "dateTime": 1664464605201, "trialdata": {"rt": 1098, "stimulus": "<p id='stroop-text' class='stroop-blue'>YELLOW</p>", "response": "b", "stimulus-type": "incongruent", "word": "yellow", "color": "blue", "correct_response": "b", "trial_id": "stroop-trial-1-incongruent-1", "trial_type": "html-keyboard-response", "trial_index": 116, "time_elapsed": 580781, "internal_node_id": "0.0-6.0-21.0"}}, {"uniqueid": "w75745673:a66051473", "current_trial": 117, "dateTime": 1664464606605, "trialdata": {"rt": 896, "stimulus": "<p id='stroop-text' class='stroop-red'>GREEN</p>", "response": "r", "stimulus-type": "incongruent", "word": "green", "color": "red", "correct_response": "r", "trial_id": "stroop-trial-1-incongruent-2", "trial_type": "html-keyboard-response", "trial_index": 117, "time_elapsed": 582185, "internal_node_id": "0.0-6.0-22.0"}}, {"uniqueid": "w75745673:a66051473", "current_trial": 118, "dateTime": 1664464607850, "trialdata": {"rt": 740, "stimulus": "<p id='stroop-text' class='stroop-red'>GREEN</p>", "response": "r", "stimulus-type": "incongruent", "word": "green", "color": "red", "correct_response": "r", "trial_id": "stroop-trial-1-incongruent-7", "trial_type": "html-keyboard-response", "trial_index": 118, "time_elapsed": 583429, "internal_node_id": "0.0-6.0-23.0"}}, {"uniqueid": "w75745673:a66051473", "current_trial": 119, "dateTime": 1664464609135, "trialdata": {"rt": 778, "stimulus": "<p id='stroop-text' class='stroop-yellow'>GREEN</p>", "response": "y", "stimulus-type": "incongruent", "word": "green", "color": "yellow", "correct_response": "y", "trial_id": "stroop-trial-1-incongruent-6", "trial_type": "html-keyboard-response", "trial_index": 119, "time_elapsed": 584715, "internal_node_id": "0.0-6.0-24.0"}}, {"uniqueid": "w75745673:a66051473", "current_trial": 120, "dateTime": 1664464610576, "trialdata": {"rt": 932, "stimulus": "<p id='stroop-text' class='stroop-green'>GREEN</p>", "response": "g", "stimulus-type": "congruent", "word": "green", "color": "green", "correct_response": "g", "trial_id": "stroop-trial-1-congruent-6", "trial_type": "html-keyboard-response", "trial_index": 120, "time_elapsed": 586155, "internal_node_id": "0.0-6.0-25.0"}}, {"uniqueid": "w75745673:a66051473", "current_trial": 121, "dateTime": 1664464612049, "trialdata": {"rt": 963, "stimulus": "<p id='stroop-text' class='stroop-red'>GREEN</p>", "response": "r", "stimulus-type": "incongruent", "word": "green", "color": "red", "correct_response": "r", "trial_id": "stroop-trial-1-incongruent-18", "trial_type": "html-keyboard-response", "trial_index": 121, "time_elapsed": 587628, "internal_node_id": "0.0-6.0-26.0"}}, {"uniqueid": "w75745673:a66051473", "current_trial": 122, "dateTime": 1664464613228, "trialdata": {"rt": 675, "stimulus": "<p id='stroop-text' class='stroop-yellow'>BRIDGE</p>", "response": "y", "stimulus-type": "unrelated", "word": "BRIDGE", "color": "yellow", "correct_response": "y", "trial_id": "stroop-trial-1-unrelated-25", "trial_type": "html-keyboard-response", "trial_index": 122, "time_elapsed": 588807, "internal_node_id": "0.0-6.0-27.0"}}, {"uniqueid": "w75745673:a66051473", "current_trial": 123, "dateTime": 1664464614492, "trialdata": {"rt": 749, "stimulus": "<p id='stroop-text' class='stroop-red'>RED</p>", "response": "r", "stimulus-type": "congruent", "word": "red", "color": "red", "correct_response": "r", "trial_id": "stroop-trial-1-congruent-24", "trial_type": "html-keyboard-response", "trial_index": 123, "time_elapsed": 590071, "internal_node_id": "0.0-6.0-28.0"}}, {"uniqueid": "w75745673:a66051473", "current_trial": 124, "dateTime": 1664464615742, "trialdata": {"rt": 744, "stimulus": "<p id='stroop-text' class='stroop-yellow'>YELLOW</p>", "response": "y", "stimulus-type": "congruent", "word": "yellow", "color": "yellow", "correct_response": "y", "trial_id": "stroop-trial-1-congruent-4", "trial_type": "html-keyboard-response", "trial_index": 124, "time_elapsed": 591321, "internal_node_id": "0.0-6.0-29.0"}}, {"uniqueid": "w75745673:a66051473", "current_trial": 125, "dateTime": 1664464619032, "trialdata": {"rt": 2782, "stimulus": "<p id='stroop-text' class='stroop-green'>BLUE</p>", "response": "g", "stimulus-type": "incongruent", "word": "blue", "color": "green", "correct_response": "g", "trial_id": "stroop-trial-1-incongruent-23", "trial_type": "html-keyboard-response", "trial_index": 125, "time_elapsed": 594611, "internal_node_id": "0.0-6.0-30.0"}}, {"uniqueid": "w75745673:a66051473", "current_trial": 126, "dateTime": 1664464623829, "trialdata": {"rt": 4290, "stimulus": "<p id='stroop-text' class='stroop-red'>RED</p>", "response": "r", "stimulus-type": "congruent", "word": "red", "color": "red", "correct_response": "r", "trial_id": "stroop-trial-1-congruent-23", "trial_type": "html-keyboard-response", "trial_index": 126, "time_elapsed": 599409, "internal_node_id": "0.0-6.0-31.0"}}, {"uniqueid": "w75745673:a66051473", "current_trial": 127, "dateTime": 1664464625290, "trialdata": {"rt": 951, "stimulus": "<p id='stroop-text' class='stroop-green'>GREEN</p>", "response": "g", "stimulus-type": "congruent", "word": "green", "color": "green", "correct_response": "g", "trial_id": "stroop-trial-1-congruent-7", "trial_type": "html-keyboard-response", "trial_index": 127, "time_elapsed": 600869, "internal_node_id": "0.0-6.0-32.0"}}, {"uniqueid": "w75745673:a66051473", "current_trial": 128, "dateTime": 1664464626688, "trialdata": {"rt": 891, "stimulus": "<p id='stroop-text' class='stroop-blue'>BLUE</p>", "response": "b", "stimulus-type": "congruent", "word": "blue", "color": "blue", "correct_response": "b", "trial_id": "stroop-trial-1-congruent-19", "trial_type": "html-keyboard-response", "trial_index": 128, "time_elapsed": 602267, "internal_node_id": "0.0-6.0-33.0"}}, {"uniqueid": "w75745673:a66051473", "current_trial": 129, "dateTime": 1664464628069, "trialdata": {"rt": 874, "stimulus": "<p id='stroop-text' class='stroop-green'>GREEN</p>", "response": "g", "stimulus-type": "congruent", "word": "green", "color": "green", "correct_response": "g", "trial_id": "stroop-trial-1-congruent-28", "trial_type": "html-keyboard-response", "trial_index": 129, "time_elapsed": 603649, "internal_node_id": "0.0-6.0-34.0"}}, {"uniqueid": "w75745673:a66051473", "current_trial": 130, "dateTime": 1664464629101, "trialdata": {"rt": 522, "stimulus": "<p id='stroop-text' class='stroop-green'>YELLOW</p>", "response": "g", "stimulus-type": "incongruent", "word": "yellow", "color": "green", "correct_response": "g", "trial_id": "stroop-trial-1-incongruent-10", "trial_type": "html-keyboard-response", "trial_index": 130, "time_elapsed": 604681, "internal_node_id": "0.0-6.0-35.0"}}, {"uniqueid": "w75745673:a66051473", "current_trial": 131, "dateTime": 1664464630240, "trialdata": {"rt": 632, "stimulus": "<p id='stroop-text' class='stroop-blue'>GREEN</p>", "response": "b", "stimulus-type": "incongruent", "word": "green", "color": "blue", "correct_response": "b", "trial_id": "stroop-trial-1-incongruent-22", "trial_type": "html-keyboard-response", "trial_index": 131, "time_elapsed": 605819, "internal_node_id": "0.0-6.0-36.0"}}, {"uniqueid": "w75745673:a66051473", "current_trial": 132, "dateTime": 1664464631552, "trialdata": {"rt": 809, "stimulus": "<p id='stroop-text' class='stroop-green'>GREEN</p>", "response": "g", "stimulus-type": "congruent", "word": "green", "color": "green", "correct_response": "g", "trial_id": "stroop-trial-1-congruent-22", "trial_type": "html-keyboard-response", "trial_index": 132, "time_elapsed": 607131, "internal_node_id": "0.0-6.0-37.0"}}, {"uniqueid": "w75745673:a66051473", "current_trial": 133, "dateTime": 1664464632651, "trialdata": {"rt": 592, "stimulus": "<p id='stroop-text' class='stroop-green'>GREEN</p>", "response": "g", "stimulus-type": "congruent", "word": "green", "color": "green", "correct_response": "g", "trial_id": "stroop-trial-1-congruent-11", "trial_type": "html-keyboard-response", "trial_index": 133, "time_elapsed": 608231, "internal_node_id": "0.0-6.0-38.0"}}, {"uniqueid": "w75745673:a66051473", "current_trial": 134, "dateTime": 1664464634057, "trialdata": {"rt": 901, "stimulus": "<p id='stroop-text' class='stroop-blue'>RED</p>", "response": "b", "stimulus-type": "incongruent", "word": "red", "color": "blue", "correct_response": "b", "trial_id": "stroop-trial-1-incongruent-15", "trial_type": "html-keyboard-response", "trial_index": 134, "time_elapsed": 609637, "internal_node_id": "0.0-6.0-39.0"}}, {"uniqueid": "w75745673:a66051473", "current_trial": 135, "dateTime": 1664464636026, "trialdata": {"rt": 1465, "stimulus": "<p id='stroop-text' class='stroop-blue'>GREEN</p>", "response": "b", "stimulus-type": "incongruent", "word": "green", "color": "blue", "correct_response": "b", "trial_id": "stroop-trial-1-incongruent-11", "trial_type": "html-keyboard-response", "trial_index": 135, "time_elapsed": 611605, "internal_node_id": "0.0-6.0-40.0"}}, {"uniqueid": "w75745673:a66051473", "current_trial": 136, "dateTime": 1664464637246, "trialdata": {"rt": 716, "stimulus": "<p id='stroop-text' class='stroop-green'>GREEN</p>", "response": "g", "stimulus-type": "congruent", "word": "green", "color": "green", "correct_response": "g", "trial_id": "stroop-trial-1-congruent-14", "trial_type": "html-keyboard-response", "trial_index": 136, "time_elapsed": 612826, "internal_node_id": "0.0-6.0-41.0"}}, {"uniqueid": "w75745673:a66051473", "current_trial": 137, "dateTime": 1664464638258, "trialdata": {"rt": 504, "stimulus": "<p id='stroop-text' class='stroop-green'>BRAIN</p>", "response": "g", "stimulus-type": "unrelated", "word": "BRAIN", "color": "green", "correct_response": "g", "trial_id": "stroop-trial-1-unrelated-23", "trial_type": "html-keyboard-response", "trial_index": 137, "time_elapsed": 613838, "internal_node_id": "0.0-6.0-42.0"}}, {"uniqueid": "w75745673:a66051473", "current_trial": 138, "dateTime": 1664464639718, "trialdata": {"rt": 953, "stimulus": "<p id='stroop-text' class='stroop-red'>BRIDGE</p>", "response": "r", "stimulus-type": "unrelated", "word": "BRIDGE", "color": "red", "correct_response": "r", "trial_id": "stroop-trial-1-unrelated-6", "trial_type": "html-keyboard-response", "trial_index": 138, "time_elapsed": 615298, "internal_node_id": "0.0-6.0-43.0"}}, {"uniqueid": "w75745673:a66051473", "current_trial": 139, "dateTime": 1664464640933, "trialdata": {"rt": 712, "stimulus": "<p id='stroop-text' class='stroop-red'>RED</p>", "response": "r", "stimulus-type": "congruent", "word": "red", "color": "red", "correct_response": "r", "trial_id": "stroop-trial-1-congruent-9", "trial_type": "html-keyboard-response", "trial_index": 139, "time_elapsed": 616513, "internal_node_id": "0.0-6.0-44.0"}}, {"uniqueid": "w75745673:a66051473", "current_trial": 140, "dateTime": 1664464642108, "trialdata": {"rt": 666, "stimulus": "<p id='stroop-text' class='stroop-blue'>BRAIN</p>", "response": "b", "stimulus-type": "unrelated", "word": "BRAIN", "color": "blue", "correct_response": "b", "trial_id": "stroop-trial-1-unrelated-22", "trial_type": "html-keyboard-response", "trial_index": 140, "time_elapsed": 617687, "internal_node_id": "0.0-6.0-45.0"}}, {"uniqueid": "w75745673:a66051473", "current_trial": 141, "dateTime": 1664464643258, "trialdata": {"rt": 633, "stimulus": "<p id='stroop-text' class='stroop-yellow'>YELLOW</p>", "response": "y", "stimulus-type": "congruent", "word": "yellow", "color": "yellow", "correct_response": "y", "trial_id": "stroop-trial-1-congruent-20", "trial_type": "html-keyboard-response", "trial_index": 141, "time_elapsed": 618838, "internal_node_id": "0.0-6.0-46.0"}}, {"uniqueid": "w75745673:a66051473", "current_trial": 142, "dateTime": 1664464644593, "trialdata": {"rt": 819, "stimulus": "<p id='stroop-text' class='stroop-red'>RED</p>", "response": "r", "stimulus-type": "congruent", "word": "red", "color": "red", "correct_response": "r", "trial_id": "stroop-trial-1-congruent-1", "trial_type": "html-keyboard-response", "trial_index": 142, "time_elapsed": 620173, "internal_node_id": "0.0-6.0-47.0"}}, {"uniqueid": "w75745673:a66051473", "current_trial": 143, "dateTime": 1664464645685, "trialdata": {"rt": 572, "stimulus": "<p id='stroop-text' class='stroop-red'>RED</p>", "response": "r", "stimulus-type": "congruent", "word": "red", "color": "red", "correct_response": "r", "trial_id": "stroop-trial-1-congruent-13", "trial_type": "html-keyboard-response", "trial_index": 143, "time_elapsed": 621265, "internal_node_id": "0.0-6.0-48.0"}}, {"uniqueid": "w75745673:a66051473", "current_trial": 144, "dateTime": 1664464646801, "trialdata": {"rt": 609, "stimulus": "<p id='stroop-text' class='stroop-red'>GREEN</p>", "response": "r", "stimulus-type": "incongruent", "word": "green", "color": "red", "correct_response": "r", "trial_id": "stroop-trial-1-incongruent-29", "trial_type": "html-keyboard-response", "trial_index": 144, "time_elapsed": 622380, "internal_node_id": "0.0-6.0-49.0"}}, {"uniqueid": "w75745673:a66051473", "current_trial": 145, "dateTime": 1664464648115, "trialdata": {"rt": 796, "stimulus": "<p id='stroop-text' class='stroop-blue'>WINDOW</p>", "response": "b", "stimulus-type": "unrelated", "word": "WINDOW", "color": "blue", "correct_response": "b", "trial_id": "stroop-trial-1-unrelated-16", "trial_type": "html-keyboard-response", "trial_index": 145, "time_elapsed": 623694, "internal_node_id": "0.0-6.0-50.0"}}, {"uniqueid": "w75745673:a66051473", "current_trial": 146, "dateTime": 1664464649284, "trialdata": {"rt": 658, "stimulus": "<p id='stroop-text' class='stroop-red'>BLUE</p>", "response": "r", "stimulus-type": "incongruent", "word": "blue", "color": "red", "correct_response": "r", "trial_id": "stroop-trial-1-incongruent-9", "trial_type": "html-keyboard-response", "trial_index": 146, "time_elapsed": 624864, "internal_node_id": "0.0-6.0-51.0"}}, {"uniqueid": "w75745673:a66051473", "current_trial": 147, "dateTime": 1664464650605, "trialdata": {"rt": 816, "stimulus": "<p id='stroop-text' class='stroop-green'>YELLOW</p>", "response": "g", "stimulus-type": "incongruent", "word": "yellow", "color": "green", "correct_response": "g", "trial_id": "stroop-trial-1-incongruent-25", "trial_type": "html-keyboard-response", "trial_index": 147, "time_elapsed": 626184, "internal_node_id": "0.0-6.0-52.0"}}, {"uniqueid": "w75745673:a66051473", "current_trial": 148, "dateTime": 1664464652128, "trialdata": {"rt": 1012, "stimulus": "<p id='stroop-text' class='stroop-yellow'>BLUE</p>", "response": "y", "stimulus-type": "incongruent", "word": "blue", "color": "yellow", "correct_response": "y", "trial_id": "stroop-trial-1-incongruent-21", "trial_type": "html-keyboard-response", "trial_index": 148, "time_elapsed": 627707, "internal_node_id": "0.0-6.0-53.0"}}, {"uniqueid": "w75745673:a66051473", "current_trial": 149, "dateTime": 1664464653519, "trialdata": {"rt": 884, "stimulus": "<p id='stroop-text' class='stroop-red'>GREEN</p>", "response": "r", "stimulus-type": "incongruent", "word": "green", "color": "red", "correct_response": "r", "trial_id": "stroop-trial-1-incongruent-19", "trial_type": "html-keyboard-response", "trial_index": 149, "time_elapsed": 629099, "internal_node_id": "0.0-6.0-54.0"}}, {"uniqueid": "w75745673:a66051473", "current_trial": 150, "dateTime": 1664464654820, "trialdata": {"rt": 791, "stimulus": "<p id='stroop-text' class='stroop-blue'>MONKEY</p>", "response": "b", "stimulus-type": "unrelated", "word": "MONKEY", "color": "blue", "correct_response": "b", "trial_id": "stroop-trial-1-unrelated-30", "trial_type": "html-keyboard-response", "trial_index": 150, "time_elapsed": 630400, "internal_node_id": "0.0-6.0-55.0"}}, {"uniqueid": "w75745673:a66051473", "current_trial": 151, "dateTime": 1664464656759, "trialdata": {"rt": 1432, "stimulus": "<p id='stroop-text' class='stroop-red'>BLUE</p>", "response": "r", "stimulus-type": "incongruent", "word": "blue", "color": "red", "correct_response": "r", "trial_id": "stroop-trial-1-incongruent-30", "trial_type": "html-keyboard-response", "trial_index": 151, "time_elapsed": 632338, "internal_node_id": "0.0-6.0-56.0"}}, {"uniqueid": "w75745673:a66051473", "current_trial": 152, "dateTime": 1664464657962, "trialdata": {"rt": 690, "stimulus": "<p id='stroop-text' class='stroop-green'>BLUE</p>", "response": "g", "stimulus-type": "incongruent", "word": "blue", "color": "green", "correct_response": "g", "trial_id": "stroop-trial-1-incongruent-3", "trial_type": "html-keyboard-response", "trial_index": 152, "time_elapsed": 633542, "internal_node_id": "0.0-6.0-57.0"}}, {"uniqueid": "w75745673:a66051473", "current_trial": 153, "dateTime": 1664464659223, "trialdata": {"rt": 749, "stimulus": "<p id='stroop-text' class='stroop-blue'>GREEN</p>", "response": "b", "stimulus-type": "incongruent", "word": "green", "color": "blue", "correct_response": "b", "trial_id": "stroop-trial-1-incongruent-20", "trial_type": "html-keyboard-response", "trial_index": 153, "time_elapsed": 634803, "internal_node_id": "0.0-6.0-58.0"}}, {"uniqueid": "w75745673:a66051473", "current_trial": 154, "dateTime": 1664464660410, "trialdata": {"rt": 675, "stimulus": "<p id='stroop-text' class='stroop-green'>BOAT</p>", "response": "g", "stimulus-type": "unrelated", "word": "BOAT", "color": "green", "correct_response": "g", "trial_id": "stroop-trial-1-unrelated-26", "trial_type": "html-keyboard-response", "trial_index": 154, "time_elapsed": 635989, "internal_node_id": "0.0-6.0-59.0"}}, {"uniqueid": "w75745673:a66051473", "current_trial": 155, "dateTime": 1664464661571, "trialdata": {"rt": 654, "stimulus": "<p id='stroop-text' class='stroop-blue'>BRAIN</p>", "response": "b", "stimulus-type": "unrelated", "word": "BRAIN", "color": "blue", "correct_response": "b", "trial_id": "stroop-trial-1-unrelated-28", "trial_type": "html-keyboard-response", "trial_index": 155, "time_elapsed": 637151, "internal_node_id": "0.0-6.0-60.0"}}, {"uniqueid": "w75745673:a66051473", "current_trial": 156, "dateTime": 1664464662644, "trialdata": {"rt": 564, "stimulus": "<p id='stroop-text' class='stroop-green'>GREEN</p>", "response": "g", "stimulus-type": "congruent", "word": "green", "color": "green", "correct_response": "g", "trial_id": "stroop-trial-1-congruent-10", "trial_type": "html-keyboard-response", "trial_index": 156, "time_elapsed": 638224, "internal_node_id": "0.0-6.0-61.0"}}, {"uniqueid": "w75745673:a66051473", "current_trial": 157, "dateTime": 1664464663806, "trialdata": {"rt": 647, "stimulus": "<p id='stroop-text' class='stroop-yellow'>RED</p>", "response": "y", "stimulus-type": "incongruent", "word": "red", "color": "yellow", "correct_response": "y", "trial_id": "stroop-trial-1-incongruent-4", "trial_type": "html-keyboard-response", "trial_index": 157, "time_elapsed": 639385, "internal_node_id": "0.0-6.0-62.0"}}, {"uniqueid": "w75745673:a66051473", "current_trial": 158, "dateTime": 1664464665088, "trialdata": {"rt": 772, "stimulus": "<p id='stroop-text' class='stroop-red'>RED</p>", "response": "r", "stimulus-type": "congruent", "word": "red", "color": "red", "correct_response": "r", "trial_id": "stroop-trial-1-congruent-26", "trial_type": "html-keyboard-response", "trial_index": 158, "time_elapsed": 640668, "internal_node_id": "0.0-6.0-63.0"}}, {"uniqueid": "w75745673:a66051473", "current_trial": 159, "dateTime": 1664464666204, "trialdata": {"rt": 612, "stimulus": "<p id='stroop-text' class='stroop-red'>BLUE</p>", "response": "r", "stimulus-type": "incongruent", "word": "blue", "color": "red", "correct_response": "r", "trial_id": "stroop-trial-1-incongruent-28", "trial_type": "html-keyboard-response", "trial_index": 159, "time_elapsed": 641784, "internal_node_id": "0.0-6.0-64.0"}}, {"uniqueid": "w75745673:a66051473", "current_trial": 160, "dateTime": 1664464667454, "trialdata": {"rt": 741, "stimulus": "<p id='stroop-text' class='stroop-yellow'>WINDOW</p>", "response": "y", "stimulus-type": "unrelated", "word": "WINDOW", "color": "yellow", "correct_response": "y", "trial_id": "stroop-trial-1-unrelated-1", "trial_type": "html-keyboard-response", "trial_index": 160, "time_elapsed": 643034, "internal_node_id": "0.0-6.0-65.0"}}, {"uniqueid": "w75745673:a66051473", "current_trial": 161, "dateTime": 1664464669056, "trialdata": {"rt": 1089, "stimulus": "<p id='stroop-text' class='stroop-yellow'>YELLOW</p>", "response": "y", "stimulus-type": "congruent", "word": "yellow", "color": "yellow", "correct_response": "y", "trial_id": "stroop-trial-1-congruent-12", "trial_type": "html-keyboard-response", "trial_index": 161, "time_elapsed": 644635, "internal_node_id": "0.0-6.0-66.0"}}, {"uniqueid": "w75745673:a66051473", "current_trial": 162, "dateTime": 1664464670030, "trialdata": {"rt": 468, "stimulus": "<p id='stroop-text' class='stroop-yellow'>CHAIR</p>", "response": "y", "stimulus-type": "unrelated", "word": "CHAIR", "color": "yellow", "correct_response": "y", "trial_id": "stroop-trial-1-unrelated-19", "trial_type": "html-keyboard-response", "trial_index": 162, "time_elapsed": 645610, "internal_node_id": "0.0-6.0-67.0"}}, {"uniqueid": "w75745673:a66051473", "current_trial": 163, "dateTime": 1664464671341, "trialdata": {"rt": 797, "stimulus": "<p id='stroop-text' class='stroop-red'>GREEN</p>", "response": "r", "stimulus-type": "incongruent", "word": "green", "color": "red", "correct_response": "r", "trial_id": "stroop-trial-1-incongruent-17", "trial_type": "html-keyboard-response", "trial_index": 163, "time_elapsed": 646920, "internal_node_id": "0.0-6.0-68.0"}}, {"uniqueid": "w75745673:a66051473", "current_trial": 164, "dateTime": 1664464673486, "trialdata": {"rt": 1626, "stimulus": "<p id='stroop-text' class='stroop-green'>GREEN</p>", "response": "g", "stimulus-type": "congruent", "word": "green", "color": "green", "correct_response": "g", "trial_id": "stroop-trial-1-congruent-27", "trial_type": "html-keyboard-response", "trial_index": 164, "time_elapsed": 649065, "internal_node_id": "0.0-6.0-69.0"}}, {"uniqueid": "w75745673:a66051473", "current_trial": 165, "dateTime": 1664464674982, "trialdata": {"rt": 987, "stimulus": "<p id='stroop-text' class='stroop-yellow'>STONE</p>", "response": "y", "stimulus-type": "unrelated", "word": "STONE", "color": "yellow", "correct_response": "y", "trial_id": "stroop-trial-1-unrelated-13", "trial_type": "html-keyboard-response", "trial_index": 165, "time_elapsed": 650561, "internal_node_id": "0.0-6.0-70.0"}}, {"uniqueid": "w75745673:a66051473", "current_trial": 166, "dateTime": 1664464676719, "trialdata": {"rt": 1222, "stimulus": "<p id='stroop-text' class='stroop-green'>BOTTLE</p>", "response": "g", "stimulus-type": "unrelated", "word": "BOTTLE", "color": "green", "correct_response": "g", "trial_id": "stroop-trial-1-unrelated-21", "trial_type": "html-keyboard-response", "trial_index": 166, "time_elapsed": 652298, "internal_node_id": "0.0-6.0-71.0"}}, {"uniqueid": "w75745673:a66051473", "current_trial": 167, "dateTime": 1664464678110, "trialdata": {"rt": 881, "stimulus": "<p id='stroop-text' class='stroop-red'>BLUE</p>", "response": "r", "stimulus-type": "incongruent", "word": "blue", "color": "red", "correct_response": "r", "trial_id": "stroop-trial-1-incongruent-24", "trial_type": "html-keyboard-response", "trial_index": 167, "time_elapsed": 653689, "internal_node_id": "0.0-6.0-72.0"}}, {"uniqueid": "w75745673:a66051473", "current_trial": 168, "dateTime": 1664464679381, "trialdata": {"rt": 752, "stimulus": "<p id='stroop-text' class='stroop-yellow'>YELLOW</p>", "response": "y", "stimulus-type": "congruent", "word": "yellow", "color": "yellow", "correct_response": "y", "trial_id": "stroop-trial-1-congruent-3", "trial_type": "html-keyboard-response", "trial_index": 168, "time_elapsed": 654960, "internal_node_id": "0.0-6.0-73.0"}}, {"uniqueid": "w75745673:a66051473", "current_trial": 169, "dateTime": 1664464681207, "trialdata": {"rt": 1320, "stimulus": "<p id='stroop-text' class='stroop-yellow'>BLUE</p>", "response": "y", "stimulus-type": "incongruent", "word": "blue", "color": "yellow", "correct_response": "y", "trial_id": "stroop-trial-1-incongruent-16", "trial_type": "html-keyboard-response", "trial_index": 169, "time_elapsed": 656786, "internal_node_id": "0.0-6.0-74.0"}}, {"uniqueid": "w75745673:a66051473", "current_trial": 170, "dateTime": 1664464682445, "trialdata": {"rt": 731, "stimulus": "<p id='stroop-text' class='stroop-yellow'>BLUE</p>", "response": "y", "stimulus-type": "incongruent", "word": "blue", "color": "yellow", "correct_response": "y", "trial_id": "stroop-trial-1-incongruent-26", "trial_type": "html-keyboard-response", "trial_index": 170, "time_elapsed": 658025, "internal_node_id": "0.0-6.0-75.0"}}, {"uniqueid": "w75745673:a66051473", "current_trial": 171, "dateTime": 1664464683737, "trialdata": {"rt": 783, "stimulus": "<p id='stroop-text' class='stroop-green'>BRIDGE</p>", "response": "g", "stimulus-type": "unrelated", "word": "BRIDGE", "color": "green", "correct_response": "g", "trial_id": "stroop-trial-1-unrelated-17", "trial_type": "html-keyboard-response", "trial_index": 171, "time_elapsed": 659317, "internal_node_id": "0.0-6.0-76.0"}}, {"uniqueid": "w75745673:a66051473", "current_trial": 172, "dateTime": 1664464684840, "trialdata": {"rt": 592, "stimulus": "<p id='stroop-text' class='stroop-green'>BLUE</p>", "response": "g", "stimulus-type": "incongruent", "word": "blue", "color": "green", "correct_response": "g", "trial_id": "stroop-trial-1-incongruent-13", "trial_type": "html-keyboard-response", "trial_index": 172, "time_elapsed": 660420, "internal_node_id": "0.0-6.0-77.0"}}, {"uniqueid": "w75745673:a66051473", "current_trial": 173, "dateTime": 1664464685777, "trialdata": {"rt": 428, "stimulus": "<p id='stroop-text' class='stroop-green'>GREEN</p>", "response": "g", "stimulus-type": "congruent", "word": "green", "color": "green", "correct_response": "g", "trial_id": "stroop-trial-1-congruent-2", "trial_type": "html-keyboard-response", "trial_index": 173, "time_elapsed": 661357, "internal_node_id": "0.0-6.0-78.0"}}, {"uniqueid": "w75745673:a66051473", "current_trial": 174, "dateTime": 1664464686865, "trialdata": {"rt": 570, "stimulus": "<p id='stroop-text' class='stroop-red'>GREEN</p>", "response": "r", "stimulus-type": "incongruent", "word": "green", "color": "red", "correct_response": "r", "trial_id": "stroop-trial-1-incongruent-8", "trial_type": "html-keyboard-response", "trial_index": 174, "time_elapsed": 662445, "internal_node_id": "0.0-6.0-79.0"}}, {"uniqueid": "w75745673:a66051473", "current_trial": 175, "dateTime": 1664464688254, "trialdata": {"rt": 880, "stimulus": "<p id='stroop-text' class='stroop-yellow'>BOTTLE</p>", "response": "y", "stimulus-type": "unrelated", "word": "BOTTLE", "color": "yellow", "correct_response": "y", "trial_id": "stroop-trial-1-unrelated-12", "trial_type": "html-keyboard-response", "trial_index": 175, "time_elapsed": 663834, "internal_node_id": "0.0-6.0-80.0"}}, {"uniqueid": "w75745673:a66051473", "current_trial": 176, "dateTime": 1664464689433, "trialdata": {"rt": 675, "stimulus": "<p id='stroop-text' class='stroop-red'>RED</p>", "response": "r", "stimulus-type": "congruent", "word": "red", "color": "red", "correct_response": "r", "trial_id": "stroop-trial-1-congruent-18", "trial_type": "html-keyboard-response", "trial_index": 176, "time_elapsed": 665012, "internal_node_id": "0.0-6.0-81.0"}}, {"uniqueid": "w75745673:a66051473", "current_trial": 177, "dateTime": 1664464690431, "trialdata": {"rt": 485, "stimulus": "<p id='stroop-text' class='stroop-red'>GREEN</p>", "response": "r", "stimulus-type": "incongruent", "word": "green", "color": "red", "correct_response": "r", "trial_id": "stroop-trial-1-incongruent-14", "trial_type": "html-keyboard-response", "trial_index": 177, "time_elapsed": 666011, "internal_node_id": "0.0-6.0-82.0"}}, {"uniqueid": "w75745673:a66051473", "current_trial": 178, "dateTime": 1664464691786, "trialdata": {"rt": 850, "stimulus": "<p id='stroop-text' class='stroop-blue'>BLUE</p>", "response": "b", "stimulus-type": "congruent", "word": "blue", "color": "blue", "correct_response": "b", "trial_id": "stroop-trial-1-congruent-16", "trial_type": "html-keyboard-response", "trial_index": 178, "time_elapsed": 667365, "internal_node_id": "0.0-6.0-83.0"}}, {"uniqueid": "w75745673:a66051473", "current_trial": 179, "dateTime": 1664464693008, "trialdata": {"rt": 701, "stimulus": "<p id='stroop-text' class='stroop-red'>BRAIN</p>", "response": "r", "stimulus-type": "unrelated", "word": "BRAIN", "color": "red", "correct_response": "r", "trial_id": "stroop-trial-1-unrelated-5", "trial_type": "html-keyboard-response", "trial_index": 179, "time_elapsed": 668588, "internal_node_id": "0.0-6.0-84.0"}}, {"uniqueid": "w75745673:a66051473", "current_trial": 180, "dateTime": 1664464693972, "trialdata": {"rt": 455, "stimulus": "<p id='stroop-text' class='stroop-red'>STONE</p>", "response": "r", "stimulus-type": "unrelated", "word": "STONE", "color": "red", "correct_response": "r", "trial_id": "stroop-trial-1-unrelated-29", "trial_type": "html-keyboard-response", "trial_index": 180, "time_elapsed": 669552, "internal_node_id": "0.0-6.0-85.0"}}, {"uniqueid": "w75745673:a66051473", "current_trial": 181, "dateTime": 1664464695276, "trialdata": {"rt": 796, "stimulus": "<p id='stroop-text' class='stroop-green'>GREEN</p>", "response": "g", "stimulus-type": "congruent", "word": "green", "color": "green", "correct_response": "g", "trial_id": "stroop-trial-1-congruent-29", "trial_type": "html-keyboard-response", "trial_index": 181, "time_elapsed": 670855, "internal_node_id": "0.0-6.0-86.0"}}, {"uniqueid": "w75745673:a66051473", "current_trial": 182, "dateTime": 1664464696251, "trialdata": {"rt": 466, "stimulus": "<p id='stroop-text' class='stroop-green'>FORK</p>", "response": "g", "stimulus-type": "unrelated", "word": "FORK", "color": "green", "correct_response": "g", "trial_id": "stroop-trial-1-unrelated-24", "trial_type": "html-keyboard-response", "trial_index": 182, "time_elapsed": 671831, "internal_node_id": "0.0-6.0-87.0"}}, {"uniqueid": "w75745673:a66051473", "current_trial": 183, "dateTime": 1664464697322, "trialdata": {"rt": 562, "stimulus": "<p id='stroop-text' class='stroop-yellow'>DOG</p>", "response": "y", "stimulus-type": "unrelated", "word": "DOG", "color": "yellow", "correct_response": "y", "trial_id": "stroop-trial-1-unrelated-2", "trial_type": "html-keyboard-response", "trial_index": 183, "time_elapsed": 672902, "internal_node_id": "0.0-6.0-88.0"}}, {"uniqueid": "w75745673:a66051473", "current_trial": 184, "dateTime": 1664464698432, "trialdata": {"rt": 594, "stimulus": "<p id='stroop-text' class='stroop-red'>RED</p>", "response": "r", "stimulus-type": "congruent", "word": "red", "color": "red", "correct_response": "r", "trial_id": "stroop-trial-1-congruent-17", "trial_type": "html-keyboard-response", "trial_index": 184, "time_elapsed": 674011, "internal_node_id": "0.0-6.0-89.0"}}, {"uniqueid": "w75745673:a66051473", "current_trial": 185, "dateTime": 1664464705060, "trialdata": {"rt": 6115, "stimulus": "  <h1> End of block! </h1>\n\n  You have reached the end of the block 2/5. If you need a short break, feel free to take one now before moving on.\n\n  <br><br>\n  In the next block, you will complete another 90 rounds of this game.\n\n  <br><br>\n  <div style='text-align: center;'>Press <code>space</code> to begin.</div>\n  <br><br>\n<div style='text-align: center;'>(If the experiment doesn't continue, try clicking on the text and then pressing <code>space</code>.)</div>", "response": " ", "trial_id": "stroop_1_ready_3", "trial_type": "html-keyboard-response", "trial_index": 185, "time_elapsed": 680640, "internal_node_id": "0.0-7.0"}}, {"uniqueid": "w75745673:a66051473", "current_trial": 186, "dateTime": 1664464707059, "trialdata": {"rt": 1992, "stimulus": "<p id='stroop-text' class='stroop-yellow'>RED</p>", "response": "y", "stimulus-type": "incongruent", "word": "red", "color": "yellow", "correct_response": "y", "trial_id": "stroop-trial-1-incongruent-2", "trial_type": "html-keyboard-response", "trial_index": 186, "time_elapsed": 682638, "internal_node_id": "0.0-8.0-0.0"}}, {"uniqueid": "w75745673:a66051473", "current_trial": 187, "dateTime": 1664464709053, "trialdata": {"rt": 1486, "stimulus": "<p id='stroop-text' class='stroop-blue'>GREEN</p>", "response": "b", "stimulus-type": "incongruent", "word": "green", "color": "blue", "correct_response": "b", "trial_id": "stroop-trial-1-incongruent-28", "trial_type": "html-keyboard-response", "trial_index": 187, "time_elapsed": 684633, "internal_node_id": "0.0-8.0-1.0"}}, {"uniqueid": "w75745673:a66051473", "current_trial": 188, "dateTime": 1664464710665, "trialdata": {"rt": 1108, "stimulus": "<p id='stroop-text' class='stroop-red'>SHIP</p>", "response": "r", "stimulus-type": "unrelated", "word": "SHIP", "color": "red", "correct_response": "r", "trial_id": "stroop-trial-1-unrelated-3", "trial_type": "html-keyboard-response", "trial_index": 188, "time_elapsed": 686244, "internal_node_id": "0.0-8.0-2.0"}}, {"uniqueid": "w75745673:a66051473", "current_trial": 189, "dateTime": 1664464714714, "trialdata": {"rt": 3540, "stimulus": "<p id='stroop-text' class='stroop-red'>SHIP</p>", "response": "r", "stimulus-type": "unrelated", "word": "SHIP", "color": "red", "correct_response": "r", "trial_id": "stroop-trial-1-unrelated-29", "trial_type": "html-keyboard-response", "trial_index": 189, "time_elapsed": 690294, "internal_node_id": "0.0-8.0-3.0"}}, {"uniqueid": "w75745673:a66051473", "current_trial": 190, "dateTime": 1664464716079, "trialdata": {"rt": 853, "stimulus": "<p id='stroop-text' class='stroop-green'>GREEN</p>", "response": "g", "stimulus-type": "congruent", "word": "green", "color": "green", "correct_response": "g", "trial_id": "stroop-trial-1-congruent-18", "trial_type": "html-keyboard-response", "trial_index": 190, "time_elapsed": 691658, "internal_node_id": "0.0-8.0-4.0"}}, {"uniqueid": "w75745673:a66051473", "current_trial": 191, "dateTime": 1664464717774, "trialdata": {"rt": 1183, "stimulus": "<p id='stroop-text' class='stroop-yellow'>RED</p>", "response": "y", "stimulus-type": "incongruent", "word": "red", "color": "yellow", "correct_response": "y", "trial_id": "stroop-trial-1-incongruent-17", "trial_type": "html-keyboard-response", "trial_index": 191, "time_elapsed": 693354, "internal_node_id": "0.0-8.0-5.0"}}, {"uniqueid": "w75745673:a66051473", "current_trial": 192, "dateTime": 1664464718970, "trialdata": {"rt": 687, "stimulus": "<p id='stroop-text' class='stroop-red'>SHIP</p>", "response": "r", "stimulus-type": "unrelated", "word": "SHIP", "color": "red", "correct_response": "r", "trial_id": "stroop-trial-1-unrelated-15", "trial_type": "html-keyboard-response", "trial_index": 192, "time_elapsed": 694549, "internal_node_id": "0.0-8.0-6.0"}}, {"uniqueid": "w75745673:a66051473", "current_trial": 193, "dateTime": 1664464720325, "trialdata": {"rt": 847, "stimulus": "<p id='stroop-text' class='stroop-red'>YELLOW</p>", "response": "r", "stimulus-type": "incongruent", "word": "yellow", "color": "red", "correct_response": "r", "trial_id": "stroop-trial-1-incongruent-6", "trial_type": "html-keyboard-response", "trial_index": 193, "time_elapsed": 695905, "internal_node_id": "0.0-8.0-7.0"}}, {"uniqueid": "w75745673:a66051473", "current_trial": 194, "dateTime": 1664464721562, "trialdata": {"rt": 718, "stimulus": "<p id='stroop-text' class='stroop-green'>WINDOW</p>", "response": "g", "stimulus-type": "unrelated", "word": "WINDOW", "color": "green", "correct_response": "g", "trial_id": "stroop-trial-1-unrelated-21", "trial_type": "html-keyboard-response", "trial_index": 194, "time_elapsed": 697142, "internal_node_id": "0.0-8.0-8.0"}}, {"uniqueid": "w75745673:a66051473", "current_trial": 195, "dateTime": 1664464722901, "trialdata": {"rt": 828, "stimulus": "<p id='stroop-text' class='stroop-blue'>CHAIR</p>", "response": "b", "stimulus-type": "unrelated", "word": "CHAIR", "color": "blue", "correct_response": "b", "trial_id": "stroop-trial-1-unrelated-23", "trial_type": "html-keyboard-response", "trial_index": 195, "time_elapsed": 698481, "internal_node_id": "0.0-8.0-9.0"}}, {"uniqueid": "w75745673:a66051473", "current_trial": 196, "dateTime": 1664464724201, "trialdata": {"rt": 792, "stimulus": "<p id='stroop-text' class='stroop-green'>GREEN</p>", "response": "g", "stimulus-type": "congruent", "word": "green", "color": "green", "correct_response": "g", "trial_id": "stroop-trial-1-congruent-30", "trial_type": "html-keyboard-response", "trial_index": 196, "time_elapsed": 699781, "internal_node_id": "0.0-8.0-10.0"}}, {"uniqueid": "w75745673:a66051473", "current_trial": 197, "dateTime": 1664464725748, "trialdata": {"rt": 1038, "stimulus": "<p id='stroop-text' class='stroop-blue'>BRAIN</p>", "response": "b", "stimulus-type": "unrelated", "word": "BRAIN", "color": "blue", "correct_response": "b", "trial_id": "stroop-trial-1-unrelated-30", "trial_type": "html-keyboard-response", "trial_index": 197, "time_elapsed": 701328, "internal_node_id": "0.0-8.0-11.0"}}, {"uniqueid": "w75745673:a66051473", "current_trial": 198, "dateTime": 1664464727155, "trialdata": {"rt": 899, "stimulus": "<p id='stroop-text' class='stroop-yellow'>RED</p>", "response": "y", "stimulus-type": "incongruent", "word": "red", "color": "yellow", "correct_response": "y", "trial_id": "stroop-trial-1-incongruent-8", "trial_type": "html-keyboard-response", "trial_index": 198, "time_elapsed": 702734, "internal_node_id": "0.0-8.0-12.0"}}, {"uniqueid": "w75745673:a66051473", "current_trial": 199, "dateTime": 1664464730425, "trialdata": {"rt": 2757, "stimulus": "<p id='stroop-text' class='stroop-blue'>BLUE</p>", "response": "b", "stimulus-type": "congruent", "word": "blue", "color": "blue", "correct_response": "b", "trial_id": "stroop-trial-1-congruent-13", "trial_type": "html-keyboard-response", "trial_index": 199, "time_elapsed": 706005, "internal_node_id": "0.0-8.0-13.0"}}, {"uniqueid": "w75745673:a66051473", "current_trial": 200, "dateTime": 1664464731561, "trialdata": {"rt": 630, "stimulus": "<p id='stroop-text' class='stroop-yellow'>DOG</p>", "response": "y", "stimulus-type": "unrelated", "word": "DOG", "color": "yellow", "correct_response": "y", "trial_id": "stroop-trial-1-unrelated-14", "trial_type": "html-keyboard-response", "trial_index": 200, "time_elapsed": 707140, "internal_node_id": "0.0-8.0-14.0"}}, {"uniqueid": "w75745673:a66051473", "current_trial": 201, "dateTime": 1664464733320, "trialdata": {"rt": 1251, "stimulus": "<p id='stroop-text' class='stroop-red'>BLUE</p>", "response": "r", "stimulus-type": "incongruent", "word": "blue", "color": "red", "correct_response": "r", "trial_id": "stroop-trial-1-incongruent-24", "trial_type": "html-keyboard-response", "trial_index": 201, "time_elapsed": 708900, "internal_node_id": "0.0-8.0-15.0"}}, {"uniqueid": "w75745673:a66051473", "current_trial": 202, "dateTime": 1664464734545, "trialdata": {"rt": 716, "stimulus": "<p id='stroop-text' class='stroop-yellow'>YELLOW</p>", "response": "y", "stimulus-type": "congruent", "word": "yellow", "color": "yellow", "correct_response": "y", "trial_id": "stroop-trial-1-congruent-22", "trial_type": "html-keyboard-response", "trial_index": 202, "time_elapsed": 710124, "internal_node_id": "0.0-8.0-16.0"}}, {"uniqueid": "w75745673:a66051473", "current_trial": 203, "dateTime": 1664464735767, "trialdata": {"rt": 713, "stimulus": "<p id='stroop-text' class='stroop-green'>BLUE</p>", "response": "g", "stimulus-type": "incongruent", "word": "blue", "color": "green", "correct_response": "g", "trial_id": "stroop-trial-1-incongruent-7", "trial_type": "html-keyboard-response", "trial_index": 203, "time_elapsed": 711347, "internal_node_id": "0.0-8.0-17.0"}}, {"uniqueid": "w75745673:a66051473", "current_trial": 204, "dateTime": 1664464737142, "trialdata": {"rt": 869, "stimulus": "<p id='stroop-text' class='stroop-yellow'>GREEN</p>", "response": "r", "stimulus-type": "incongruent", "word": "green", "color": "yellow", "correct_response": "y", "trial_id": "stroop-trial-1-incongruent-30", "trial_type": "html-keyboard-response", "trial_index": 204, "time_elapsed": 712722, "internal_node_id": "0.0-8.0-18.0"}}, {"uniqueid": "w75745673:a66051473", "current_trial": 205, "dateTime": 1664464746011, "trialdata": {"rt": 8358, "stimulus": "<p id='stroop-text' class='stroop-red'>RED</p>", "response": "r", "stimulus-type": "congruent", "word": "red", "color": "red", "correct_response": "r", "trial_id": "stroop-trial-1-congruent-24", "trial_type": "html-keyboard-response", "trial_index": 205, "time_elapsed": 721591, "internal_node_id": "0.0-8.0-19.0"}}, {"uniqueid": "w75745673:a66051473", "current_trial": 206, "dateTime": 1664464747832, "trialdata": {"rt": 1312, "stimulus": "<p id='stroop-text' class='stroop-green'>GREEN</p>", "response": "g", "stimulus-type": "congruent", "word": "green", "color": "green", "correct_response": "g", "trial_id": "stroop-trial-1-congruent-27", "trial_type": "html-keyboard-response", "trial_index": 206, "time_elapsed": 723412, "internal_node_id": "0.0-8.0-20.0"}}, {"uniqueid": "w75745673:a66051473", "current_trial": 207, "dateTime": 1664464750184, "trialdata": {"rt": 1843, "stimulus": "<p id='stroop-text' class='stroop-red'>BLUE</p>", "response": "r", "stimulus-type": "incongruent", "word": "blue", "color": "red", "correct_response": "r", "trial_id": "stroop-trial-1-incongruent-18", "trial_type": "html-keyboard-response", "trial_index": 207, "time_elapsed": 725763, "internal_node_id": "0.0-8.0-21.0"}}, {"uniqueid": "w75745673:a66051473", "current_trial": 208, "dateTime": 1664464752654, "trialdata": {"rt": 1962, "stimulus": "<p id='stroop-text' class='stroop-blue'>BLUE</p>", "response": "b", "stimulus-type": "congruent", "word": "blue", "color": "blue", "correct_response": "b", "trial_id": "stroop-trial-1-congruent-14", "trial_type": "html-keyboard-response", "trial_index": 208, "time_elapsed": 728234, "internal_node_id": "0.0-8.0-22.0"}}, {"uniqueid": "w75745673:a66051473", "current_trial": 209, "dateTime": 1664464753785, "trialdata": {"rt": 622, "stimulus": "<p id='stroop-text' class='stroop-red'>RED</p>", "response": "r", "stimulus-type": "congruent", "word": "red", "color": "red", "correct_response": "r", "trial_id": "stroop-trial-1-congruent-17", "trial_type": "html-keyboard-response", "trial_index": 209, "time_elapsed": 729364, "internal_node_id": "0.0-8.0-23.0"}}, {"uniqueid": "w75745673:a66051473", "current_trial": 210, "dateTime": 1664464755715, "trialdata": {"rt": 1418, "stimulus": "<p id='stroop-text' class='stroop-red'>GREEN</p>", "response": "r", "stimulus-type": "incongruent", "word": "green", "color": "red", "correct_response": "r", "trial_id": "stroop-trial-1-incongruent-27", "trial_type": "html-keyboard-response", "trial_index": 210, "time_elapsed": 731294, "internal_node_id": "0.0-8.0-24.0"}}, {"uniqueid": "w75745673:a66051473", "current_trial": 211, "dateTime": 1664464756728, "trialdata": {"rt": 497, "stimulus": "<p id='stroop-text' class='stroop-red'>DOG</p>", "response": "r", "stimulus-type": "unrelated", "word": "DOG", "color": "red", "correct_response": "r", "trial_id": "stroop-trial-1-unrelated-19", "trial_type": "html-keyboard-response", "trial_index": 211, "time_elapsed": 732307, "internal_node_id": "0.0-8.0-25.0"}}, {"uniqueid": "w75745673:a66051473", "current_trial": 212, "dateTime": 1664464758174, "trialdata": {"rt": 941, "stimulus": "<p id='stroop-text' class='stroop-green'>YELLOW</p>", "response": "g", "stimulus-type": "incongruent", "word": "yellow", "color": "green", "correct_response": "g", "trial_id": "stroop-trial-1-incongruent-5", "trial_type": "html-keyboard-response", "trial_index": 212, "time_elapsed": 733754, "internal_node_id": "0.0-8.0-26.0"}}, {"uniqueid": "w75745673:a66051473", "current_trial": 213, "dateTime": 1664464759682, "trialdata": {"rt": 1004, "stimulus": "<p id='stroop-text' class='stroop-yellow'>GREEN</p>", "response": "y", "stimulus-type": "incongruent", "word": "green", "color": "yellow", "correct_response": "y", "trial_id": "stroop-trial-1-incongruent-19", "trial_type": "html-keyboard-response", "trial_index": 213, "time_elapsed": 735261, "internal_node_id": "0.0-8.0-27.0"}}, {"uniqueid": "w75745673:a66051473", "current_trial": 214, "dateTime": 1664464760877, "trialdata": {"rt": 691, "stimulus": "<p id='stroop-text' class='stroop-blue'>BLUE</p>", "response": "b", "stimulus-type": "congruent", "word": "blue", "color": "blue", "correct_response": "b", "trial_id": "stroop-trial-1-congruent-29", "trial_type": "html-keyboard-response", "trial_index": 214, "time_elapsed": 736456, "internal_node_id": "0.0-8.0-28.0"}}, {"uniqueid": "w75745673:a66051473", "current_trial": 215, "dateTime": 1664464762032, "trialdata": {"rt": 648, "stimulus": "<p id='stroop-text' class='stroop-blue'>BLUE</p>", "response": "b", "stimulus-type": "congruent", "word": "blue", "color": "blue", "correct_response": "b", "trial_id": "stroop-trial-1-congruent-12", "trial_type": "html-keyboard-response", "trial_index": 215, "time_elapsed": 737612, "internal_node_id": "0.0-8.0-29.0"}}, {"uniqueid": "w75745673:a66051473", "current_trial": 216, "dateTime": 1664464763037, "trialdata": {"rt": 495, "stimulus": "<p id='stroop-text' class='stroop-blue'>GREEN</p>", "response": "b", "stimulus-type": "incongruent", "word": "green", "color": "blue", "correct_response": "b", "trial_id": "stroop-trial-1-incongruent-25", "trial_type": "html-keyboard-response", "trial_index": 216, "time_elapsed": 738617, "internal_node_id": "0.0-8.0-30.0"}}, {"uniqueid": "w75745673:a66051473", "current_trial": 217, "dateTime": 1664464764078, "trialdata": {"rt": 536, "stimulus": "<p id='stroop-text' class='stroop-blue'>BLUE</p>", "response": "b", "stimulus-type": "congruent", "word": "blue", "color": "blue", "correct_response": "b", "trial_id": "stroop-trial-1-congruent-21", "trial_type": "html-keyboard-response", "trial_index": 217, "time_elapsed": 739658, "internal_node_id": "0.0-8.0-31.0"}}, {"uniqueid": "w75745673:a66051473", "current_trial": 218, "dateTime": 1664464765401, "trialdata": {"rt": 808, "stimulus": "<p id='stroop-text' class='stroop-green'>GREEN</p>", "response": "g", "stimulus-type": "congruent", "word": "green", "color": "green", "correct_response": "g", "trial_id": "stroop-trial-1-congruent-15", "trial_type": "html-keyboard-response", "trial_index": 218, "time_elapsed": 740980, "internal_node_id": "0.0-8.0-32.0"}}, {"uniqueid": "w75745673:a66051473", "current_trial": 219, "dateTime": 1664464767377, "trialdata": {"rt": 1464, "stimulus": "<p id='stroop-text' class='stroop-red'>BRIDGE</p>", "response": "r", "stimulus-type": "unrelated", "word": "BRIDGE", "color": "red", "correct_response": "r", "trial_id": "stroop-trial-1-unrelated-26", "trial_type": "html-keyboard-response", "trial_index": 219, "time_elapsed": 742957, "internal_node_id": "0.0-8.0-33.0"}}, {"uniqueid": "w75745673:a66051473", "current_trial": 220, "dateTime": 1664464769362, "trialdata": {"rt": 1477, "stimulus": "<p id='stroop-text' class='stroop-blue'>GREEN</p>", "response": "b", "stimulus-type": "incongruent", "word": "green", "color": "blue", "correct_response": "b", "trial_id": "stroop-trial-1-incongruent-13", "trial_type": "html-keyboard-response", "trial_index": 220, "time_elapsed": 744941, "internal_node_id": "0.0-8.0-34.0"}}, {"uniqueid": "w75745673:a66051473", "current_trial": 221, "dateTime": 1664464771002, "trialdata": {"rt": 1131, "stimulus": "<p id='stroop-text' class='stroop-red'>YELLOW</p>", "response": "r", "stimulus-type": "incongruent", "word": "yellow", "color": "red", "correct_response": "r", "trial_id": "stroop-trial-1-incongruent-20", "trial_type": "html-keyboard-response", "trial_index": 221, "time_elapsed": 746582, "internal_node_id": "0.0-8.0-35.0"}}, {"uniqueid": "w75745673:a66051473", "current_trial": 222, "dateTime": 1664464772316, "trialdata": {"rt": 807, "stimulus": "<p id='stroop-text' class='stroop-blue'>BOTTLE</p>", "response": "b", "stimulus-type": "unrelated", "word": "BOTTLE", "color": "blue", "correct_response": "b", "trial_id": "s