{"condition": 0, "counterbalance": 0, "assignmentId": "a12213443", "workerId": "w80362277", "hitId": "h43643934", "currenttrial": 461, "bonus": 0, "data": [{"uniqueid": "w80362277:a12213443", "current_trial": 0, "dateTime": 1664463916745, "trialdata": {"success": true, "trial_type": "fullscreen", "trial_index": 0, "time_elapsed": 6301, "internal_node_id": "0.0-0.0"}}, {"uniqueid": "w80362277:a12213443", "current_trial": 1, "dateTime": 1664463930344, "trialdata": {"view_history": [{"page_index": 0, "viewing_time": 13573}], "rt": 13577, "trial_id": "exp_instructions_distractor", "trial_type": "instructions", "trial_index": 1, "time_elapsed": 19901, "internal_node_id": "0.0-1.0"}}, {"uniqueid": "w80362277:a12213443", "current_trial": 2, "dateTime": 1664463974114, "trialdata": {"view_history": [{"page_index": 0, "viewing_time": 43756}], "rt": 43757, "trial_id": "color_game_instructions", "trial_type": "instructions", "trial_index": 2, "time_elapsed": 63672, "internal_node_id": "0.0-2.0"}}, {"uniqueid": "w80362277:a12213443", "current_trial": 3, "dateTime": 1664463982650, "trialdata": {"rt": 8524, "stimulus": "<h1> Get ready to start the game! </h1>\n\nThank you for reading the instructions. Get ready start with the first of 5 block(s) of this game.\n<br><br>\nIn this first block, you will complete 90 rounds of this game before moving on.\n<br><br>\nRemember, the better you perform, the bigger your bonus will be!\n<br><br>\n<div style='text-align: center;'>Press <code>space</code> to begin.</div>", "response": " ", "trial_id": "stroop_1_ready_1", "trial_type": "html-keyboard-response", "trial_index": 3, "time_elapsed": 72208, "internal_node_id": "0.0-3.0"}}, {"uniqueid": "w80362277:a12213443", "current_trial": 4, "dateTime": 1664464010363, "trialdata": {"rt": 27623, "stimulus": "<p id='stroop-text' class='stroop-yellow'>YELLOW</p>", "response": "y", "stimulus-type": "congruent", "word": "yellow", "color": "yellow", "correct_response": "y", "trial_id": "stroop-trial-1-congruent-30", "trial_type": "html-keyboard-response", "trial_index": 4, "time_elapsed": 99915, "internal_node_id": "0.0-4.0-0.0"}}, {"uniqueid": "w80362277:a12213443", "current_trial": 5, "dateTime": 1664464013506, "trialdata": {"rt": 2629, "stimulus": "<p id='stroop-text' class='stroop-red'>YELLOW</p>", "response": "r", "stimulus-type": "incongruent", "word": "yellow", "color": "red", "correct_response": "r", "trial_id": "stroop-trial-1-incongruent-23", "trial_type": "html-keyboard-response", "trial_index": 5, "time_elapsed": 103063, "internal_node_id": "0.0-4.0-1.0"}}, {"uniqueid": "w80362277:a12213443", "current_trial": 6, "dateTime": 1664464018295, "trialdata": {"rt": 4270, "stimulus": "<p id='stroop-text' class='stroop-red'>RED</p>", "response": "r", "stimulus-type": "congruent", "word": "red", "color": "red", "correct_response": "r", "trial_id": "stroop-trial-1-congruent-21", "trial_type": "html-keyboard-response", "trial_index": 6, "time_elapsed": 107851, "internal_node_id": "0.0-4.0-2.0"}}, {"uniqueid": "w80362277:a12213443", "current_trial": 7, "dateTime": 1664464020910, "trialdata": {"rt": 2102, "stimulus": "<p id='stroop-text' class='stroop-green'>GREEN</p>", "response": "g", "stimulus-type": "congruent", "word": "green", "color": "green", "correct_response": "g", "trial_id": "stroop-trial-1-congruent-24", "trial_type": "html-keyboard-response", "trial_index": 7, "time_elapsed": 110465, "internal_node_id": "0.0-4.0-3.0"}}, {"uniqueid": "w80362277:a12213443", "current_trial": 8, "dateTime": 1664464025110, "trialdata": {"rt": 3671, "stimulus": "<p id='stroop-text' class='stroop-green'>DOG</p>", "response": "g", "stimulus-type": "unrelated", "word": "DOG", "color": "green", "correct_response": "g", "trial_id": "stroop-trial-1-unrelated-15", "trial_type": "html-keyboard-response", "trial_index": 8, "time_elapsed": 114666, "internal_node_id": "0.0-4.0-4.0"}}, {"uniqueid": "w80362277:a12213443", "current_trial": 9, "dateTime": 1664464028939, "trialdata": {"rt": 3316, "stimulus": "<p id='stroop-text' class='stroop-green'>GREEN</p>", "response": "g", "stimulus-type": "congruent", "word": "green", "color": "green", "correct_response": "g", "trial_id": "stroop-trial-1-congruent-28", "trial_type": "html-keyboard-response", "trial_index": 9, "time_elapsed": 118495, "internal_node_id": "0.0-4.0-5.0"}}, {"uniqueid": "w80362277:a12213443", "current_trial": 10, "dateTime": 1664464032215, "trialdata": {"rt": 2758, "stimulus": "<p id='stroop-text' class='stroop-yellow'>YELLOW</p>", "response": "y", "stimulus-type": "congruent", "word": "yellow", "color": "yellow", "correct_response": "y", "trial_id": "stroop-trial-1-congruent-3", "trial_type": "html-keyboard-response", "trial_index": 10, "time_elapsed": 121772, "internal_node_id": "0.0-4.0-6.0"}}, {"uniqueid": "w80362277:a12213443", "current_trial": 11, "dateTime": 1664464035409, "trialdata": {"rt": 2682, "stimulus": "<p id='stroop-text' class='stroop-red'>DOG</p>", "response": "r", "stimulus-type": "unrelated", "word": "DOG", "color": "red", "correct_response": "r", "trial_id": "stroop-trial-1-unrelated-29", "trial_type": "html-keyboard-response", "trial_index": 11, "time_elapsed": 124966, "internal_node_id": "0.0-4.0-7.0"}}, {"uniqueid": "w80362277:a12213443", "current_trial": 12, "dateTime": 1664464037868, "trialdata": {"rt": 1940, "stimulus": "<p id='stroop-text' class='stroop-blue'>BRAIN</p>", "response": "b", "stimulus-type": "unrelated", "word": "BRAIN", "color": "blue", "correct_response": "b", "trial_id": "stroop-trial-1-unrelated-27", "trial_type": "html-keyboard-response", "trial_index": 12, "time_elapsed": 127426, "internal_node_id": "0.0-4.0-8.0"}}, {"uniqueid": "w80362277:a12213443", "current_trial": 13, "dateTime": 1664464040033, "trialdata": {"rt": 1653, "stimulus": "<p id='stroop-text' class='stroop-yellow'>RED</p>", "response": "y", "stimulus-type": "incongruent", "word": "red", "color": "yellow", "correct_response": "y", "trial_id": "stroop-trial-1-incongruent-18", "trial_type": "html-keyboard-response", "trial_index": 13, "time_elapsed": 129589, "internal_node_id": "0.0-4.0-9.0"}}, {"uniqueid": "w80362277:a12213443", "current_trial": 14, "dateTime": 1664464046424, "trialdata": {"rt": 5863, "stimulus": "<p id='stroop-text' class='stroop-blue'>BLUE</p>", "response": "b", "stimulus-type": "congruent", "word": "blue", "color": "blue", "correct_response": "b", "trial_id": "stroop-trial-1-congruent-10", "trial_type": "html-keyboard-response", "trial_index": 14, "time_elapsed": 135980, "internal_node_id": "0.0-4.0-10.0"}}, {"uniqueid": "w80362277:a12213443", "current_trial": 15, "dateTime": 1664464050248, "trialdata": {"rt": 3308, "stimulus": "<p id='stroop-text' class='stroop-green'>BLUE</p>", "response": "g", "stimulus-type": "incongruent", "word": "blue", "color": "green", "correct_response": "g", "trial_id": "stroop-trial-1-incongruent-6", "trial_type": "html-keyboard-response", "trial_index": 15, "time_elapsed": 139804, "internal_node_id": "0.0-4.0-11.0"}}, {"uniqueid": "w80362277:a12213443", "current_trial": 16, "dateTime": 1664464052247, "trialdata": {"rt": 1473, "stimulus": "<p id='stroop-text' class='stroop-yellow'>YELLOW</p>", "response": "y", "stimulus-type": "congruent", "word": "yellow", "color": "yellow", "correct_response": "y", "trial_id": "stroop-trial-1-congruent-16", "trial_type": "html-keyboard-response", "trial_index": 16, "time_elapsed": 141790, "internal_node_id": "0.0-4.0-12.0"}}, {"uniqueid": "w80362277:a12213443", "current_trial": 17, "dateTime": 1664464055018, "trialdata": {"rt": 2253, "stimulus": "<p id='stroop-text' class='stroop-blue'>BLUE</p>", "response": "b", "stimulus-type": "congruent", "word": "blue", "color": "blue", "correct_response": "b", "trial_id": "stroop-trial-1-congruent-17", "trial_type": "html-keyboard-response", "trial_index": 17, "time_elapsed": 144574, "internal_node_id": "0.0-4.0-13.0"}}, {"uniqueid": "w80362277:a12213443", "current_trial": 18, "dateTime": 1664464058150, "trialdata": {"rt": 2619, "stimulus": "<p id='stroop-text' class='stroop-green'>GREEN</p>", "response": "g", "stimulus-type": "congruent", "word": "green", "color": "green", "correct_response": "g", "trial_id": "stroop-trial-1-congruent-20", "trial_type": "html-keyboard-response", "trial_index": 18, "time_elapsed": 147707, "internal_node_id": "0.0-4.0-14.0"}}, {"uniqueid": "w80362277:a12213443", "current_trial": 19, "dateTime": 1664464060645, "trialdata": {"rt": 1981, "stimulus": "<p id='stroop-text' class='stroop-green'>BLUE</p>", "response": "g", "stimulus-type": "incongruent", "word": "blue", "color": "green", "correct_response": "g", "trial_id": "stroop-trial-1-incongruent-27", "trial_type": "html-keyboard-response", "trial_index": 19, "time_elapsed": 150202, "internal_node_id": "0.0-4.0-15.0"}}, {"uniqueid": "w80362277:a12213443", "current_trial": 20, "dateTime": 1664464063175, "trialdata": {"rt": 2013, "stimulus": "<p id='stroop-text' class='stroop-red'>SHIP</p>", "response": "r", "stimulus-type": "unrelated", "word": "SHIP", "color": "red", "correct_response": "r", "trial_id": "stroop-trial-1-unrelated-28", "trial_type": "html-keyboard-response", "trial_index": 20, "time_elapsed": 152732, "internal_node_id": "0.0-4.0-16.0"}}, {"uniqueid": "w80362277:a12213443", "current_trial": 21, "dateTime": 1664464066336, "trialdata": {"rt": 2647, "stimulus": "<p id='stroop-text' class='stroop-blue'>BRIDGE</p>", "response": "b", "stimulus-type": "unrelated", "word": "BRIDGE", "color": "blue", "correct_response": "b", "trial_id": "stroop-trial-1-unrelated-26", "trial_type": "html-keyboard-response", "trial_index": 21, "time_elapsed": 155893, "internal_node_id": "0.0-4.0-17.0"}}, {"uniqueid": "w80362277:a12213443", "current_trial": 22, "dateTime": 1664464069676, "trialdata": {"rt": 2831, "stimulus": "<p id='stroop-text' class='stroop-yellow'>DOG</p>", "response": "y", "stimulus-type": "unrelated", "word": "DOG", "color": "yellow", "correct_response": "y", "trial_id": "stroop-trial-1-unrelated-1", "trial_type": "html-keyboard-response", "trial_index": 22, "time_elapsed": 159233, "internal_node_id": "0.0-4.0-18.0"}}, {"uniqueid": "w80362277:a12213443", "current_trial": 23, "dateTime": 1664464073536, "trialdata": {"rt": 3337, "stimulus": "<p id='stroop-text' class='stroop-blue'>SHIP</p>", "response": "b", "stimulus-type": "unrelated", "word": "SHIP", "color": "blue", "correct_response": "b", "trial_id": "stroop-trial-1-unrelated-30", "trial_type": "html-keyboard-response", "trial_index": 23, "time_elapsed": 163092, "internal_node_id": "0.0-4.0-19.0"}}, {"uniqueid": "w80362277:a12213443", "current_trial": 24, "dateTime": 1664464075856, "trialdata": {"rt": 1799, "stimulus": "<p id='stroop-text' class='stroop-green'>YELLOW</p>", "response": "g", "stimulus-type": "incongruent", "word": "yellow", "color": "green", "correct_response": "g", "trial_id": "stroop-trial-1-incongruent-1", "trial_type": "html-keyboard-response", "trial_index": 24, "time_elapsed": 165412, "internal_node_id": "0.0-4.0-20.0"}}, {"uniqueid": "w80362277:a12213443", "current_trial": 25, "dateTime": 1664464078827, "trialdata": {"rt": 2434, "stimulus": "<p id='stroop-text' class='stroop-blue'>FORK</p>", "response": "b", "stimulus-type": "unrelated", "word": "FORK", "color": "blue", "correct_response": "b", "trial_id": "stroop-trial-1-unrelated-24", "trial_type": "html-keyboard-response", "trial_index": 25, "time_elapsed": 168384, "internal_node_id": "0.0-4.0-21.0"}}, {"uniqueid": "w80362277:a12213443", "current_trial": 26, "dateTime": 1664464081802, "trialdata": {"rt": 2454, "stimulus": "<p id='stroop-text' class='stroop-green'>DOG</p>", "response": "g", "stimulus-type": "unrelated", "word": "DOG", "color": "green", "correct_response": "g", "trial_id": "stroop-trial-1-unrelated-22", "trial_type": "html-keyboard-response", "trial_index": 26, "time_elapsed": 171359, "internal_node_id": "0.0-4.0-22.0"}}, {"uniqueid": "w80362277:a12213443", "current_trial": 27, "dateTime": 1664464083717, "trialdata": {"rt": 1402, "stimulus": "<p id='stroop-text' class='stroop-yellow'>GREEN</p>", "response": "y", "stimulus-type": "incongruent", "word": "green", "color": "yellow", "correct_response": "y", "trial_id": "stroop-trial-1-incongruent-28", "trial_type": "html-keyboard-response", "trial_index": 27, "time_elapsed": 173273, "internal_node_id": "0.0-4.0-23.0"}}, {"uniqueid": "w80362277:a12213443", "current_trial": 28, "dateTime": 1664464086693, "trialdata": {"rt": 2454, "stimulus": "<p id='stroop-text' class='stroop-green'>GREEN</p>", "response": "g", "stimulus-type": "congruent", "word": "green", "color": "green", "correct_response": "g", "trial_id": "stroop-trial-1-congruent-12", "trial_type": "html-keyboard-response", "trial_index": 28, "time_elapsed": 176249, "internal_node_id": "0.0-4.0-24.0"}}, {"uniqueid": "w80362277:a12213443", "current_trial": 29, "dateTime": 1664464088760, "trialdata": {"rt": 1551, "stimulus": "<p id='stroop-text' class='stroop-blue'>BLUE</p>", "response": "b", "stimulus-type": "congruent", "word": "blue", "color": "blue", "correct_response": "b", "trial_id": "stroop-trial-1-congruent-4", "trial_type": "html-keyboard-response", "trial_index": 29, "time_elapsed": 178317, "internal_node_id": "0.0-4.0-25.0"}}, {"uniqueid": "w80362277:a12213443", "current_trial": 30, "dateTime": 1664464091044, "trialdata": {"rt": 1763, "stimulus": "<p id='stroop-text' class='stroop-blue'>BOAT</p>", "response": "b", "stimulus-type": "unrelated", "word": "BOAT", "color": "blue", "correct_response": "b", "trial_id": "stroop-trial-1-unrelated-11", "trial_type": "html-keyboard-response", "trial_index": 30, "time_elapsed": 180601, "internal_node_id": "0.0-4.0-26.0"}}, {"uniqueid": "w80362277:a12213443", "current_trial": 31, "dateTime": 1664464093197, "trialdata": {"rt": 1639, "stimulus": "<p id='stroop-text' class='stroop-blue'>BLUE</p>", "response": "b", "stimulus-type": "congruent", "word": "blue", "color": "blue", "correct_response": "b", "trial_id": "stroop-trial-1-congruent-8", "trial_type": "html-keyboard-response", "trial_index": 31, "time_elapsed": 182754, "internal_node_id": "0.0-4.0-27.0"}}, {"uniqueid": "w80362277:a12213443", "current_trial": 32, "dateTime": 1664464095066, "trialdata": {"rt": 1349, "stimulus": "<p id='stroop-text' class='stroop-blue'>BRAIN</p>", "response": "b", "stimulus-type": "unrelated", "word": "BRAIN", "color": "blue", "correct_response": "b", "trial_id": "stroop-trial-1-unrelated-19", "trial_type": "html-keyboard-response", "trial_index": 32, "time_elapsed": 184622, "internal_node_id": "0.0-4.0-28.0"}}, {"uniqueid": "w80362277:a12213443", "current_trial": 33, "dateTime": 1664464097242, "trialdata": {"rt": 1665, "stimulus": "<p id='stroop-text' class='stroop-red'>YELLOW</p>", "response": "r", "stimulus-type": "incongruent", "word": "yellow", "color": "red", "correct_response": "r", "trial_id": "stroop-trial-1-incongruent-14", "trial_type": "html-keyboard-response", "trial_index": 33, "time_elapsed": 186799, "internal_node_id": "0.0-4.0-29.0"}}, {"uniqueid": "w80362277:a12213443", "current_trial": 34, "dateTime": 1664464099424, "trialdata": {"rt": 1666, "stimulus": "<p id='stroop-text' class='stroop-red'>GREEN</p>", "response": "r", "stimulus-type": "incongruent", "word": "green", "color": "red", "correct_response": "r", "trial_id": "stroop-trial-1-incongruent-19", "trial_type": "html-keyboard-response", "trial_index": 34, "time_elapsed": 188981, "internal_node_id": "0.0-4.0-30.0"}}, {"uniqueid": "w80362277:a12213443", "current_trial": 35, "dateTime": 1664464101719, "trialdata": {"rt": 1767, "stimulus": "<p id='stroop-text' class='stroop-blue'>BLUE</p>", "response": "b", "stimulus-type": "congruent", "word": "blue", "color": "blue", "correct_response": "b", "trial_id": "stroop-trial-1-congruent-5", "trial_type": "html-keyboard-response", "trial_index": 35, "time_elapsed": 191275, "internal_node_id": "0.0-4.0-31.0"}}, {"uniqueid": "w80362277:a12213443", "current_trial": 36, "dateTime": 1664464104142, "trialdata": {"rt": 1908, "stimulus": "<p id='stroop-text' class='stroop-green'>GREEN</p>", "response": "g", "stimulus-type": "congruent", "word": "green", "color": "green", "correct_response": "g", "trial_id": "stroop-trial-1-congruent-1", "trial_type": "html-keyboard-response", "trial_index": 36, "time_elapsed": 193698, "internal_node_id": "0.0-4.0-32.0"}}, {"uniqueid": "w80362277:a12213443", "current_trial": 37, "dateTime": 1664464106237, "trialdata": {"rt": 1580, "stimulus": "<p id='stroop-text' class='stroop-green'>BLUE</p>", "response": "g", "stimulus-type": "incongruent", "word": "blue", "color": "green", "correct_response": "g", "trial_id": "stroop-trial-1-incongruent-20", "trial_type": "html-keyboard-response", "trial_index": 37, "time_elapsed": 195793, "internal_node_id": "0.0-4.0-33.0"}}, {"uniqueid": "w80362277:a12213443", "current_trial": 38, "dateTime": 1664464107973, "trialdata": {"rt": 1219, "stimulus": "<p id='stroop-text' class='stroop-blue'>BOTTLE</p>", "response": "b", "stimulus-type": "unrelated", "word": "BOTTLE", "color": "blue", "correct_response": "b", "trial_id": "stroop-trial-1-unrelated-8", "trial_type": "html-keyboard-response", "trial_index": 38, "time_elapsed": 197529, "internal_node_id": "0.0-4.0-34.0"}}, {"uniqueid": "w80362277:a12213443", "current_trial": 39, "dateTime": 1664464111152, "trialdata": {"rt": 2661, "stimulus": "<p id='stroop-text' class='stroop-yellow'>YELLOW</p>", "response": "y", "stimulus-type": "congruent", "word": "yellow", "color": "yellow", "correct_response": "y", "trial_id": "stroop-trial-1-congruent-2", "trial_type": "html-keyboard-response", "trial_index": 39, "time_elapsed": 200707, "internal_node_id": "0.0-4.0-35.0"}}, {"uniqueid": "w80362277:a12213443", "current_trial": 40, "dateTime": 1664464114003, "trialdata": {"rt": 2323, "stimulus": "<p id='stroop-text' class='stroop-red'>RED</p>", "response": "r", "stimulus-type": "congruent", "word": "red", "color": "red", "correct_response": "r", "trial_id": "stroop-trial-1-congruent-14", "trial_type": "html-keyboard-response", "trial_index": 40, "time_elapsed": 203560, "internal_node_id": "0.0-4.0-36.0"}}, {"uniqueid": "w80362277:a12213443", "current_trial": 41, "dateTime": 1664464116546, "trialdata": {"rt": 2017, "stimulus": "<p id='stroop-text' class='stroop-green'>BRAIN</p>", "response": "g", "stimulus-type": "unrelated", "word": "BRAIN", "color": "green", "correct_response": "g", "trial_id": "stroop-trial-1-unrelated-5", "trial_type": "html-keyboard-response", "trial_index": 41, "time_elapsed": 206103, "internal_node_id": "0.0-4.0-37.0"}}, {"uniqueid": "w80362277:a12213443", "current_trial": 42, "dateTime": 1664464118887, "trialdata": {"rt": 1826, "stimulus": "<p id='stroop-text' class='stroop-yellow'>STONE</p>", "response": "y", "stimulus-type": "unrelated", "word": "STONE", "color": "yellow", "correct_response": "y", "trial_id": "stroop-trial-1-unrelated-20", "trial_type": "html-keyboard-response", "trial_index": 42, "time_elapsed": 208443, "internal_node_id": "0.0-4.0-38.0"}}, {"uniqueid": "w80362277:a12213443", "current_trial": 43, "dateTime": 1664464121406, "trialdata": {"rt": 2002, "stimulus": "<p id='stroop-text' class='stroop-yellow'>RED</p>", "response": "y", "stimulus-type": "incongruent", "word": "red", "color": "yellow", "correct_response": "y", "trial_id": "stroop-trial-1-incongruent-26", "trial_type": "html-keyboard-response", "trial_index": 43, "time_elapsed": 210963, "internal_node_id": "0.0-4.0-39.0"}}, {"uniqueid": "w80362277:a12213443", "current_trial": 44, "dateTime": 1664464123018, "trialdata": {"rt": 1098, "stimulus": "<p id='stroop-text' class='stroop-yellow'>YELLOW</p>", "response": "y", "stimulus-type": "congruent", "word": "yellow", "color": "yellow", "correct_response": "y", "trial_id": "stroop-trial-1-congruent-9", "trial_type": "html-keyboard-response", "trial_index": 44, "time_elapsed": 212575, "internal_node_id": "0.0-4.0-40.0"}}, {"uniqueid": "w80362277:a12213443", "current_trial": 45, "dateTime": 1664464125128, "trialdata": {"rt": 1571, "stimulus": "<p id='stroop-text' class='stroop-green'>GREEN</p>", "response": "g", "stimulus-type": "congruent", "word": "green", "color": "green", "correct_response": "g", "trial_id": "stroop-trial-1-congruent-13", "trial_type": "html-keyboard-response", "trial_index": 45, "time_elapsed": 214685, "internal_node_id": "0.0-4.0-41.0"}}, {"uniqueid": "w80362277:a12213443", "current_trial": 46, "dateTime": 1664464126873, "trialdata": {"rt": 1232, "stimulus": "<p id='stroop-text' class='stroop-blue'>FORK</p>", "response": "b", "stimulus-type": "unrelated", "word": "FORK", "color": "blue", "correct_response": "b", "trial_id": "stroop-trial-1-unrelated-18", "trial_type": "html-keyboard-response", "trial_index": 46, "time_elapsed": 216429, "internal_node_id": "0.0-4.0-42.0"}}, {"uniqueid": "w80362277:a12213443", "current_trial": 47, "dateTime": 1664464130055, "trialdata": {"rt": 2652, "stimulus": "<p id='stroop-text' class='stroop-green'>RED</p>", "response": "g", "stimulus-type": "incongruent", "word": "red", "color": "green", "correct_response": "g", "trial_id": "stroop-trial-1-incongruent-16", "trial_type": "html-keyboard-response", "trial_index": 47, "time_elapsed": 219611, "internal_node_id": "0.0-4.0-43.0"}}, {"uniqueid": "w80362277:a12213443", "current_trial": 48, "dateTime": 1664464132246, "trialdata": {"rt": 1675, "stimulus": "<p id='stroop-text' class='stroop-red'>YELLOW</p>", "response": "r", "stimulus-type": "incongruent", "word": "yellow", "color": "red", "correct_response": "r", "trial_id": "stroop-trial-1-incongruent-7", "trial_type": "html-keyboard-response", "trial_index": 48, "time_elapsed": 221803, "internal_node_id": "0.0-4.0-44.0"}}, {"uniqueid": "w80362277:a12213443", "current_trial": 49, "dateTime": 1664464134478, "trialdata": {"rt": 1713, "stimulus": "<p id='stroop-text' class='stroop-blue'>YELLOW</p>", "response": "b", "stimulus-type": "incongruent", "word": "yellow", "color": "blue", "correct_response": "b", "trial_id": "stroop-trial-1-incongruent-11", "trial_type": "html-keyboard-response", "trial_index": 49, "time_elapsed": 224035, "internal_node_id": "0.0-4.0-45.0"}}, {"uniqueid": "w80362277:a12213443", "current_trial": 50, "dateTime": 1664464136463, "trialdata": {"rt": 1468, "stimulus": "<p id='stroop-text' class='stroop-yellow'>FORK</p>", "response": "y", "stimulus-type": "unrelated", "word": "FORK", "color": "yellow", "correct_response": "y", "trial_id": "stroop-trial-1-unrelated-17", "trial_type": "html-keyboard-response", "trial_index": 50, "time_elapsed": 226020, "internal_node_id": "0.0-4.0-46.0"}}, {"uniqueid": "w80362277:a12213443", "current_trial": 51, "dateTime": 1664464138385, "trialdata": {"rt": 1402, "stimulus": "<p id='stroop-text' class='stroop-blue'>MONKEY</p>", "response": "b", "stimulus-type": "unrelated", "word": "MONKEY", "color": "blue", "correct_response": "b", "trial_id": "stroop-trial-1-unrelated-4", "trial_type": "html-keyboard-response", "trial_index": 51, "time_elapsed": 227941, "internal_node_id": "0.0-4.0-47.0"}}, {"uniqueid": "w80362277:a12213443", "current_trial": 52, "dateTime": 1664464140308, "trialdata": {"rt": 1407, "stimulus": "<p id='stroop-text' class='stroop-yellow'>BLUE</p>", "response": "y", "stimulus-type": "incongruent", "word": "blue", "color": "yellow", "correct_response": "y", "trial_id": "stroop-trial-1-incongruent-2", "trial_type": "html-keyboard-response", "trial_index": 52, "time_elapsed": 229864, "internal_node_id": "0.0-4.0-48.0"}}, {"uniqueid": "w80362277:a12213443", "current_trial": 53, "dateTime": 1664464142140, "trialdata": {"rt": 1310, "stimulus": "<p id='stroop-text' class='stroop-red'>RED</p>", "response": "r", "stimulus-type": "congruent", "word": "red", "color": "red", "correct_response": "r", "trial_id": "stroop-trial-1-congruent-11", "trial_type": "html-keyboard-response", "trial_index": 53, "time_elapsed": 231697, "internal_node_id": "0.0-4.0-49.0"}}, {"uniqueid": "w80362277:a12213443", "current_trial": 54, "dateTime": 1664464144339, "trialdata": {"rt": 1692, "stimulus": "<p id='stroop-text' class='stroop-green'>GREEN</p>", "response": "g", "stimulus-type": "congruent", "word": "green", "color": "green", "correct_response": "g", "trial_id": "stroop-trial-1-congruent-29", "trial_type": "html-keyboard-response", "trial_index": 54, "time_elapsed": 233896, "internal_node_id": "0.0-4.0-50.0"}}, {"uniqueid": "w80362277:a12213443", "current_trial": 55, "dateTime": 1664464146230, "trialdata": {"rt": 1370, "stimulus": "<p id='stroop-text' class='stroop-blue'>YELLOW</p>", "response": "b", "stimulus-type": "incongruent", "word": "yellow", "color": "blue", "correct_response": "b", "trial_id": "stroop-trial-1-incongruent-3", "trial_type": "html-keyboard-response", "trial_index": 55, "time_elapsed": 235786, "internal_node_id": "0.0-4.0-51.0"}}, {"uniqueid": "w80362277:a12213443", "current_trial": 56, "dateTime": 1664464148587, "trialdata": {"rt": 1837, "stimulus": "<p id='stroop-text' class='stroop-yellow'>YELLOW</p>", "response": "y", "stimulus-type": "congruent", "word": "yellow", "color": "yellow", "correct_response": "y", "trial_id": "stroop-trial-1-congruent-7", "trial_type": "html-keyboard-response", "trial_index": 56, "time_elapsed": 238144, "internal_node_id": "0.0-4.0-52.0"}}, {"uniqueid": "w80362277:a12213443", "current_trial": 57, "dateTime": 1664464150458, "trialdata": {"rt": 1348, "stimulus": "<p id='stroop-text' class='stroop-red'>RED</p>", "response": "r", "stimulus-type": "congruent", "word": "red", "color": "red", "correct_response": "r", "trial_id": "stroop-trial-1-congruent-15", "trial_type": "html-keyboard-response", "trial_index": 57, "time_elapsed": 240015, "internal_node_id": "0.0-4.0-53.0"}}, {"uniqueid": "w80362277:a12213443", "current_trial": 58, "dateTime": 1664464152350, "trialdata": {"rt": 1375, "stimulus": "<p id='stroop-text' class='stroop-red'>RED</p>", "response": "r", "stimulus-type": "congruent", "word": "red", "color": "red", "correct_response": "r", "trial_id": "stroop-trial-1-congruent-18", "trial_type": "html-keyboard-response", "trial_index": 58, "time_elapsed": 241907, "internal_node_id": "0.0-4.0-54.0"}}, {"uniqueid": "w80362277:a12213443", "current_trial": 59, "dateTime": 1664464155334, "trialdata": {"rt": 2467, "stimulus": "<p id='stroop-text' class='stroop-green'>MONKEY</p>", "response": "g", "stimulus-type": "unrelated", "word": "MONKEY", "color": "green", "correct_response": "g", "trial_id": "stroop-trial-1-unrelated-14", "trial_type": "html-keyboard-response", "trial_index": 59, "time_elapsed": 244890, "internal_node_id": "0.0-4.0-55.0"}}, {"uniqueid": "w80362277:a12213443", "current_trial": 60, "dateTime": 1664464157407, "trialdata": {"rt": 1558, "stimulus": "<p id='stroop-text' class='stroop-green'>BLUE</p>", "response": "g", "stimulus-type": "incongruent", "word": "blue", "color": "green", "correct_response": "g", "trial_id": "stroop-trial-1-incongruent-10", "trial_type": "html-keyboard-response", "trial_index": 60, "time_elapsed": 246963, "internal_node_id": "0.0-4.0-56.0"}}, {"uniqueid": "w80362277:a12213443", "current_trial": 61, "dateTime": 1664464159128, "trialdata": {"rt": 1203, "stimulus": "<p id='stroop-text' class='stroop-blue'>DOG</p>", "response": "b", "stimulus-type": "unrelated", "word": "DOG", "color": "blue", "correct_response": "b", "trial_id": "stroop-trial-1-unrelated-2", "trial_type": "html-keyboard-response", "trial_index": 61, "time_elapsed": 248685, "internal_node_id": "0.0-4.0-57.0"}}, {"uniqueid": "w80362277:a12213443", "current_trial": 62, "dateTime": 1664464160841, "trialdata": {"rt": 1189, "stimulus": "<p id='stroop-text' class='stroop-red'>STONE</p>", "response": "r", "stimulus-type": "unrelated", "word": "STONE", "color": "red", "correct_response": "r", "trial_id": "stroop-trial-1-unrelated-9", "trial_type": "html-keyboard-response", "trial_index": 62, "time_elapsed": 250398, "internal_node_id": "0.0-4.0-58.0"}}, {"uniqueid": "w80362277:a12213443", "current_trial": 63, "dateTime": 1664464163227, "trialdata": {"rt": 1861, "stimulus": "<p id='stroop-text' class='stroop-yellow'>MONKEY</p>", "response": "y", "stimulus-type": "unrelated", "word": "MONKEY", "color": "yellow", "correct_response": "y", "trial_id": "stroop-trial-1-unrelated-23", "trial_type": "html-keyboard-response", "trial_index": 63, "time_elapsed": 252783, "internal_node_id": "0.0-4.0-59.0"}}, {"uniqueid": "w80362277:a12213443", "current_trial": 64, "dateTime": 1664464166588, "trialdata": {"rt": 2842, "stimulus": "<p id='stroop-text' class='stroop-green'>YELLOW</p>", "response": "g", "stimulus-type": "incongruent", "word": "yellow", "color": "green", "correct_response": "g", "trial_id": "stroop-trial-1-incongruent-4", "trial_type": "html-keyboard-response", "trial_index": 64, "time_elapsed": 256145, "internal_node_id": "0.0-4.0-60.0"}}, {"uniqueid": "w80362277:a12213443", "current_trial": 65, "dateTime": 1664464168754, "trialdata": {"rt": 1652, "stimulus": "<p id='stroop-text' class='stroop-yellow'>YELLOW</p>", "response": "y", "stimulus-type": "congruent", "word": "yellow", "color": "yellow", "correct_response": "y", "trial_id": "stroop-trial-1-congruent-27", "trial_type": "html-keyboard-response", "trial_index": 65, "time_elapsed": 258309, "internal_node_id": "0.0-4.0-61.0"}}, {"uniqueid": "w80362277:a12213443", "current_trial": 66, "dateTime": 1664464170574, "trialdata": {"rt": 1302, "stimulus": "<p id='stroop-text' class='stroop-yellow'>YELLOW</p>", "response": "y", "stimulus-type": "congruent", "word": "yellow", "color": "yellow", "correct_response": "y", "trial_id": "stroop-trial-1-congruent-23", "trial_type": "html-keyboard-response", "trial_index": 66, "time_elapsed": 260130, "internal_node_id": "0.0-4.0-62.0"}}, {"uniqueid": "w80362277:a12213443", "current_trial": 67, "dateTime": 1664464172573, "trialdata": {"rt": 1480, "stimulus": "<p id='stroop-text' class='stroop-red'>RED</p>", "response": "r", "stimulus-type": "congruent", "word": "red", "color": "red", "correct_response": "r", "trial_id": "stroop-trial-1-congruent-22", "trial_type": "html-keyboard-response", "trial_index": 67, "time_elapsed": 262130, "internal_node_id": "0.0-4.0-63.0"}}, {"uniqueid": "w80362277:a12213443", "current_trial": 68, "dateTime": 1664464174684, "trialdata": {"rt": 1588, "stimulus": "<p id='stroop-text' class='stroop-green'>GREEN</p>", "response": "g", "stimulus-type": "congruent", "word": "green", "color": "green", "correct_response": "g", "trial_id": "stroop-trial-1-congruent-25", "trial_type": "html-keyboard-response", "trial_index": 68, "time_elapsed": 264241, "internal_node_id": "0.0-4.0-64.0"}}, {"uniqueid": "w80362277:a12213443", "current_trial": 69, "dateTime": 1664464177133, "trialdata": {"rt": 1935, "stimulus": "<p id='stroop-text' class='stroop-yellow'>GREEN</p>", "response": "y", "stimulus-type": "incongruent", "word": "green", "color": "yellow", "correct_response": "y", "trial_id": "stroop-trial-1-incongruent-15", "trial_type": "html-keyboard-response", "trial_index": 69, "time_elapsed": 266690, "internal_node_id": "0.0-4.0-65.0"}}, {"uniqueid": "w80362277:a12213443", "current_trial": 70, "dateTime": 1664464180520, "trialdata": {"rt": 2867, "stimulus": "<p id='stroop-text' class='stroop-green'>DOG</p>", "response": "g", "stimulus-type": "unrelated", "word": "DOG", "color": "green", "correct_response": "g", "trial_id": "stroop-trial-1-unrelated-6", "trial_type": "html-keyboard-response", "trial_index": 70, "time_elapsed": 270077, "internal_node_id": "0.0-4.0-66.0"}}, {"uniqueid": "w80362277:a12213443", "current_trial": 71, "dateTime": 1664464182409, "trialdata": {"rt": 1372, "stimulus": "<p id='stroop-text' class='stroop-green'>BLUE</p>", "response": "g", "stimulus-type": "incongruent", "word": "blue", "color": "green", "correct_response": "g", "trial_id": "stroop-trial-1-incongruent-13", "trial_type": "html-keyboard-response", "trial_index": 71, "time_elapsed": 271966, "internal_node_id": "0.0-4.0-67.0"}}, {"uniqueid": "w80362277:a12213443", "current_trial": 72, "dateTime": 1664464184191, "trialdata": {"rt": 1267, "stimulus": "<p id='stroop-text' class='stroop-yellow'>MONKEY</p>", "response": "y", "stimulus-type": "unrelated", "word": "MONKEY", "color": "yellow", "correct_response": "y", "trial_id": "stroop-trial-1-unrelated-10", "trial_type": "html-keyboard-response", "trial_index": 72, "time_elapsed": 273748, "internal_node_id": "0.0-4.0-68.0"}}, {"uniqueid": "w80362277:a12213443", "current_trial": 73, "dateTime": 1664464185916, "trialdata": {"rt": 1210, "stimulus": "<p id='stroop-text' class='stroop-red'>BRAIN</p>", "response": "r", "stimulus-type": "unrelated", "word": "BRAIN", "color": "red", "correct_response": "r", "trial_id": "stroop-trial-1-unrelated-12", "trial_type": "html-keyboard-response", "trial_index": 73, "time_elapsed": 275473, "internal_node_id": "0.0-4.0-69.0"}}, {"uniqueid": "w80362277:a12213443", "current_trial": 74, "dateTime": 1664464188185, "trialdata": {"rt": 1758, "stimulus": "<p id='stroop-text' class='stroop-green'>BRIDGE</p>", "response": "g", "stimulus-type": "unrelated", "word": "BRIDGE", "color": "green", "correct_response": "g", "trial_id": "stroop-trial-1-unrelated-16", "trial_type": "html-keyboard-response", "trial_index": 74, "time_elapsed": 277742, "internal_node_id": "0.0-4.0-70.0"}}, {"uniqueid": "w80362277:a12213443", "current_trial": 75, "dateTime": 1664464190003, "trialdata": {"rt": 1303, "stimulus": "<p id='stroop-text' class='stroop-yellow'>YELLOW</p>", "response": "y", "stimulus-type": "congruent", "word": "yellow", "color": "yellow", "correct_response": "y", "trial_id": "stroop-trial-1-congruent-26", "trial_type": "html-keyboard-response", "trial_index": 75, "time_elapsed": 279560, "internal_node_id": "0.0-4.0-71.0"}}, {"uniqueid": "w80362277:a12213443", "current_trial": 76, "dateTime": 1664464191650, "trialdata": {"rt": 1130, "stimulus": "<p id='stroop-text' class='stroop-red'>WINDOW</p>", "response": "r", "stimulus-type": "unrelated", "word": "WINDOW", "color": "red", "correct_response": "r", "trial_id": "stroop-trial-1-unrelated-3", "trial_type": "html-keyboard-response", "trial_index": 76, "time_elapsed": 281207, "internal_node_id": "0.0-4.0-72.0"}}, {"uniqueid": "w80362277:a12213443", "current_trial": 77, "dateTime": 1664464195141, "trialdata": {"rt": 2978, "stimulus": "<p id='stroop-text' class='stroop-yellow'>RED</p>", "response": "y", "stimulus-type": "incongruent", "word": "red", "color": "yellow", "correct_response": "y", "trial_id": "stroop-trial-1-incongruent-25", "trial_type": "html-keyboard-response", "trial_index": 77, "time_elapsed": 284698, "internal_node_id": "0.0-4.0-73.0"}}, {"uniqueid": "w80362277:a12213443", "current_trial": 78, "dateTime": 1664464196830, "trialdata": {"rt": 1170, "stimulus": "<p id='stroop-text' class='stroop-blue'>STONE</p>", "response": "b", "stimulus-type": "unrelated", "word": "STONE", "color": "blue", "correct_response": "b", "trial_id": "stroop-trial-1-unrelated-25", "trial_type": "html-keyboard-response", "trial_index": 78, "time_elapsed": 286387, "internal_node_id": "0.0-4.0-74.0"}}, {"uniqueid": "w80362277:a12213443", "current_trial": 79, "dateTime": 1664464198749, "trialdata": {"rt": 1393, "stimulus": "<p id='stroop-text' class='stroop-blue'>STONE</p>", "response": "b", "stimulus-type": "unrelated", "word": "STONE", "color": "blue", "correct_response": "b", "trial_id": "stroop-trial-1-unrelated-7", "trial_type": "html-keyboard-response", "trial_index": 79, "time_elapsed": 288306, "internal_node_id": "0.0-4.0-75.0"}}, {"uniqueid": "w80362277:a12213443", "current_trial": 80, "dateTime": 1664464200917, "trialdata": {"rt": 1650, "stimulus": "<p id='stroop-text' class='stroop-yellow'>GREEN</p>", "response": "y", "stimulus-type": "incongruent", "word": "green", "color": "yellow", "correct_response": "y", "trial_id": "stroop-trial-1-incongruent-22", "trial_type": "html-keyboard-response", "trial_index": 80, "time_elapsed": 290473, "internal_node_id": "0.0-4.0-76.0"}}, {"uniqueid": "w80362277:a12213443", "current_trial": 81, "dateTime": 1664464203753, "trialdata": {"rt": 2314, "stimulus": "<p id='stroop-text' class='stroop-red'>YELLOW</p>", "response": "r", "stimulus-type": "incongruent", "word": "yellow", "color": "red", "correct_response": "r", "trial_id": "stroop-trial-1-incongruent-24", "trial_type": "html-keyboard-response", "trial_index": 81, "time_elapsed": 293310, "internal_node_id": "0.0-4.0-77.0"}}, {"uniqueid": "w80362277:a12213443", "current_trial": 82, "dateTime": 1664464207218, "trialdata": {"rt": 2943, "stimulus": "<p id='stroop-text' class='stroop-green'>BLUE</p>", "response": "g", "stimulus-type": "incongruent", "word": "blue", "color": "green", "correct_response": "g", "trial_id": "stroop-trial-1-incongruent-17", "trial_type": "html-keyboard-response", "trial_index": 82, "time_elapsed": 296775, "internal_node_id": "0.0-4.0-78.0"}}, {"uniqueid": "w80362277:a12213443", "current_trial": 83, "dateTime": 1664464209190, "trialdata": {"rt": 1459, "stimulus": "<p id='stroop-text' class='stroop-red'>GREEN</p>", "response": "r", "stimulus-type": "incongruent", "word": "green", "color": "red", "correct_response": "r", "trial_id": "stroop-trial-1-incongruent-9", "trial_type": "html-keyboard-response", "trial_index": 83, "time_elapsed": 298747, "internal_node_id": "0.0-4.0-79.0"}}, {"uniqueid": "w80362277:a12213443", "current_trial": 84, "dateTime": 1664464211483, "trialdata": {"rt": 1766, "stimulus": "<p id='stroop-text' class='stroop-green'>YELLOW</p>", "response": "g", "stimulus-type": "incongruent", "word": "yellow", "color": "green", "correct_response": "g", "trial_id": "stroop-trial-1-incongruent-30", "trial_type": "html-keyboard-response", "trial_index": 84, "time_elapsed": 301039, "internal_node_id": "0.0-4.0-80.0"}}, {"uniqueid": "w80362277:a12213443", "current_trial": 85, "dateTime": 1664464213927, "trialdata": {"rt": 1921, "stimulus": "<p id='stroop-text' class='stroop-yellow'>BLUE</p>", "response": "y", "stimulus-type": "incongruent", "word": "blue", "color": "yellow", "correct_response": "y", "trial_id": "stroop-trial-1-incongruent-21", "trial_type": "html-keyboard-response", "trial_index": 85, "time_elapsed": 303484, "internal_node_id": "0.0-4.0-81.0"}}, {"uniqueid": "w80362277:a12213443", "current_trial": 86, "dateTime": 1664464215634, "trialdata": {"rt": 1191, "stimulus": "<p id='stroop-text' class='stroop-green'>GREEN</p>", "response": "g", "stimulus-type": "congruent", "word": "green", "color": "green", "correct_response": "g", "trial_id": "stroop-trial-1-congruent-6", "trial_type": "html-keyboard-response", "trial_index": 86, "time_elapsed": 305191, "internal_node_id": "0.0-4.0-82.0"}}, {"uniqueid": "w80362277:a12213443", "current_trial": 87, "dateTime": 1664464217412, "trialdata": {"rt": 1267, "stimulus": "<p id='stroop-text' class='stroop-blue'>RED</p>", "response": "b", "stimulus-type": "incongruent", "word": "red", "color": "blue", "correct_response": "b", "trial_id": "stroop-trial-1-incongruent-8", "trial_type": "html-keyboard-response", "trial_index": 87, "time_elapsed": 306969, "internal_node_id": "0.0-4.0-83.0"}}, {"uniqueid": "w80362277:a12213443", "current_trial": 88, "dateTime": 1664464220218, "trialdata": {"rt": 2290, "stimulus": "<p id='stroop-text' class='stroop-yellow'>BOAT</p>", "response": "y", "stimulus-type": "unrelated", "word": "BOAT", "color": "yellow", "correct_response": "y", "trial_id": "stroop-trial-1-unrelated-13", "trial_type": "html-keyboard-response", "trial_index": 88, "time_elapsed": 309775, "internal_node_id": "0.0-4.0-84.0"}}, {"uniqueid": "w80362277:a12213443", "current_trial": 89, "dateTime": 1664464222242, "trialdata": {"rt": 1505, "stimulus": "<p id='stroop-text' class='stroop-red'>RED</p>", "response": "r", "stimulus-type": "congruent", "word": "red", "color": "red", "correct_response": "r", "trial_id": "stroop-trial-1-congruent-19", "trial_type": "html-keyboard-response", "trial_index": 89, "time_elapsed": 311799, "internal_node_id": "0.0-4.0-85.0"}}, {"uniqueid": "w80362277:a12213443", "current_trial": 90, "dateTime": 1664464224075, "trialdata": {"rt": 1308, "stimulus": "<p id='stroop-text' class='stroop-blue'>RED</p>", "response": "b", "stimulus-type": "incongruent", "word": "red", "color": "blue", "correct_response": "b", "trial_id": "stroop-trial-1-incongruent-12", "trial_type": "html-keyboard-response", "trial_index": 90, "time_elapsed": 313632, "internal_node_id": "0.0-4.0-86.0"}}, {"uniqueid": "w80362277:a12213443", "current_trial": 91, "dateTime": 1664464226386, "trialdata": {"rt": 1798, "stimulus": "<p id='stroop-text' class='stroop-red'>YELLOW</p>", "response": "r", "stimulus-type": "incongruent", "word": "yellow", "color": "red", "correct_response": "r", "trial_id": "stroop-trial-1-incongruent-29", "trial_type": "html-keyboard-response", "trial_index": 91, "time_elapsed": 315943, "internal_node_id": "0.0-4.0-87.0"}}, {"uniqueid": "w80362277:a12213443", "current_trial": 92, "dateTime": 1664464228386, "trialdata": {"rt": 1484, "stimulus": "<p id='stroop-text' class='stroop-red'>YELLOW</p>", "response": "r", "stimulus-type": "incongruent", "word": "yellow", "color": "red", "correct_response": "r", "trial_id": "stroop-trial-1-incongruent-5", "trial_type": "html-keyboard-response", "trial_index": 92, "time_elapsed": 317943, "internal_node_id": "0.0-4.0-88.0"}}, {"uniqueid": "w80362277:a12213443", "current_trial": 93, "dateTime": 1664464230701, "trialdata": {"rt": 1797, "stimulus": "<p id='stroop-text' class='stroop-red'>STONE</p>", "response": "r", "stimulus-type": "unrelated", "word": "STONE", "color": "red", "correct_response": "r", "trial_id": "stroop-trial-1-unrelated-21", "trial_type": "html-keyboard-response", "trial_index": 93, "time_elapsed": 320257, "internal_node_id": "0.0-4.0-89.0"}}, {"uniqueid": "w80362277:a12213443", "current_trial": 94, "dateTime": 1664464237027, "trialdata": {"rt": 5796, "stimulus": "  <h1> End of block! </h1>\n\n  You have reached the end of the block 1/5. If you need a short break, feel free to take one now before moving on.\n\n  <br><br>\n  In the next block, you will complete another 90 rounds of this game.\n\n  <br><br>\n  <div style='text-align: center;'>Press <code>space</code> to begin.</div>\n  <br><br>\n<div style='text-align: center;'>(If the experiment doesn't continue, try clicking on the text and then pressing <code>space</code>.)</div>", "response": " ", "trial_id": "stroop_1_ready_2", "trial_type": "html-keyboard-response", "trial_index": 94, "time_elapsed": 326584, "internal_node_id": "0.0-5.0"}}, {"uniqueid": "w80362277:a12213443", "current_trial": 95, "dateTime": 1664464240517, "trialdata": {"rt": 3466, "stimulus": "<p id='stroop-text' class='stroop-yellow'>DOG</p>", "response": "y", "stimulus-type": "unrelated", "word": "DOG", "color": "yellow", "correct_response": "y", "trial_id": "stroop-trial-1-unrelated-6", "trial_type": "html-keyboard-response", "trial_index": 95, "time_elapsed": 330074, "internal_node_id": "0.0-6.0-0.0"}}, {"uniqueid": "w80362277:a12213443", "current_trial": 96, "dateTime": 1664464242584, "trialdata": {"rt": 1545, "stimulus": "<p id='stroop-text' class='stroop-green'>GREEN</p>", "response": "g", "stimulus-type": "congruent", "word": "green", "color": "green", "correct_response": "g", "trial_id": "stroop-trial-1-congruent-25", "trial_type": "html-keyboard-response", "trial_index": 96, "time_elapsed": 332140, "internal_node_id": "0.0-6.0-1.0"}}, {"uniqueid": "w80362277:a12213443", "current_trial": 97, "dateTime": 1664464245050, "trialdata": {"rt": 1947, "stimulus": "<p id='stroop-text' class='stroop-yellow'>BOTTLE</p>", "response": "g", "stimulus-type": "unrelated", "word": "BOTTLE", "color": "yellow", "correct_response": "y", "trial_id": "stroop-trial-1-unrelated-21", "trial_type": "html-keyboard-response", "trial_index": 97, "time_elapsed": 334606, "internal_node_id": "0.0-6.0-2.0"}}, {"uniqueid": "w80362277:a12213443", "current_trial": 98, "dateTime": 1664464247804, "trialdata": {"rt": 2243, "stimulus": "<p id='stroop-text' class='stroop-blue'>BOTTLE</p>", "response": "b", "stimulus-type": "unrelated", "word": "BOTTLE", "color": "blue", "correct_response": "b", "trial_id": "stroop-trial-1-unrelated-11", "trial_type": "html-keyboard-response", "trial_index": 98, "time_elapsed": 337360, "internal_node_id": "0.0-6.0-3.0"}}, {"uniqueid": "w80362277:a12213443", "current_trial": 99, "dateTime": 1664464249858, "trialdata": {"rt": 1536, "stimulus": "<p id='stroop-text' class='stroop-green'>GREEN</p>", "response": "g", "stimulus-type": "congruent", "word": "green", "color": "green", "correct_response": "g", "trial_id": "stroop-trial-1-congruent-1", "trial_type": "html-keyboard-response", "trial_index": 99, "time_elapsed": 339415, "internal_node_id": "0.0-6.0-4.0"}}, {"uniqueid": "w80362277:a12213443", "current_trial": 100, "dateTime": 1664464251967, "trialdata": {"rt": 1582, "stimulus": "<p id='stroop-text' class='stroop-blue'>BLUE</p>", "response": "b", "stimulus-type": "congruent", "word": "blue", "color": "blue", "correct_response": "b", "trial_id": "stroop-trial-1-congruent-9", "trial_type": "html-keyboard-response", "trial_index": 100, "time_elapsed": 341524, "internal_node_id": "0.0-6.0-5.0"}}, {"uniqueid": "w80362277:a12213443", "current_trial": 101, "dateTime": 1664464254104, "trialdata": {"rt": 1622, "stimulus": "<p id='stroop-text' class='stroop-green'>FORK</p>", "response": "g", "stimulus-type": "unrelated", "word": "FORK", "color": "green", "correct_response": "g", "trial_id": "stroop-trial-1-unrelated-12", "trial_type": "html-keyboard-response", "trial_index": 101, "time_elapsed": 343660, "internal_node_id": "0.0-6.0-6.0"}}, {"uniqueid": "w80362277:a12213443", "current_trial": 102, "dateTime": 1664464255976, "trialdata": {"rt": 1351, "stimulus": "<p id='stroop-text' class='stroop-red'>RED</p>", "response": "r", "stimulus-type": "congruent", "word": "red", "color": "red", "correct_response": "r", "trial_id": "stroop-trial-1-congruent-12", "trial_type": "html-keyboard-response", "trial_index": 102, "time_elapsed": 345533, "internal_node_id": "0.0-6.0-7.0"}}, {"uniqueid": "w80362277:a12213443", "current_trial": 103, "dateTime": 1664464257778, "trialdata": {"rt": 1284, "stimulus": "<p id='stroop-text' class='stroop-red'>BLUE</p>", "response": "r", "stimulus-type": "incongruent", "word": "blue", "color": "red", "correct_response": "r", "trial_id": "stroop-trial-1-incongruent-9", "trial_type": "html-keyboard-response", "trial_index": 103, "time_elapsed": 347335, "internal_node_id": "0.0-6.0-8.0"}}, {"uniqueid": "w80362277:a12213443", "current_trial": 104, "dateTime": 1664464260733, "trialdata": {"rt": 2435, "stimulus": "<p id='stroop-text' class='stroop-blue'>SHIP</p>", "response": "b", "stimulus-type": "unrelated", "word": "SHIP", "color": "blue", "correct_response": "b", "trial_id": "stroop-trial-1-unrelated-15", "trial_type": "html-keyboard-response", "trial_index": 104, "time_elapsed": 350290, "internal_node_id": "0.0-6.0-9.0"}}, {"uniqueid": "w80362277:a12213443", "current_trial": 105, "dateTime": 1664464262748, "trialdata": {"rt": 1490, "stimulus": "<p id='stroop-text' class='stroop-green'>BLUE</p>", "response": "g", "stimulus-type": "incongruent", "word": "blue", "color": "green", "correct_response": "g", "trial_id": "stroop-trial-1-incongruent-11", "trial_type": "html-keyboard-response", "trial_index": 105, "time_elapsed": 352304, "internal_node_id": "0.0-6.0-10.0"}}, {"uniqueid": "w80362277:a12213443", "current_trial": 106, "dateTime": 1664464264727, "trialdata": {"rt": 1458, "stimulus": "<p id='stroop-text' class='stroop-yellow'>GREEN</p>", "response": "y", "stimulus-type": "incongruent", "word": "green", "color": "yellow", "correct_response": "y", "trial_id": "stroop-trial-1-incongruent-20", "trial_type": "html-keyboard-response", "trial_index": 106, "time_elapsed": 354284, "internal_node_id": "0.0-6.0-11.0"}}, {"uniqueid": "w80362277:a12213443", "current_trial": 107, "dateTime": 1664464267876, "trialdata": {"rt": 2632, "stimulus": "<p id='stroop-text' class='stroop-green'>BLUE</p>", "response": "g", "stimulus-type": "incongruent", "word": "blue", "color": "green", "correct_response": "g", "trial_id": "stroop-trial-1-incongruent-17", "trial_type": "html-keyboard-response", "trial_index": 107, "time_elapsed": 357433, "internal_node_id": "0.0-6.0-12.0"}}, {"uniqueid": "w80362277:a12213443", "current_trial": 108, "dateTime": 1664464269455, "trialdata": {"rt": 1062, "stimulus": "<p id='stroop-text' class='stroop-red'>RED</p>", "response": "r", "stimulus-type": "congruent", "word": "red", "color": "red", "correct_response": "r", "trial_id": "stroop-trial-1-congruent-10", "trial_type": "html-keyboard-response", "trial_index": 108, "time_elapsed": 359011, "internal_node_id": "0.0-6.0-13.0"}}, {"uniqueid": "w80362277:a12213443", "current_trial": 109, "dateTime": 1664464272612, "trialdata": {"rt": 2636, "stimulus": "<p id='stroop-text' class='stroop-yellow'>SHIP</p>", "response": "y", "stimulus-type": "unrelated", "word": "SHIP", "color": "yellow", "correct_response": "y", "trial_id": "stroop-trial-1-unrelated-19", "trial_type": "html-keyboard-response", "trial_index": 109, "time_elapsed": 362168, "internal_node_id": "0.0-6.0-14.0"}}, {"uniqueid": "w80362277:a12213443", "current_trial": 110, "dateTime": 1664464274462, "trialdata": {"rt": 1333, "stimulus": "<p id='stroop-text' class='stroop-yellow'>CHAIR</p>", "response": "y", "stimulus-type": "unrelated", "word": "CHAIR", "color": "yellow", "correct_response": "y", "trial_id": "stroop-trial-1-unrelated-22", "trial_type": "html-keyboard-response", "trial_index": 110, "time_elapsed": 364019, "internal_node_id": "0.0-6.0-15.0"}}, {"uniqueid": "w80362277:a12213443", "current_trial": 111, "dateTime": 1664464276013, "trialdata": {"rt": 1029, "stimulus": "<p id='stroop-text' class='stroop-green'>GREEN</p>", "response": "g", "stimulus-type": "congruent", "word": "green", "color": "green", "correct_response": "g", "trial_id": "stroop-trial-1-congruent-18", "trial_type": "html-keyboard-response", "trial_index": 111, "time_elapsed": 365570, "internal_node_id": "0.0-6.0-16.0"}}, {"uniqueid": "w80362277:a12213443", "current_trial": 112, "dateTime": 1664464278147, "trialdata": {"rt": 1604, "stimulus": "<p id='stroop-text' class='stroop-yellow'>GREEN</p>", "response": "y", "stimulus-type": "incongruent", "word": "green", "color": "yellow", "correct_response": "y", "trial_id": "stroop-trial-1-incongruent-5", "trial_type": "html-keyboard-response", "trial_index": 112, "time_elapsed": 367704, "internal_node_id": "0.0-6.0-17.0"}}, {"uniqueid": "w80362277:a12213443", "current_trial": 113, "dateTime": 1664464279795, "trialdata": {"rt": 1125, "stimulus": "<p id='stroop-text' class='stroop-yellow'>RED</p>", "response": "y", "stimulus-type": "incongruent", "word": "red", "color": "yellow", "correct_response": "y", "trial_id": "stroop-trial-1-incongruent-19", "trial_type": "html-keyboard-response", "trial_index": 113, "time_elapsed": 369352, "internal_node_id": "0.0-6.0-18.0"}}, {"uniqueid": "w80362277:a12213443", "current_trial": 114, "dateTime": 1664464281343, "trialdata": {"rt": 1029, "stimulus": "<p id='stroop-text' class='stroop-yellow'>BLUE</p>", "response": "y", "stimulus-type": "incongruent", "word": "blue", "color": "yellow", "correct_response": "y", "trial_id": "stroop-trial-1-incongruent-21", "trial_type": "html-keyboard-response", "trial_index": 114, "time_elapsed": 370900, "internal_node_id": "0.0-6.0-19.0"}}, {"uniqueid": "w80362277:a12213443", "current_trial": 115, "dateTime": 1664464284326, "trialdata": {"rt": 2456, "stimulus": "<p id='stroop-text' class='stroop-blue'>WINDOW</p>", "response": "b", "stimulus-type": "unrelated", "word": "WINDOW", "color": "blue", "correct_response": "b", "trial_id": "stroop-trial-1-unrelated-17", "trial_type": "html-keyboard-response", "trial_index": 115, "time_elapsed": 373883, "internal_node_id": "0.0-6.0-20.0"}}, {"uniqueid": "w80362277:a12213443", "current_trial": 116, "dateTime": 1664464286342, "trialdata": {"rt": 1498, "stimulus": "<p id='stroop-text' class='stroop-green'>RED</p>", "response": "g", "stimulus-type": "incongruent", "word": "red", "color": "green", "correct_response": "g", "trial_id": "stroop-trial-1-incongruent-3", "trial_type": "html-keyboard-response", "trial_index": 116, "time_elapsed": 375898, "internal_node_id": "0.0-6.0-21.0"}}, {"uniqueid": "w80362277:a12213443", "current_trial": 117, "dateTime": 1664464288060, "trialdata": {"rt": 1196, "stimulus": "<p id='stroop-text' class='stroop-yellow'>MONKEY</p>", "response": "y", "stimulus-type": "unrelated", "word": "MONKEY", "color": "yellow", "correct_response": "y", "trial_id": "stroop-trial-1-unrelated-25", "trial_type": "html-keyboard-response", "trial_index": 117, "time_elapsed": 377617, "internal_node_id": "0.0-6.0-22.0"}}, {"uniqueid": "w80362277:a12213443", "current_trial": 118, "dateTime": 1664464289796, "trialdata": {"rt": 1220, "stimulus": "<p id='stroop-text' class='stroop-red'>GREEN</p>", "response": "r", "stimulus-type": "incongruent", "word": "green", "color": "red", "correct_response": "r", "trial_id": "stroop-trial-1-incongruent-8", "trial_type": "html-keyboard-response", "trial_index": 118, "time_elapsed": 379353, "internal_node_id": "0.0-6.0-23.0"}}, {"uniqueid": "w80362277:a12213443", "current_trial": 119, "dateTime": 1664464291681, "trialdata": {"rt": 1361, "stimulus": "<p id='stroop-text' class='stroop-red'>BRAIN</p>", "response": "r", "stimulus-type": "unrelated", "word": "BRAIN", "color": "red", "correct_response": "r", "trial_id": "stroop-trial-1-unrelated-26", "trial_type": "html-keyboard-response", "trial_index": 119, "time_elapsed": 381238, "internal_node_id": "0.0-6.0-24.0"}}, {"uniqueid": "w80362277:a12213443", "current_trial": 120, "dateTime": 1664464293464, "trialdata": {"rt": 1263, "stimulus": "<p id='stroop-text' class='stroop-yellow'>GREEN</p>", "response": "y", "stimulus-type": "incongruent", "word": "green", "color": "yellow", "correct_response": "y", "trial_id": "stroop-trial-1-incongruent-16", "trial_type": "html-keyboard-response", "trial_index": 120, "time_elapsed": 383020, "internal_node_id": "0.0-6.0-25.0"}}, {"uniqueid": "w80362277:a12213443", "current_trial": 121, "dateTime": 1664464295653, "trialdata": {"rt": 1671, "stimulus": "<p id='stroop-text' class='stroop-green'>RED</p>", "response": "g", "stimulus-type": "incongruent", "word": "red", "color": "green", "correct_response": "g", "trial_id": "stroop-trial-1-incongruent-18", "trial_type": "html-keyboard-response", "trial_index": 121, "time_elapsed": 385211, "internal_node_id": "0.0-6.0-26.0"}}, {"uniqueid": "w80362277:a12213443", "current_trial": 122, "dateTime": 1664464298014, "trialdata": {"rt": 1843, "stimulus": "<p id='stroop-text' class='stroop-green'>GREEN</p>", "response": "g", "stimulus-type": "congruent", "word": "green", "color": "green", "correct_response": "g", "trial_id": "stroop-trial-1-congruent-6", "trial_type": "html-keyboard-response", "trial_index": 122, "time_elapsed": 387571, "internal_node_id": "0.0-6.0-27.0"}}, {"uniqueid": "w80362277:a12213443", "current_trial": 123, "dateTime": 1664464299825, "trialdata": {"rt": 1287, "stimulus": "<p id='stroop-text' class='stroop-green'>BRAIN</p>", "response": "g", "stimulus-type": "unrelated", "word": "BRAIN", "color": "green", "correct_response": "g", "trial_id": "stroop-trial-1-unrelated-7", "trial_type": "html-keyboard-response", "trial_index": 123, "time_elapsed": 389382, "internal_node_id": "0.0-6.0-28.0"}}, {"uniqueid": "w80362277:a12213443", "current_trial": 124, "dateTime": 1664464302060, "trialdata": {"rt": 1709, "stimulus": "<p id='stroop-text' class='stroop-blue'>BRIDGE</p>", "response": "b", "stimulus-type": "unrelated", "word": "BRIDGE", "color": "blue", "correct_response": "b", "trial_id": "stroop-trial-1-unrelated-18", "trial_type": "html-keyboard-response", "trial_index": 124, "time_elapsed": 391617, "internal_node_id": "0.0-6.0-29.0"}}, {"uniqueid": "w80362277:a12213443", "current_trial": 125, "dateTime": 1664464305296, "trialdata": {"rt": 2711, "stimulus": "<p id='stroop-text' class='stroop-green'>GREEN</p>", "response": "g", "stimulus-type": "congruent", "word": "green", "color": "green", "correct_response": "g", "trial_id": "stroop-trial-1-congruent-23", "trial_type": "html-keyboard-response", "trial_index": 125, "time_elapsed": 394853, "internal_node_id": "0.0-6.0-30.0"}}, {"uniqueid": "w80362277:a12213443", "current_trial": 126, "dateTime": 1664464307022, "trialdata": {"rt": 1195, "stimulus": "<p id='stroop-text' class='stroop-yellow'>RED</p>", "response": "y", "stimulus-type": "incongruent", "word": "red", "color": "yellow", "correct_response": "y", "trial_id": "stroop-trial-1-incongruent-7", "trial_type": "html-keyboard-response", "trial_index": 126, "time_elapsed": 396579, "internal_node_id": "0.0-6.0-31.0"}}, {"uniqueid": "w80362277:a12213443", "current_trial": 127, "dateTime": 1664464309363, "trialdata": {"rt": 1814, "stimulus": "<p id='stroop-text' class='stroop-blue'>BLUE</p>", "response": "b", "stimulus-type": "congruent", "word": "blue", "color": "blue", "correct_response": "b", "trial_id": "stroop-trial-1-congruent-24", "trial_type": "html-keyboard-response", "trial_index": 127, "time_elapsed": 398919, "internal_node_id": "0.0-6.0-32.0"}}, {"uniqueid": "w80362277:a12213443", "current_trial": 128, "dateTime": 1664464311197, "trialdata": {"rt": 1308, "stimulus": "<p id='stroop-text' class='stroop-red'>BRIDGE</p>", "response": "r", "stimulus-type": "unrelated", "word": "BRIDGE", "color": "red", "correct_response": "r", "trial_id": "stroop-trial-1-unrelated-27", "trial_type": "html-keyboard-response", "trial_index": 128, "time_elapsed": 400754, "internal_node_id": "0.0-6.0-33.0"}}, {"uniqueid": "w80362277:a12213443", "current_trial": 129, "dateTime": 1664464313545, "trialdata": {"rt": 1834, "stimulus": "<p id='stroop-text' class='stroop-blue'>GREEN</p>", "response": "b", "stimulus-type": "incongruent", "word": "green", "color": "blue", "correct_response": "b", "trial_id": "stroop-trial-1-incongruent-1", "trial_type": "html-keyboard-response", "trial_index": 129, "time_elapsed": 403102, "internal_node_id": "0.0-6.0-34.0"}}, {"uniqueid": "w80362277:a12213443", "current_trial": 130, "dateTime": 1664464315530, "trialdata": {"rt": 1464, "stimulus": "<p id='stroop-text' class='stroop-red'>CHAIR</p>", "response": "r", "stimulus-type": "unrelated", "word": "CHAIR", "color": "red", "correct_response": "r", "trial_id": "stroop-trial-1-unrelated-23", "trial_type": "html-keyboard-response", "trial_index": 130, "time_elapsed": 405087, "internal_node_id": "0.0-6.0-35.0"}}, {"uniqueid": "w80362277:a12213443", "current_trial": 131, "dateTime": 1664464317776, "trialdata": {"rt": 1720, "stimulus": "<p id='stroop-text' class='stroop-blue'>FORK</p>", "response": "b", "stimulus-type": "unrelated", "word": "FORK", "color": "blue", "correct_response": "b", "trial_id": "stroop-trial-1-unrelated-8", "trial_type": "html-keyboard-response", "trial_index": 131, "time_elapsed": 407333, "internal_node_id": "0.0-6.0-36.0"}}, {"uniqueid": "w80362277:a12213443", "current_trial": 132, "dateTime": 1664464319622, "trialdata": {"rt": 1324, "stimulus": "<p id='stroop-text' class='stroop-red'>RED</p>", "response": "r", "stimulus-type": "congruent", "word": "red", "color": "red", "correct_response": "r", "trial_id": "stroop-trial-1-congruent-11", "trial_type": "html-keyboard-response", "trial_index": 132, "time_elapsed": 409179, "internal_node_id": "0.0-6.0-37.0"}}, {"uniqueid": "w80362277:a12213443", "current_trial": 133, "dateTime": 1664464321788, "trialdata": {"rt": 1633, "stimulus": "<p id='stroop-text' class='stroop-green'>GREEN</p>", "response": "g", "stimulus-type": "congruent", "word": "green", "color": "green", "correct_response": "g", "trial_id": "stroop-trial-1-congruent-19", "trial_type": "html-keyboard-response", "trial_index": 133, "time_elapsed": 411345, "internal_node_id": "0.0-6.0-38.0"}}, {"uniqueid": "w80362277:a12213443", "current_trial": 134, "dateTime": 1664464323363, "trialdata": {"rt": 1051, "stimulus": "<p id='stroop-text' class='stroop-yellow'>YELLOW</p>", "response": "y", "stimulus-type": "congruent", "word": "yellow", "color": "yellow", "correct_response": "y", "trial_id": "stroop-trial-1-congruent-20", "trial_type": "html-keyboard-response", "trial_index": 134, "time_elapsed": 412919, "internal_node_id": "0.0-6.0-39.0"}}, {"uniqueid": "w80362277:a12213443", "current_trial": 135, "dateTime": 1664464325407, "trialdata": {"rt": 1523, "stimulus": "<p id='stroop-text' class='stroop-green'>BLUE</p>", "response": "g", "stimulus-type": "incongruent", "word": "blue", "color": "green", "correct_response": "g", "trial_id": "stroop-trial-1-incongruent-13", "trial_type": "html-keyboard-response", "trial_index": 135, "time_elapsed": 414964, "internal_node_id": "0.0-6.0-40.0"}}, {"uniqueid": "w80362277:a12213443", "current_trial": 136, "dateTime": 1664464327403, "trialdata": {"rt": 1473, "stimulus": "<p id='stroop-text' class='stroop-green'>GREEN</p>", "response": "g", "stimulus-type": "congruent", "word": "green", "color": "green", "correct_response": "g", "trial_id": "stroop-trial-1-congruent-5", "trial_type": "html-keyboard-response", "trial_index": 136, "time_elapsed": 416960, "internal_node_id": "0.0-6.0-41.0"}}, {"uniqueid": "w80362277:a12213443", "current_trial": 137, "dateTime": 1664464329187, "trialdata": {"rt": 1255, "stimulus": "<p id='stroop-text' class='stroop-blue'>RED</p>", "response": "b", "stimulus-type": "incongruent", "word": "red", "color": "blue", "correct_response": "b", "trial_id": "stroop-trial-1-incongruent-22", "trial_type": "html-keyboard-response", "trial_index": 137, "time_elapsed": 418744, "internal_node_id": "0.0-6.0-42.0"}}, {"uniqueid": "w80362277:a12213443", "current_trial": 138, "dateTime": 1664464332750, "trialdata": {"rt": 3040, "stimulus": "<p id='stroop-text' class='stroop-green'>GREEN</p>", "response": "g", "stimulus-type": "congruent", "word": "green", "color": "green", "correct_response": "g", "trial_id": "stroop-trial-1-congruent-22", "trial_type": "html-keyboard-response", "trial_index": 138, "time_elapsed": 422307, "internal_node_id": "0.0-6.0-43.0"}}, {"uniqueid": "w80362277:a12213443", "current_trial": 139, "dateTime": 1664464335597, "trialdata": {"rt": 2331, "stimulus": "<p id='stroop-text' class='stroop-blue'>RED</p>", "response": "b", "stimulus-type": "incongruent", "word": "red", "color": "blue", "correct_response": "b", "trial_id": "stroop-trial-1-incongruent-10", "trial_type": "html-keyboard-response", "trial_index": 139, "time_elapsed": 425154, "internal_node_id": "0.0-6.0-44.0"}}, {"uniqueid": "w80362277:a12213443", "current_trial": 140, "dateTime": 1664464337693, "trialdata": {"rt": 1570, "stimulus": "<p id='stroop-text' class='stroop-blue'>BOTTLE</p>", "response": "b", "stimulus-type": "unrelated", "word": "BOTTLE", "color": "blue", "correct_response": "b", "trial_id": "stroop-trial-1-unrelated-2", "trial_type": "html-keyboard-response", "trial_index": 140, "time_elapsed": 427250, "internal_node_id": "0.0-6.0-45.0"}}, {"uniqueid": "w80362277:a12213443", "current_trial": 141, "dateTime": 1664464339460, "trialdata": {"rt": 1241, "stimulus": "<p id='stroop-text' class='stroop-yellow'>RED</p>", "response": "y", "stimulus-type": "incongruent", "word": "red", "color": "yellow", "correct_response": "y", "trial_id": "stroop-trial-1-incongruent-29", "trial_type": "html-keyboard-response", "trial_index": 141, "time_elapsed": 429017, "internal_node_id": "0.0-6.0-46.0"}}, {"uniqueid": "w80362277:a12213443", "current_trial": 142, "dateTime": 1664464341415, "trialdata": {"rt": 1436, "stimulus": "<p id='stroop-text' class='stroop-yellow'>BLUE</p>", "response": "y", "stimulus-type": "incongruent", "word": "blue", "color": "yellow", "correct_response": "y", "trial_id": "stroop-trial-1-incongruent-27", "trial_type": "html-keyboard-response", "trial_index": 142, "time_elapsed": 430972, "internal_node_id": "0.0-6.0-47.0"}}, {"uniqueid": "w80362277:a12213443", "current_trial": 143, "dateTime": 1664464343165, "trialdata": {"rt": 1219, "stimulus": "<p id='stroop-text' class='stroop-green'>GREEN</p>", "response": "g", "stimulus-type": "congruent", "word": "green", "color": "green", "correct_response": "g", "trial_id": "stroop-trial-1-congruent-29", "trial_type": "html-keyboard-response", "trial_index": 143, "time_elapsed": 432722, "internal_node_id": "0.0-6.0-48.0"}}, {"uniqueid": "w80362277:a12213443", "current_trial": 144, "dateTime": 1664464345235, "trialdata": {"rt": 1545, "stimulus": "<p id='stroop-text' class='stroop-green'>GREEN</p>", "response": "g", "stimulus-type": "congruent", "word": "green", "color": "green", "correct_response": "g", "trial_id": "stroop-trial-1-congruent-7", "trial_type": "html-keyboard-response", "trial_index": 144, "time_elapsed": 434792, "internal_node_id": "0.0-6.0-49.0"}}, {"uniqueid": "w80362277:a12213443", "current_trial": 145, "dateTime": 1664464347316, "trialdata": {"rt": 1551, "stimulus": "<p id='stroop-text' class='stroop-red'>FORK</p>", "response": "r", "stimulus-type": "unrelated", "word": "FORK", "color": "red", "correct_response": "r", "trial_id": "stroop-trial-1-unrelated-24", "trial_type": "html-keyboard-response", "trial_index": 145, "time_elapsed": 436873, "internal_node_id": "0.0-6.0-50.0"}}, {"uniqueid": "w80362277:a12213443", "current_trial": 146, "dateTime": 1664464351106, "trialdata": {"rt": 3273, "stimulus": "<p id='stroop-text' class='stroop-green'>CHAIR</p>", "response": "g", "stimulus-type": "unrelated", "word": "CHAIR", "color": "green", "correct_response": "g", "trial_id": "stroop-trial-1-unrelated-10", "trial_type": "html-keyboard-response", "trial_index": 146, "time_elapsed": 440663, "internal_node_id": "0.0-6.0-51.0"}}, {"uniqueid": "w80362277:a12213443", "current_trial": 147, "dateTime": 1664464352752, "trialdata": {"rt": 1124, "stimulus": "<p id='stroop-text' class='stroop-yellow'>BLUE</p>", "response": "y", "stimulus-type": "incongruent", "word": "blue", "color": "yellow", "correct_response": "y", "trial_id": "stroop-trial-1-incongruent-2", "trial_type": "html-keyboard-response", "trial_index": 147, "time_elapsed": 442309, "internal_node_id": "0.0-6.0-52.0"}}, {"uniqueid": "w80362277:a12213443", "current_trial": 148, "dateTime": 1664464354974, "trialdata": {"rt": 1695, "stimulus": "<p id='stroop-text' class='stroop-green'>GREEN</p>", "response": "g", "stimulus-type": "congruent", "word": "green", "color": "green", "correct_response": "g", "trial_id": "stroop-trial-1-congruent-3", "trial_type": "html-keyboard-response", "trial_index": 148, "time_elapsed": 444531, "internal_node_id": "0.0-6.0-53.0"}}, {"uniqueid": "w80362277:a12213443", "current_trial": 149, "dateTime": 1664464356847, "trialdata": {"rt": 1352, "stimulus": "<p id='stroop-text' class='stroop-blue'>GREEN</p>", "response": "b", "stimulus-type": "incongruent", "word": "green", "color": "blue", "correct_response": "b", "trial_id": "stroop-trial-1-incongruent-28", "trial_type": "html-keyboard-response", "trial_index": 149, "time_elapsed": 446404, "internal_node_id": "0.0-6.0-54.0"}}, {"uniqueid": "w80362277:a12213443", "current_trial": 150, "dateTime": 1664464359822, "trialdata": {"rt": 2447, "stimulus": "<p id='stroop-text' class='stroop-blue'>DOG</p>", "response": "b", "stimulus-type": "unrelated", "word": "DOG", "color": "blue", "correct_response": "b", "trial_id": "stroop-trial-1-unrelated-16", "trial_type": "html-keyboard-response", "trial_index": 150, "time_elapsed": 449378, "internal_node_id": "0.0-6.0-55.0"}}, {"uniqueid": "w80362277:a12213443", "current_trial": 151, "dateTime": 1664464361914, "trialdata": {"rt": 1551, "stimulus": "<p id='stroop-text' class='stroop-green'>YELLOW</p>", "response": "g", "stimulus-type": "incongruent", "word": "yellow", "color": "green", "correct_response": "g", "trial_id": "stroop-trial-1-incongruent-23", "trial_type": "html-keyboard-response", "trial_index": 151, "time_elapsed": 451472, "internal_node_id": "0.0-6.0-56.0"}}, {"uniqueid": "w80362277:a12213443", "current_trial": 152, "dateTime": 1664464364316, "trialdata": {"rt": 1888, "stimulus": "<p id='stroop-text' class='stroop-blue'>YELLOW</p>", "response": "b", "stimulus-type": "incongruent", "word": "yellow", "color": "blue", "correct_response": "b", "trial_id": "stroop-trial-1-incongruent-12", "trial_type": "html-keyboard-response", "trial_index": 152, "time_elapsed": 453873, "internal_node_id": "0.0-6.0-57.0"}}, {"uniqueid": "w80362277:a12213443", "current_trial": 153, "dateTime": 1664464366145, "trialdata": {"rt": 1307, "stimulus": "<p id='stroop-text' class='stroop-green'>GREEN</p>", "response": "g", "stimulus-type": "congruent", "word": "green", "color": "green", "correct_response": "g", "trial_id": "stroop-trial-1-congruent-8", "trial_type": "html-keyboard-response", "trial_index": 153, "time_elapsed": 455703, "internal_node_id": "0.0-6.0-58.0"}}, {"uniqueid": "w80362277:a12213443", "current_trial": 154, "dateTime": 1664464367888, "trialdata": {"rt": 1226, "stimulus": "<p id='stroop-text' class='stroop-blue'>GREEN</p>", "response": "b", "stimulus-type": "incongruent", "word": "green", "color": "blue", "correct_response": "b", "trial_id": "stroop-trial-1-incongruent-14", "trial_type": "html-keyboard-response", "trial_index": 154, "time_elapsed": 457445, "internal_node_id": "0.0-6.0-59.0"}}, {"uniqueid": "w80362277:a12213443", "current_trial": 155, "dateTime": 1664464370102, "trialdata": {"rt": 1699, "stimulus": "<p id='stroop-text' class='stroop-blue'>BLUE</p>", "response": "b", "stimulus-type": "congruent", "word": "blue", "color": "blue", "correct_response": "b", "trial_id": "stroop-trial-1-congruent-28", "trial_type": "html-keyboard-response", "trial_index": 155, "time_elapsed": 459660, "internal_node_id": "0.0-6.0-60.0"}}, {"uniqueid": "w80362277:a12213443", "current_trial": 156, "dateTime": 1664464371920, "trialdata": {"rt": 1306, "stimulus": "<p id='stroop-text' class='stroop-red'>RED</p>", "response": "r", "stimulus-type": "congruent", "word": "red", "color": "red", "correct_response": "r", "trial_id": "stroop-trial-1-congruent-14", "trial_type": "html-keyboard-response", "trial_index": 156, "time_elapsed": 461478, "internal_node_id": "0.0-6.0-61.0"}}, {"uniqueid": "w80362277:a12213443", "current_trial": 157, "dateTime": 1664464373826, "trialdata": {"rt": 1388, "stimulus": "<p id='stroop-text' class='stroop-red'>BRIDGE</p>", "response": "r", "stimulus-type": "unrelated", "word": "BRIDGE", "color": "red", "correct_response": "r", "trial_id": "stroop-trial-1-unrelated-13", "trial_type": "html-keyboard-response", "trial_index": 157, "time_elapsed": 463383, "internal_node_id": "0.0-6.0-62.0"}}, {"uniqueid": "w80362277:a12213443", "current_trial": 158, "dateTime": 1664464375686, "trialdata": {"rt": 1333, "stimulus": "<p id='stroop-text' class='stroop-yellow'>SHIP</p>", "response": "y", "stimulus-type": "unrelated", "word": "SHIP", "color": "yellow", "correct_response": "y", "trial_id": "stroop-trial-1-unrelated-28", "trial_type": "html-keyboard-response", "trial_index": 158, "time_elapsed": 465244, "internal_node_id": "0.0-6.0-63.0"}}, {"uniqueid": "w80362277:a12213443", "current_trial": 159, "dateTime": 1664464378724, "trialdata": {"rt": 2526, "stimulus": "<p id='stroop-text' class='stroop-blue'>BLUE</p>", "response": "b", "stimulus-type": "congruent", "word": "blue", "color": "blue", "correct_response": "b", "trial_id": "stroop-trial-1-congruent-2", "trial_type": "html-keyboard-response", "trial_index": 159, "time_elapsed": 468281, "internal_node_id": "0.0-6.0-64.0"}}, {"uniqueid": "w80362277:a12213443", "current_trial": 160, "dateTime": 1664464380523, "trialdata": {"rt": 1266, "stimulus": "<p id='stroop-text' class='stroop-blue'>BLUE</p>", "response": "b", "stimulus-type": "congruent", "word": "blue", "color": "blue", "correct_response": "b", "trial_id": "stroop-trial-1-congruent-27", "trial_type": "html-keyboard-response", "trial_index": 160, "time_elapsed": 470079, "internal_node_id": "0.0-6.0-65.0"}}, {"uniqueid": "w80362277:a12213443", "current_trial": 161, "dateTime": 1664464382234, "trialdata": {"rt": 1187, "stimulus": "<p id='stroop-text' class='stroop-blue'>BLUE</p>", "response": "b", "stimulus-type": "congruent", "word": "blue", "color": "blue", "correct_response": "b", "trial_id": "stroop-trial-1-congruent-26", "trial_type": "html-keyboard-response", "trial_index": 161, "time_elapsed": 471790, "internal_node_id": "0.0-6.0-66.0"}}, {"uniqueid": "w80362277:a12213443", "current_trial": 162, "dateTime": 1664464384576, "trialdata": {"rt": 1819, "stimulus": "<p id='stroop-text' class='stroop-red'>GREEN</p>", "response": "r", "stimulus-type": "incongruent", "word": "green", "color": "red", "correct_response": "r", "trial_id": "stroop-trial-1-incongruent-30", "trial_type": "html-keyboard-response", "trial_index": 162, "time_elapsed": 474133, "internal_node_id": "0.0-6.0-67.0"}}, {"uniqueid": "w80362277:a12213443", "current_trial": 163, "dateTime": 1664464386445, "trialdata": {"rt": 1340, "stimulus": "<p id='stroop-text' class='stroop-green'>FORK</p>", "response": "g", "stimulus-type": "unrelated", "word": "FORK", "color": "green", "correct_response": "g", "trial_id": "stroop-trial-1-unrelated-9", "trial_type": "html-keyboard-response", "trial_index": 163, "time_elapsed": 476001, "internal_node_id": "0.0-6.0-68.0"}}, {"uniqueid": "w80362277:a12213443", "current_trial": 164, "dateTime": 1664464389378, "trialdata": {"rt": 2414, "stimulus": "<p id='stroop-text' class='stroop-red'>YELLOW</p>", "response": "r", "stimulus-type": "incongruent", "word": "yellow", "color": "red", "correct_response": "r", "trial_id": "stroop-trial-1-incongruent-24", "trial_type": "html-keyboard-response", "trial_index": 164, "time_elapsed": 478935, "internal_node_id": "0.0-6.0-69.0"}}, {"uniqueid": "w80362277:a12213443", "current_trial": 165, "dateTime": 1664464392210, "trialdata": {"rt": 2301, "stimulus": "<p id='stroop-text' class='stroop-green'>GREEN</p>", "response": "g", "stimulus-type": "congruent", "word": "green", "color": "green", "correct_response": "g", "trial_id": "stroop-trial-1-congruent-13", "trial_type": "html-keyboard-response", "trial_index": 165, "time_elapsed": 481766, "internal_node_id": "0.0-6.0-70.0"}}, {"uniqueid": "w80362277:a12213443", "current_trial": 166, "dateTime": 1664464395837, "trialdata": {"rt": 3092, "stimulus": "<p id='stroop-text' class='stroop-red'>STONE</p>", "response": "r", "stimulus-type": "unrelated", "word": "STONE", "color": "red", "correct_response": "r", "trial_id": "stroop-trial-1-unrelated-20", "trial_type": "html-keyboard-response", "trial_index": 166, "time_elapsed": 485394, "internal_node_id": "0.0-6.0-71.0"}}, {"uniqueid": "w80362277:a12213443", "current_trial": 167, "dateTime": 1664464397446, "trialdata": {"rt": 1088, "stimulus": "<p id='stroop-text' class='stroop-red'>BOAT</p>", "response": "r", "stimulus-type": "unrelated", "word": "BOAT", "color": "red", "correct_response": "r", "trial_id": "stroop-trial-1-unrelated-4", "trial_type": "html-keyboard-response", "trial_index": 167, "time_elapsed": 487003, "internal_node_id": "0.0-6.0-72.0"}}, {"uniqueid": "w80362277:a12213443", "current_trial": 168, "dateTime": 1664464399158, "trialdata": {"rt": 1176, "stimulus": "<p id='stroop-text' class='stroop-red'>RED</p>", "response": "r", "stimulus-type": "congruent", "word": "red", "color": "red", "correct_response": "r", "trial_id": "stroop-trial-1-congruent-21", "trial_type": "html-keyboard-response", "trial_index": 168, "time_elapsed": 488714, "internal_node_id": "0.0-6.0-73.0"}}, {"uniqueid": "w80362277:a12213443", "current_trial": 169, "dateTime": 1664464402036, "trialdata": {"rt": 2355, "stimulus": "<p id='stroop-text' class='stroop-green'>GREEN</p>", "response": "g", "stimulus-type": "congruent", "word": "green", "color": "green", "correct_response": "g", "trial_id": "stroop-trial-1-congruent-15", "trial_type": "html-keyboard-response", "trial_index": 169, "time_elapsed": 491593, "internal_node_id": "0.0-6.0-74.0"}}, {"uniqueid": "w80362277:a12213443", "current_trial": 170, "dateTime": 1664464403585, "trialdata": {"rt": 1034, "stimulus": "<p id='stroop-text' class='stroop-blue'>GREEN</p>", "response": "b", "stimulus-type": "incongruent", "word": "green", "color": "blue", "correct_response": "b", "trial_id": "stroop-trial-1-incongruent-25", "trial_type": "html-keyboard-response", "trial_index": 170, "time_elapsed": 493142, "internal_node_id": "0.0-6.0-75.0"}}, {"uniqueid": "w80362277:a12213443", "current_trial": 171, "dateTime": 1664464405150, "trialdata": {"rt": 1042, "stimulus": "<p id='stroop-text' class='stroop-yellow'>BRAIN</p>", "response": "y", "stimulus-type": "unrelated", "word": "BRAIN", "color": "yellow", "correct_response": "y", "trial_id": "stroop-trial-1-unrelated-1", "trial_type": "html-keyboard-response", "trial_index": 171, "time_elapsed": 494707, "internal_node_id": "0.0-6.0-76.0"}}, {"uniqueid": "w80362277:a12213443", "current_trial": 172, "dateTime": 1664464407435, "trialdata": {"rt": 1764, "stimulus": "<p id='stroop-text' class='stroop-yellow'>DOG</p>", "response": "y", "stimulus-type": "unrelated", "word": "DOG", "color": "yellow", "correct_response": "y", "trial_id": "stroop-trial-1-unrelated-14", "trial_type": "html-keyboard-response", "trial_index": 172, "time_elapsed": 496992, "internal_node_id": "0.0-6.0-77.0"}}, {"uniqueid": "w80362277:a12213443", "current_trial": 173, "dateTime": 1664464409300, "trialdata": {"rt": 1332, "stimulus": "<p id='stroop-text' class='stroop-red'>BLUE</p>", "response": "r", "stimulus-type": "incongruent", "word": "blue", "color": "red", "correct_response": "r", "trial_id": "stroop-trial-1-incongruent-15", "trial_type": "html-keyboard-response", "trial_index": 173, "time_elapsed": 498856, "internal_node_id": "0.0-6.0-78.0"}}, {"uniqueid": "w80362277:a12213443", "current_trial": 174, "dateTime": 1664464411190, "trialdata": {"rt": 1360, "stimulus": "<p id='stroop-text' class='stroop-green'>CHAIR</p>", "response": "g", "stimulus-type": "unrelated", "word": "CHAIR", "color": "green", "correct_response": "g", "trial_id": "stroop-trial-1-unrelated-3", "trial_type": "html-keyboard-response", "trial_index": 174, "time_elapsed": 500747, "internal_node_id": "0.0-6.0-79.0"}}, {"uniqueid": "w80362277:a12213443", "current_trial": 175, "dateTime": 1664464412935, "trialdata": {"rt": 1220, "stimulus": "<p id='stroop-text' class='stroop-yellow'>YELLOW</p>", "response": "y", "stimulus-type": "congruent", "word": "yellow", "color": "yellow", "correct_response": "y", "trial_id": "stroop-trial-1-congruent-17", "trial_type": "html-keyboard-response", "trial_index": 175, "time_elapsed": 502492, "internal_node_id": "0.0-6.0-80.0"}}, {"uniqueid": "w80362277:a12213443", "current_trial": 176, "dateTime": 1664464414694, "trialdata": {"rt": 1223, "stimulus": "<p id='stroop-text' class='stroop-red'>BRIDGE</p>", "response": "r", "stimulus-type": "unrelated", "word": "BRIDGE", "color": "red", "correct_response": "r", "trial_id": "stroop-trial-1-unrelated-29", "trial_type": "html-keyboard-response", "trial_index": 176, "time_elapsed": 504250, "internal_node_id": "0.0-6.0-81.0"}}, {"uniqueid": "w80362277:a12213443", "current_trial": 177, "dateTime": 1664464416943, "trialdata": {"rt": 1726, "stimulus": "<p id='stroop-text' class='stroop-red'>RED</p>", "response": "r", "stimulus-type": "congruent", "word": "red", "color": "red", "correct_response": "r", "trial_id": "stroop-trial-1-congruent-30", "trial_type": "html-keyboard-response", "trial_index": 177, "time_elapsed": 506500, "internal_node_id": "0.0-6.0-82.0"}}, {"uniqueid": "w80362277:a12213443", "current_trial": 178, "dateTime": 1664464420755, "trialdata": {"rt": 3281, "stimulus": "<p id='stroop-text' class='stroop-green'>DOG</p>", "response": "g", "stimulus-type": "unrelated", "word": "DOG", "color": "green", "correct_response": "g", "trial_id": "stroop-trial-1-unrelated-5", "trial_type": "html-keyboard-response", "trial_index": 178, "time_elapsed": 510312, "internal_node_id": "0.0-6.0-83.0"}}, {"uniqueid": "w80362277:a12213443", "current_trial": 179, "dateTime": 1664464423169, "trialdata": {"rt": 1886, "stimulus": "<p id='stroop-text' class='stroop-red'>YELLOW</p>", "response": "r", "stimulus-type": "incongruent", "word": "yellow", "color": "red", "correct_response": "r", "trial_id": "stroop-trial-1-incongruent-6", "trial_type": "html-keyboard-response", "trial_index": 179, "time_elapsed": 512726, "internal_node_id": "0.0-6.0-84.0"}}, {"uniqueid": "w80362277:a12213443", "current_trial": 180, "dateTime": 1664464426323, "trialdata": {"rt": 2621, "stimulus": "<p id='stroop-text' class='stroop-red'>BLUE</p>", "response": "r", "stimulus-type": "incongruent", "word": "blue", "color": "red", "correct_response": "r", "trial_id": "stroop-trial-1-incongruent-26", "trial_type": "html-keyboard-response", "trial_index": 180, "time_elapsed": 515879, "internal_node_id": "0.0-6.0-85.0"}}, {"uniqueid": "w80362277:a12213443", "current_trial": 181, "dateTime": 1664464428280, "trialdata": {"rt": 1431, "stimulus": "<p id='stroop-text' class='stroop-yellow'>GREEN</p>", "response": "y", "stimulus-type": "incongruent", "word": "green", "color": "yellow", "correct_response": "y", "trial_id": "stroop-trial-1-incongruent-4", "trial_type": "html-keyboard-response", "trial_index": 181, "time_elapsed": 517837, "internal_node_id": "0.0-6.0-86.0"}}, {"uniqueid": "w80362277:a12213443", "current_trial": 182, "dateTime": 1664464431620, "trialdata": {"rt": 2825, "stimulus": "<p id='stroop-text' class='stroop-yellow'>BRAIN</p>", "response": "y", "stimulus-type": "unrelated", "word": "BRAIN", "color": "yellow", "correct_response": "y", "trial_id": "stroop-trial-1-unrelated-30", "trial_type": "html-keyboard-response", "trial_index": 182, "time_elapsed": 521176, "internal_node_id": "0.0-6.0-87.0"}}, {"uniqueid": "w80362277:a12213443", "current_trial": 183, "dateTime": 1664464433222, "trialdata": {"rt": 1079, "stimulus": "<p id='stroop-text' class='stroop-yellow'>YELLOW</p>", "response": "y", "stimulus-type": "congruent", "word": "yellow", "color": "yellow", "correct_response": "y", "trial_id": "stroop-trial-1-congruent-4", "trial_type": "html-keyboard-response", "trial_index": 183, "time_elapsed": 522779, "internal_node_id": "0.0-6.0-88.0"}}, {"uniqueid": "w80362277:a12213443", "current_trial": 184, "dateTime": 1664464435444, "trialdata": {"rt": 1694, "stimulus": "<p id='stroop-text' class='stroop-green'>GREEN</p>", "response": "g", "stimulus-type": "congruent", "word": "green", "color": "green", "correct_response": "g", "trial_id": "stroop-trial-1-congruent-16", "trial_type": "html-keyboard-response", "trial_index": 184, "time_elapsed": 525001, "internal_node_id": "0.0-6.0-89.0"}}, {"uniqueid": "w80362277:a12213443", "current_trial": 185, "dateTime": 1664464448191, "trialdata": {"rt": 12214, "stimulus": "  <h1> End of block! </h1>\n\n  You have reached the end of the block 2/5. If you need a short break, feel free to take one now before moving on.\n\n  <br><br>\n  In the next block, you will complete another 90 rounds of this game.\n\n  <br><br>\n  <div style='text-align: center;'>Press <code>space</code> to begin.</div>\n  <br><br>\n<div style='text-align: center;'>(If the experiment doesn't continue, try clicking on the text and then pressing <code>space</code>.)</div>", "response": " ", "trial_id": "stroop_1_ready_3", "trial_type": "html-keyboard-response", "trial_index": 185, "time_elapsed": 537749, "internal_node_id": "0.0-7.0"}}, {"uniqueid": "w80362277:a12213443", "current_trial": 186, "dateTime": 1664464450318, "trialdata": {"rt": 2099, "stimulus": "<p id='stroop-text' class='stroop-red'>STONE</p>", "response": "r", "stimulus-type": "unrelated", "word": "STONE", "color": "red", "correct_response": "r", "trial_id": "stroop-trial-1-unrelated-20", "trial_type": "html-keyboard-response", "trial_index": 186, "time_elapsed": 539874, "internal_node_id": "0.0-8.0-0.0"}}, {"uniqueid": "w80362277:a12213443", "current_trial": 187, "dateTime": 1664464453389, "trialdata": {"rt": 2543, "stimulus": "<p id='stroop-text' class='stroop-green'>MONKEY</p>", "response": "g", "stimulus-type": "unrelated", "word": "MONKEY", "color": "green", "correct_response": "g", "trial_id": "stroop-trial-1-unrelated-17", "trial_type": "html-keyboard-response", "trial_index": 187, "time_elapsed": 542946, "internal_node_id": "0.0-8.0-1.0"}}, {"uniqueid": "w80362277:a12213443", "current_trial": 188, "dateTime": 1664464455562, "trialdata": {"rt": 1644, "stimulus": "<p id='stroop-text' class='stroop-yellow'>YELLOW</p>", "response": "y", "stimulus-type": "congruent", "word": "yellow", "color": "yellow", "correct_response": "y", "trial_id": "stroop-trial-1-congruent-12", "trial_type": "html-keyboard-response", "trial_index": 188, "time_elapsed": 545119, "internal_node_id": "0.0-8.0-2.0"}}, {"uniqueid": "w80362277:a12213443", "current_trial": 189, "dateTime": 1664464458722, "trialdata": {"rt": 2633, "stimulus": "<p id='stroop-text' class='stroop-red'>BLUE</p>", "response": "r", "stimulus-type": "incongruent", "word": "blue", "color": "red", "correct_response": "r", "trial_id": "stroop-trial-1-incongruent-7", "trial_type": "html-keyboard-response", "trial_index": 189, "time_elapsed": 548279, "internal_node_id": "0.0-8.0-3.0"}}, {"uniqueid": "w80362277:a12213443", "current_trial": 190, "dateTime": 1664464460397, "trialdata": {"rt": 1146, "stimulus": "<p id='stroop-text' class='stroop-red'>BRIDGE</p>", "response": "r", "stimulus-type": "unrelated", "word": "BRIDGE", "color": "red", "correct_response": "r", "trial_id": "stroop-trial-1-unrelated-7", "trial_type": "html-keyboard-response", "trial_index": 190, "time_elapsed": 549954, "internal_node_id": "0.0-8.0-4.0"}}, {"uniqueid": "w80362277:a12213443", "current_trial": 191, "dateTime": 1664464462105, "trialdata": {"rt": 1185, "stimulus": "<p id='stroop-text' class='stroop-green'>GREEN</p>", "response": "g", "stimulus-type": "congruent", "word": "green", "color": "green", "correct_response": "g", "trial_id": "stroop-trial-1-congruent-28", "trial_type": "html-keyboard-response", "trial_index": 191, "time_elapsed": 551661, "internal_node_id": "0.0-8.0-5.0"}}, {"uniqueid": "w80362277:a12213443", "current_trial": 192, "dateTime": 1664464463796, "trialdata": {"rt": 1170, "stimulus": "<p id='stroop-text' class='stroop-blue'>WINDOW</p>", "response": "b", "stimulus-type": "unrelated", "word": "WINDOW", "color": "blue", "correct_response": "b", "trial_id": "stroop-trial-1-unrelated-18", "trial_type": "html-keyboard-response", "trial_index": 192, "time_elapsed": 553353, "internal_node_id": "0.0-8.0-6.0"}}, {"uniqueid": "w80362277:a12213443", "current_trial": 193, "dateTime": 1664464465899, "trialdata": {"rt": 1577, "stimulus": "<p id='stroop-text' class='stroop-yellow'>YELLOW</p>", "response": "y", "stimulus-type": "congruent", "word": "yellow", "color": "yellow", "correct_response": "y", "trial_id": "stroop-trial-1-congruent-4", "trial_type": "html-keyboard-response", "trial_index": 193, "time_elapsed": 555456, "internal_node_id": "0.0-8.0-7.0"}}, {"uniqueid": "w80362277:a12213443", "current_trial": 194, "dateTime": 1664464467652, "trialdata": {"rt": 1226, "stimulus": "<p id='stroop-text' class='stroop-green'>GREEN</p>", "response": "g", "stimulus-type": "congruent", "word": "green", "color": "green", "correct_response": "g", "trial_id": "stroop-trial-1-congruent-19", "trial_type": "html-keyboard-response", "trial_index": 194, "time_elapsed": 557208, "internal_node_id": "0.0-8.0-8.0"}}, {"uniqueid": "w80362277:a12213443", "current_trial": 195, "dateTime": 1664464469630, "trialdata": {"rt": 1457, "stimulus": "<p id='stroop-text' class='stroop-green'>FORK</p>", "response": "g", "stimulus-type": "unrelated", "word": "FORK", "color": "green", "correct_response": "g", "trial_id": "stroop-trial-1-unrelated-3", "trial_type": "html-keyboard-response", "trial_index": 195, "time_elapsed": 559186, "internal_node_id": "0.0-8.0-9.0"}}, {"uniqueid": "w80362277:a12213443", "current_trial": 196, "dateTime": 1664464472296, "trialdata": {"rt": 2143, "stimulus": "<p id='stroop-text' class='stroop-blue'>BLUE</p>", "response": "b", "stimulus-type": "congruent", "word": "blue", "color": "blue", "correct_response": "b", "trial_id": "stroop-trial-1-congruent-26", "trial_type": "html-keyboard-response", "trial_index": 196, "time_elapsed": 561852, "internal_node_id": "0.0-8.0-10.0"}}, {"uniqueid": "w80362277:a12213443", "current_trial": 197, "dateTime": 1664464474403, "trialdata": {"rt": 1586, "stimulus": "<p id='stroop-text' class='stroop-yellow'>DOG</p>", "response": "y", "stimulus-type": "unrelated", "word": "DOG", "color": "yellow", "correct_response": "y", "trial_id": "stroop-trial-1-unrelated-24", "trial_type": "html-keyboard-response", "trial_index": 197, "time_elapsed": 563961, "internal_node_id": "0.0-8.0-11.0"}}, {"uniqueid": "w80362277:a12213443", "current_trial": 198, "dateTime": 1664464476732, "trialdata": {"rt": 1811, "stimulus": "<p id='stroop-text' class='stroop-green'>BOTTLE</p>", "response": "g", "stimulus-type": "unrelated", "word": "BOTTLE", "color": "green", "correct_response": "g", "trial_id": "stroop-trial-1-unrelated-4", "trial_type": "html-keyboard-response", "trial_index": 198, "time_elapsed": 566288, "internal_node_id": "0.0-8.0-12.0"}}, {"uniqueid": "w80362277:a12213443", "current_trial": 199, "dateTime": 1664464478939, "trialdata": {"rt": 1669, "stimulus": "<p id='stroop-text' class='stroop-red'>YELLOW</p>", "response": "r", "stimulus-type": "incongruent", "word": "yellow", "color": "red", "correct_response": "r", "trial_id": "stroop-trial-1-incongruent-23", "trial_type": "html-keyboard-response", "trial_index": 199, "time_elapsed": 568496, "internal_node_id": "0.0-8.0-13.0"}}, {"uniqueid": "w80362277:a12213443", "current_trial": 200, "dateTime": 1664464481592, "trialdata": {"rt": 2122, "stimulus": "<p id='stroop-text' class='stroop-green'>RED</p>", "response": "g", "stimulus-type": "incongruent", "word": "red", "color": "green", "correct_response": "g", "trial_id": "stroop-trial-1-incongruent-10", "trial_type": "html-keyboard-response", "trial_index": 200, "time_elapsed": 571148, "internal_node_id": "0.0-8.0-14.0"}}, {"uniqueid": "w80362277:a12213443", "current_trial": 201, "dateTime": 1664464483321, "trialdata": {"rt": 1200, "stimulus": "<p id='stroop-text' class='stroop-yellow'>RED</p>", "response": "y", "stimulus-type": "incongruent", "word": "red", "color": "yellow", "correct_response": "y", "trial_id": "stroop-trial-1-incongruent-20", "trial_type": "html-keyboard-response", "trial_index": 201, "time_elapsed": 572877, "internal_node_id": "0.0-8.0-15.0"}}, {"uniqueid": "w80362277:a12213443", "current_trial": 202, "dateTime": 1664464485673, "trialdata": {"rt": 1816, "stimulus": "<p id='stroop-text' class='stroop-green'>DOG</p>", "response": "g", "stimulus-type": "unrelated", "word": "DOG", "color": "green", "correct_response": "g", "trial_id": "stroop-trial-1-unrelated-11", "trial_type": "html-keyboard-response", "trial_index": 202, "time_elapsed": 575230, "internal_node_id": "0.0-8.0-16.0"}}, {"uniqueid": "w80362277:a12213443", "current_trial": 203, "dateTime": 1664464487258, "trialdata": {"rt": 1059, "stimulus": "<p id='stroop-text' class='stroop-red'>STONE</p>", "response": "r", "stimulus-type": "unrelated", "word": "STONE", "color": "red", "correct_response": "r", "trial_id": "stroop-trial-1-unrelated-22", "trial_type": "html-keyboard-response", "trial_index": 203, "time_elapsed": 576815, "internal_node_id": "0.0-8.0-17.0"}}, {"uniqueid": "w80362277:a12213443", "current_trial": 204, "dateTime": 1664464489387, "trialdata": {"rt": 1600, "stimulus": "<p id='stroop-text' class='stroop-blue'>SHIP</p>", "response": "b", "stimulus-type": "unrelated", "word": "SHIP", "color": "blue", "correct_response": "b", "trial_id": "stroop-trial-1-unrelated-10", "trial_type": "html-keyboard-response", "trial_index": 204, "time_elapsed": 578943, "internal_node_id": "0.0-8.0-18.0"}}, {"uniqueid": "w80362277:a12213443", "current_trial": 205, "dateTime": 1664464491501, "trialdata": {"rt": 1588, "stimulus": "<p id='stroop-text' class='stroop-red'>WINDOW</p>", "response": "r", "stimulus-type": "unrelated", "word": "WINDOW", "color": "red", "correct_response": "r", "trial_id": "stroop-trial-1-unrelated-16", "trial_type": "html-keyboard-response", "trial_index": 205, "time_elapsed": 581058, "internal_node_id": "0.0-8.0-19.0"}}, {"uniqueid": "w80362277:a12213443", "current_trial": 206, "dateTime": 1664464495275, "trialdata": {"rt": 3242, "stimulus": "<p id='stroop-text' class='stroop-blue'>BLUE</p>", "response": "b", "stimulus-type": "congruent", "word": "blue", "color": "blue", "correct_response": "b", "trial_id": "stroop-trial-1-congruent-24", "trial_type": "html-keyboard-response", "trial_index": 206, "time_elapsed": 584831, "internal_node_id": "0.0-8.0-20.0"}}, {"uniqueid": "w80362277:a12213443", "current_trial": 207, "dateTime": 1664464496789, "trialdata": {"rt": 982, "stimulus": "<p id='stroop-text' class='stroop-blue'>BLUE</p>", "response": "b", "stimulus-type": "congruent", "word": "blue", "color": "blue", "correct_response": "b", "trial_id": "stroop-trial-1-congruent-17", "trial_type": "html-keyboard-response", "trial_index": 207, "time_elapsed": 586346, "internal_node_id": "0.0-8.0-21.0"}}, {"uniqueid": "w80362277:a12213443", "current_trial": 208, "dateTime": 1664464498559, "trialdata": {"rt": 1244, "stimulus": "<p id='stroop-text' class='stroop-blue'>BLUE</p>", "response": "b", "stimulus-type": "congruent", "word": "blue", "color": "blue", "correct_response": "b", "trial_id": "stroop-trial-1-congruent-3", "trial_type": "html-keyboard-response", "trial_index": 208, "time_elapsed": 588116, "internal_node_id": "0.0-8.0-22.0"}}, {"uniqueid": "w80362277:a12213443", "current_trial": 209, "dateTime": 1664464500187, "trialdata": {"rt": 1101, "stimulus": "<p id='stroop-text' class='stroop-blue'>BLUE</p>", "response": "b", "stimulus-type": "congruent", "word": "blue", "color": "blue", "correct_response": "b", "trial_id": "stroop-trial-1-congruent-7", "trial_type": "html-keyboard-response", "trial_index": 209, "time_elapsed": 589744, "internal_node_id": "0.0-8.0-23.0"}}, {"uniqueid": "w80362277:a12213443", "current_trial": 210, "dateTime": 1664464503272, "trialdata": {"rt": 2561, "stimulus": "<p id='stroop-text' class='stroop-blue'>BLUE</p>", "response": "b", "stimulus-type": "congruent", "word": "blue", "color": "blue", "correct_response": "b", "trial_id": "stroop-trial-1-congruent-5", "trial_type": "html-keyboard-response", "trial_index": 210, "time_elapsed": 592829, "internal_node_id": "0.0-8.0-24.0"}}, {"uniqueid": "w80362277:a12213443", "current_trial": 211, "dateTime": 1664464507566, "trialdata": {"rt": 3769, "stimulus": "<p id='stroop-text' class='stroop-yellow'>YELLOW</p>", "response": "y", "stimulus-type": "congruent", "word": "yellow", "color": "yellow", "correct_response": "y", "trial_id": "stroop-trial-1-congruent-22", "trial_type": "html-keyboard-response", "trial_index": 211, "time_elapsed": 597123, "internal_node_id": "0.0-8.0-25.0"}}, {"uniqueid": "w80362277:a12213443", "current_trial": 212, "dateTime": 1664464511860, "trialdata": {"rt": 3771, "stimulus": "<p id='stroop-text' class='stroop-blue'>YELLOW</p>", "response": "b", "stimulus-type": "incongruent", "word": "yellow", "color": "blue", "correct_response": "b", "trial_id": "stroop-trial-1-incongruent-4", "trial_type": "html-keyboard-response", "trial_index": 212, "time_elapsed": 601417, "internal_node_id": "0.0-8.0-26.0"}}, {"uniqueid": "w80362277:a12213443", "current_trial": 213, "dateTime": 1664464515146, "trialdata": {"rt": 2756, "stimulus": "<p id='stroop-text' class='stroop-yellow'>STONE</p>", "response": "y", "stimulus-type": "unrelated", "word": "STONE", "color": "yellow", "correct_response": "y", "trial_id": "stroop-trial-1-unrelated-15", "trial_type": "html-keyboard-response", "trial_index": 213, "time_elapsed": 604703, "internal_node_id": "0.0-8.0-27.0"}}, {"uniqueid": "w80362277:a12213443", "current_trial": 214, "dateTime": 1664464517615, "trialdata": {"rt": 1933, "stimulus": "<p id='stroop-text' class='stroop-blue'>YELLOW</p>", "response": "b", "stimulus-type": "incongruent", "word": "yellow", "color": "blue", "correct_response": "b", "trial_id": "stroop-trial-1-incongruent-19", "trial_type": "html-keyboard-response", "trial_index": 214, "time_elapsed": 607172, "internal_node_id": "0.0-8.0-28.0"}}, {"uniqueid": "w80362277:a12213443", "current_trial": 215, "dateTime": 1664464520612, "trialdata": {"rt": 2476, "stimulus": "<p id='stroop-text' class='stroop-yellow'>BOTTLE</p>", "response": "y", "stimulus-type": "unrelated", "word": "BOTTLE", "color": "yellow", "correct_response": "y", "trial_id": "stroop-trial-1-unrelated-1", "trial_type": "html-keyboard-response", "trial_index": 215, "time_elapsed": 610169, "internal_node_id": "0.0-8.0-29.0"}}, {"uniqueid": "w80362277:a12213443", "current_trial": 216, "dateTime": 1664464522500, "trialdata": {"rt": 1367, "stimulus": "<p id='stroop-text' class='stroop-green'>BRIDGE</p>", "response": "g", "stimulus-type": "unrelated", "word": "BRIDGE", "color": "green", "correct_response": "g", "trial_id": "stroop-trial-1-unrelated-2", "trial_type": "html-keyboard-response", "trial_index": 216, "time_elapsed": 612051, "internal_node_id": "0.0-8.0-30.0"}}, {"uniqueid": "w80362277:a12213443", "current_trial": 217, "dateTime": 1664464524281, "trialdata": {"rt": 1249, "stimulus": "<p id='stroop-text' class='stroop-red'>RED</p>", "response": "r", "stimulus-type": "congruent", "word": "red", "color": "red", "correct_response": "r", "trial_id": "stroop-trial-1-congruent-25", "trial_type": "html-keyboard-response", "trial_index": 217, "time_elapsed": 613838, "internal_node_id": "0.0-8.0-31.0"}}, {"uniqueid": "w80362277:a12213443", "current_trial": 218, "dateTime": 1664464526097, "trialdata": {"rt": 1294, "stimulus": "<p id='stroop-text' class='stroop-green'>CHAIR</p>", "response": "g", "stimulus-type": "unrelated", "word": "CHAIR", "color": "green", "correct_response": "g", "trial_id": "stroop-trial-1-unrelated-13", "trial_type": "html-keyboard-response", "trial_index": 218, "time_elapsed": 615654, "internal_node_id": "0.0-8.0-32.0"}}, {"uniqueid": "w80362277:a12213443", "current_trial": 219, "dateTime": 1664464528102, "trialdata": {"rt": 1475, "stimulus": "<p id='stroop-text' class='stroop-green'>FORK</p>", "response": "g", "stimulus-type": "unrelated", "word": "FORK", "color": "green", "correct_response": "g", "trial_id": "stroop-trial-1-unrelated-28", "trial_type": "html-keyboard-response", "trial_index": 219, "time_elapsed": 617659, "internal_node_id": "0.0-8.0-33.0"}}, {"uniqueid": "w80362277:a12213443", "current_trial": 220, "dateTime": 1664464529986, "trialdata": {"rt": 1343, "stimulus": "<p id='stroop-text' class='stroop-red'>GREEN</p>", "response": "r", "stimulus-type": "incongruent", "word": "green", "color": "red", "correct_response": "r", "trial_id": "stroop-trial-1-incongruent-30", "trial_type": "html-keyboard-response", "trial_index": 220, "time_elapsed": 619543, "internal_node_id": "0.0-8.0-34.0"}}, {"uniqueid": "w80362277:a12213443", "current_trial": 221, "dateTime": 1664464531679, "trialdata": {"rt": 1163, "stimulus": "<p id='stroop-text' class='stroop-yellow'>WINDOW</p>", "response": "y", "stimulus-type": "unrelated", "word": "WINDOW", "color": "yellow", "correct_response": "y", "trial_id": "stroop-trial-1-unrelated-5", "trial_type": "html-keyboard-response", "trial_index": 221, "time_elapsed": 621236, "internal_node_id": "0.0-8.0-35.0"}}, {"uniqueid": "w80362277:a12213443", "current_trial": 222, "dateTime": 1664464533525, "trialdata": {"rt": 1324, "stimulus": "<p id='stroop-text' class='stroop-green'>GREEN</p>", "re