{"condition": 0, "counterbalance": 0, "assignmentId": "a65891896", "workerId": "w38890178", "hitId": "h99591325", "currenttrial": 965, "bonus": 0, "data": [{"uniqueid": "w38890178:a65891896", "current_trial": 0, "dateTime": 1664555062238, "trialdata": {"success": true, "trial_type": "fullscreen", "trial_index": 0, "time_elapsed": 7895, "internal_node_id": "0.0-0.0"}}, {"uniqueid": "w38890178:a65891896", "current_trial": 1, "dateTime": 1664555125235, "trialdata": {"view_history": [{"page_index": 0, "viewing_time": 62990}], "rt": 62991, "trial_id": "exp_instructions_distractor", "trial_type": "instructions", "trial_index": 1, "time_elapsed": 70893, "internal_node_id": "0.0-1.0"}}, {"uniqueid": "w38890178:a65891896", "current_trial": 2, "dateTime": 1664555161730, "trialdata": {"view_history": [{"page_index": 0, "viewing_time": 36493}], "rt": 36493, "trial_id": "color_game_instructions", "trial_type": "instructions", "trial_index": 2, "time_elapsed": 107388, "internal_node_id": "0.0-2.0"}}, {"uniqueid": "w38890178:a65891896", "current_trial": 3, "dateTime": 1664555169840, "trialdata": {"rt": 8108, "stimulus": "<h1> Get ready to start the game! </h1>\n\nThank you for reading the instructions. Get ready start with the first of 5 block(s) of this game.\n<br><br>\nIn this first block, you will complete 90 rounds of this game before moving on.\n<br><br>\nRemember, the better you perform, the bigger your bonus will be!\n<br><br>\n<div style='text-align: center;'>Press <code>space</code> to begin.</div>", "response": " ", "trial_id": "stroop_1_ready_1", "trial_type": "html-keyboard-response", "trial_index": 3, "time_elapsed": 115498, "internal_node_id": "0.0-3.0"}}, {"uniqueid": "w38890178:a65891896", "current_trial": 4, "dateTime": 1664555171087, "trialdata": {"rt": 1235, "stimulus": "<p id='stroop-text' class='stroop-yellow'>DOG</p>", "response": "y", "stimulus-type": "unrelated", "word": "DOG", "color": "yellow", "correct_response": "y", "trial_id": "stroop-trial-1-unrelated-17", "trial_type": "html-keyboard-response", "trial_index": 4, "time_elapsed": 116744, "internal_node_id": "0.0-4.0-0.0"}}, {"uniqueid": "w38890178:a65891896", "current_trial": 5, "dateTime": 1664555173567, "trialdata": {"rt": 1976, "stimulus": "<p id='stroop-text' class='stroop-yellow'>RED</p>", "response": "y", "stimulus-type": "incongruent", "word": "red", "color": "yellow", "correct_response": "y", "trial_id": "stroop-trial-1-incongruent-5", "trial_type": "html-keyboard-response", "trial_index": 5, "time_elapsed": 119224, "internal_node_id": "0.0-4.0-1.0"}}, {"uniqueid": "w38890178:a65891896", "current_trial": 6, "dateTime": 1664555175366, "trialdata": {"rt": 1297, "stimulus": "<p id='stroop-text' class='stroop-blue'>BLUE</p>", "response": "b", "stimulus-type": "congruent", "word": "blue", "color": "blue", "correct_response": "b", "trial_id": "stroop-trial-1-congruent-21", "trial_type": "html-keyboard-response", "trial_index": 6, "time_elapsed": 121024, "internal_node_id": "0.0-4.0-2.0"}}, {"uniqueid": "w38890178:a65891896", "current_trial": 7, "dateTime": 1664555177183, "trialdata": {"rt": 1313, "stimulus": "<p id='stroop-text' class='stroop-red'>WINDOW</p>", "response": "r", "stimulus-type": "unrelated", "word": "WINDOW", "color": "red", "correct_response": "r", "trial_id": "stroop-trial-1-unrelated-16", "trial_type": "html-keyboard-response", "trial_index": 7, "time_elapsed": 122840, "internal_node_id": "0.0-4.0-3.0"}}, {"uniqueid": "w38890178:a65891896", "current_trial": 8, "dateTime": 1664555179519, "trialdata": {"rt": 1832, "stimulus": "<p id='stroop-text' class='stroop-green'>BLUE</p>", "response": "g", "stimulus-type": "incongruent", "word": "blue", "color": "green", "correct_response": "g", "trial_id": "stroop-trial-1-incongruent-16", "trial_type": "html-keyboard-response", "trial_index": 8, "time_elapsed": 125176, "internal_node_id": "0.0-4.0-4.0"}}, {"uniqueid": "w38890178:a65891896", "current_trial": 9, "dateTime": 1664555181430, "trialdata": {"rt": 1409, "stimulus": "<p id='stroop-text' class='stroop-green'>RED</p>", "response": "g", "stimulus-type": "incongruent", "word": "red", "color": "green", "correct_response": "g", "trial_id": "stroop-trial-1-incongruent-25", "trial_type": "html-keyboard-response", "trial_index": 9, "time_elapsed": 127087, "internal_node_id": "0.0-4.0-5.0"}}, {"uniqueid": "w38890178:a65891896", "current_trial": 10, "dateTime": 1664555182670, "trialdata": {"rt": 737, "stimulus": "<p id='stroop-text' class='stroop-green'>GREEN</p>", "response": "g", "stimulus-type": "congruent", "word": "green", "color": "green", "correct_response": "g", "trial_id": "stroop-trial-1-congruent-5", "trial_type": "html-keyboard-response", "trial_index": 10, "time_elapsed": 128327, "internal_node_id": "0.0-4.0-6.0"}}, {"uniqueid": "w38890178:a65891896", "current_trial": 11, "dateTime": 1664555184694, "trialdata": {"rt": 1521, "stimulus": "<p id='stroop-text' class='stroop-blue'>MONKEY</p>", "response": "b", "stimulus-type": "unrelated", "word": "MONKEY", "color": "blue", "correct_response": "b", "trial_id": "stroop-trial-1-unrelated-22", "trial_type": "html-keyboard-response", "trial_index": 11, "time_elapsed": 130352, "internal_node_id": "0.0-4.0-7.0"}}, {"uniqueid": "w38890178:a65891896", "current_trial": 12, "dateTime": 1664555186718, "trialdata": {"rt": 1520, "stimulus": "<p id='stroop-text' class='stroop-green'>GREEN</p>", "response": "g", "stimulus-type": "congruent", "word": "green", "color": "green", "correct_response": "g", "trial_id": "stroop-trial-1-congruent-13", "trial_type": "html-keyboard-response", "trial_index": 12, "time_elapsed": 132375, "internal_node_id": "0.0-4.0-8.0"}}, {"uniqueid": "w38890178:a65891896", "current_trial": 13, "dateTime": 1664555187982, "trialdata": {"rt": 760, "stimulus": "<p id='stroop-text' class='stroop-green'>DOG</p>", "response": "g", "stimulus-type": "unrelated", "word": "DOG", "color": "green", "correct_response": "g", "trial_id": "stroop-trial-1-unrelated-2", "trial_type": "html-keyboard-response", "trial_index": 13, "time_elapsed": 133639, "internal_node_id": "0.0-4.0-9.0"}}, {"uniqueid": "w38890178:a65891896", "current_trial": 14, "dateTime": 1664555189542, "trialdata": {"rt": 1056, "stimulus": "<p id='stroop-text' class='stroop-blue'>BLUE</p>", "response": "b", "stimulus-type": "congruent", "word": "blue", "color": "blue", "correct_response": "b", "trial_id": "stroop-trial-1-congruent-6", "trial_type": "html-keyboard-response", "trial_index": 14, "time_elapsed": 135199, "internal_node_id": "0.0-4.0-10.0"}}, {"uniqueid": "w38890178:a65891896", "current_trial": 15, "dateTime": 1664555190638, "trialdata": {"rt": 593, "stimulus": "<p id='stroop-text' class='stroop-blue'>BRIDGE</p>", "response": "b", "stimulus-type": "unrelated", "word": "BRIDGE", "color": "blue", "correct_response": "b", "trial_id": "stroop-trial-1-unrelated-30", "trial_type": "html-keyboard-response", "trial_index": 15, "time_elapsed": 136295, "internal_node_id": "0.0-4.0-11.0"}}, {"uniqueid": "w38890178:a65891896", "current_trial": 16, "dateTime": 1664555192086, "trialdata": {"rt": 945, "stimulus": "<p id='stroop-text' class='stroop-red'>RED</p>", "response": "r", "stimulus-type": "congruent", "word": "red", "color": "red", "correct_response": "r", "trial_id": "stroop-trial-1-congruent-8", "trial_type": "html-keyboard-response", "trial_index": 16, "time_elapsed": 137743, "internal_node_id": "0.0-4.0-12.0"}}, {"uniqueid": "w38890178:a65891896", "current_trial": 17, "dateTime": 1664555193254, "trialdata": {"rt": 665, "stimulus": "<p id='stroop-text' class='stroop-red'>RED</p>", "response": "r", "stimulus-type": "congruent", "word": "red", "color": "red", "correct_response": "r", "trial_id": "stroop-trial-1-congruent-24", "trial_type": "html-keyboard-response", "trial_index": 17, "time_elapsed": 138911, "internal_node_id": "0.0-4.0-13.0"}}, {"uniqueid": "w38890178:a65891896", "current_trial": 18, "dateTime": 1664555194334, "trialdata": {"rt": 577, "stimulus": "<p id='stroop-text' class='stroop-red'>BOTTLE</p>", "response": "r", "stimulus-type": "unrelated", "word": "BOTTLE", "color": "red", "correct_response": "r", "trial_id": "stroop-trial-1-unrelated-12", "trial_type": "html-keyboard-response", "trial_index": 18, "time_elapsed": 139991, "internal_node_id": "0.0-4.0-14.0"}}, {"uniqueid": "w38890178:a65891896", "current_trial": 19, "dateTime": 1664555195662, "trialdata": {"rt": 824, "stimulus": "<p id='stroop-text' class='stroop-yellow'>MONKEY</p>", "response": "y", "stimulus-type": "unrelated", "word": "MONKEY", "color": "yellow", "correct_response": "y", "trial_id": "stroop-trial-1-unrelated-23", "trial_type": "html-keyboard-response", "trial_index": 19, "time_elapsed": 141320, "internal_node_id": "0.0-4.0-15.0"}}, {"uniqueid": "w38890178:a65891896", "current_trial": 20, "dateTime": 1664555197142, "trialdata": {"rt": 977, "stimulus": "<p id='stroop-text' class='stroop-red'>SHIP</p>", "response": "r", "stimulus-type": "unrelated", "word": "SHIP", "color": "red", "correct_response": "r", "trial_id": "stroop-trial-1-unrelated-15", "trial_type": "html-keyboard-response", "trial_index": 20, "time_elapsed": 142800, "internal_node_id": "0.0-4.0-16.0"}}, {"uniqueid": "w38890178:a65891896", "current_trial": 21, "dateTime": 1664555198734, "trialdata": {"rt": 1086, "stimulus": "<p id='stroop-text' class='stroop-blue'>BRAIN</p>", "response": "b", "stimulus-type": "unrelated", "word": "BRAIN", "color": "blue", "correct_response": "b", "trial_id": "stroop-trial-1-unrelated-27", "trial_type": "html-keyboard-response", "trial_index": 21, "time_elapsed": 144391, "internal_node_id": "0.0-4.0-17.0"}}, {"uniqueid": "w38890178:a65891896", "current_trial": 22, "dateTime": 1664555199910, "trialdata": {"rt": 673, "stimulus": "<p id='stroop-text' class='stroop-blue'>BLUE</p>", "response": "b", "stimulus-type": "congruent", "word": "blue", "color": "blue", "correct_response": "b", "trial_id": "stroop-trial-1-congruent-2", "trial_type": "html-keyboard-response", "trial_index": 22, "time_elapsed": 145567, "internal_node_id": "0.0-4.0-18.0"}}, {"uniqueid": "w38890178:a65891896", "current_trial": 23, "dateTime": 1664555200988, "trialdata": {"rt": 575, "stimulus": "<p id='stroop-text' class='stroop-blue'>YELLOW</p>", "response": "b", "stimulus-type": "incongruent", "word": "yellow", "color": "blue", "correct_response": "b", "trial_id": "stroop-trial-1-incongruent-12", "trial_type": "html-keyboard-response", "trial_index": 23, "time_elapsed": 146646, "internal_node_id": "0.0-4.0-19.0"}}, {"uniqueid": "w38890178:a65891896", "current_trial": 24, "dateTime": 1664555202342, "trialdata": {"rt": 851, "stimulus": "<p id='stroop-text' class='stroop-green'>YELLOW</p>", "response": "g", "stimulus-type": "incongruent", "word": "yellow", "color": "green", "correct_response": "g", "trial_id": "stroop-trial-1-incongruent-7", "trial_type": "html-keyboard-response", "trial_index": 24, "time_elapsed": 147999, "internal_node_id": "0.0-4.0-20.0"}}, {"uniqueid": "w38890178:a65891896", "current_trial": 25, "dateTime": 1664555203766, "trialdata": {"rt": 921, "stimulus": "<p id='stroop-text' class='stroop-yellow'>WINDOW</p>", "response": "y", "stimulus-type": "unrelated", "word": "WINDOW", "color": "yellow", "correct_response": "y", "trial_id": "stroop-trial-1-unrelated-26", "trial_type": "html-keyboard-response", "trial_index": 25, "time_elapsed": 149423, "internal_node_id": "0.0-4.0-21.0"}}, {"uniqueid": "w38890178:a65891896", "current_trial": 26, "dateTime": 1664555205510, "trialdata": {"rt": 1241, "stimulus": "<p id='stroop-text' class='stroop-green'>GREEN</p>", "response": "g", "stimulus-type": "congruent", "word": "green", "color": "green", "correct_response": "g", "trial_id": "stroop-trial-1-congruent-17", "trial_type": "html-keyboard-response", "trial_index": 26, "time_elapsed": 151167, "internal_node_id": "0.0-4.0-22.0"}}, {"uniqueid": "w38890178:a65891896", "current_trial": 27, "dateTime": 1664555206478, "trialdata": {"rt": 465, "stimulus": "<p id='stroop-text' class='stroop-green'>YELLOW</p>", "response": "g", "stimulus-type": "incongruent", "word": "yellow", "color": "green", "correct_response": "g", "trial_id": "stroop-trial-1-incongruent-11", "trial_type": "html-keyboard-response", "trial_index": 27, "time_elapsed": 152135, "internal_node_id": "0.0-4.0-23.0"}}, {"uniqueid": "w38890178:a65891896", "current_trial": 28, "dateTime": 1664555207414, "trialdata": {"rt": 433, "stimulus": "<p id='stroop-text' class='stroop-green'>BLUE</p>", "response": "g", "stimulus-type": "incongruent", "word": "blue", "color": "green", "correct_response": "g", "trial_id": "stroop-trial-1-incongruent-30", "trial_type": "html-keyboard-response", "trial_index": 28, "time_elapsed": 153071, "internal_node_id": "0.0-4.0-24.0"}}, {"uniqueid": "w38890178:a65891896", "current_trial": 29, "dateTime": 1664555208982, "trialdata": {"rt": 1064, "stimulus": "<p id='stroop-text' class='stroop-yellow'>RED</p>", "response": "y", "stimulus-type": "incongruent", "word": "red", "color": "yellow", "correct_response": "y", "trial_id": "stroop-trial-1-incongruent-29", "trial_type": "html-keyboard-response", "trial_index": 29, "time_elapsed": 154639, "internal_node_id": "0.0-4.0-25.0"}}, {"uniqueid": "w38890178:a65891896", "current_trial": 30, "dateTime": 1664555210469, "trialdata": {"rt": 985, "stimulus": "<p id='stroop-text' class='stroop-green'>GREEN</p>", "response": "g", "stimulus-type": "congruent", "word": "green", "color": "green", "correct_response": "g", "trial_id": "stroop-trial-1-congruent-15", "trial_type": "html-keyboard-response", "trial_index": 30, "time_elapsed": 156127, "internal_node_id": "0.0-4.0-26.0"}}, {"uniqueid": "w38890178:a65891896", "current_trial": 31, "dateTime": 1664555211638, "trialdata": {"rt": 667, "stimulus": "<p id='stroop-text' class='stroop-blue'>BLUE</p>", "response": "b", "stimulus-type": "congruent", "word": "blue", "color": "blue", "correct_response": "b", "trial_id": "stroop-trial-1-congruent-30", "trial_type": "html-keyboard-response", "trial_index": 31, "time_elapsed": 157295, "internal_node_id": "0.0-4.0-27.0"}}, {"uniqueid": "w38890178:a65891896", "current_trial": 32, "dateTime": 1664555213246, "trialdata": {"rt": 1104, "stimulus": "<p id='stroop-text' class='stroop-green'>YELLOW</p>", "response": "g", "stimulus-type": "incongruent", "word": "yellow", "color": "green", "correct_response": "g", "trial_id": "stroop-trial-1-incongruent-24", "trial_type": "html-keyboard-response", "trial_index": 32, "time_elapsed": 158903, "internal_node_id": "0.0-4.0-28.0"}}, {"uniqueid": "w38890178:a65891896", "current_trial": 33, "dateTime": 1664555215326, "trialdata": {"rt": 1577, "stimulus": "<p id='stroop-text' class='stroop-blue'>RED</p>", "response": "b", "stimulus-type": "incongruent", "word": "red", "color": "blue", "correct_response": "b", "trial_id": "stroop-trial-1-incongruent-17", "trial_type": "html-keyboard-response", "trial_index": 33, "time_elapsed": 160983, "internal_node_id": "0.0-4.0-29.0"}}, {"uniqueid": "w38890178:a65891896", "current_trial": 34, "dateTime": 1664555216758, "trialdata": {"rt": 929, "stimulus": "<p id='stroop-text' class='stroop-yellow'>CHAIR</p>", "response": "y", "stimulus-type": "unrelated", "word": "CHAIR", "color": "yellow", "correct_response": "y", "trial_id": "stroop-trial-1-unrelated-7", "trial_type": "html-keyboard-response", "trial_index": 34, "time_elapsed": 162415, "internal_node_id": "0.0-4.0-30.0"}}, {"uniqueid": "w38890178:a65891896", "current_trial": 35, "dateTime": 1664555217997, "trialdata": {"rt": 736, "stimulus": "<p id='stroop-text' class='stroop-yellow'>YELLOW</p>", "response": "y", "stimulus-type": "congruent", "word": "yellow", "color": "yellow", "correct_response": "y", "trial_id": "stroop-trial-1-congruent-26", "trial_type": "html-keyboard-response", "trial_index": 35, "time_elapsed": 163655, "internal_node_id": "0.0-4.0-31.0"}}, {"uniqueid": "w38890178:a65891896", "current_trial": 36, "dateTime": 1664555219717, "trialdata": {"rt": 1217, "stimulus": "<p id='stroop-text' class='stroop-blue'>RED</p>", "response": "b", "stimulus-type": "incongruent", "word": "red", "color": "blue", "correct_response": "b", "trial_id": "stroop-trial-1-incongruent-23", "trial_type": "html-keyboard-response", "trial_index": 36, "time_elapsed": 165375, "internal_node_id": "0.0-4.0-32.0"}}, {"uniqueid": "w38890178:a65891896", "current_trial": 37, "dateTime": 1664555222374, "trialdata": {"rt": 2153, "stimulus": "<p id='stroop-text' class='stroop-yellow'>BOAT</p>", "response": "y", "stimulus-type": "unrelated", "word": "BOAT", "color": "yellow", "correct_response": "y", "trial_id": "stroop-trial-1-unrelated-24", "trial_type": "html-keyboard-response", "trial_index": 37, "time_elapsed": 168031, "internal_node_id": "0.0-4.0-33.0"}}, {"uniqueid": "w38890178:a65891896", "current_trial": 38, "dateTime": 1664555223733, "trialdata": {"rt": 856, "stimulus": "<p id='stroop-text' class='stroop-green'>BLUE</p>", "response": "g", "stimulus-type": "incongruent", "word": "blue", "color": "green", "correct_response": "g", "trial_id": "stroop-trial-1-incongruent-3", "trial_type": "html-keyboard-response", "trial_index": 38, "time_elapsed": 169391, "internal_node_id": "0.0-4.0-34.0"}}, {"uniqueid": "w38890178:a65891896", "current_trial": 39, "dateTime": 1664555224933, "trialdata": {"rt": 696, "stimulus": "<p id='stroop-text' class='stroop-blue'>BLUE</p>", "response": "b", "stimulus-type": "congruent", "word": "blue", "color": "blue", "correct_response": "b", "trial_id": "stroop-trial-1-congruent-14", "trial_type": "html-keyboard-response", "trial_index": 39, "time_elapsed": 170591, "internal_node_id": "0.0-4.0-35.0"}}, {"uniqueid": "w38890178:a65891896", "current_trial": 40, "dateTime": 1664555225933, "trialdata": {"rt": 496, "stimulus": "<p id='stroop-text' class='stroop-blue'>BLUE</p>", "response": "b", "stimulus-type": "congruent", "word": "blue", "color": "blue", "correct_response": "b", "trial_id": "stroop-trial-1-congruent-1", "trial_type": "html-keyboard-response", "trial_index": 40, "time_elapsed": 171591, "internal_node_id": "0.0-4.0-36.0"}}, {"uniqueid": "w38890178:a65891896", "current_trial": 41, "dateTime": 1664555227358, "trialdata": {"rt": 920, "stimulus": "<p id='stroop-text' class='stroop-red'>YELLOW</p>", "response": "r", "stimulus-type": "incongruent", "word": "yellow", "color": "red", "correct_response": "r", "trial_id": "stroop-trial-1-incongruent-18", "trial_type": "html-keyboard-response", "trial_index": 41, "time_elapsed": 173015, "internal_node_id": "0.0-4.0-37.0"}}, {"uniqueid": "w38890178:a65891896", "current_trial": 42, "dateTime": 1664555228781, "trialdata": {"rt": 919, "stimulus": "<p id='stroop-text' class='stroop-yellow'>BLUE</p>", "response": "y", "stimulus-type": "incongruent", "word": "blue", "color": "yellow", "correct_response": "y", "trial_id": "stroop-trial-1-incongruent-19", "trial_type": "html-keyboard-response", "trial_index": 42, "time_elapsed": 174439, "internal_node_id": "0.0-4.0-38.0"}}, {"uniqueid": "w38890178:a65891896", "current_trial": 43, "dateTime": 1664555231749, "trialdata": {"rt": 2465, "stimulus": "<p id='stroop-text' class='stroop-blue'>BOAT</p>", "response": "b", "stimulus-type": "unrelated", "word": "BOAT", "color": "blue", "correct_response": "b", "trial_id": "stroop-trial-1-unrelated-18", "trial_type": "html-keyboard-response", "trial_index": 43, "time_elapsed": 177407, "internal_node_id": "0.0-4.0-39.0"}}, {"uniqueid": "w38890178:a65891896", "current_trial": 44, "dateTime": 1664555233293, "trialdata": {"rt": 1041, "stimulus": "<p id='stroop-text' class='stroop-red'>RED</p>", "response": "r", "stimulus-type": "congruent", "word": "red", "color": "red", "correct_response": "r", "trial_id": "stroop-trial-1-congruent-23", "trial_type": "html-keyboard-response", "trial_index": 44, "time_elapsed": 178951, "internal_node_id": "0.0-4.0-40.0"}}, {"uniqueid": "w38890178:a65891896", "current_trial": 45, "dateTime": 1664555234413, "trialdata": {"rt": 617, "stimulus": "<p id='stroop-text' class='stroop-green'>CHAIR</p>", "response": "g", "stimulus-type": "unrelated", "word": "CHAIR", "color": "green", "correct_response": "g", "trial_id": "stroop-trial-1-unrelated-3", "trial_type": "html-keyboard-response", "trial_index": 45, "time_elapsed": 180071, "internal_node_id": "0.0-4.0-41.0"}}, {"uniqueid": "w38890178:a65891896", "current_trial": 46, "dateTime": 1664555235925, "trialdata": {"rt": 1007, "stimulus": "<p id='stroop-text' class='stroop-yellow'>YELLOW</p>", "response": "y", "stimulus-type": "congruent", "word": "yellow", "color": "yellow", "correct_response": "y", "trial_id": "stroop-trial-1-congruent-7", "trial_type": "html-keyboard-response", "trial_index": 46, "time_elapsed": 181582, "internal_node_id": "0.0-4.0-42.0"}}, {"uniqueid": "w38890178:a65891896", "current_trial": 47, "dateTime": 1664555236933, "trialdata": {"rt": 503, "stimulus": "<p id='stroop-text' class='stroop-yellow'>YELLOW</p>", "response": "y", "stimulus-type": "congruent", "word": "yellow", "color": "yellow", "correct_response": "y", "trial_id": "stroop-trial-1-congruent-9", "trial_type": "html-keyboard-response", "trial_index": 47, "time_elapsed": 182591, "internal_node_id": "0.0-4.0-43.0"}}, {"uniqueid": "w38890178:a65891896", "current_trial": 48, "dateTime": 1664555238078, "trialdata": {"rt": 641, "stimulus": "<p id='stroop-text' class='stroop-red'>RED</p>", "response": "r", "stimulus-type": "congruent", "word": "red", "color": "red", "correct_response": "r", "trial_id": "stroop-trial-1-congruent-28", "trial_type": "html-keyboard-response", "trial_index": 48, "time_elapsed": 183735, "internal_node_id": "0.0-4.0-44.0"}}, {"uniqueid": "w38890178:a65891896", "current_trial": 49, "dateTime": 1664555239077, "trialdata": {"rt": 495, "stimulus": "<p id='stroop-text' class='stroop-red'>BLUE</p>", "response": "r", "stimulus-type": "incongruent", "word": "blue", "color": "red", "correct_response": "r", "trial_id": "stroop-trial-1-incongruent-10", "trial_type": "html-keyboard-response", "trial_index": 49, "time_elapsed": 184735, "internal_node_id": "0.0-4.0-45.0"}}, {"uniqueid": "w38890178:a65891896", "current_trial": 50, "dateTime": 1664555240197, "trialdata": {"rt": 617, "stimulus": "<p id='stroop-text' class='stroop-yellow'>YELLOW</p>", "response": "y", "stimulus-type": "congruent", "word": "yellow", "color": "yellow", "correct_response": "y", "trial_id": "stroop-trial-1-congruent-3", "trial_type": "html-keyboard-response", "trial_index": 50, "time_elapsed": 185855, "internal_node_id": "0.0-4.0-46.0"}}, {"uniqueid": "w38890178:a65891896", "current_trial": 51, "dateTime": 1664555241117, "trialdata": {"rt": 417, "stimulus": "<p id='stroop-text' class='stroop-yellow'>YELLOW</p>", "response": "y", "stimulus-type": "congruent", "word": "yellow", "color": "yellow", "correct_response": "y", "trial_id": "stroop-trial-1-congruent-12", "trial_type": "html-keyboard-response", "trial_index": 51, "time_elapsed": 186775, "internal_node_id": "0.0-4.0-47.0"}}, {"uniqueid": "w38890178:a65891896", "current_trial": 52, "dateTime": 1664555242262, "trialdata": {"rt": 641, "stimulus": "<p id='stroop-text' class='stroop-green'>GREEN</p>", "response": "g", "stimulus-type": "congruent", "word": "green", "color": "green", "correct_response": "g", "trial_id": "stroop-trial-1-congruent-20", "trial_type": "html-keyboard-response", "trial_index": 52, "time_elapsed": 187920, "internal_node_id": "0.0-4.0-48.0"}}, {"uniqueid": "w38890178:a65891896", "current_trial": 53, "dateTime": 1664555243206, "trialdata": {"rt": 440, "stimulus": "<p id='stroop-text' class='stroop-blue'>BLUE</p>", "response": "b", "stimulus-type": "congruent", "word": "blue", "color": "blue", "correct_response": "b", "trial_id": "stroop-trial-1-congruent-16", "trial_type": "html-keyboard-response", "trial_index": 53, "time_elapsed": 188864, "internal_node_id": "0.0-4.0-49.0"}}, {"uniqueid": "w38890178:a65891896", "current_trial": 54, "dateTime": 1664555244174, "trialdata": {"rt": 464, "stimulus": "<p id='stroop-text' class='stroop-green'>GREEN</p>", "response": "b", "stimulus-type": "congruent", "word": "green", "color": "green", "correct_response": "g", "trial_id": "stroop-trial-1-congruent-19", "trial_type": "html-keyboard-response", "trial_index": 54, "time_elapsed": 189832, "internal_node_id": "0.0-4.0-50.0"}}, {"uniqueid": "w38890178:a65891896", "current_trial": 55, "dateTime": 1664555245638, "trialdata": {"rt": 961, "stimulus": "<p id='stroop-text' class='stroop-green'>YELLOW</p>", "response": "g", "stimulus-type": "incongruent", "word": "yellow", "color": "green", "correct_response": "g", "trial_id": "stroop-trial-1-incongruent-27", "trial_type": "html-keyboard-response", "trial_index": 55, "time_elapsed": 191296, "internal_node_id": "0.0-4.0-51.0"}}, {"uniqueid": "w38890178:a65891896", "current_trial": 56, "dateTime": 1664555246894, "trialdata": {"rt": 751, "stimulus": "<p id='stroop-text' class='stroop-red'>GREEN</p>", "response": "r", "stimulus-type": "incongruent", "word": "green", "color": "red", "correct_response": "r", "trial_id": "stroop-trial-1-incongruent-26", "trial_type": "html-keyboard-response", "trial_index": 56, "time_elapsed": 192551, "internal_node_id": "0.0-4.0-52.0"}}, {"uniqueid": "w38890178:a65891896", "current_trial": 57, "dateTime": 1664555247966, "trialdata": {"rt": 569, "stimulus": "<p id='stroop-text' class='stroop-red'>WINDOW</p>", "response": "r", "stimulus-type": "unrelated", "word": "WINDOW", "color": "red", "correct_response": "r", "trial_id": "stroop-trial-1-unrelated-19", "trial_type": "html-keyboard-response", "trial_index": 57, "time_elapsed": 193624, "internal_node_id": "0.0-4.0-53.0"}}, {"uniqueid": "w38890178:a65891896", "current_trial": 58, "dateTime": 1664555249262, "trialdata": {"rt": 792, "stimulus": "<p id='stroop-text' class='stroop-yellow'>WINDOW</p>", "response": "y", "stimulus-type": "unrelated", "word": "WINDOW", "color": "yellow", "correct_response": "y", "trial_id": "stroop-trial-1-unrelated-11", "trial_type": "html-keyboard-response", "trial_index": 58, "time_elapsed": 194920, "internal_node_id": "0.0-4.0-54.0"}}, {"uniqueid": "w38890178:a65891896", "current_trial": 59, "dateTime": 1664555250262, "trialdata": {"rt": 496, "stimulus": "<p id='stroop-text' class='stroop-yellow'>BOAT</p>", "response": "y", "stimulus-type": "unrelated", "word": "BOAT", "color": "yellow", "correct_response": "y", "trial_id": "stroop-trial-1-unrelated-10", "trial_type": "html-keyboard-response", "trial_index": 59, "time_elapsed": 195920, "internal_node_id": "0.0-4.0-55.0"}}, {"uniqueid": "w38890178:a65891896", "current_trial": 60, "dateTime": 1664555251398, "trialdata": {"rt": 633, "stimulus": "<p id='stroop-text' class='stroop-red'>YELLOW</p>", "response": "r", "stimulus-type": "incongruent", "word": "yellow", "color": "red", "correct_response": "r", "trial_id": "stroop-trial-1-incongruent-4", "trial_type": "html-keyboard-response", "trial_index": 60, "time_elapsed": 197056, "internal_node_id": "0.0-4.0-56.0"}}, {"uniqueid": "w38890178:a65891896", "current_trial": 61, "dateTime": 1664555252782, "trialdata": {"rt": 879, "stimulus": "<p id='stroop-text' class='stroop-blue'>DOG</p>", "response": "b", "stimulus-type": "unrelated", "word": "DOG", "color": "blue", "correct_response": "b", "trial_id": "stroop-trial-1-unrelated-13", "trial_type": "html-keyboard-response", "trial_index": 61, "time_elapsed": 198440, "internal_node_id": "0.0-4.0-57.0"}}, {"uniqueid": "w38890178:a65891896", "current_trial": 62, "dateTime": 1664555253990, "trialdata": {"rt": 705, "stimulus": "<p id='stroop-text' class='stroop-yellow'>RED</p>", "response": "y", "stimulus-type": "incongruent", "word": "red", "color": "yellow", "correct_response": "y", "trial_id": "stroop-trial-1-incongruent-15", "trial_type": "html-keyboard-response", "trial_index": 62, "time_elapsed": 199648, "internal_node_id": "0.0-4.0-58.0"}}, {"uniqueid": "w38890178:a65891896", "current_trial": 63, "dateTime": 1664555255182, "trialdata": {"rt": 689, "stimulus": "<p id='stroop-text' class='stroop-red'>BLUE</p>", "response": "r", "stimulus-type": "incongruent", "word": "blue", "color": "red", "correct_response": "r", "trial_id": "stroop-trial-1-incongruent-6", "trial_type": "html-keyboard-response", "trial_index": 63, "time_elapsed": 200840, "internal_node_id": "0.0-4.0-59.0"}}, {"uniqueid": "w38890178:a65891896", "current_trial": 64, "dateTime": 1664555256358, "trialdata": {"rt": 672, "stimulus": "<p id='stroop-text' class='stroop-yellow'>YELLOW</p>", "response": "y", "stimulus-type": "congruent", "word": "yellow", "color": "yellow", "correct_response": "y", "trial_id": "stroop-trial-1-congruent-27", "trial_type": "html-keyboard-response", "trial_index": 64, "time_elapsed": 202016, "internal_node_id": "0.0-4.0-60.0"}}, {"uniqueid": "w38890178:a65891896", "current_trial": 65, "dateTime": 1664555257478, "trialdata": {"rt": 616, "stimulus": "<p id='stroop-text' class='stroop-green'>CHAIR</p>", "response": "g", "stimulus-type": "unrelated", "word": "CHAIR", "color": "green", "correct_response": "g", "trial_id": "stroop-trial-1-unrelated-6", "trial_type": "html-keyboard-response", "trial_index": 65, "time_elapsed": 203136, "internal_node_id": "0.0-4.0-61.0"}}, {"uniqueid": "w38890178:a65891896", "current_trial": 66, "dateTime": 1664555258670, "trialdata": {"rt": 688, "stimulus": "<p id='stroop-text' class='stroop-red'>YELLOW</p>", "response": "r", "stimulus-type": "incongruent", "word": "yellow", "color": "red", "correct_response": "r", "trial_id": "stroop-trial-1-incongruent-9", "trial_type": "html-keyboard-response", "trial_index": 66, "time_elapsed": 204328, "internal_node_id": "0.0-4.0-62.0"}}, {"uniqueid": "w38890178:a65891896", "current_trial": 67, "dateTime": 1664555259670, "trialdata": {"rt": 497, "stimulus": "<p id='stroop-text' class='stroop-red'>BOTTLE</p>", "response": "r", "stimulus-type": "unrelated", "word": "BOTTLE", "color": "red", "correct_response": "r", "trial_id": "stroop-trial-1-unrelated-9", "trial_type": "html-keyboard-response", "trial_index": 67, "time_elapsed": 205328, "internal_node_id": "0.0-4.0-63.0"}}, {"uniqueid": "w38890178:a65891896", "current_trial": 68, "dateTime": 1664555260582, "trialdata": {"rt": 407, "stimulus": "<p id='stroop-text' class='stroop-red'>YELLOW</p>", "response": "r", "stimulus-type": "incongruent", "word": "yellow", "color": "red", "correct_response": "r", "trial_id": "stroop-trial-1-incongruent-28", "trial_type": "html-keyboard-response", "trial_index": 68, "time_elapsed": 206240, "internal_node_id": "0.0-4.0-64.0"}}, {"uniqueid": "w38890178:a65891896", "current_trial": 69, "dateTime": 1664555261630, "trialdata": {"rt": 544, "stimulus": "<p id='stroop-text' class='stroop-green'>GREEN</p>", "response": "g", "stimulus-type": "congruent", "word": "green", "color": "green", "correct_response": "g", "trial_id": "stroop-trial-1-congruent-11", "trial_type": "html-keyboard-response", "trial_index": 69, "time_elapsed": 207288, "internal_node_id": "0.0-4.0-65.0"}}, {"uniqueid": "w38890178:a65891896", "current_trial": 70, "dateTime": 1664555262774, "trialdata": {"rt": 641, "stimulus": "<p id='stroop-text' class='stroop-yellow'>YELLOW</p>", "response": "y", "stimulus-type": "congruent", "word": "yellow", "color": "yellow", "correct_response": "y", "trial_id": "stroop-trial-1-congruent-25", "trial_type": "html-keyboard-response", "trial_index": 70, "time_elapsed": 208432, "internal_node_id": "0.0-4.0-66.0"}}, {"uniqueid": "w38890178:a65891896", "current_trial": 71, "dateTime": 1664555264374, "trialdata": {"rt": 1086, "stimulus": "<p id='stroop-text' class='stroop-green'>BOAT</p>", "response": "g", "stimulus-type": "unrelated", "word": "BOAT", "color": "green", "correct_response": "g", "trial_id": "stroop-trial-1-unrelated-20", "trial_type": "html-keyboard-response", "trial_index": 71, "time_elapsed": 210032, "internal_node_id": "0.0-4.0-67.0"}}, {"uniqueid": "w38890178:a65891896", "current_trial": 72, "dateTime": 1664555265598, "trialdata": {"rt": 720, "stimulus": "<p id='stroop-text' class='stroop-yellow'>BRAIN</p>", "response": "y", "stimulus-type": "unrelated", "word": "BRAIN", "color": "yellow", "correct_response": "y", "trial_id": "stroop-trial-1-unrelated-28", "trial_type": "html-keyboard-response", "trial_index": 72, "time_elapsed": 211256, "internal_node_id": "0.0-4.0-68.0"}}, {"uniqueid": "w38890178:a65891896", "current_trial": 73, "dateTime": 1664555266766, "trialdata": {"rt": 664, "stimulus": "<p id='stroop-text' class='stroop-red'>BLUE</p>", "response": "r", "stimulus-type": "incongruent", "word": "blue", "color": "red", "correct_response": "r", "trial_id": "stroop-trial-1-incongruent-8", "trial_type": "html-keyboard-response", "trial_index": 73, "time_elapsed": 212424, "internal_node_id": "0.0-4.0-69.0"}}, {"uniqueid": "w38890178:a65891896", "current_trial": 74, "dateTime": 1664555267933, "trialdata": {"rt": 653, "stimulus": "<p id='stroop-text' class='stroop-yellow'>YELLOW</p>", "response": "y", "stimulus-type": "congruent", "word": "yellow", "color": "yellow", "correct_response": "y", "trial_id": "stroop-trial-1-congruent-18", "trial_type": "html-keyboard-response", "trial_index": 74, "time_elapsed": 213591, "internal_node_id": "0.0-4.0-70.0"}}, {"uniqueid": "w38890178:a65891896", "current_trial": 75, "dateTime": 1664555268926, "trialdata": {"rt": 486, "stimulus": "<p id='stroop-text' class='stroop-yellow'>YELLOW</p>", "response": "y", "stimulus-type": "congruent", "word": "yellow", "color": "yellow", "correct_response": "y", "trial_id": "stroop-trial-1-congruent-22", "trial_type": "html-keyboard-response", "trial_index": 75, "time_elapsed": 214583, "internal_node_id": "0.0-4.0-71.0"}}, {"uniqueid": "w38890178:a65891896", "current_trial": 76, "dateTime": 1664555270758, "trialdata": {"rt": 1329, "stimulus": "<p id='stroop-text' class='stroop-blue'>BLUE</p>", "response": "b", "stimulus-type": "congruent", "word": "blue", "color": "blue", "correct_response": "b", "trial_id": "stroop-trial-1-congruent-29", "trial_type": "html-keyboard-response", "trial_index": 76, "time_elapsed": 216416, "internal_node_id": "0.0-4.0-72.0"}}, {"uniqueid": "w38890178:a65891896", "current_trial": 77, "dateTime": 1664555271734, "trialdata": {"rt": 472, "stimulus": "<p id='stroop-text' class='stroop-blue'>BLUE</p>", "response": "b", "stimulus-type": "congruent", "word": "blue", "color": "blue", "correct_response": "b", "trial_id": "stroop-trial-1-congruent-10", "trial_type": "html-keyboard-response", "trial_index": 77, "time_elapsed": 217391, "internal_node_id": "0.0-4.0-73.0"}}, {"uniqueid": "w38890178:a65891896", "current_trial": 78, "dateTime": 1664555272910, "trialdata": {"rt": 672, "stimulus": "<p id='stroop-text' class='stroop-green'>BLUE</p>", "response": "g", "stimulus-type": "incongruent", "word": "blue", "color": "green", "correct_response": "g", "trial_id": "stroop-trial-1-incongruent-14", "trial_type": "html-keyboard-response", "trial_index": 78, "time_elapsed": 218568, "internal_node_id": "0.0-4.0-74.0"}}, {"uniqueid": "w38890178:a65891896", "current_trial": 79, "dateTime": 1664555276022, "trialdata": {"rt": 2609, "stimulus": "<p id='stroop-text' class='stroop-blue'>YELLOW</p>", "response": "b", "stimulus-type": "incongruent", "word": "yellow", "color": "blue", "correct_response": "b", "trial_id": "stroop-trial-1-incongruent-1", "trial_type": "html-keyboard-response", "trial_index": 79, "time_elapsed": 221680, "internal_node_id": "0.0-4.0-75.0"}}, {"uniqueid": "w38890178:a65891896", "current_trial": 80, "dateTime": 1664555277390, "trialdata": {"rt": 864, "stimulus": "<p id='stroop-text' class='stroop-green'>FORK</p>", "response": "g", "stimulus-type": "unrelated", "word": "FORK", "color": "green", "correct_response": "g", "trial_id": "stroop-trial-1-unrelated-25", "trial_type": "html-keyboard-response", "trial_index": 80, "time_elapsed": 223047, "internal_node_id": "0.0-4.0-76.0"}}, {"uniqueid": "w38890178:a65891896", "current_trial": 81, "dateTime": 1664555278446, "trialdata": {"rt": 552, "stimulus": "<p id='stroop-text' class='stroop-red'>BRAIN</p>", "response": "r", "stimulus-type": "unrelated", "word": "BRAIN", "color": "red", "correct_response": "r", "trial_id": "stroop-trial-1-unrelated-8", "trial_type": "html-keyboard-response", "trial_index": 81, "time_elapsed": 224104, "internal_node_id": "0.0-4.0-77.0"}}, {"uniqueid": "w38890178:a65891896", "current_trial": 82, "dateTime": 1664555280222, "trialdata": {"rt": 1272, "stimulus": "<p id='stroop-text' class='stroop-blue'>BRAIN</p>", "response": "b", "stimulus-type": "unrelated", "word": "BRAIN", "color": "blue", "correct_response": "b", "trial_id": "stroop-trial-1-unrelated-4", "trial_type": "html-keyboard-response", "trial_index": 82, "time_elapsed": 225879, "internal_node_id": "0.0-4.0-78.0"}}, {"uniqueid": "w38890178:a65891896", "current_trial": 83, "dateTime": 1664555281454, "trialdata": {"rt": 729, "stimulus": "<p id='stroop-text' class='stroop-yellow'>CHAIR</p>", "response": "y", "stimulus-type": "unrelated", "word": "CHAIR", "color": "yellow", "correct_response": "y", "trial_id": "stroop-trial-1-unrelated-14", "trial_type": "html-keyboard-response", "trial_index": 83, "time_elapsed": 227112, "internal_node_id": "0.0-4.0-79.0"}}, {"uniqueid": "w38890178:a65891896", "current_trial": 84, "dateTime": 1664555282726, "trialdata": {"rt": 768, "stimulus": "<p id='stroop-text' class='stroop-red'>GREEN</p>", "response": "r", "stimulus-type": "incongruent", "word": "green", "color": "red", "correct_response": "r", "trial_id": "stroop-trial-1-incongruent-2", "trial_type": "html-keyboard-response", "trial_index": 84, "time_elapsed": 228384, "internal_node_id": "0.0-4.0-80.0"}}, {"uniqueid": "w38890178:a65891896", "current_trial": 85, "dateTime": 1664555284038, "trialdata": {"rt": 807, "stimulus": "<p id='stroop-text' class='stroop-green'>CHAIR</p>", "response": "g", "stimulus-type": "unrelated", "word": "CHAIR", "color": "green", "correct_response": "g", "trial_id": "stroop-trial-1-unrelated-1", "trial_type": "html-keyboard-response", "trial_index": 85, "time_elapsed": 229695, "internal_node_id": "0.0-4.0-81.0"}}, {"uniqueid": "w38890178:a65891896", "current_trial": 86, "dateTime": 1664555285270, "trialdata": {"rt": 728, "stimulus": "<p id='stroop-text' class='stroop-red'>GREEN</p>", "response": "r", "stimulus-type": "incongruent", "word": "green", "color": "red", "correct_response": "r", "trial_id": "stroop-trial-1-incongruent-13", "trial_type": "html-keyboard-response", "trial_index": 86, "time_elapsed": 230927, "internal_node_id": "0.0-4.0-82.0"}}, {"uniqueid": "w38890178:a65891896", "current_trial": 87, "dateTime": 1664555287590, "trialdata": {"rt": 1815, "stimulus": "<p id='stroop-text' class='stroop-blue'>GREEN</p>", "response": "b", "stimulus-type": "incongruent", "word": "green", "color": "blue", "correct_response": "b", "trial_id": "stroop-trial-1-incongruent-22", "trial_type": "html-keyboard-response", "trial_index": 87, "time_elapsed": 233247, "internal_node_id": "0.0-4.0-83.0"}}, {"uniqueid": "w38890178:a65891896", "current_trial": 88, "dateTime": 1664555288894, "trialdata": {"rt": 800, "stimulus": "<p id='stroop-text' class='stroop-yellow'>BLUE</p>", "response": "y", "stimulus-type": "incongruent", "word": "blue", "color": "yellow", "correct_response": "y", "trial_id": "stroop-trial-1-incongruent-21", "trial_type": "html-keyboard-response", "trial_index": 88, "time_elapsed": 234551, "internal_node_id": "0.0-4.0-84.0"}}, {"uniqueid": "w38890178:a65891896", "current_trial": 89, "dateTime": 1664555291165, "trialdata": {"rt": 1768, "stimulus": "<p id='stroop-text' class='stroop-green'>GREEN</p>", "response": "g", "stimulus-type": "congruent", "word": "green", "color": "green", "correct_response": "g", "trial_id": "stroop-trial-1-congruent-4", "trial_type": "html-keyboard-response", "trial_index": 89, "time_elapsed": 236823, "internal_node_id": "0.0-4.0-85.0"}}, {"uniqueid": "w38890178:a65891896", "current_trial": 90, "dateTime": 1664555292326, "trialdata": {"rt": 655, "stimulus": "<p id='stroop-text' class='stroop-green'>RED</p>", "response": "g", "stimulus-type": "incongruent", "word": "red", "color": "green", "correct_response": "g", "trial_id": "stroop-trial-1-incongruent-20", "trial_type": "html-keyboard-response", "trial_index": 90, "time_elapsed": 237984, "internal_node_id": "0.0-4.0-86.0"}}, {"uniqueid": "w38890178:a65891896", "current_trial": 91, "dateTime": 1664555293422, "trialdata": {"rt": 591, "stimulus": "<p id='stroop-text' class='stroop-red'>CHAIR</p>", "response": "r", "stimulus-type": "unrelated", "word": "CHAIR", "color": "red", "correct_response": "r", "trial_id": "stroop-trial-1-unrelated-21", "trial_type": "html-keyboard-response", "trial_index": 91, "time_elapsed": 239079, "internal_node_id": "0.0-4.0-87.0"}}, {"uniqueid": "w38890178:a65891896", "current_trial": 92, "dateTime": 1664555294542, "trialdata": {"rt": 616, "stimulus": "<p id='stroop-text' class='stroop-yellow'>BRIDGE</p>", "response": "y", "stimulus-type": "unrelated", "word": "BRIDGE", "color": "yellow", "correct_response": "y", "trial_id": "stroop-trial-1-unrelated-5", "trial_type": "html-keyboard-response", "trial_index": 92, "time_elapsed": 240199, "internal_node_id": "0.0-4.0-88.0"}}, {"uniqueid": "w38890178:a65891896", "current_trial": 93, "dateTime": 1664555295742, "trialdata": {"rt": 697, "stimulus": "<p id='stroop-text' class='stroop-red'>SHIP</p>", "response": "r", "stimulus-type": "unrelated", "word": "SHIP", "color": "red", "correct_response": "r", "trial_id": "stroop-trial-1-unrelated-29", "trial_type": "html-keyboard-response", "trial_index": 93, "time_elapsed": 241399, "internal_node_id": "0.0-4.0-89.0"}}, {"uniqueid": "w38890178:a65891896", "current_trial": 94, "dateTime": 1664555305053, "trialdata": {"rt": 8807, "stimulus": "  <h1> End of block! </h1>\n\n  You have reached the end of the block 1/5. If you need a short break, feel free to take one now before moving on.\n\n  <br><br>\n  In the next block, you will complete another 90 rounds of this game.\n\n  <br><br>\n  <div style='text-align: center;'>Press <code>space</code> to begin.</div>\n  <br><br>\n<div style='text-align: center;'>(If the experiment doesn't continue, try clicking on the text and then pressing <code>space</code>.)</div>", "response": " ", "trial_id": "stroop_1_ready_2", "trial_type": "html-keyboard-response", "trial_index": 94, "time_elapsed": 250711, "internal_node_id": "0.0-5.0"}}, {"uniqueid": "w38890178:a65891896", "current_trial": 95, "dateTime": 1664555305925, "trialdata": {"rt": 867, "stimulus": "<p id='stroop-text' class='stroop-red'>DOG</p>", "response": "r", "stimulus-type": "unrelated", "word": "DOG", "color": "red", "correct_response": "r", "trial_id": "stroop-trial-1-unrelated-22", "trial_type": "html-keyboard-response", "trial_index": 95, "time_elapsed": 251583, "internal_node_id": "0.0-6.0-0.0"}}, {"uniqueid": "w38890178:a65891896", "current_trial": 96, "dateTime": 1664555306893, "trialdata": {"rt": 464, "stimulus": "<p id='stroop-text' class='stroop-red'>RED</p>", "response": "r", "stimulus-type": "congruent", "word": "red", "color": "red", "correct_response": "r", "trial_id": "stroop-trial-1-congruent-24", "trial_type": "html-keyboard-response", "trial_index": 96, "time_elapsed": 252551, "internal_node_id": "0.0-6.0-1.0"}}, {"uniqueid": "w38890178:a65891896", "current_trial": 97, "dateTime": 1664555308053, "trialdata": {"rt": 656, "stimulus": "<p id='stroop-text' class='stroop-green'>YELLOW</p>", "response": "g", "stimulus-type": "incongruent", "word": "yellow", "color": "green", "correct_response": "g", "trial_id": "stroop-trial-1-incongruent-20", "trial_type": "html-keyboard-response", "trial_index": 97, "time_elapsed": 253711, "internal_node_id": "0.0-6.0-2.0"}}, {"uniqueid": "w38890178:a65891896", "current_trial": 98, "dateTime": 1664555308997, "trialdata": {"rt": 439, "stimulus": "<p id='stroop-text' class='stroop-green'>YELLOW</p>", "response": "g", "stimulus-type": "incongruent", "word": "yellow", "color": "green", "correct_response": "g", "trial_id": "stroop-trial-1-incongruent-29", "trial_type": "html-keyboard-response", "trial_index": 98, "time_elapsed": 254654, "internal_node_id": "0.0-6.0-3.0"}}, {"uniqueid": "w38890178:a65891896", "current_trial": 99, "dateTime": 1664555310109, "trialdata": {"rt": 607, "stimulus": "<p id='stroop-text' class='stroop-red'>YELLOW</p>", "response": "r", "stimulus-type": "incongruent", "word": "yellow", "color": "red", "correct_response": "r", "trial_id": "stroop-trial-1-incongruent-10", "trial_type": "html-keyboard-response", "trial_index": 99, "time_elapsed": 255767, "internal_node_id": "0.0-6.0-4.0"}}, {"uniqueid": "w38890178:a65891896", "current_trial": 100, "dateTime": 1664555311125, "trialdata": {"rt": 512, "stimulus": "<p id='stroop-text' class='stroop-green'>DOG</p>", "response": "g", "stimulus-type": "unrelated", "word": "DOG", "color": "green", "correct_response": "g", "trial_id": "stroop-trial-1-unrelated-26", "trial_type": "html-keyboard-response", "trial_index": 100, "time_elapsed": 256782, "internal_node_id": "0.0-6.0-5.0"}}, {"uniqueid": "w38890178:a65891896", "current_trial": 101, "dateTime": 1664555312533, "trialdata": {"rt": 905, "stimulus": "<p id='stroop-text' class='stroop-red'>RED</p>", "response": "r", "stimulus-type": "congruent", "word": "red", "color": "red", "correct_response": "r", "trial_id": "stroop-trial-1-congruent-15", "trial_type": "html-keyboard-response", "trial_index": 101, "time_elapsed": 258190, "internal_node_id": "0.0-6.0-6.0"}}, {"uniqueid": "w38890178:a65891896", "current_trial": 102, "dateTime": 1664555313573, "trialdata": {"rt": 536, "stimulus": "<p id='stroop-text' class='stroop-red'>BOAT</p>", "response": "r", "stimulus-type": "unrelated", "word": "BOAT", "color": "red", "correct_response": "r", "trial_id": "stroop-trial-1-unrelated-24", "trial_type": "html-keyboard-response", "trial_index": 102, "time_elapsed": 259231, "internal_node_id": "0.0-6.0-7.0"}}, {"uniqueid": "w38890178:a65891896", "current_trial": 103, "dateTime": 1664555314580, "trialdata": {"rt": 501, "stimulus": "<p id='stroop-text' class='stroop-red'>YELLOW</p>", "response": "r", "stimulus-type": "incongruent", "word": "yellow", "color": "red", "correct_response": "r", "trial_id": "stroop-trial-1-incongruent-4", "trial_type": "html-keyboard-response", "trial_index": 103, "time_elapsed": 260238, "internal_node_id": "0.0-6.0-8.0"}}, {"uniqueid": "w38890178:a65891896", "current_trial": 104, "dateTime": 1664555315717, "trialdata": {"rt": 634, "stimulus": "<p id='stroop-text' class='stroop-yellow'>STONE</p>", "response": "y", "stimulus-type": "unrelated", "word": "STONE", "color": "yellow", "correct_response": "y", "trial_id": "stroop-trial-1-unrelated-30", "trial_type": "html-keyboard-response", "trial_index": 104, "time_elapsed": 261375, "internal_node_id": "0.0-6.0-9.0"}}, {"uniqueid": "w38890178:a65891896", "current_trial": 105, "dateTime": 1664555316773, "trialdata": {"rt": 550, "stimulus": "<p id='stroop-text' class='stroop-yellow'>WINDOW</p>", "response": "y", "stimulus-type": "unrelated", "word": "WINDOW", "color": "yellow", "correct_response": "y", "trial_id": "stroop-trial-1-unrelated-13", "trial_type": "html-keyboard-response", "trial_index": 105, "time_elapsed": 262430, "internal_node_id": "0.0-6.0-10.0"}}, {"uniqueid": "w38890178:a65891896", "current_trial": 106, "dateTime": 1664555317973, "trialdata": {"rt": 695, "stimulus": "<p id='stroop-text' class='stroop-blue'>STONE</p>", "response": "b", "stimulus-type": "unrelated", "word": "STONE", "color": "blue", "correct_response": "b", "trial_id": "stroop-trial-1-unrelated-25", "trial_type": "html-keyboard-response", "trial_index": 106, "time_elapsed": 263630, "internal_node_id": "0.0-6.0-11.0"}}, {"uniqueid": "w38890178:a65891896", "current_trial": 107, "dateTime": 1664555319069, "trialdata": {"rt": 592, "stimulus": "<p id='stroop-text' class='stroop-yellow'>YELLOW</p>", "response": "y", "stimulus-type": "congruent", "word": "yellow", "color": "yellow", "correct_response": "y", "trial_id": "stroop-trial-1-congruent-30", "trial_type": "html-keyboard-response", "trial_index": 107, "time_elapsed": 264726, "internal_node_id": "0.0-6.0-12.0"}}, {"uniqueid": "w38890178:a65891896", "current_trial": 108, "dateTime": 1664555320069, "trialdata": {"rt": 495, "stimulus": "<p id='stroop-text' class='stroop-yellow'>RED</p>", "response": "y", "stimulus-type": "incongruent", "word": "red", "color": "yellow", "correct_response": "y", "trial_id": "stroop-trial-1-incongruent-5", "trial_type": "html-keyboard-response", "trial_index": 108, "time_elapsed": 265726, "internal_node_id": "0.0-6.0-13.0"}}, {"uniqueid": "w38890178:a65891896", "current_trial": 109, "dateTime": 1664555321421, "trialdata": {"rt": 848, "stimulus": "<p id='stroop-text' class='stroop-green'>DOG</p>", "response": "g", "stimulus-type": "unrelated", "word": "DOG", "color": "green", "correct_response": "g", "trial_id": "stroop-trial-1-unrelated-29", "trial_type": "html-keyboard-response", "trial_index": 109, "time_elapsed": 267078, "internal_node_id": "0.0-6.0-14.0"}}, {"uniqueid": "w38890178:a65891896", "current_trial": 110, "dateTime": 1664555322525, "trialdata": {"rt": 599, "stimulus": "<p id='stroop-text' class='stroop-yellow'>YELLOW</p>", "response": "y", "stimulus-type": "congruent", "word": "yellow", "color": "yellow", "correct_response": "y", "trial_id": "stroop-trial-1-congruent-3", "trial_type": "html-keyboard-response", "trial_index": 110, "time_elapsed": 268182, "internal_node_id": "0.0-6.0-15.0"}}, {"uniqueid": "w38890178:a65891896", "current_trial": 111, "dateTime": 1664555324109, "trialdata": {"rt": 1080, "stimulus": "<p id='stroop-text' class='stroop-green'>MONKEY</p>", "response": "g", "stimulus-type": "unrelated", "word": "MONKEY", "color": "green", "correct_response": "g", "trial_id": "stroop-trial-1-unrelated-17", "trial_type": "html-keyboard-response", "trial_index": 111, "time_elapsed": 269766, "internal_node_id": "0.0-6.0-16.0"}}, {"uniqueid": "w38890178:a65891896", "current_trial": 112, "dateTime": 1664555325285, "trialdata": {"rt": 671, "stimulus": "<p id='stroop-text' class='stroop-red'>CHAIR</p>", "response": "r", "stimulus-type": "unrelated", "word": "CHAIR", "color": "red", "correct_response": "r", "trial_id": "stroop-trial-1-unrelated-14", "trial_type": "html-keyboard-response", "trial_index": 112, "time_elapsed": 270942, "internal_node_id": "0.0-6.0-17.0"}}, {"uniqueid": "w38890178:a65891896", "current_trial": 113, "dateTime": 1664555326301, "trialdata": {"rt": 512, "stimulus": "<p id='stroop-text' class='stroop-red'>GREEN</p>", "response": "r", "stimulus-type": "incongruent", "word": "green", "color": "red", "correct_response": "r", "trial_id": "stroop-trial-1-incongruent-25", "trial_type": "html-keyboard-response", "trial_index": 113, "time_elapsed": 271959, "internal_node_id": "0.0-6.0-18.0"}}, {"uniqueid": "w38890178:a65891896", "current_trial": 114, "dateTime": 1664555328821, "trialdata": {"rt": 2017, "stimulus": "<p id='stroop-text' class='stroop-green'>MONKEY</p>", "response": "g", "stimulus-type": "unrelated", "word": "MONKEY", "color": "green", "correct_response": "g", "trial_id": "stroop-trial-1-unrelated-12", "trial_type": "html-keyboard-response", "trial_index": 114, "time_elapsed": 274478, "internal_node_id": "0.0-6.0-19.0"}}, {"uniqueid": "w38890178:a65891896", "current_trial": 115, "dateTime": 1664555329741, "trialdata": {"rt": 416, "stimulus": "<p id='stroop-text' class='stroop-blue'>GREEN</p>", "response": "b", "stimulus-type": "incongruent", "word": "green", "color": "blue", "correct_response": "b", "trial_id": "stroop-trial-1-incongruent-27", "trial_type": "html-keyboard-response", "trial_index": 115, "time_elapsed": 275398, "internal_node_id": "0.0-6.0-20.0"}}, {"uniqueid": "w38890178:a65891896", "current_trial": 116, "dateTime": 1664555330789, "trialdata": {"rt": 544, "stimulus": "<p id='stroop-text' class='stroop-yellow'>BLUE</p>", "response": "y", "stimulus-type": "incongruent", "word": "blue", "color": "yellow", "correct_response": "y", "trial_id": "stroop-trial-1-incongruent-12", "trial_type": "html-keyboard-response", "trial_index": 116, "time_elapsed": 276446, "internal_node_id": "0.0-6.0-21.0"}}, {"uniqueid": "w38890178:a65891896", "current_trial": 117, "dateTime": 1664555332205, "trialdata": {"rt": 911, "stimulus": "<p id='stroop-text' class='stroop-green'>GREEN</p>", "response": "g", "stimulus-type": "congruent", "word": "green", "color": "green", "correct_response": "g", "trial_id": "stroop-trial-1-congruent-28", "trial_type": "html-keyboard-response", "trial_index": 117, "time_elapsed": 277862, "internal_node_id": "0.0-6.0-22.0"}}, {"uniqueid": "w38890178:a65891896", "current_trial": 118, "dateTime": 1664555333213, "trialdata": {"rt": 504, "stimulus": "<p id='stroop-text' class='stroop-red'>BRAIN</p>", "response": "r", "stimulus-type": "unrelated", "word": "BRAIN", "color": "red", "correct_response": "r", "trial_id": "stroop-trial-1-unrelated-16", "trial_type": "html-keyboard-response", "trial_index": 118, "time_elapsed": 278870, "internal_node_id": "0.0-6.0-23.0"}}, {"uniqueid": "w38890178:a65891896", "current_trial": 119, "dateTime": 1664555334221, "trialdata": {"rt": 504, "stimulus": "<p id='stroop-text' class='stroop-yellow'>CHAIR</p>", "response": "y", "stimulus-type": "unrelated", "word": "CHAIR", "color": "yellow", "correct_response": "y", "trial_id": "stroop-trial-1-unrelated-2", "trial_type": "html-keyboard-response", "trial_index": 119, "time_elapsed": 279878, "internal_node_id": "0.0-6.0-24.0"}}, {"uniqueid": "w38890178:a65891896", "current_trial": 120, "dateTime": 1664555335317, "trialdata": {"rt": 592, "stimulus": "<p id='stroop-text' class='stroop-yellow'>GREEN</p>", "response": "y", "stimulus-type": "incongruent", "word": "green", "color": "yellow", "correct_response": "y", "trial_id": "stroop-trial-1-incongruent-21", "trial_type": "html-keyboard-response", "trial_index": 120, "time_elapsed": 280974, "internal_node_id": "0.0-6.0-25.0"}}, {"uniqueid": "w38890178:a65891896", "current_trial": 121, "dateTime": 1664555336382, "trialdata": {"rt": 561, "stimulus": "<p id='stroop-text' class='stroop-red'>RED</p>", "response": "r", "stimulus-type": "congruent", "word": "red", "color": "red", "correct_response": "r", "trial_id": "stroop-trial-1-congruent-25", "trial_type": "html-keyboard-response", "trial_index": 121, "time_elapsed": 282039, "internal_node_id": "0.0-6.0-26.0"}}, {"uniqueid": "w38890178:a65891896", "current_trial": 122, "dateTime": 1664555337516, "trialdata": {"rt": 631, "stimulus": "<p id='stroop-text' class='stroop-red'>GREEN</p>", "response": "r", "stimulus-type": "incongruent", "word": "green", "color": "red", "correct_response": "r", "trial_id": "stroop-trial-1-incongruent-11", "trial_type": "html-keyboard-response", "trial_index": 122, "time_elapsed": 283174, "internal_node_id": "0.0-6.0-27.0"}}, {"uniqueid": "w38890178:a65891896", "current_trial": 123, "dateTime": 1664555338525, "trialdata": {"rt": 504, "stimulus": "<p id='stroop-text' class='stroop-red'>YELLOW</p>", "response": "r", "stimulus-type": "incongruent", "word": "yellow", "color": "red", "correct_response": "r", "trial_id": "stroop-trial-1-incongruent-9", "trial_type": "html-keyboard-response", "trial_index": 123, "time_elapsed": 284182, "internal_node_id": "0.0-6.0-28.0"}}, {"uniqueid": "w38890178:a65891896", "current_trial": 124, "dateTime": 1664555339701, "trialdata": {"rt": 671, "stimulus": "<p id='stroop-text' class='stroop-blue'>MONKEY</p>", "response": "b", "stimulus-type": "unrelated", "word": "MONKEY", "color": "blue", "correct_response": "b", "trial_id": "stroop-trial-1-unrelated-4", "trial_type": "html-keyboard-response", "trial_index": 124, "time_elapsed": 285358, "internal_node_id": "0.0-6.0-29.0"}}, {"uniqueid": "w38890178:a65891896", "current_trial": 125, "dateTime": 1664555340693, "trialdata": {"rt": 488, "stimulus": "<p id='stroop-text' class='stroop-blue'>BLUE</p>", "response": "b", "stimulus-type": "congruent", "word": "blue", "color": "blue", "correct_response": "b", "trial_id": "stroop-trial-1-congruent-23", "trial_type": "html-keyboard-response", "trial_index": 125, "time_elapsed": 286350, "internal_node_id": "0.0-6.0-30.0"}}, {"uniqueid": "w38890178:a65891896", "current_trial": 126, "dateTime": 1664555341677, "trialdata": {"rt": 479, "stimulus": "<p id='stroop-text' class='stroop-blue'>BRAIN</p>", "response": "b", "stimulus-type": "unrelated", "word": "BRAIN", "color": "blue", "correct_response": "b", "trial_id": "stroop-trial-1-unrelated-19", "trial_type": "html-keyboard-response", "trial_index": 126, "time_elapsed": 287334, "internal_node_id": "0.0-6.0-31.0"}}, {"uniqueid": "w38890178:a65891896", "current_trial": 127, "dateTime": 1664555343133, "trialdata": {"rt": 951, "stimulus": "<p id='stroop-text' class='stroop-red'>BLUE</p>", "response": "r", "stimulus-type": "incongruent", "word": "blue", "color": "red", "correct_response": "r", "trial_id": "stroop-trial-1-incongruent-19", "trial_type": "html-keyboard-response", "trial_index": 127, "time_elapsed": 288790, "internal_node_id": "0.0-6.0-32.0"}}, {"uniqueid": "w38890178:a65891896", "current_trial": 128, "dateTime": 1664555344133, "trialdata": {"rt": 496, "stimulus": "<p id='stroop-text' class='stroop-green'>DOG</p>", "response": "g", "stimulus-type": "unrelated", "word": "DOG", "color": "green", "correct_response": "g", "trial_id": "stroop-trial-1-unrelated-27", "trial_type": "html-keyboard-response", "trial_index": 128, "time_elapsed": 289790, "internal_node_id": "0.0-6.0-33.0"}}, {"uniqueid": "w38890178:a65891896", "current_trial": 129, "dateTime": 1664555345109, "trialdata": {"rt": 473, "stimulus": "<p id='stroop-text' class='stroop-green'>GREEN</p>", "response": "g", "stimulus-type": "congruent", "word": "green", "color": "green", "correct_response": "g", "trial_id": "stroop-trial-1-congruent-22", "trial_type": "html-keyboard-response", "trial_index": 129, "time_elapsed": 290766, "internal_node_id": "0.0-6.0-34.0"}}, {"uniqueid": "w38890178:a65891896", "current_trial": 130, "dateTime": 1664555346869, "trialdata": {"rt": 1257, "stimulus": "<p id='stroop-text' class='stroop-blue'>BRIDGE</p>", "response": "b", "stimulus-type": "unrelated", "word": "BRIDGE", "color": "blue", "correct_response": "b", "trial_id": "stroop-trial-1-unrelated-6", "trial_type": "html-keyboard-response", "trial_index": 130, "time_elapsed": 292527, "internal_node_id": "0.0-6.0-35.0"}}, {"uniqueid": "w38890178:a65891896", "current_trial": 131, "dateTime": 1664555348397, "trialdata": {"rt": 1023, "stimulus": "<p id='stroop-text' class='stroop-yellow'>YELLOW</p>", "response": "y", "stimulus-type": "congruent", "word": "yellow", "color": "yellow", "correct_response": "y", "trial_id": "stroop-trial-1-congruent-6", "trial_type": "html-keyboard-response", "trial_index": 131, "time_elapsed": 294054, "internal_node_id": "0.0-6.0-36.0"}}, {"uniqueid": "w38890178:a65891896", "current_trial": 132, "dateTime": 1664555349829, "trialdata": {"rt": 927, "stimulus": "<p id='stroop-text' class='stroop-blue'>BLUE</p>", "response": "b", "stimulus-type": "congruent", "word": "blue", "color": "blue", "correct_response": "b", "trial_id": "stroop-trial-1-congruent-27", "trial_type": "html-keyboard-response", "trial_index": 132, "time_elapsed": 295486, "internal_node_id": "0.0-6.0-37.0"}}, {"uniqueid": "w38890178:a65891896", "current_trial": 133, "dateTime": 1664555350845, "trialdata": {"rt": 511, "stimulus": "<p id='stroop-text' class='stroop-red'>RED</p>", "response": "r", "stimulus-type": "congruent", "word": "red", "color": "red", "correct_response": "r", "trial_id": "stroop-trial-1-congruent-26", "trial_type": "html-keyboard-response", "trial_index": 133, "time_elapsed": 296502, "internal_node_id": "0.0-6.0-38.0"}}, {"uniqueid": "w38890178:a65891896", "current_trial": 134, "dateTime": 1664555351925, "trialdata": {"rt": 576, "stimulus": "<p id='stroop-text' class='stroop-blue'>BLUE</p>", "response": "b", "stimulus-type": "congruent", "word": "blue", "color": "blue", "correct_response": "b", "trial_id": "stroop-trial-1-congruent-18", "trial_type": "html-keyboard-response", "trial_index": 134, "time_elapsed": 297582, "internal_node_id": "0.0-6.0-39.0"}}, {"uniqueid": "w38890178:a65891896", "current_trial": 135, "dateTime": 1664555352997, "trialdata": {"rt": 566, "stimulus": "<p id='stroop-text' class='stroop-green'>GREEN</p>", "response": "g", "stimulus-type": "congruent", "word": "green", "color": "green", "correct_response": "g", "trial_id": "stroop-trial-1-congruent-16", "trial_type": "html-keyboard-response", "trial_index": 135, "time_elapsed": 298654, "internal_node_id": "0.0-6.0-40.0"}}, {"uniqueid": "w38890178:a65891896", "current_trial": 136, "dateTime": 1664555353989, "trialdata": {"rt": 487, "stimulus": "<p id='stroop-text' class='stroop-green'>YELLOW</p>", "response": "g", "stimulus-type": "incongruent", "word": "yellow", "color": "green", "correct_response": "g", "trial_id": "stroop-trial-1-incongruent-16", "trial_type": "html-keyboard-response", "trial_index": 136, "time_elapsed": 299646, "internal_node_id": "0.0-6.0-41.0"}}, {"uniqueid": "w38890178:a65891896", "current_trial": 137, "dateTime": 1664555355005, "trialdata": {"rt": 512, "stimulus": "<p id='stroop-text' class='stroop-yellow'>YELLOW</p>", "response": "y", "stimulus-type": "congruent", "word": "yellow", "color": "yellow", "correct_response": "y", "trial_id": "stroop-trial-1-congruent-29", "trial_type": "html-keyboard-response", "trial_index": 137, "time_elapsed": 300662, "internal_node_id": "0.0-6.0-42.0"}}, {"uniqueid": "w38890178:a65891896", "current_trial": 138, "dateTime": 1664555356541, "trialdata": {"rt": 1032, "stimulus": "<p id='stroop-text' class='stroop-blue'>GREEN</p>", "response": "b", "stimulus-type": "incongruent", "word": "green", "color": "blue", "correct_response": "b", "trial_id": "stroop-trial-1-incongruent-22", "trial_type": "html-keyboard-response", "trial_index": 138, "time_elapsed": 302198, "internal_node_id": "0.0-6.0-43.0"}}, {"uniqueid": "w38890178:a65891896", "current_trial": 139, "dateTime": 1664555357805, "trialdata": {"rt": 759, "stimulus": "<p id='stroop-text' class='stroop-yellow'>SHIP</p>", "response": "y", "stimulus-type": "unrelated", "word": "SHIP", "color": "yellow", "correct_response": "y", "trial_id": "stroop-trial-1-unrelated-21", "trial_type": "html-keyboard-response", "trial_index": 139, "time_elapsed": 303462, "internal_node_id": "0.0-6.0-44.0"}}, {"uniqueid": "w38890178:a65891896", "current_trial": 140, "dateTime": 1664555359140, "trialdata": {"rt": 830, "stimulus": "<p id='stroop-text' class='stroop-blue'>MONKEY</p>", "response": "b", "stimulus-type": "unrelated", "word": "MONKEY", "color": "blue", "correct_response": "b", "trial_id": "stroop-trial-1-unrelated-11", "trial_type": "html-keyboard-response", "trial_index": 140, "time_elapsed": 304798, "internal_node_id": "0.0-6.0-45.0"}}, {"uniqueid": "w38890178:a65891896", "current_trial": 141, "dateTime": 1664555360253, "trialdata": {"rt": 608, "stimulus": "<p id='stroop-text' class='stroop-blue'>SHIP</p>", "response": "b", "stimulus-type": "unrelated", "word": "SHIP", "color": "blue", "correct_response": "b", "trial_id": "stroop-trial-1-unrelated-7", "trial_type": "html-keyboard-response", "trial_index": 141, "time_elapsed": 305910, "internal_node_id": "0.0-6.0-46.0"}}, {"uniqueid": "w38890178:a65891896", "current_trial": 142, "dateTime": 1664555361317, "trialdata": {"rt": 559, "stimulus": "<p id='stroop-text' class='stroop-yellow'>YELLOW</p>", "response": "y", "stimulus-type": "congruent", "word": "yellow", "color": "yellow", "correct_response": "y", "trial_id": "stroop-trial-1-congruent-1", "trial_type": "html-keyboard-response", "trial_index": 142, "time_elapsed": 306974, "internal_node_id": "0.0-6.0-47.0"}}, {"uniqueid": "w38890178:a65891896", "current_trial": 143, "dateTime": 1664555362421, "trialdata": {"rt": 598, "stimulus": "<p id='stroop-text' class='stroop-yellow'>YELLOW</p>", "response": "y", "stimulus-type": "congruent", "word": "yellow", "color": "yellow", "correct_response": "y", "trial_id": "stroop-trial-1-congruent-2", "trial_type": "html-keyboard-response", "trial_index": 143, "time_elapsed": 308078, "internal_node_id": "0.0-6.0-48.0"}}, {"uniqueid": "w38890178:a65891896", "current_trial": 144, "dateTime": 1664555363845, "trialdata": {"rt": 919, "stimulus": "<p id='stroop-text' class='stroop-green'>DOG</p>", "response": "g", "stimulus-type": "unrelated", "word": "DOG", "color": "green", "correct_response": "g", "trial_id": "stroop-trial-1-unrelated-15", "trial_type": "html-keyboard-response", "trial_index": 144, "time_elapsed": 309502, "internal_node_id": "0.0-6.0-49.0"}}, {"uniqueid": "w38890178:a65891896", "current_trial": 145, "dateTime": 1664555365053, "trialdata": {"rt": 704, "stimulus": "<p id='stroop-text' class='stroop-yellow'>MONKEY</p>", "response": "y", "stimulus-type": "unrelated", "word": "MONKEY", "color": "yellow", "correct_response": "y", "trial_id": "stroop-trial-1-unrelated-9", "trial_type": "html-keyboard-response", "trial_index": 145, "time_elapsed": 310710, "internal_node_id": "0.0-6.0-50.0"}}, {"uniqueid": "w38890178:a65891896", "current_trial": 146, "dateTime": 1664555366157, "trialdata": {"rt": 600, "stimulus": "<p id='stroop-text' class='stroop-red'>YELLOW</p>", "response": "r", "stimulus-type": "incongruent", "word": "yellow", "color": "red", "correct_response": "r", "trial_id": "stroop-trial-1-incongruent-24", "trial_type": "html-keyboard-response", "trial_index": 146, "time_elapsed": 311815, "internal_node_id": "0.0-6.0-51.0"}}, {"uniqueid": "w38890178:a65891896", "current_trial": 147, "dateTime": 1664555367741, "trialdata": {"rt": 1079, "stimulus": "<p id='stroop-text' class='stroop-green'>GREEN</p>", "response": "g", "stimulus-type": "congruent", "word": "green", "color": "green", "correct_response": "g", "trial_id": "stroop-trial-1-congruent-4", "trial_type": "html-keyboard-response", "trial_index": 147, "time_elapsed": 313399, "internal_node_id": "0.0-6.0-52.0"}}, {"uniqueid": "w38890178:a65891896", "current_trial": 148, "dateTime": 1664555368821, "trialdata": {"rt": 576, "stimulus": "<p id='stroop-text' class='stroop-red'>RED</p>", "response": "r", "stimulus-type": "congruent", "word": "red", "color": "red", "correct_response": "r", "trial_id": "stroop-trial-1-congruent-14", "trial_type": "html-keyboard-response", "trial_index": 148, "time_elapsed": 314479, "internal_node_id": "0.0-6.0-53.0"}}, {"uniqueid": "w38890178:a65891896", "current_trial": 149, "dateTime": 1664555369917, "trialdata": {"rt": 592, "stimulus": "<p id='stroop-text' class='stroop-red'>BRAIN</p>", "response": "r", "stimulus-type": "unrelated", "word": "BRAIN", "color": "red", "correct_response": "r", "trial_id": "stroop-trial-1-unrelated-10", "trial_type": "html-keyboard-response", "trial_index": 149, "time_elapsed": 315575, "internal_node_id": "0.0-6.0-54.0"}}, {"uniqueid": "w38890178:a65891896", "current_trial": 150, "dateTime": 1664555371004, "trialdata": {"rt": 583, "stimulus": "<p id='stroop-text' class='stroop-blue'>BLUE</p>", "response": "b", "stimulus-type": "congruent", "word": "blue", "color": "blue", "correct_response": "b", "trial_id": "stroop-trial-1-congruent-11", "trial_type": "html-keyboard-response", "trial_index": 150, "time_elapsed": 316662, "internal_node_id": "0.0-6.0-55.0"}}, {"uniqueid": "w38890178:a65891896", "current_trial": 151, "dateTime": 1664555372141, "trialdata": {"rt": 634, "stimulus": "<p id='stroop-text' class='stroop-blue'>DOG</p>", "response": "b", "stimulus-type": "unrelated", "word": "DOG", "color": "blue", "correct_response": "b", "trial_id": "stroop-trial-1-unrelated-28", "trial_type": "html-keyboard-response", "trial_index": 151, "time_elapsed": 317799, "internal_node_id": "0.0-6.0-56.0"}}, {"uniqueid": "w38890178:a65891896", "current_trial": 152, "dateTime": 1664555373237, "trialdata": {"rt": 591, "stimulus": "<p id='stroop-text' class='stroop-red'>RED</p>", "response": "r", "stimulus-type": "congruent", "word": "red", "color": "red", "correct_response": "r", "trial_id": "stroop-trial-1-congruent-12", "trial_type": "html-keyboard-response", "trial_index": 152, "time_elapsed": 318895, "internal_node_id": "0.0-6.0-57.0"}}, {"uniqueid": "w38890178:a65891896", "current_trial": 153, "dateTime": 1664555374429, "trialdata": {"rt": 687, "stimulus": "<p id='stroop-text' class='stroop-red'>BLUE</p>", "response": "r", "stimulus-type": "incongruent", "word": "blue", "color": "red", "correct_response": "r", "trial_id": "stroop-trial-1-incongruent-8", "trial_type": "html-keyboard-response", "trial_index": 153, "time_elapsed": 320087, "internal_node_id": "0.0-6.0-58.0"}}, {"uniqueid": "w38890178:a65891896", "current_trial": 154, "dateTime": 1664555375565, "trialdata": {"rt": 631, "stimulus": "<p id='stroop-text' class='stroop-red'>GREEN</p>", "response": "r", "stimulus-type": "incongruent", "word": "green", "color": "red", "correct_response": "r", "trial_id": "stroop-trial-1-incongruent-17", "trial_type": "html-keyboard-response", "trial_index": 154, "time_elapsed": 321223, "internal_node_id": "0.0-6.0-59.0"}}, {"uniqueid": "w38890178:a65891896", "current_trial": 155, "dateTime": 1664555376725, "trialdata": {"rt": 656, "stimulus": "<p id='stroop-text' class='stroop-yellow'>FORK</p>", "response": "y", "stimulus-type": "unrelated", "word": "FORK", "color": "yellow", "correct_response": "y", "trial_id": "stroop-trial-1-unrelated-3", "trial_type": "html-keyboard-response", "trial_index": 155, "time_elapsed": 322383, "internal_node_id": "0.0-6.0-60.0"}}, {"uniqueid": "w38890178:a65891896", "current_trial": 156, "dateTime": 1664555377885, "trialdata": {"rt": 656, "stimulus": "<p id='stroop-text' class='stroop-yellow'>YELLOW</p>", "response": "y", "stimulus-type": "congruent", "word": "yellow", "color": "yellow", "correct_response": "y", "trial_id": "stroop-trial-1-congruent-21", "trial_type": "html-keyboard-response", "trial_index": 156, "time_elapsed": 323543, "internal_node_id": "0.0-6.0-61.0"}}, {"uniqueid": "w38890178:a65891896", "current_trial": 157, "dateTime": 1664555378957, "trialdata": {"rt": 567, "stimulus": "<p id='stroop-text' class='stroop-green'>BLUE</p>", "response": "b", "stimulus-type": "incongruent", "word": "blue", "color": "green", "correct_response": "g", "trial_id": "stroop-trial-1-incongruent-7", "trial_type": "html-keyboard-response", "trial_index": 157, "time_elapsed": 324615, "internal_node_id": "0.0-6.0-62.0"}}, {"uniqueid": "w38890178:a65891896", "current_trial": 158, "dateTime": 1664555382541, "trialdata": {"rt": 3079, "stimulus": "<p id='stroop-text' class='stroop-green'>BRAIN</p>", "response": "g", "stimulus-type": "unrelated", "word": "BRAIN", "color": "green", "correct_response": "g", "trial_id": "stroop-trial-1-unrelated-5", "trial_type": "html-keyboard-response", "trial_index": 158, "time_elapsed": 328199, "internal_node_id": "0.0-6.0-63.0"}}, {"uniqueid": "w38890178:a65891896", "current_trial": 159, "dateTime": 1664555383837, "trialdata": {"rt": 792, "stimulus": "<p id='stroop-text' class='stroop-yellow'>GREEN</p>", "response": "y", "stimulus-type": "incongruent", "word": "green", "color": "yellow", "correct_response": "y", "trial_id": "stroop-trial-1-incongruent-30", "trial_type": "html-keyboard-response", "trial_index": 159, "time_elapsed": 329495, "internal_node_id": "0.0-6.0-64.0"}}, {"uniqueid": "w38890178:a65891896", "current_trial": 160, "dateTime": 1664555384845, "trialdata": {"rt": 503, "stimulus": "<p id='stroop-text' class='stroop-yellow'>YELLOW</p>", "response": "y", "stimulus-type": "congruent", "word": "yellow", "color": "yellow", "correct_response": "y", "trial_id": "stroop-trial-1-congruent-8", "trial_type": "html-keyboard-response", "trial_index": 160, "time_elapsed": 330503, "internal_node_id": "0.0-6.0-65.0"}}, {"uniqueid": "w38890178:a65891896", "current_trial": 161, "dateTime": 1664555386005, "trialdata": {"rt": 656, "stimulus": "<p id='stroop-text' class='stroop-red'>BLUE</p>", "response": "r", "stimulus-type": "incongruent", "word": "blue", "color": "red", "correct_response": "r", "trial_id": "stroop-trial-1-incongruent-26", "trial_type": "html-keyboard-response", "trial_index": 161, "time_elapsed": 331663, "internal_node_id": "0.0-6.0-66.0"}}, {"uniqueid": "w38890178:a65891896", "current_trial": 162, "dateTime": 1664555387253, "trialdata": {"rt": 742, "stimulus": "<p id='stroop-text' class='stroop-blue'>CHAIR</p>", "response": "b", "stimulus-type": "unrelated", "word": "CHAIR", "color": "blue", "correct_response": "b", "trial_id": "stroop-trial-1-unrelated-23", "trial_type": "html-keyboard-response", "trial_index": 162, "time_elapsed": 332911, "internal_node_id": "0.0-6.0-67.0"}}, {"uniqueid": "w38890178:a65891896", "current_trial": 163, "dateTime": 1664555390197, "trialdata": {"rt": 2439, "stimulus": "<p id='stroop-text' class='stroop-green'>BRIDGE</p>", "response": "g", "stimulus-type": "unrelated", "word": "BRIDGE", "color": "green", "correct_response": "g", "trial_id": "stroop-trial-1-unrelated-1", "trial_type": "html-keyboard-response", "trial_index": 163, "time_elapsed": 335855, "internal_node_id": "0.0-6.0-68.0"}}, {"uniqueid": "w38890178:a65891896", "current_trial": 164, "dateTime": 1664555391469, "trialdata": {"rt": 767, "stimulus": "<p id='stroop-text' class='stroop-yellow'>RED</p>", "response": "y", "stimulus-type": "incongruent", "word": "red", "color": "yellow", "correct_response": "y", "trial_id": "stroop-trial-1-incongruent-6", "trial_type": "html-keyboard-response", "trial_index": 164, "time_elapsed": 337127, "internal_node_id": "0.0-6.0-69.0"}}, {"uniqueid": "w38890178:a65891896", "current_trial": 165, "dateTime": 1664555392453, "trialdata": {"rt": 480, "stimulus": "<p id='stroop-text' class='stroop-yellow'>BLUE</p>", "response": "y", "stimulus-type": "incongruent", "word": "blue", "color": "yellow", "correct_response": "y", "trial_id": "stroop-trial-1-incongruent-13", "trial_type": "html-keyboard-response", "trial_index": 165, "time_elapsed": 338111, "internal_node_id": "0.0-6.0-70.0"}}, {"uniqueid": "w38890178:a65891896", "current_trial": 166, "dateTime": 1664555393421, "trialdata": {"rt": 464, "stimulus": "<p id='stroop-text' class='stroop-yellow'>RED</p>", "response": "y", "stimulus-type": "incongruent", "word": "red", "color": "yellow", "correct_response": "y", "trial_id": "stroop-trial-1-incongruent-2", "trial_type": "html-keyboard-response", "trial_index": 166, "time_elapsed": 339079, "internal_node_id": "0.0-6.0-71.0"}}, {"uniqueid": "w38890178:a65891896", "current_trial": 167, "dateTime": 1664555394589, "trialdata": {"rt": 662, "stimulus": "<p id='stroop-text' class='stroop-green'>GREEN</p>", "response": "g", "stimulus-type": "congruent", "word": "green", "color": "green", "correct_response": "g", "trial_id": "stroop-trial-1-congruent-7", "trial_type": "html-keyboard-response", "trial_index": 167, "time_elapsed": 340246, "internal_node_id": "0.0-6.0-72.0"}}, {"uniqueid": "w38890178:a65891896", "current_trial": 168, "dateTime": 1664555395645, "trialdata": {"rt": 552, "stimulus": "<p id='stroop-text' class='stroop-red'>RED</p>", "response": "r", "stimulus-type": "congruent", "word": "red", "color": "red", "correct_response": "r", "trial_id": "stroop-trial-1-congruent-17", "trial_type": "html-keyboard-response", "trial_index": 168, "time_elapsed": 341303, "internal_node_id": "0.0-6.0-73.0"}}, {"uniqueid": "w38890178:a65891896", "current_trial": 169, "dateTime": 1664555397005, "trialdata": {"rt": 856, "stimulus": "<p id='stroop-text' class='stroop-blue'>BLUE</p>", "response": "b", "stimulus-type": "congruent", "word": "blue", "color": "blue", "correct_response": "b", "trial_id": "stroop-trial-1-congruent-9", "trial_type": "html-keyboard-response", "trial_index": 169, "time_elapsed": 342662, "internal_node_id": "0.0-6.0-74.0"}}, {"uniqueid": "w38890178:a65891896", "current_trial": 170, "dateTime": 1664555398189, "trialdata": {"rt": 680, "stimulus": "<p id='stroop-text' class='stroop-red'>GREEN</p>", "response": "r", "stimulus-type": "incongruent", "word": "green", "color": "red", "correct_response": "r", "trial_id": "stroop-trial-1-incongruent-1", "trial_type": "html-keyboard-response", "trial_index": 170, "time_elapsed": 343846, "internal_node_id": "0.0-6.0-75.0"}}, {"uniqueid": "w38890178:a65891896", "current_trial": 171, "dateTime": 1664555399605, "trialdata": {"rt": 911, "stimulus": "<p id='stroop-text' class='stroop-blue'>FORK</p>", "response": "b", "stimulus-type": "unrelated", "word": "FORK", "color": "blue", "correct_response": "b", "trial_id": "stroop-trial-1-unrelated-18", "trial_type": "html-keyboard-response", "trial_index": 171, "time_elapsed": 345262, "internal_node_id": "0.0-6.0-76.0"}}, {"uniqueid": "w38890178:a65891896", "current_trial": 172, "dateTime": 1664555400789, "trialdata": {"rt": 678, "stimulus": "<p id='stroop-text' class='stroop-yellow'>CHAIR</p>", "response": "y", "stimulus-type": "unrelated", "word": "CHAIR", "color": "yellow", "correct_response": "y", "trial_id": "stroop-trial-1-unrelated-20", "trial_type": "html-keyboard-response", "trial_index": 172, "time_elapsed": 346446, "internal_node_id": "0.0-6.0-77.0"}}, {"uniqueid": "w38890178:a65891896", "current_trial": 173, "dateTime": 1664555402172, "trialdata": {"rt": 879, "stimulus": "<p id='stroop-text' class='stroop-blue'>BLUE</p>", "response": "b", "stimulus-type": "congruent", "word": "blue", "color": "blue", "correct_response": "b", "trial_id": "stroop-trial-1-congruent-19", "trial_type": "html-keyboard-response", "trial_index": 173, "time_elapsed": 347830, "internal_node_id": "0.0-6.0-78.0"}}, {"uniqueid": "w38890178:a65891896", "current_trial": 174, "dateTime": 1664555403461, "trialdata": {"rt": 786, "stimulus": "<p id='stroop-text' class='stroop-green'>RED</p>", "response": "g", "stimulus-type": "incongruent", "word": "red", "color": "green", "correct_response": "g", "trial_id": "stroop-trial-1-incongruent-15", "trial_type": "html-keyboard-response", "trial_index": 174, "time_elapsed": 349119, "internal_node_id": "0.0-6.0-79.0"}}, {"uniqueid": "w38890178:a65891896", "current_trial": 175, "dateTime": 1664555405061, "trialdata": {"rt": 1096, "stimulus": "<p id='stroop-text' class='stroop-yellow'>YELLOW</p>", "response": "y", "stimulus-type": "congruent", "word": "yellow", "color": "yellow", "correct_response": "y", "trial_id": "stroop-trial-1-congruent-13", "trial_type": "html-keyboard-response", "trial_index": 175, "time_elapsed": 350718, "internal_node_id": "0.0-6.0-80.0"}}, {"uniqueid": "w38890178:a65891896", "current_trial": 176, "dateTime": 1664555406517, "trialdata": {"rt": 951, "stimulus": "<p id='stroop-text' class='stroop-green'>GREEN</p>", "response": "g", "stimulus-type": "congruent", "word": "green", "color": "green", "correct_response": "g", "trial_id": "stroop-trial-1-congruent-10", "trial_type": "html-keyboard-response", "trial_index": 176, "time_elapsed": 352175, "internal_node_id": "0.0-6.0-81.0"}}, {"uniqueid": "w38890178:a65891896", "current_trial": 177, "dateTime": 1664555408669, "trialdata": {"rt": 1646, "stimulus": "<p id='stroop-text' class='stroop-blue'>RED</p>", "response": "b", "stimulus-type": "incongruent", "word": "red", "color": "blue", "correct_response": "b", "trial_id": "stroop-trial-1-incongruent-3", "trial_type": "html-keyboard-response", "trial_index": 177, "time_elapsed": 354326, "internal_node_id": "0.0-6.0-82.0"}}, {"uniqueid": "w38890178:a65891896", "current_trial": 178, "dateTime": 1664555409749, "trialdata": {"rt": 575, "stimulus": "<p id='stroop-text' class='stroop-blue'>BLUE</p>", "response": "b", "stimulus-type": "congruent", "word": "blue", "color": "blue", "correct_response": "b", "trial_id": "stroop-trial-1-congruent-20", "trial_type": "html-keyboard-response", "trial_index": 178, "time_elapsed": 355406, "internal_node_id": "0.0-6.0-83.0"}}, {"uniqueid": "w38890178:a65891896", "current_trial": 179, "dateTime": 1664555410909, "trialdata": {"rt": 656, "stimulus": "<p id='stroop-text' class='stroop-yellow'>BLUE</p>", "response": "y", "stimulus-type": "incongruent", "word": "blue", "color": "yellow", "correct_response": "y", "trial_id": "stroop-trial-1-incongruent-18", "trial_type": "html-keyboard-response", "trial_index": 179, "time_elapsed": 356567, "internal_node_id": "0.0-6.0-84.0"}}, {"uniqueid": "w38890178:a65891896", "current_trial": 180, "dateTime": 1664555412429, "trialdata": {"rt": 1016, "stimulus": "<p id='stroop-text' class='stroop-blue'>YELLOW</p>", "response": "b", "stimulus-type": "incongruent", "word": "yellow", "color": "blue", "correct_response": "b", "trial_id": "stroop-trial-1-incongruent-23", "trial_type": "html-keyboard-response", "trial_index": 180, "time_elapsed": 358086, "internal_node_id": "0.0-6.0-85.0"}}, {"uniqueid": "w38890178:a65891896", "current_trial": 181, "dateTime": 1664555413605, "trialdata": {"rt": 671, "stimulus": "<p id='stroop-text' class='stroop-red'>GREEN</p>", "response": "r", "stimulus-type": "incongruent", "word": "green", "color": "red", "correct_response": "r", "trial_id": "stroop-trial-1-incongruent-28", "trial_type": "html-keyboard-response", "trial_index": 181, "time_elapsed": 359262, "internal_node_id": "0.0-6.0-86.0"}}, {"uniqueid": "w38890178:a65891896", "current_trial": 182, "dateTime": 1664555414973, "trialdata": {"rt": 863, "stimulus": "<p id='stroop-text' class='stroop-blue'>GREEN</p>", "response": "b", "stimulus-type": "incongruent", "word": "green", "color": "blue", "correct_response": "b", "trial_id": "stroop-trial-1-incongruent-14", "trial_type": "html-keyboard-response", "trial_index": 182, "time_elapsed": 360630, "internal_node_id": "0.0-6.0-87.0"}}, {"uniqueid": "w38890178:a65891896", "current_trial": 183, "dateTime": 1664555416205, "trialdata": {"rt": 726, "stimulus": "<p id='stroop-text' class='stroop-green'>DOG</p>", "response": "g", "stimulus-type": "unrelated", "word": "DOG", "color": "green", "correct_response": "g", "trial_id": "stroop-trial-1-unrelated-8", "trial_type": "html-keyboard-response", "trial_index": 183, "time_elapsed": 361862, "internal_node_id": "0.0-6.0-88.0"}}, {"uniqueid": "w38890178:a65891896", "current_trial": 184, "dateTime": 1664555417365, "trialdata": {"rt": 656, "stimulus": "<p id='stroop-text' class='stroop-red'>RED</p>", "response": "r", "stimulus-type": "congruent", "word": "red", "color": "red", "correct_response": "r", "trial_id": "stroop-trial-1-congruent-5", "trial_type": "html-keyboard-response", "trial_index": 184, "time_elapsed": 363022, "internal_node_id": "0.0-6.0-89.0"}}, {"uniqueid": "w38890178:a65891896", "current_trial": 185, "dateTime": 1664555419341, "trialdata": {"rt": 1470, "stimulus": "  <h1> End of block! </h1>\n\n  You have reached the end of the block 2/5. If you need a short break, feel free to take one now before moving on.\n\n  <br><br>\n  In the next block, you will complete another 90 rounds of this game.\n\n  <br><br>\n  <div style='text-align: center;'>Press <code>space</code> to begin.</div>\n  <br><br>\n<div style='text-align: center;'>(If the experiment doesn't continue, try clicking on the text and then pressing <code>space</code>.)</div>", "response": " ", "trial_id": "stroop_1_ready_3", "trial_type": "html-keyboard-response", "trial_index": 185, "time_elapsed": 364998, "internal_node_id": "0.0-7.0"}}, {"uniqueid": "w38890178:a65891896", "current_trial": 186, "dateTime": 1664555420325, "trialdata": {"rt": 979, "stimulus": "<p id='stroop-text' class='stroop-green'>FORK</p>", "response": "g", "stimulus-type": "unrelated", "word": "FORK", "color": "green", "correct_response": "g", "trial_id": "stroop-trial-1-unrelated-19", "trial_type": "html-keyboard-response", "trial_index": 186, "time_elapsed": 365982, "internal_node_id": "0.0-8.0-0.0"}}, {"uniqueid": "w38890178:a65891896", "current_trial": 187, "dateTime": 1664555422125, "trialdata": {"rt": 1295, "stimulus": "<p id='stroop-text' class='stroop-blue'>MONKEY</p>", "response": "b", "stimulus-type": "unrelated", "word": "MONKEY", "color": "blue", "correct_response": "b", "trial_id": "stroop-trial-1-unrelated-21", "trial_type": "html-keyboard-response", "trial_index": 187, "time_elapsed": 367783, "internal_node_id": "0.0-8.0-1.0"}}, {"uniqueid": "w38890178:a65891896", "current_trial": 188, "dateTime": 1664555423165, "trialdata": {"rt": 534, "stimulus": "<p id='stroop-text' class='stroop-blue'>BLUE</p>", "response": "b", "stimulus-type": "congruent", "word": "blue", "color": "blue", "correct_response": "b", "trial_id": "stroop-trial-1-congruent-21", "trial_type": "html-keyboard-response", "trial_index": 188, "time_elapsed": 368822, "internal_node_id": "0.0-8.0-2.0"}}, {"uniqueid": "w38890178:a65891896", "current_trial": 189, "dateTime": 1664555424965, "trialdata": {"rt": 1296, "stimulus": "<p id='stroop-text' class='stroop-green'>MONKEY</p>", "response": "g", "stimulus-type": "unrelated", "word": "MONKEY", "color": "green", "correct_response": "g", "trial_id": "stroop-trial-1-unrelated-30", "trial_type": "html-keyboard-response", "trial_index": 189, "time_elapsed": 370622, "internal_node_id": "0.0-8.0-3.0"}}, {"uniqueid": "w38890178:a65891896", "current_trial": 190, "dateTime": 1664555426037, "trialdata": {"rt": 567, "stimulus": "<p id='stroop-text' class='stroop-red'>GREEN</p>", "response": "r", "stimulus-type": "incongruent", "word": "green", "color": "red", "correct_response": "r", "trial_id": "stroop-trial-1-incongruent-28", "trial_type": "html-keyboard-response", "trial_index": 190, "time_elapsed": 371694, "internal_node_id": "0.0-8.0-4.0"}}, {"uniqueid": "w38890178:a65891896", "current_trial": 191, "dateTime": 1664555427749, "trialdata": {"rt": 1207, "stimulus": "<p id='stroop-text' class='stroop-green'>YELLOW</p>", "response": "g", "stimulus-type": "incongruent", "word": "yellow", "color": "green", "correct_response": "g", "trial_id": "stroop-trial-1-incongruent-13", "trial_type": "html-keyboard-response", "trial_index": 191, "time_elapsed": 373406, "internal_node_id": "0.0-8.0-5.0"}}, {"uniqueid": "w38890178:a65891896", "current_trial": 192, "dateTime": 1664555428861, "trialdata": {"rt": 607, "stimulus": "<p id='stroop-text' class='stroop-red'>BRIDGE</p>", "response": "r", "stimulus-type": "unrelated", "word": "BRIDGE", "color": "red", "correct_response": "r", "trial_id": "stroop-trial-1-unrelated-3", "trial_type": "html-keyboard-response", "trial_index": 192, "time_elapsed": 374518, "internal_node_id": "0.0-8.0-6.0"}}, {"uniqueid": "w38890178:a65891896", "current_trial": 193, "dateTime": 1664555429949, "trialdata": {"rt": 582, "stimulus": "<p id='stroop-text' class='stroop-yellow'>YELLOW</p>", "response": "y", "stimulus-type": "congruent", "word": "yellow", "color": "yellow", "correct_response": "y", "trial_id": "stroop-trial-1-congruent-7", "trial_type": "html-keyboard-response", "trial_index": 193, "time_elapsed": 375606, "internal_node_id": "0.0-8.0-7.0"}}, {"uniqueid": "w38890178:a65891896", "current_trial": 194, "dateTime": 1664555431069, "trialdata": {"rt": 616, "stimulus": "<p id='stroop-text' class='stroop-red'>BOAT</p>", "response": "r", "stimulus-type": "unrelated", "word": "BOAT", "color": "red", "correct_response": "r", "trial_id": "stroop-trial-1-unrelated-24", "trial_type": "html-keyboard-response", "trial_index": 194, "time_elapsed": 376726, "internal_node_id": "0.0-8.0-8.0"}}, {"uniqueid": "w38890178:a65891896", "current_trial": 195, "dateTime": 1664555432325, "trialdata": {"rt": 752, "stimulus": "<p id='stroop-text' class='stroop-yellow'>BOTTLE</p>", "response": "y", "stimulus-type": "unrelated", "word": "BOTTLE", "color": "yellow", "correct_response": "y", "trial_id": "stroop-trial-1-unrelated-18", "trial_type": "html-keyboard-response", "trial_index": 195, "time_elapsed": 377983, "internal_node_id": "0.0-8.0-9.0"}}, {"uniqueid": "w38890178:a65891896", "current_trial": 196, "dateTime": 1664555433645, "trialdata": {"rt": 815, "stimulus": "<p id='stroop-text' class='stroop-blue'>CHAIR</p>", "response": "b", "stimulus-type": "unrelated", "word": "CHAIR", "color": "blue", "correct_response": "b", "trial_id": "stroop-trial-1-unrelated-29", "trial_type": "html-keyboard-response", "trial_index": 196, "time_elapsed": 379302, "internal_node_id": "0.0-8.0-10.0"}}, {"uniqueid": "w38890178:a65891896", "current_trial": 197, "dateTime": 1664555434773, "trialdata": {"rt": 623, "stimulus": "<p id='stroop-text' class='stroop-yellow'>WINDOW</p>", "response": "y", "stimulus-type": "unrelated", "word": "WINDOW", "color": "yellow", "correct_response": "y", "trial_id": "stroop-trial-1-unrelated-26", "trial_type": "html-keyboard-response", "trial_index": 197, "time_elapsed": 380430, "internal_node_id": "0.0-8.0-11.0"}}, {"uniqueid": "w38890178:a65891896", "current_trial": 198, "dateTime": 1664555435925, "trialdata": {"rt": 646, "stimulus": "<p id='stroop-text' class='stroop-yellow'>MONKEY</p>", "response": "y", "stimulus-type": "unrelated", "word": "MONKEY", "color": "yellow", "correct_response": "y", "trial_id": "stroop-trial-1-unrelated-28", "trial_type": "html-keyboard-response", "trial_index": 198, "time_elapsed": 381582, "internal_node_id": "0.0-8.0-12.0"}}, {"uniqueid": "w38890178:a65891896", "current_trial": 199, "dateTime": 1664555437245, "trialdata": {"rt": 815, "stimulus": "<p id='stroop-text' class='stroop-blue'>YELLOW</p>", "response": "b", "stimulus-type": "incongruent", "word": "yellow", "color": "blue", "correct_response": "b", "trial_id": "stroop-trial-1-incongruent-4", "trial_type": "html-keyboard-response", "trial_index": 199, "time_elapsed": 382902, "internal_node_id": "0.0-8.0-13.0"}}, {"uniqueid": "w38890178:a65891896", "current_trial": 200, "dateTime": 1664555438613, "trialdata": {"rt": 853, "stimulus": "<p id='stroop-text' class='stroop-yellow'>RED</p>", "response": "y", "stimulus-type": "incongruent", "word": "red", "color": "yellow", "correct_response": "y", "trial_id": "stroop-trial-1-incongruent-24", "trial_type": "html-keyboard-response", "trial_index": 200, "time_elapsed": 384270, "internal_node_id": "0.0-8.0-14.0"}}, {"uniqueid": "w38890178:a65891896", "current_trial": 201, "dateTime": 1664555439700, "trialdata": {"rt": 583, "stimulus": "<p id='stroop-text' class='stroop-yellow'>BLUE</p>", "response": "y", "stimulus-type": "incongruent", "word": "blue", "color": "yellow", "correct_response": "y", "trial_id": "stroop-trial-1-incongruent-1", "trial_type": "html-keyboard-response", "trial_index": 201, "time_elapsed": 385358, "internal_node_id": "0.0-8.0-15.0"}}, {"uniqueid": "w38890178:a65891896", "current_trial": 202, "dateTime": 1664555440741, "trialdata": {"rt": 537, "stimulus": "<p id='stroop-text' class='stroop-red'>RED</p>", "response": "r", "stimulus-type": "congruent", "word": "red", "color": "red", "correct_response": "r", "trial_id": "stroop-trial-1-congruent-8", "trial_type": "html-keyboard-response", "trial_index": 202, "time_elapsed": 386398, "internal_node_id": "0.0-8.0-16.0"}}, {"uniqueid": "w38890178:a65891896", "current_trial": 203, "dateTime": 1664555441973, "trialdata": {"rt": 727, "stimulus": "<p id='stroop-text' class='stroop-yellow'>RED</p>", "response": "y", "stimulus-type": "incongruent", "word": "red", "color": "yellow", "correct_response": "y", "trial_id": "stroop-trial-1-incongruent-15", "trial_type": "html-keyboard-response", "trial_index": 203, "time_elapsed": 387630, "internal_node_id": "0.0-8.0-17.0"}}, {"uniqueid": "w38890178:a65891896", "current_trial": 204, "dateTime": 1664555443253, "trialdata": {"rt": 775, "stimulus": "<p id='stroop-text' class='stroop-red'>FORK</p>", "response": "r", "stimulus-type": "unrelated", "word": "FORK", "color": "red", "correct_response": "r", "trial_id": "stroop-trial-1-unrelated-14", "trial_type": "html-keyboard-response", "trial_index": 204, "time_elapsed": 388911, "internal_node_id": "0.0-8.0-18.0"}}, {"uniqueid": "w38890178:a65891896", "current_trial": 205, "dateTime": 1664555444485, "trialdata": {"rt": 727, "stimulus": "<p id='stroop-text' class='stroop-green'>YELLOW</p>", "response": "g", "stimulus-type": "incongruent", "word": "yellow", "color": "green", "correct_response": "g", "trial_id": "stroop-trial-1-incongruent-18", "trial_type": "html-keyboard-response", "trial_index": 205, "time_elapsed": 390142, "internal_node_id": "0.0-8.0-19.0"}}, {"uniqueid": "w38890178:a65891896", "current_trial": 206, "dateTime": 1664555445661, "trialdata": {"rt": 672, "stimulus": "<p id='stroop-text' class='stroop-red'>WINDOW</p>", "response": "r", "stimulus-type": "unrelated", "word": "WINDOW", "color": "red", "correct_response": "r", "trial_id": "stroop-trial-1-unrelated-9", "trial_type": "html-keyboard-response", "trial_index": 206, "time_elapsed": 391318, "internal_node_id": "0.0-8.0-20.0"}}, {"uniqueid": "w38890178:a65891896", "current_trial": 207, "dateTime": 1664555446669, "trialdata": {"rt": 503, "stimulus": "<p id='stroop-text' class='stroop-red'>CHAIR</p>", "response": "r", "stimulus-type": "unrelated", "word": "CHAIR", "color": "red", "correct_response": "r", "trial_id": "stroop-trial-1-unrelated-12", "trial_type": "html-keyboard-response", "trial_index": 207, "time_elapsed": 392326, "internal_node_id": "0.0-8.0-21.0"}}, {"uniqueid": "w38890178:a65891896", "current_trial": 208, "dateTime": 1664555447909, "trialdata": {"rt": 736, "stimulus": "<p id='stroop-text' class='stroop-blue'>GREEN</p>", "response": "b", "stimulus-type": "incongruent", "word": "green", "color": "blue", "correct_response": "b", "trial_id": "stroop-trial-1-incongruent-30", "trial_type": "html-keyboard-response", "trial_index": 208, "time_elapsed": 393566, "internal_node_id": "0.0-8.0-22.0"}}, {"uniqueid": "w38890178:a65891896", "current_trial": 209, "dateTime": 1664555449101, "trialdata": {"rt": 687, "stimulus": "<p id='stroop-text' class='stroop-yellow'>GREEN</p>", "response": "y", "stimulus-type": "incongruent", "word": "green", "color": "yellow", "correct_response": "y", "trial_id": "stroop-trial-1-incongruent-22", "trial_type": "html-keyboard-response", "trial_index": 209, "time_elapsed": 394758, "internal_node_id": "0.0-8.0-23.0"}}, {"uniqueid": "w38890178:a65891896", "current_trial": 210, "dateTime": 1664555450205, "trialdata": {"rt": 599, "stimulus": "<p id='stroop-text' class='stroop-blue'>BLUE</p>", "response": "b", "stimulus-type": "congruent", "word": "blue", "color": "blue", "correct_response": "b", "trial_id": "stroop-trial-1-congruent-1", "trial_type": "html-keyboard-response", "trial_index": 210, "time_elapsed": 395862, "internal_node_id": "0.0-8.0-24.0"}}, {"uniqueid": "w38890178:a65891896", "current_trial": 211, "dateTime": 1664555451549, "trialdata": {"rt": 839, "stimulus": "<p id='stroop-text' class='stroop-yellow'>RED</p>", "response": "y", "stimulus-type": "incongruent", "word": "red", "color": "yellow", "correct_response": "y", "trial_id": "stroop-trial-1-incongruent-17", "trial_type": "html-keyboard-response", "trial_index": 211, "time_elapsed": 397206, "internal_node_id": "0.0-8.0-25.0"}}, {"uniqueid": "w38890178:a65891896", "current_trial": 212, "dateTime": 1664555452613, "trialdata": {"rt": 558, "stimulus": "<p id='stroop-text' class='stroop-yellow'>SHIP</p>", "response": "y", "stimulus-type": "unrelated", "word": "SHIP", "color": "yellow", "correct_response": "y", "trial_id": "stroop-trial-1-unrelated-11", "trial_type": "html-keyboard-response", "trial_index": 212, "time_elapsed": 398270, "internal_node_id": "0.0-8.0-26.0"}}, {"uniqueid": "w38890178:a65891896", "current_trial": 213, "dateTime": 1664555453589, "trialdata": {"rt": 472, "stimulus": "<p id='stroop-text' class='stroop-yellow'>BLUE</p>", "response": "y", "stimulus-type": "incongruent", "word": "blue", "color": "yellow", "correct_response": "y", "trial_id": "stroop-trial-1-incongruent-16", "trial_type": "html-keyboard-response", "trial_index": 213, "time_elapsed": 399247, "internal_node_id": "0.0-8.0-27.0"}}, {"uniqueid": "w38890178:a65891896", "current_trial": 214, "dateTime": 1664555456085, "trialdata": {"rt": 1991, "stimulus": "<p id='stroop-text' class='stroop-blue'>CHAIR</p>", "response": "b", "stimulus-type": "unrelated", "word": "CHAIR", "color": "blue", "correct_response": "b", "trial_id": "stroop-trial-1-unrelated-13", "trial_type": "html-keyboard-response", "trial_index": 214, "time_elapsed": 401742, "internal_node_id": "0.0-8.0-28.0"}}, {"uniqueid": "w38890178:a65891896", "current_trial": 215, "dateTime": 1664555457100, "trialdata": {"rt": 511, "stimulus": "<p id='stroop-text' class='stroop-red'>RED</p>", "response": "r", "stimulus-type": "congruent", "word": "red", "color": "red", "correct_response": "r", "trial_id": "stroop-trial-1-congruent-2", "trial_type": "html-keyboard-response", "trial_index": 215, "time_elapsed": 402758, "internal_node_id": "0.0-8.0-29.0"}}, {"uniqueid": "w38890178:a65891896", "current_trial": 216, "dateTime": 1664555458045, "trialdata": {"rt": 440, "stimulus": "<p id='stroop-text' class='stroop-red'>CHAIR</p>", "response": "r", "stimulus-type": "unrelated", "word": "CHAIR", "color": "red", "correct_response": "r", "trial_id": "stroop-trial-1-unrelated-1", "trial_type": "html-keyboard-response", "trial_index": 216, "time_elapsed": 403702, "internal_node_id": "0.0-8.0-30.0"}}, {"uniqueid": "w38890178:a65891896", "current_trial": 217, "dateTime": 1664555459644, "trialdata": {"rt": 1094, "stimulus": "<p id='stroop-text' class='stroop-blue'>BLUE</p>", "response": "b", "stimulus-type": "congruent", "word": "blue", "color": "blue", "correct_response": "b", "trial_id": "stroop-trial-1-congruent-27", "trial_type": "html-keyboard-response", "trial_index": 217, "time_elapsed": 405302, "internal_node_id": "0.0-8.0-31.0"}}, {"uniqueid": "w38890178:a65891896", "current_trial": 218, "dateTime": 1664555460669, "trialdata": {"rt": 520, "stimulus": "<p id='stroop-text' class='stroop-yellow'>YELLOW</p>", "response": "y", "stimulus-type": "congruent", "word": "yellow", "color": "yellow", "correct_response": "y", "trial_id": "stroop-trial-1-congruent-6", "trial_type": "html-keyboard-response", "trial_index": 218, "time_elapsed": 406326, "internal_node_id": "0.0-8.0-32.0"}}, {"uniqueid": "w38890178:a65891896", "current_trial": 219, "dateTime": 1664555462068, "trialdata": {"rt": 895, "stimulus": "<p id='stroop-text' class='stroop-blue'>BLUE</p>", "response": "b", "stimulus-type": "congruent", "word": "blue", "color": "blue", "correct_response": "b", "trial_id": "stroop-trial-1-congruent-9", "trial_type": "html-keyboard-response", "trial_index": 219, "time_elapsed": 407726, "internal_node_id": "0.0-8.0-33.0"}}, {"uniqueid": "w38890178:a65891896", "current_trial": 220, "dateTime": 1664555463205, "trialdata": {"rt": 632, "stimulus": "<p id='stroop-text' class='stroop-red'>RED</p>", "response": "r", "stimulus-type": "congruent", "word": "red", "color": "red", "correct_response": "r", "trial_id": "stroop-trial-1-congruent-4", "trial_type": "html-keyboard-response", "trial_index": 220, "time_elapsed": 408862, "internal_node_id": "0.0-8.0-34.0"}}, {"uniqueid": "w38890178:a65891896", "current_trial": 221, "dateTime": 1664555464493, "trialdata": {"rt": 782, "stimulus": "<p id='stroop-text' class='stroop-blue'>BLUE</p>", "response": "b", "stimulus-type": "congruent", "word": "blue", "color": "blue", "correct_response": "b", "trial_id": "stroop-trial-1-congruent-24", "trial_type": "html-keyboard-response", "trial_index": 221, "time_elapsed": 410150, "internal_node_id": "0.0-8.0-35.0"}}, {"uniqueid": "w38890178:a65891896", "current_trial": 222, "dateTime": 1664555466117, "trialdata": {"rt": 1119, "stimulus": "<p id='stroop-text' class='stroop-red'>GREEN</p>", "response": "r", "stimulus-type": "incongruent", "word": "green", "color": "red", "correct_response": "r", "trial_id": "stroop-trial-1-incongruent-23", "trial_t