{"condition": 0, "counterbalance": 0, "assignmentId": "a44117693", "workerId": "w15973615", "hitId": "h91795849", "currenttrial": 965, "bonus": 0, "data": [{"uniqueid": "w15973615:a44117693", "current_trial": 0, "dateTime": 1664554927675, "trialdata": {"success": true, "trial_type": "fullscreen", "trial_index": 0, "time_elapsed": 12254, "internal_node_id": "0.0-0.0"}}, {"uniqueid": "w15973615:a44117693", "current_trial": 1, "dateTime": 1664554948312, "trialdata": {"view_history": [{"page_index": 0, "viewing_time": 20625}], "rt": 20626, "trial_id": "exp_instructions_distractor", "trial_type": "instructions", "trial_index": 1, "time_elapsed": 32891, "internal_node_id": "0.0-1.0"}}, {"uniqueid": "w15973615:a44117693", "current_trial": 2, "dateTime": 1664554977217, "trialdata": {"view_history": [{"page_index": 0, "viewing_time": 28899}], "rt": 28899, "trial_id": "color_game_instructions", "trial_type": "instructions", "trial_index": 2, "time_elapsed": 61795, "internal_node_id": "0.0-2.0"}}, {"uniqueid": "w15973615:a44117693", "current_trial": 3, "dateTime": 1664554980071, "trialdata": {"rt": 2848, "stimulus": "<h1> Get ready to start the game! </h1>\n\nThank you for reading the instructions. Get ready start with the first of 5 block(s) of this game.\n<br><br>\nIn this first block, you will complete 90 rounds of this game before moving on.\n<br><br>\nRemember, the better you perform, the bigger your bonus will be!\n<br><br>\n<div style='text-align: center;'>Press <code>space</code> to begin.</div>", "response": " ", "trial_id": "stroop_1_ready_1", "trial_type": "html-keyboard-response", "trial_index": 3, "time_elapsed": 64650, "internal_node_id": "0.0-3.0"}}, {"uniqueid": "w15973615:a44117693", "current_trial": 4, "dateTime": 1664554981208, "trialdata": {"rt": 1128, "stimulus": "<p id='stroop-text' class='stroop-green'>BOAT</p>", "response": "g", "stimulus-type": "unrelated", "word": "BOAT", "color": "green", "correct_response": "g", "trial_id": "stroop-trial-1-unrelated-2", "trial_type": "html-keyboard-response", "trial_index": 4, "time_elapsed": 65786, "internal_node_id": "0.0-4.0-0.0"}}, {"uniqueid": "w15973615:a44117693", "current_trial": 5, "dateTime": 1664554982815, "trialdata": {"rt": 1099, "stimulus": "<p id='stroop-text' class='stroop-blue'>YELLOW</p>", "response": "b", "stimulus-type": "incongruent", "word": "yellow", "color": "blue", "correct_response": "b", "trial_id": "stroop-trial-1-incongruent-20", "trial_type": "html-keyboard-response", "trial_index": 5, "time_elapsed": 67393, "internal_node_id": "0.0-4.0-1.0"}}, {"uniqueid": "w15973615:a44117693", "current_trial": 6, "dateTime": 1664554984009, "trialdata": {"rt": 685, "stimulus": "<p id='stroop-text' class='stroop-red'>SHIP</p>", "response": "r", "stimulus-type": "unrelated", "word": "SHIP", "color": "red", "correct_response": "r", "trial_id": "stroop-trial-1-unrelated-27", "trial_type": "html-keyboard-response", "trial_index": 6, "time_elapsed": 68587, "internal_node_id": "0.0-4.0-2.0"}}, {"uniqueid": "w15973615:a44117693", "current_trial": 7, "dateTime": 1664554985527, "trialdata": {"rt": 1013, "stimulus": "<p id='stroop-text' class='stroop-red'>BLUE</p>", "response": "r", "stimulus-type": "incongruent", "word": "blue", "color": "red", "correct_response": "r", "trial_id": "stroop-trial-1-incongruent-6", "trial_type": "html-keyboard-response", "trial_index": 7, "time_elapsed": 70105, "internal_node_id": "0.0-4.0-3.0"}}, {"uniqueid": "w15973615:a44117693", "current_trial": 8, "dateTime": 1664554986927, "trialdata": {"rt": 894, "stimulus": "<p id='stroop-text' class='stroop-green'>DOG</p>", "response": "g", "stimulus-type": "unrelated", "word": "DOG", "color": "green", "correct_response": "g", "trial_id": "stroop-trial-1-unrelated-11", "trial_type": "html-keyboard-response", "trial_index": 8, "time_elapsed": 71505, "internal_node_id": "0.0-4.0-4.0"}}, {"uniqueid": "w15973615:a44117693", "current_trial": 9, "dateTime": 1664554988180, "trialdata": {"rt": 749, "stimulus": "<p id='stroop-text' class='stroop-yellow'>RED</p>", "response": "y", "stimulus-type": "incongruent", "word": "red", "color": "yellow", "correct_response": "y", "trial_id": "stroop-trial-1-incongruent-4", "trial_type": "html-keyboard-response", "trial_index": 9, "time_elapsed": 72758, "internal_node_id": "0.0-4.0-5.0"}}, {"uniqueid": "w15973615:a44117693", "current_trial": 10, "dateTime": 1664554989448, "trialdata": {"rt": 761, "stimulus": "<p id='stroop-text' class='stroop-red'>SHIP</p>", "response": "r", "stimulus-type": "unrelated", "word": "SHIP", "color": "red", "correct_response": "r", "trial_id": "stroop-trial-1-unrelated-20", "trial_type": "html-keyboard-response", "trial_index": 10, "time_elapsed": 74026, "internal_node_id": "0.0-4.0-6.0"}}, {"uniqueid": "w15973615:a44117693", "current_trial": 11, "dateTime": 1664554990720, "trialdata": {"rt": 762, "stimulus": "<p id='stroop-text' class='stroop-yellow'>STONE</p>", "response": "y", "stimulus-type": "unrelated", "word": "STONE", "color": "yellow", "correct_response": "y", "trial_id": "stroop-trial-1-unrelated-24", "trial_type": "html-keyboard-response", "trial_index": 11, "time_elapsed": 75299, "internal_node_id": "0.0-4.0-7.0"}}, {"uniqueid": "w15973615:a44117693", "current_trial": 12, "dateTime": 1664554992336, "trialdata": {"rt": 1113, "stimulus": "<p id='stroop-text' class='stroop-red'>MONKEY</p>", "response": "r", "stimulus-type": "unrelated", "word": "MONKEY", "color": "red", "correct_response": "r", "trial_id": "stroop-trial-1-unrelated-6", "trial_type": "html-keyboard-response", "trial_index": 12, "time_elapsed": 76914, "internal_node_id": "0.0-4.0-8.0"}}, {"uniqueid": "w15973615:a44117693", "current_trial": 13, "dateTime": 1664554993455, "trialdata": {"rt": 614, "stimulus": "<p id='stroop-text' class='stroop-red'>FORK</p>", "response": "r", "stimulus-type": "unrelated", "word": "FORK", "color": "red", "correct_response": "r", "trial_id": "stroop-trial-1-unrelated-3", "trial_type": "html-keyboard-response", "trial_index": 13, "time_elapsed": 78034, "internal_node_id": "0.0-4.0-9.0"}}, {"uniqueid": "w15973615:a44117693", "current_trial": 14, "dateTime": 1664554994872, "trialdata": {"rt": 909, "stimulus": "<p id='stroop-text' class='stroop-green'>RED</p>", "response": "g", "stimulus-type": "incongruent", "word": "red", "color": "green", "correct_response": "g", "trial_id": "stroop-trial-1-incongruent-29", "trial_type": "html-keyboard-response", "trial_index": 14, "time_elapsed": 79451, "internal_node_id": "0.0-4.0-10.0"}}, {"uniqueid": "w15973615:a44117693", "current_trial": 15, "dateTime": 1664554996115, "trialdata": {"rt": 734, "stimulus": "<p id='stroop-text' class='stroop-yellow'>SHIP</p>", "response": "y", "stimulus-type": "unrelated", "word": "SHIP", "color": "yellow", "correct_response": "y", "trial_id": "stroop-trial-1-unrelated-14", "trial_type": "html-keyboard-response", "trial_index": 15, "time_elapsed": 80693, "internal_node_id": "0.0-4.0-11.0"}}, {"uniqueid": "w15973615:a44117693", "current_trial": 16, "dateTime": 1664554997361, "trialdata": {"rt": 738, "stimulus": "<p id='stroop-text' class='stroop-yellow'>YELLOW</p>", "response": "y", "stimulus-type": "congruent", "word": "yellow", "color": "yellow", "correct_response": "y", "trial_id": "stroop-trial-1-congruent-18", "trial_type": "html-keyboard-response", "trial_index": 16, "time_elapsed": 81939, "internal_node_id": "0.0-4.0-12.0"}}, {"uniqueid": "w15973615:a44117693", "current_trial": 17, "dateTime": 1664554998608, "trialdata": {"rt": 745, "stimulus": "<p id='stroop-text' class='stroop-red'>BOTTLE</p>", "response": "r", "stimulus-type": "unrelated", "word": "BOTTLE", "color": "red", "correct_response": "r", "trial_id": "stroop-trial-1-unrelated-28", "trial_type": "html-keyboard-response", "trial_index": 17, "time_elapsed": 83187, "internal_node_id": "0.0-4.0-13.0"}}, {"uniqueid": "w15973615:a44117693", "current_trial": 18, "dateTime": 1664555000193, "trialdata": {"rt": 1076, "stimulus": "<p id='stroop-text' class='stroop-green'>GREEN</p>", "response": "g", "stimulus-type": "congruent", "word": "green", "color": "green", "correct_response": "g", "trial_id": "stroop-trial-1-congruent-1", "trial_type": "html-keyboard-response", "trial_index": 18, "time_elapsed": 84772, "internal_node_id": "0.0-4.0-14.0"}}, {"uniqueid": "w15973615:a44117693", "current_trial": 19, "dateTime": 1664555001540, "trialdata": {"rt": 843, "stimulus": "<p id='stroop-text' class='stroop-green'>BLUE</p>", "response": "g", "stimulus-type": "incongruent", "word": "blue", "color": "green", "correct_response": "g", "trial_id": "stroop-trial-1-incongruent-25", "trial_type": "html-keyboard-response", "trial_index": 19, "time_elapsed": 86119, "internal_node_id": "0.0-4.0-15.0"}}, {"uniqueid": "w15973615:a44117693", "current_trial": 20, "dateTime": 1664555002655, "trialdata": {"rt": 611, "stimulus": "<p id='stroop-text' class='stroop-blue'>GREEN</p>", "response": "b", "stimulus-type": "incongruent", "word": "green", "color": "blue", "correct_response": "b", "trial_id": "stroop-trial-1-incongruent-30", "trial_type": "html-keyboard-response", "trial_index": 20, "time_elapsed": 87233, "internal_node_id": "0.0-4.0-16.0"}}, {"uniqueid": "w15973615:a44117693", "current_trial": 21, "dateTime": 1664555003890, "trialdata": {"rt": 731, "stimulus": "<p id='stroop-text' class='stroop-red'>WINDOW</p>", "response": "r", "stimulus-type": "unrelated", "word": "WINDOW", "color": "red", "correct_response": "r", "trial_id": "stroop-trial-1-unrelated-15", "trial_type": "html-keyboard-response", "trial_index": 21, "time_elapsed": 88468, "internal_node_id": "0.0-4.0-17.0"}}, {"uniqueid": "w15973615:a44117693", "current_trial": 22, "dateTime": 1664555005368, "trialdata": {"rt": 973, "stimulus": "<p id='stroop-text' class='stroop-blue'>BLUE</p>", "response": "b", "stimulus-type": "congruent", "word": "blue", "color": "blue", "correct_response": "b", "trial_id": "stroop-trial-1-congruent-5", "trial_type": "html-keyboard-response", "trial_index": 22, "time_elapsed": 89947, "internal_node_id": "0.0-4.0-18.0"}}, {"uniqueid": "w15973615:a44117693", "current_trial": 23, "dateTime": 1664555006640, "trialdata": {"rt": 768, "stimulus": "<p id='stroop-text' class='stroop-blue'>RED</p>", "response": "b", "stimulus-type": "incongruent", "word": "red", "color": "blue", "correct_response": "b", "trial_id": "stroop-trial-1-incongruent-2", "trial_type": "html-keyboard-response", "trial_index": 23, "time_elapsed": 91219, "internal_node_id": "0.0-4.0-19.0"}}, {"uniqueid": "w15973615:a44117693", "current_trial": 24, "dateTime": 1664555007767, "trialdata": {"rt": 619, "stimulus": "<p id='stroop-text' class='stroop-red'>RED</p>", "response": "r", "stimulus-type": "congruent", "word": "red", "color": "red", "correct_response": "r", "trial_id": "stroop-trial-1-congruent-9", "trial_type": "html-keyboard-response", "trial_index": 24, "time_elapsed": 92345, "internal_node_id": "0.0-4.0-20.0"}}, {"uniqueid": "w15973615:a44117693", "current_trial": 25, "dateTime": 1664555008927, "trialdata": {"rt": 652, "stimulus": "<p id='stroop-text' class='stroop-yellow'>YELLOW</p>", "response": "y", "stimulus-type": "congruent", "word": "yellow", "color": "yellow", "correct_response": "y", "trial_id": "stroop-trial-1-congruent-13", "trial_type": "html-keyboard-response", "trial_index": 25, "time_elapsed": 93505, "internal_node_id": "0.0-4.0-21.0"}}, {"uniqueid": "w15973615:a44117693", "current_trial": 26, "dateTime": 1664555010213, "trialdata": {"rt": 778, "stimulus": "<p id='stroop-text' class='stroop-yellow'>DOG</p>", "response": "y", "stimulus-type": "unrelated", "word": "DOG", "color": "yellow", "correct_response": "y", "trial_id": "stroop-trial-1-unrelated-5", "trial_type": "html-keyboard-response", "trial_index": 26, "time_elapsed": 94792, "internal_node_id": "0.0-4.0-22.0"}}, {"uniqueid": "w15973615:a44117693", "current_trial": 27, "dateTime": 1664555011572, "trialdata": {"rt": 856, "stimulus": "<p id='stroop-text' class='stroop-green'>YELLOW</p>", "response": "g", "stimulus-type": "incongruent", "word": "yellow", "color": "green", "correct_response": "g", "trial_id": "stroop-trial-1-incongruent-19", "trial_type": "html-keyboard-response", "trial_index": 27, "time_elapsed": 96151, "internal_node_id": "0.0-4.0-23.0"}}, {"uniqueid": "w15973615:a44117693", "current_trial": 28, "dateTime": 1664555012698, "trialdata": {"rt": 621, "stimulus": "<p id='stroop-text' class='stroop-green'>GREEN</p>", "response": "g", "stimulus-type": "congruent", "word": "green", "color": "green", "correct_response": "g", "trial_id": "stroop-trial-1-congruent-8", "trial_type": "html-keyboard-response", "trial_index": 28, "time_elapsed": 97277, "internal_node_id": "0.0-4.0-24.0"}}, {"uniqueid": "w15973615:a44117693", "current_trial": 29, "dateTime": 1664555013899, "trialdata": {"rt": 698, "stimulus": "<p id='stroop-text' class='stroop-blue'>FORK</p>", "response": "b", "stimulus-type": "unrelated", "word": "FORK", "color": "blue", "correct_response": "b", "trial_id": "stroop-trial-1-unrelated-10", "trial_type": "html-keyboard-response", "trial_index": 29, "time_elapsed": 98477, "internal_node_id": "0.0-4.0-25.0"}}, {"uniqueid": "w15973615:a44117693", "current_trial": 30, "dateTime": 1664555015104, "trialdata": {"rt": 697, "stimulus": "<p id='stroop-text' class='stroop-yellow'>YELLOW</p>", "response": "y", "stimulus-type": "congruent", "word": "yellow", "color": "yellow", "correct_response": "y", "trial_id": "stroop-trial-1-congruent-17", "trial_type": "html-keyboard-response", "trial_index": 30, "time_elapsed": 99682, "internal_node_id": "0.0-4.0-26.0"}}, {"uniqueid": "w15973615:a44117693", "current_trial": 31, "dateTime": 1664555016337, "trialdata": {"rt": 730, "stimulus": "<p id='stroop-text' class='stroop-blue'>YELLOW</p>", "response": "b", "stimulus-type": "incongruent", "word": "yellow", "color": "blue", "correct_response": "b", "trial_id": "stroop-trial-1-incongruent-12", "trial_type": "html-keyboard-response", "trial_index": 31, "time_elapsed": 100916, "internal_node_id": "0.0-4.0-27.0"}}, {"uniqueid": "w15973615:a44117693", "current_trial": 32, "dateTime": 1664555017470, "trialdata": {"rt": 626, "stimulus": "<p id='stroop-text' class='stroop-blue'>CHAIR</p>", "response": "b", "stimulus-type": "unrelated", "word": "CHAIR", "color": "blue", "correct_response": "b", "trial_id": "stroop-trial-1-unrelated-8", "trial_type": "html-keyboard-response", "trial_index": 32, "time_elapsed": 102048, "internal_node_id": "0.0-4.0-28.0"}}, {"uniqueid": "w15973615:a44117693", "current_trial": 33, "dateTime": 1664555018579, "trialdata": {"rt": 605, "stimulus": "<p id='stroop-text' class='stroop-red'>BLUE</p>", "response": "r", "stimulus-type": "incongruent", "word": "blue", "color": "red", "correct_response": "r", "trial_id": "stroop-trial-1-incongruent-27", "trial_type": "html-keyboard-response", "trial_index": 33, "time_elapsed": 103157, "internal_node_id": "0.0-4.0-29.0"}}, {"uniqueid": "w15973615:a44117693", "current_trial": 34, "dateTime": 1664555019726, "trialdata": {"rt": 640, "stimulus": "<p id='stroop-text' class='stroop-yellow'>YELLOW</p>", "response": "y", "stimulus-type": "congruent", "word": "yellow", "color": "yellow", "correct_response": "y", "trial_id": "stroop-trial-1-congruent-7", "trial_type": "html-keyboard-response", "trial_index": 34, "time_elapsed": 104304, "internal_node_id": "0.0-4.0-30.0"}}, {"uniqueid": "w15973615:a44117693", "current_trial": 35, "dateTime": 1664555020923, "trialdata": {"rt": 688, "stimulus": "<p id='stroop-text' class='stroop-red'>WINDOW</p>", "response": "r", "stimulus-type": "unrelated", "word": "WINDOW", "color": "red", "correct_response": "r", "trial_id": "stroop-trial-1-unrelated-17", "trial_type": "html-keyboard-response", "trial_index": 35, "time_elapsed": 105501, "internal_node_id": "0.0-4.0-31.0"}}, {"uniqueid": "w15973615:a44117693", "current_trial": 36, "dateTime": 1664555022121, "trialdata": {"rt": 691, "stimulus": "<p id='stroop-text' class='stroop-yellow'>FORK</p>", "response": "y", "stimulus-type": "unrelated", "word": "FORK", "color": "yellow", "correct_response": "y", "trial_id": "stroop-trial-1-unrelated-22", "trial_type": "html-keyboard-response", "trial_index": 36, "time_elapsed": 106699, "internal_node_id": "0.0-4.0-32.0"}}, {"uniqueid": "w15973615:a44117693", "current_trial": 37, "dateTime": 1664555023201, "trialdata": {"rt": 576, "stimulus": "<p id='stroop-text' class='stroop-red'>GREEN</p>", "response": "r", "stimulus-type": "incongruent", "word": "green", "color": "red", "correct_response": "r", "trial_id": "stroop-trial-1-incongruent-8", "trial_type": "html-keyboard-response", "trial_index": 37, "time_elapsed": 107779, "internal_node_id": "0.0-4.0-33.0"}}, {"uniqueid": "w15973615:a44117693", "current_trial": 38, "dateTime": 1664555024466, "trialdata": {"rt": 760, "stimulus": "<p id='stroop-text' class='stroop-blue'>DOG</p>", "response": "b", "stimulus-type": "unrelated", "word": "DOG", "color": "blue", "correct_response": "b", "trial_id": "stroop-trial-1-unrelated-16", "trial_type": "html-keyboard-response", "trial_index": 38, "time_elapsed": 109044, "internal_node_id": "0.0-4.0-34.0"}}, {"uniqueid": "w15973615:a44117693", "current_trial": 39, "dateTime": 1664555026063, "trialdata": {"rt": 1092, "stimulus": "<p id='stroop-text' class='stroop-green'>RED</p>", "response": "g", "stimulus-type": "incongruent", "word": "red", "color": "green", "correct_response": "g", "trial_id": "stroop-trial-1-incongruent-1", "trial_type": "html-keyboard-response", "trial_index": 39, "time_elapsed": 110642, "internal_node_id": "0.0-4.0-35.0"}}, {"uniqueid": "w15973615:a44117693", "current_trial": 40, "dateTime": 1664555027348, "trialdata": {"rt": 777, "stimulus": "<p id='stroop-text' class='stroop-blue'>BLUE</p>", "response": "b", "stimulus-type": "congruent", "word": "blue", "color": "blue", "correct_response": "b", "trial_id": "stroop-trial-1-congruent-21", "trial_type": "html-keyboard-response", "trial_index": 40, "time_elapsed": 111926, "internal_node_id": "0.0-4.0-36.0"}}, {"uniqueid": "w15973615:a44117693", "current_trial": 41, "dateTime": 1664555028688, "trialdata": {"rt": 837, "stimulus": "<p id='stroop-text' class='stroop-red'>RED</p>", "response": "r", "stimulus-type": "congruent", "word": "red", "color": "red", "correct_response": "r", "trial_id": "stroop-trial-1-congruent-24", "trial_type": "html-keyboard-response", "trial_index": 41, "time_elapsed": 113267, "internal_node_id": "0.0-4.0-37.0"}}, {"uniqueid": "w15973615:a44117693", "current_trial": 42, "dateTime": 1664555030102, "trialdata": {"rt": 907, "stimulus": "<p id='stroop-text' class='stroop-blue'>BLUE</p>", "response": "b", "stimulus-type": "congruent", "word": "blue", "color": "blue", "correct_response": "b", "trial_id": "stroop-trial-1-congruent-26", "trial_type": "html-keyboard-response", "trial_index": 42, "time_elapsed": 114681, "internal_node_id": "0.0-4.0-38.0"}}, {"uniqueid": "w15973615:a44117693", "current_trial": 43, "dateTime": 1664555031276, "trialdata": {"rt": 664, "stimulus": "<p id='stroop-text' class='stroop-green'>GREEN</p>", "response": "g", "stimulus-type": "congruent", "word": "green", "color": "green", "correct_response": "g", "trial_id": "stroop-trial-1-congruent-14", "trial_type": "html-keyboard-response", "trial_index": 43, "time_elapsed": 115854, "internal_node_id": "0.0-4.0-39.0"}}, {"uniqueid": "w15973615:a44117693", "current_trial": 44, "dateTime": 1664555032386, "trialdata": {"rt": 603, "stimulus": "<p id='stroop-text' class='stroop-red'>SHIP</p>", "response": "r", "stimulus-type": "unrelated", "word": "SHIP", "color": "red", "correct_response": "r", "trial_id": "stroop-trial-1-unrelated-19", "trial_type": "html-keyboard-response", "trial_index": 44, "time_elapsed": 116964, "internal_node_id": "0.0-4.0-40.0"}}, {"uniqueid": "w15973615:a44117693", "current_trial": 45, "dateTime": 1664555033668, "trialdata": {"rt": 776, "stimulus": "<p id='stroop-text' class='stroop-blue'>YELLOW</p>", "response": "b", "stimulus-type": "incongruent", "word": "yellow", "color": "blue", "correct_response": "b", "trial_id": "stroop-trial-1-incongruent-18", "trial_type": "html-keyboard-response", "trial_index": 45, "time_elapsed": 118247, "internal_node_id": "0.0-4.0-41.0"}}, {"uniqueid": "w15973615:a44117693", "current_trial": 46, "dateTime": 1664555034695, "trialdata": {"rt": 519, "stimulus": "<p id='stroop-text' class='stroop-blue'>MONKEY</p>", "response": "b", "stimulus-type": "unrelated", "word": "MONKEY", "color": "blue", "correct_response": "b", "trial_id": "stroop-trial-1-unrelated-21", "trial_type": "html-keyboard-response", "trial_index": 46, "time_elapsed": 119273, "internal_node_id": "0.0-4.0-42.0"}}, {"uniqueid": "w15973615:a44117693", "current_trial": 47, "dateTime": 1664555035713, "trialdata": {"rt": 512, "stimulus": "<p id='stroop-text' class='stroop-blue'>BRAIN</p>", "response": "b", "stimulus-type": "unrelated", "word": "BRAIN", "color": "blue", "correct_response": "b", "trial_id": "stroop-trial-1-unrelated-7", "trial_type": "html-keyboard-response", "trial_index": 47, "time_elapsed": 120292, "internal_node_id": "0.0-4.0-43.0"}}, {"uniqueid": "w15973615:a44117693", "current_trial": 48, "dateTime": 1664555036831, "trialdata": {"rt": 609, "stimulus": "<p id='stroop-text' class='stroop-yellow'>BOAT</p>", "response": "y", "stimulus-type": "unrelated", "word": "BOAT", "color": "yellow", "correct_response": "y", "trial_id": "stroop-trial-1-unrelated-1", "trial_type": "html-keyboard-response", "trial_index": 48, "time_elapsed": 121409, "internal_node_id": "0.0-4.0-44.0"}}, {"uniqueid": "w15973615:a44117693", "current_trial": 49, "dateTime": 1664555037826, "trialdata": {"rt": 488, "stimulus": "<p id='stroop-text' class='stroop-blue'>BLUE</p>", "response": "b", "stimulus-type": "congruent", "word": "blue", "color": "blue", "correct_response": "b", "trial_id": "stroop-trial-1-congruent-10", "trial_type": "html-keyboard-response", "trial_index": 49, "time_elapsed": 122405, "internal_node_id": "0.0-4.0-45.0"}}, {"uniqueid": "w15973615:a44117693", "current_trial": 50, "dateTime": 1664555038873, "trialdata": {"rt": 544, "stimulus": "<p id='stroop-text' class='stroop-yellow'>BLUE</p>", "response": "y", "stimulus-type": "incongruent", "word": "blue", "color": "yellow", "correct_response": "y", "trial_id": "stroop-trial-1-incongruent-24", "trial_type": "html-keyboard-response", "trial_index": 50, "time_elapsed": 123452, "internal_node_id": "0.0-4.0-46.0"}}, {"uniqueid": "w15973615:a44117693", "current_trial": 51, "dateTime": 1664555040035, "trialdata": {"rt": 655, "stimulus": "<p id='stroop-text' class='stroop-yellow'>YELLOW</p>", "response": "y", "stimulus-type": "congruent", "word": "yellow", "color": "yellow", "correct_response": "y", "trial_id": "stroop-trial-1-congruent-19", "trial_type": "html-keyboard-response", "trial_index": 51, "time_elapsed": 124614, "internal_node_id": "0.0-4.0-47.0"}}, {"uniqueid": "w15973615:a44117693", "current_trial": 52, "dateTime": 1664555041212, "trialdata": {"rt": 669, "stimulus": "<p id='stroop-text' class='stroop-yellow'>BLUE</p>", "response": "y", "stimulus-type": "incongruent", "word": "blue", "color": "yellow", "correct_response": "y", "trial_id": "stroop-trial-1-incongruent-21", "trial_type": "html-keyboard-response", "trial_index": 52, "time_elapsed": 125790, "internal_node_id": "0.0-4.0-48.0"}}, {"uniqueid": "w15973615:a44117693", "current_trial": 53, "dateTime": 1664555042321, "trialdata": {"rt": 600, "stimulus": "<p id='stroop-text' class='stroop-green'>CHAIR</p>", "response": "g", "stimulus-type": "unrelated", "word": "CHAIR", "color": "green", "correct_response": "g", "trial_id": "stroop-trial-1-unrelated-25", "trial_type": "html-keyboard-response", "trial_index": 53, "time_elapsed": 126899, "internal_node_id": "0.0-4.0-49.0"}}, {"uniqueid": "w15973615:a44117693", "current_trial": 54, "dateTime": 1664555043404, "trialdata": {"rt": 575, "stimulus": "<p id='stroop-text' class='stroop-yellow'>GREEN</p>", "response": "b", "stimulus-type": "incongruent", "word": "green", "color": "yellow", "correct_response": "y", "trial_id": "stroop-trial-1-incongruent-11", "trial_type": "html-keyboard-response", "trial_index": 54, "time_elapsed": 127982, "internal_node_id": "0.0-4.0-50.0"}}, {"uniqueid": "w15973615:a44117693", "current_trial": 55, "dateTime": 1664555044696, "trialdata": {"rt": 787, "stimulus": "<p id='stroop-text' class='stroop-blue'>DOG</p>", "response": "b", "stimulus-type": "unrelated", "word": "DOG", "color": "blue", "correct_response": "b", "trial_id": "stroop-trial-1-unrelated-18", "trial_type": "html-keyboard-response", "trial_index": 55, "time_elapsed": 129275, "internal_node_id": "0.0-4.0-51.0"}}, {"uniqueid": "w15973615:a44117693", "current_trial": 56, "dateTime": 1664555045844, "trialdata": {"rt": 640, "stimulus": "<p id='stroop-text' class='stroop-red'>RED</p>", "response": "r", "stimulus-type": "congruent", "word": "red", "color": "red", "correct_response": "r", "trial_id": "stroop-trial-1-congruent-11", "trial_type": "html-keyboard-response", "trial_index": 56, "time_elapsed": 130422, "internal_node_id": "0.0-4.0-52.0"}}, {"uniqueid": "w15973615:a44117693", "current_trial": 57, "dateTime": 1664555047196, "trialdata": {"rt": 848, "stimulus": "<p id='stroop-text' class='stroop-yellow'>GREEN</p>", "response": "y", "stimulus-type": "incongruent", "word": "green", "color": "yellow", "correct_response": "y", "trial_id": "stroop-trial-1-incongruent-10", "trial_type": "html-keyboard-response", "trial_index": 57, "time_elapsed": 131774, "internal_node_id": "0.0-4.0-53.0"}}, {"uniqueid": "w15973615:a44117693", "current_trial": 58, "dateTime": 1664555048275, "trialdata": {"rt": 572, "stimulus": "<p id='stroop-text' class='stroop-yellow'>GREEN</p>", "response": "y", "stimulus-type": "incongruent", "word": "green", "color": "yellow", "correct_response": "y", "trial_id": "stroop-trial-1-incongruent-13", "trial_type": "html-keyboard-response", "trial_index": 58, "time_elapsed": 132853, "internal_node_id": "0.0-4.0-54.0"}}, {"uniqueid": "w15973615:a44117693", "current_trial": 59, "dateTime": 1664555049465, "trialdata": {"rt": 681, "stimulus": "<p id='stroop-text' class='stroop-red'>BLUE</p>", "response": "r", "stimulus-type": "incongruent", "word": "blue", "color": "red", "correct_response": "r", "trial_id": "stroop-trial-1-incongruent-15", "trial_type": "html-keyboard-response", "trial_index": 59, "time_elapsed": 134043, "internal_node_id": "0.0-4.0-55.0"}}, {"uniqueid": "w15973615:a44117693", "current_trial": 60, "dateTime": 1664555050586, "trialdata": {"rt": 617, "stimulus": "<p id='stroop-text' class='stroop-yellow'>WINDOW</p>", "response": "y", "stimulus-type": "unrelated", "word": "WINDOW", "color": "yellow", "correct_response": "y", "trial_id": "stroop-trial-1-unrelated-23", "trial_type": "html-keyboard-response", "trial_index": 60, "time_elapsed": 135164, "internal_node_id": "0.0-4.0-56.0"}}, {"uniqueid": "w15973615:a44117693", "current_trial": 61, "dateTime": 1664555051771, "trialdata": {"rt": 677, "stimulus": "<p id='stroop-text' class='stroop-blue'>DOG</p>", "response": "b", "stimulus-type": "unrelated", "word": "DOG", "color": "blue", "correct_response": "b", "trial_id": "stroop-trial-1-unrelated-12", "trial_type": "html-keyboard-response", "trial_index": 61, "time_elapsed": 136350, "internal_node_id": "0.0-4.0-57.0"}}, {"uniqueid": "w15973615:a44117693", "current_trial": 62, "dateTime": 1664555052968, "trialdata": {"rt": 688, "stimulus": "<p id='stroop-text' class='stroop-yellow'>RED</p>", "response": "r", "stimulus-type": "incongruent", "word": "red", "color": "yellow", "correct_response": "y", "trial_id": "stroop-trial-1-incongruent-23", "trial_type": "html-keyboard-response", "trial_index": 62, "time_elapsed": 137546, "internal_node_id": "0.0-4.0-58.0"}}, {"uniqueid": "w15973615:a44117693", "current_trial": 63, "dateTime": 1664555054259, "trialdata": {"rt": 783, "stimulus": "<p id='stroop-text' class='stroop-green'>GREEN</p>", "response": "g", "stimulus-type": "congruent", "word": "green", "color": "green", "correct_response": "g", "trial_id": "stroop-trial-1-congruent-28", "trial_type": "html-keyboard-response", "trial_index": 63, "time_elapsed": 138838, "internal_node_id": "0.0-4.0-59.0"}}, {"uniqueid": "w15973615:a44117693", "current_trial": 64, "dateTime": 1664555055582, "trialdata": {"rt": 817, "stimulus": "<p id='stroop-text' class='stroop-blue'>RED</p>", "response": "b", "stimulus-type": "incongruent", "word": "red", "color": "blue", "correct_response": "b", "trial_id": "stroop-trial-1-incongruent-14", "trial_type": "html-keyboard-response", "trial_index": 64, "time_elapsed": 140161, "internal_node_id": "0.0-4.0-60.0"}}, {"uniqueid": "w15973615:a44117693", "current_trial": 65, "dateTime": 1664555056638, "trialdata": {"rt": 552, "stimulus": "<p id='stroop-text' class='stroop-blue'>YELLOW</p>", "response": "b", "stimulus-type": "incongruent", "word": "yellow", "color": "blue", "correct_response": "b", "trial_id": "stroop-trial-1-incongruent-9", "trial_type": "html-keyboard-response", "trial_index": 65, "time_elapsed": 141216, "internal_node_id": "0.0-4.0-61.0"}}, {"uniqueid": "w15973615:a44117693", "current_trial": 66, "dateTime": 1664555057842, "trialdata": {"rt": 697, "stimulus": "<p id='stroop-text' class='stroop-green'>BLUE</p>", "response": "g", "stimulus-type": "incongruent", "word": "blue", "color": "green", "correct_response": "g", "trial_id": "stroop-trial-1-incongruent-7", "trial_type": "html-keyboard-response", "trial_index": 66, "time_elapsed": 142420, "internal_node_id": "0.0-4.0-62.0"}}, {"uniqueid": "w15973615:a44117693", "current_trial": 67, "dateTime": 1664555058929, "trialdata": {"rt": 583, "stimulus": "<p id='stroop-text' class='stroop-green'>GREEN</p>", "response": "g", "stimulus-type": "congruent", "word": "green", "color": "green", "correct_response": "g", "trial_id": "stroop-trial-1-congruent-12", "trial_type": "html-keyboard-response", "trial_index": 67, "time_elapsed": 143507, "internal_node_id": "0.0-4.0-63.0"}}, {"uniqueid": "w15973615:a44117693", "current_trial": 68, "dateTime": 1664555060006, "trialdata": {"rt": 569, "stimulus": "<p id='stroop-text' class='stroop-yellow'>RED</p>", "response": "y", "stimulus-type": "incongruent", "word": "red", "color": "yellow", "correct_response": "y", "trial_id": "stroop-trial-1-incongruent-28", "trial_type": "html-keyboard-response", "trial_index": 68, "time_elapsed": 144585, "internal_node_id": "0.0-4.0-64.0"}}, {"uniqueid": "w15973615:a44117693", "current_trial": 69, "dateTime": 1664555060938, "trialdata": {"rt": 426, "stimulus": "<p id='stroop-text' class='stroop-red'>YELLOW</p>", "response": "r", "stimulus-type": "incongruent", "word": "yellow", "color": "red", "correct_response": "r", "trial_id": "stroop-trial-1-incongruent-3", "trial_type": "html-keyboard-response", "trial_index": 69, "time_elapsed": 145516, "internal_node_id": "0.0-4.0-65.0"}}, {"uniqueid": "w15973615:a44117693", "current_trial": 70, "dateTime": 1664555062462, "trialdata": {"rt": 1016, "stimulus": "<p id='stroop-text' class='stroop-blue'>GREEN</p>", "response": "b", "stimulus-type": "incongruent", "word": "green", "color": "blue", "correct_response": "b", "trial_id": "stroop-trial-1-incongruent-26", "trial_type": "html-keyboard-response", "trial_index": 70, "time_elapsed": 147040, "internal_node_id": "0.0-4.0-66.0"}}, {"uniqueid": "w15973615:a44117693", "current_trial": 71, "dateTime": 1664555063508, "trialdata": {"rt": 542, "stimulus": "<p id='stroop-text' class='stroop-green'>GREEN</p>", "response": "g", "stimulus-type": "congruent", "word": "green", "color": "green", "correct_response": "g", "trial_id": "stroop-trial-1-congruent-2", "trial_type": "html-keyboard-response", "trial_index": 71, "time_elapsed": 148086, "internal_node_id": "0.0-4.0-67.0"}}, {"uniqueid": "w15973615:a44117693", "current_trial": 72, "dateTime": 1664555064592, "trialdata": {"rt": 575, "stimulus": "<p id='stroop-text' class='stroop-yellow'>YELLOW</p>", "response": "y", "stimulus-type": "congruent", "word": "yellow", "color": "yellow", "correct_response": "y", "trial_id": "stroop-trial-1-congruent-15", "trial_type": "html-keyboard-response", "trial_index": 72, "time_elapsed": 149170, "internal_node_id": "0.0-4.0-68.0"}}, {"uniqueid": "w15973615:a44117693", "current_trial": 73, "dateTime": 1664555065649, "trialdata": {"rt": 551, "stimulus": "<p id='stroop-text' class='stroop-red'>RED</p>", "response": "r", "stimulus-type": "congruent", "word": "red", "color": "red", "correct_response": "r", "trial_id": "stroop-trial-1-congruent-20", "trial_type": "html-keyboard-response", "trial_index": 73, "time_elapsed": 150227, "internal_node_id": "0.0-4.0-69.0"}}, {"uniqueid": "w15973615:a44117693", "current_trial": 74, "dateTime": 1664555066987, "trialdata": {"rt": 833, "stimulus": "<p id='stroop-text' class='stroop-yellow'>RED</p>", "response": "y", "stimulus-type": "incongruent", "word": "red", "color": "yellow", "correct_response": "y", "trial_id": "stroop-trial-1-incongruent-17", "trial_type": "html-keyboard-response", "trial_index": 74, "time_elapsed": 151565, "internal_node_id": "0.0-4.0-70.0"}}, {"uniqueid": "w15973615:a44117693", "current_trial": 75, "dateTime": 1664555068009, "trialdata": {"rt": 513, "stimulus": "<p id='stroop-text' class='stroop-blue'>BLUE</p>", "response": "b", "stimulus-type": "congruent", "word": "blue", "color": "blue", "correct_response": "b", "trial_id": "stroop-trial-1-congruent-30", "trial_type": "html-keyboard-response", "trial_index": 75, "time_elapsed": 152588, "internal_node_id": "0.0-4.0-71.0"}}, {"uniqueid": "w15973615:a44117693", "current_trial": 76, "dateTime": 1664555068997, "trialdata": {"rt": 479, "stimulus": "<p id='stroop-text' class='stroop-blue'>BLUE</p>", "response": "b", "stimulus-type": "congruent", "word": "blue", "color": "blue", "correct_response": "b", "trial_id": "stroop-trial-1-congruent-29", "trial_type": "html-keyboard-response", "trial_index": 76, "time_elapsed": 153575, "internal_node_id": "0.0-4.0-72.0"}}, {"uniqueid": "w15973615:a44117693", "current_trial": 77, "dateTime": 1664555070136, "trialdata": {"rt": 631, "stimulus": "<p id='stroop-text' class='stroop-green'>BRIDGE</p>", "response": "g", "stimulus-type": "unrelated", "word": "BRIDGE", "color": "green", "correct_response": "g", "trial_id": "stroop-trial-1-unrelated-30", "trial_type": "html-keyboard-response", "trial_index": 77, "time_elapsed": 154715, "internal_node_id": "0.0-4.0-73.0"}}, {"uniqueid": "w15973615:a44117693", "current_trial": 78, "dateTime": 1664555071182, "trialdata": {"rt": 536, "stimulus": "<p id='stroop-text' class='stroop-green'>GREEN</p>", "response": "g", "stimulus-type": "congruent", "word": "green", "color": "green", "correct_response": "g", "trial_id": "stroop-trial-1-congruent-6", "trial_type": "html-keyboard-response", "trial_index": 78, "time_elapsed": 155759, "internal_node_id": "0.0-4.0-74.0"}}, {"uniqueid": "w15973615:a44117693", "current_trial": 79, "dateTime": 1664555072270, "trialdata": {"rt": 585, "stimulus": "<p id='stroop-text' class='stroop-green'>GREEN</p>", "response": "g", "stimulus-type": "congruent", "word": "green", "color": "green", "correct_response": "g", "trial_id": "stroop-trial-1-congruent-25", "trial_type": "html-keyboard-response", "trial_index": 79, "time_elapsed": 156849, "internal_node_id": "0.0-4.0-75.0"}}, {"uniqueid": "w15973615:a44117693", "current_trial": 80, "dateTime": 1664555073446, "trialdata": {"rt": 667, "stimulus": "<p id='stroop-text' class='stroop-red'>RED</p>", "response": "r", "stimulus-type": "congruent", "word": "red", "color": "red", "correct_response": "r", "trial_id": "stroop-trial-1-congruent-23", "trial_type": "html-keyboard-response", "trial_index": 80, "time_elapsed": 158025, "internal_node_id": "0.0-4.0-76.0"}}, {"uniqueid": "w15973615:a44117693", "current_trial": 81, "dateTime": 1664555074456, "trialdata": {"rt": 502, "stimulus": "<p id='stroop-text' class='stroop-red'>RED</p>", "response": "r", "stimulus-type": "congruent", "word": "red", "color": "red", "correct_response": "r", "trial_id": "stroop-trial-1-congruent-22", "trial_type": "html-keyboard-response", "trial_index": 81, "time_elapsed": 159035, "internal_node_id": "0.0-4.0-77.0"}}, {"uniqueid": "w15973615:a44117693", "current_trial": 82, "dateTime": 1664555075873, "trialdata": {"rt": 909, "stimulus": "<p id='stroop-text' class='stroop-green'>MONKEY</p>", "response": "g", "stimulus-type": "unrelated", "word": "MONKEY", "color": "green", "correct_response": "g", "trial_id": "stroop-trial-1-unrelated-29", "trial_type": "html-keyboard-response", "trial_index": 82, "time_elapsed": 160451, "internal_node_id": "0.0-4.0-78.0"}}, {"uniqueid": "w15973615:a44117693", "current_trial": 83, "dateTime": 1664555076911, "trialdata": {"rt": 528, "stimulus": "<p id='stroop-text' class='stroop-green'>GREEN</p>", "response": "g", "stimulus-type": "congruent", "word": "green", "color": "green", "correct_response": "g", "trial_id": "stroop-trial-1-congruent-16", "trial_type": "html-keyboard-response", "trial_index": 83, "time_elapsed": 161488, "internal_node_id": "0.0-4.0-79.0"}}, {"uniqueid": "w15973615:a44117693", "current_trial": 84, "dateTime": 1664555078047, "trialdata": {"rt": 632, "stimulus": "<p id='stroop-text' class='stroop-blue'>BLUE</p>", "response": "b", "stimulus-type": "congruent", "word": "blue", "color": "blue", "correct_response": "b", "trial_id": "stroop-trial-1-congruent-27", "trial_type": "html-keyboard-response", "trial_index": 84, "time_elapsed": 162626, "internal_node_id": "0.0-4.0-80.0"}}, {"uniqueid": "w15973615:a44117693", "current_trial": 85, "dateTime": 1664555079034, "trialdata": {"rt": 482, "stimulus": "<p id='stroop-text' class='stroop-yellow'>WINDOW</p>", "response": "y", "stimulus-type": "unrelated", "word": "WINDOW", "color": "yellow", "correct_response": "y", "trial_id": "stroop-trial-1-unrelated-26", "trial_type": "html-keyboard-response", "trial_index": 85, "time_elapsed": 163612, "internal_node_id": "0.0-4.0-81.0"}}, {"uniqueid": "w15973615:a44117693", "current_trial": 86, "dateTime": 1664555080124, "trialdata": {"rt": 582, "stimulus": "<p id='stroop-text' class='stroop-red'>BLUE</p>", "response": "r", "stimulus-type": "incongruent", "word": "blue", "color": "red", "correct_response": "r", "trial_id": "stroop-trial-1-incongruent-22", "trial_type": "html-keyboard-response", "trial_index": 86, "time_elapsed": 164702, "internal_node_id": "0.0-4.0-82.0"}}, {"uniqueid": "w15973615:a44117693", "current_trial": 87, "dateTime": 1664555081179, "trialdata": {"rt": 548, "stimulus": "<p id='stroop-text' class='stroop-blue'>BLUE</p>", "response": "g", "stimulus-type": "congruent", "word": "blue", "color": "blue", "correct_response": "b", "trial_id": "stroop-trial-1-congruent-4", "trial_type": "html-keyboard-response", "trial_index": 87, "time_elapsed": 165757, "internal_node_id": "0.0-4.0-83.0"}}, {"uniqueid": "w15973615:a44117693", "current_trial": 88, "dateTime": 1664555082756, "trialdata": {"rt": 1069, "stimulus": "<p id='stroop-text' class='stroop-yellow'>GREEN</p>", "response": "g", "stimulus-type": "incongruent", "word": "green", "color": "yellow", "correct_response": "y", "trial_id": "stroop-trial-1-incongruent-16", "trial_type": "html-keyboard-response", "trial_index": 88, "time_elapsed": 167335, "internal_node_id": "0.0-4.0-84.0"}}, {"uniqueid": "w15973615:a44117693", "current_trial": 89, "dateTime": 1664555083976, "trialdata": {"rt": 713, "stimulus": "<p id='stroop-text' class='stroop-green'>WINDOW</p>", "response": "g", "stimulus-type": "unrelated", "word": "WINDOW", "color": "green", "correct_response": "g", "trial_id": "stroop-trial-1-unrelated-4", "trial_type": "html-keyboard-response", "trial_index": 89, "time_elapsed": 168554, "internal_node_id": "0.0-4.0-85.0"}}, {"uniqueid": "w15973615:a44117693", "current_trial": 90, "dateTime": 1664555085049, "trialdata": {"rt": 565, "stimulus": "<p id='stroop-text' class='stroop-green'>GREEN</p>", "response": "g", "stimulus-type": "congruent", "word": "green", "color": "green", "correct_response": "g", "trial_id": "stroop-trial-1-congruent-3", "trial_type": "html-keyboard-response", "trial_index": 90, "time_elapsed": 169628, "internal_node_id": "0.0-4.0-86.0"}}, {"uniqueid": "w15973615:a44117693", "current_trial": 91, "dateTime": 1664555086160, "trialdata": {"rt": 607, "stimulus": "<p id='stroop-text' class='stroop-red'>DOG</p>", "response": "r", "stimulus-type": "unrelated", "word": "DOG", "color": "red", "correct_response": "r", "trial_id": "stroop-trial-1-unrelated-9", "trial_type": "html-keyboard-response", "trial_index": 91, "time_elapsed": 170738, "internal_node_id": "0.0-4.0-87.0"}}, {"uniqueid": "w15973615:a44117693", "current_trial": 92, "dateTime": 1664555087302, "trialdata": {"rt": 633, "stimulus": "<p id='stroop-text' class='stroop-yellow'>MONKEY</p>", "response": "y", "stimulus-type": "unrelated", "word": "MONKEY", "color": "yellow", "correct_response": "y", "trial_id": "stroop-trial-1-unrelated-13", "trial_type": "html-keyboard-response", "trial_index": 92, "time_elapsed": 171880, "internal_node_id": "0.0-4.0-88.0"}}, {"uniqueid": "w15973615:a44117693", "current_trial": 93, "dateTime": 1664555089039, "trialdata": {"rt": 1233, "stimulus": "<p id='stroop-text' class='stroop-red'>BLUE</p>", "response": "r", "stimulus-type": "incongruent", "word": "blue", "color": "red", "correct_response": "r", "trial_id": "stroop-trial-1-incongruent-5", "trial_type": "html-keyboard-response", "trial_index": 93, "time_elapsed": 173618, "internal_node_id": "0.0-4.0-89.0"}}, {"uniqueid": "w15973615:a44117693", "current_trial": 94, "dateTime": 1664555109895, "trialdata": {"rt": 20346, "stimulus": "  <h1> End of block! </h1>\n\n  You have reached the end of the block 1/5. If you need a short break, feel free to take one now before moving on.\n\n  <br><br>\n  In the next block, you will complete another 90 rounds of this game.\n\n  <br><br>\n  <div style='text-align: center;'>Press <code>space</code> to begin.</div>\n  <br><br>\n<div style='text-align: center;'>(If the experiment doesn't continue, try clicking on the text and then pressing <code>space</code>.)</div>", "response": " ", "trial_id": "stroop_1_ready_2", "trial_type": "html-keyboard-response", "trial_index": 94, "time_elapsed": 194474, "internal_node_id": "0.0-5.0"}}, {"uniqueid": "w15973615:a44117693", "current_trial": 95, "dateTime": 1664555110666, "trialdata": {"rt": 764, "stimulus": "<p id='stroop-text' class='stroop-green'>GREEN</p>", "response": "g", "stimulus-type": "congruent", "word": "green", "color": "green", "correct_response": "g", "trial_id": "stroop-trial-1-congruent-12", "trial_type": "html-keyboard-response", "trial_index": 95, "time_elapsed": 195243, "internal_node_id": "0.0-6.0-0.0"}}, {"uniqueid": "w15973615:a44117693", "current_trial": 96, "dateTime": 1664555111787, "trialdata": {"rt": 613, "stimulus": "<p id='stroop-text' class='stroop-yellow'>RED</p>", "response": "y", "stimulus-type": "incongruent", "word": "red", "color": "yellow", "correct_response": "y", "trial_id": "stroop-trial-1-incongruent-24", "trial_type": "html-keyboard-response", "trial_index": 96, "time_elapsed": 196365, "internal_node_id": "0.0-6.0-1.0"}}, {"uniqueid": "w15973615:a44117693", "current_trial": 97, "dateTime": 1664555112744, "trialdata": {"rt": 454, "stimulus": "<p id='stroop-text' class='stroop-green'>GREEN</p>", "response": "g", "stimulus-type": "congruent", "word": "green", "color": "green", "correct_response": "g", "trial_id": "stroop-trial-1-congruent-21", "trial_type": "html-keyboard-response", "trial_index": 97, "time_elapsed": 197322, "internal_node_id": "0.0-6.0-2.0"}}, {"uniqueid": "w15973615:a44117693", "current_trial": 98, "dateTime": 1664555113814, "trialdata": {"rt": 561, "stimulus": "<p id='stroop-text' class='stroop-red'>BOAT</p>", "response": "r", "stimulus-type": "unrelated", "word": "BOAT", "color": "red", "correct_response": "r", "trial_id": "stroop-trial-1-unrelated-4", "trial_type": "html-keyboard-response", "trial_index": 98, "time_elapsed": 198392, "internal_node_id": "0.0-6.0-3.0"}}, {"uniqueid": "w15973615:a44117693", "current_trial": 99, "dateTime": 1664555114885, "trialdata": {"rt": 566, "stimulus": "<p id='stroop-text' class='stroop-yellow'>YELLOW</p>", "response": "y", "stimulus-type": "congruent", "word": "yellow", "color": "yellow", "correct_response": "y", "trial_id": "stroop-trial-1-congruent-6", "trial_type": "html-keyboard-response", "trial_index": 99, "time_elapsed": 199464, "internal_node_id": "0.0-6.0-4.0"}}, {"uniqueid": "w15973615:a44117693", "current_trial": 100, "dateTime": 1664555115954, "trialdata": {"rt": 562, "stimulus": "<p id='stroop-text' class='stroop-red'>DOG</p>", "response": "r", "stimulus-type": "unrelated", "word": "DOG", "color": "red", "correct_response": "r", "trial_id": "stroop-trial-1-unrelated-24", "trial_type": "html-keyboard-response", "trial_index": 100, "time_elapsed": 200532, "internal_node_id": "0.0-6.0-5.0"}}, {"uniqueid": "w15973615:a44117693", "current_trial": 101, "dateTime": 1664555116927, "trialdata": {"rt": 468, "stimulus": "<p id='stroop-text' class='stroop-red'>YELLOW</p>", "response": "r", "stimulus-type": "incongruent", "word": "yellow", "color": "red", "correct_response": "r", "trial_id": "stroop-trial-1-incongruent-15", "trial_type": "html-keyboard-response", "trial_index": 101, "time_elapsed": 201506, "internal_node_id": "0.0-6.0-6.0"}}, {"uniqueid": "w15973615:a44117693", "current_trial": 102, "dateTime": 1664555118356, "trialdata": {"rt": 920, "stimulus": "<p id='stroop-text' class='stroop-green'>GREEN</p>", "response": "g", "stimulus-type": "congruent", "word": "green", "color": "green", "correct_response": "g", "trial_id": "stroop-trial-1-congruent-27", "trial_type": "html-keyboard-response", "trial_index": 102, "time_elapsed": 202935, "internal_node_id": "0.0-6.0-7.0"}}, {"uniqueid": "w15973615:a44117693", "current_trial": 103, "dateTime": 1664555119417, "trialdata": {"rt": 554, "stimulus": "<p id='stroop-text' class='stroop-red'>BLUE</p>", "response": "r", "stimulus-type": "incongruent", "word": "blue", "color": "red", "correct_response": "r", "trial_id": "stroop-trial-1-incongruent-9", "trial_type": "html-keyboard-response", "trial_index": 103, "time_elapsed": 203996, "internal_node_id": "0.0-6.0-8.0"}}, {"uniqueid": "w15973615:a44117693", "current_trial": 104, "dateTime": 1664555120420, "trialdata": {"rt": 496, "stimulus": "<p id='stroop-text' class='stroop-red'>RED</p>", "response": "r", "stimulus-type": "congruent", "word": "red", "color": "red", "correct_response": "r", "trial_id": "stroop-trial-1-congruent-14", "trial_type": "html-keyboard-response", "trial_index": 104, "time_elapsed": 204997, "internal_node_id": "0.0-6.0-9.0"}}, {"uniqueid": "w15973615:a44117693", "current_trial": 105, "dateTime": 1664555121395, "trialdata": {"rt": 468, "stimulus": "<p id='stroop-text' class='stroop-blue'>BLUE</p>", "response": "b", "stimulus-type": "congruent", "word": "blue", "color": "blue", "correct_response": "b", "trial_id": "stroop-trial-1-congruent-19", "trial_type": "html-keyboard-response", "trial_index": 105, "time_elapsed": 205973, "internal_node_id": "0.0-6.0-10.0"}}, {"uniqueid": "w15973615:a44117693", "current_trial": 106, "dateTime": 1664555122490, "trialdata": {"rt": 586, "stimulus": "<p id='stroop-text' class='stroop-green'>CHAIR</p>", "response": "g", "stimulus-type": "unrelated", "word": "CHAIR", "color": "green", "correct_response": "g", "trial_id": "stroop-trial-1-unrelated-3", "trial_type": "html-keyboard-response", "trial_index": 106, "time_elapsed": 207068, "internal_node_id": "0.0-6.0-11.0"}}, {"uniqueid": "w15973615:a44117693", "current_trial": 107, "dateTime": 1664555123486, "trialdata": {"rt": 490, "stimulus": "<p id='stroop-text' class='stroop-red'>RED</p>", "response": "r", "stimulus-type": "congruent", "word": "red", "color": "red", "correct_response": "r", "trial_id": "stroop-trial-1-congruent-2", "trial_type": "html-keyboard-response", "trial_index": 107, "time_elapsed": 208065, "internal_node_id": "0.0-6.0-12.0"}}, {"uniqueid": "w15973615:a44117693", "current_trial": 108, "dateTime": 1664555124750, "trialdata": {"rt": 757, "stimulus": "<p id='stroop-text' class='stroop-yellow'>BRIDGE</p>", "response": "y", "stimulus-type": "unrelated", "word": "BRIDGE", "color": "yellow", "correct_response": "y", "trial_id": "stroop-trial-1-unrelated-11", "trial_type": "html-keyboard-response", "trial_index": 108, "time_elapsed": 209329, "internal_node_id": "0.0-6.0-13.0"}}, {"uniqueid": "w15973615:a44117693", "current_trial": 109, "dateTime": 1664555125759, "trialdata": {"rt": 499, "stimulus": "<p id='stroop-text' class='stroop-yellow'>STONE</p>", "response": "y", "stimulus-type": "unrelated", "word": "STONE", "color": "yellow", "correct_response": "y", "trial_id": "stroop-trial-1-unrelated-26", "trial_type": "html-keyboard-response", "trial_index": 109, "time_elapsed": 210338, "internal_node_id": "0.0-6.0-14.0"}}, {"uniqueid": "w15973615:a44117693", "current_trial": 110, "dateTime": 1664555126784, "trialdata": {"rt": 520, "stimulus": "<p id='stroop-text' class='stroop-green'>RED</p>", "response": "g", "stimulus-type": "incongruent", "word": "red", "color": "green", "correct_response": "g", "trial_id": "stroop-trial-1-incongruent-28", "trial_type": "html-keyboard-response", "trial_index": 110, "time_elapsed": 211362, "internal_node_id": "0.0-6.0-15.0"}}, {"uniqueid": "w15973615:a44117693", "current_trial": 111, "dateTime": 1664555127843, "trialdata": {"rt": 552, "stimulus": "<p id='stroop-text' class='stroop-red'>BRIDGE</p>", "response": "r", "stimulus-type": "unrelated", "word": "BRIDGE", "color": "red", "correct_response": "r", "trial_id": "stroop-trial-1-unrelated-25", "trial_type": "html-keyboard-response", "trial_index": 111, "time_elapsed": 212422, "internal_node_id": "0.0-6.0-16.0"}}, {"uniqueid": "w15973615:a44117693", "current_trial": 112, "dateTime": 1664555128826, "trialdata": {"rt": 480, "stimulus": "<p id='stroop-text' class='stroop-red'>WINDOW</p>", "response": "r", "stimulus-type": "unrelated", "word": "WINDOW", "color": "red", "correct_response": "r", "trial_id": "stroop-trial-1-unrelated-19", "trial_type": "html-keyboard-response", "trial_index": 112, "time_elapsed": 213405, "internal_node_id": "0.0-6.0-17.0"}}, {"uniqueid": "w15973615:a44117693", "current_trial": 113, "dateTime": 1664555129746, "trialdata": {"rt": 410, "stimulus": "<p id='stroop-text' class='stroop-green'>GREEN</p>", "response": "g", "stimulus-type": "congruent", "word": "green", "color": "green", "correct_response": "g", "trial_id": "stroop-trial-1-congruent-5", "trial_type": "html-keyboard-response", "trial_index": 113, "time_elapsed": 214324, "internal_node_id": "0.0-6.0-18.0"}}, {"uniqueid": "w15973615:a44117693", "current_trial": 114, "dateTime": 1664555130707, "trialdata": {"rt": 456, "stimulus": "<p id='stroop-text' class='stroop-green'>FORK</p>", "response": "g", "stimulus-type": "unrelated", "word": "FORK", "color": "green", "correct_response": "g", "trial_id": "stroop-trial-1-unrelated-23", "trial_type": "html-keyboard-response", "trial_index": 114, "time_elapsed": 215285, "internal_node_id": "0.0-6.0-19.0"}}, {"uniqueid": "w15973615:a44117693", "current_trial": 115, "dateTime": 1664555131691, "trialdata": {"rt": 476, "stimulus": "<p id='stroop-text' class='stroop-red'>BRAIN</p>", "response": "r", "stimulus-type": "unrelated", "word": "BRAIN", "color": "red", "correct_response": "r", "trial_id": "stroop-trial-1-unrelated-13", "trial_type": "html-keyboard-response", "trial_index": 115, "time_elapsed": 216270, "internal_node_id": "0.0-6.0-20.0"}}, {"uniqueid": "w15973615:a44117693", "current_trial": 116, "dateTime": 1664555132641, "trialdata": {"rt": 442, "stimulus": "<p id='stroop-text' class='stroop-yellow'>GREEN</p>", "response": "y", "stimulus-type": "incongruent", "word": "green", "color": "yellow", "correct_response": "y", "trial_id": "stroop-trial-1-incongruent-4", "trial_type": "html-keyboard-response", "trial_index": 116, "time_elapsed": 217219, "internal_node_id": "0.0-6.0-21.0"}}, {"uniqueid": "w15973615:a44117693", "current_trial": 117, "dateTime": 1664555133776, "trialdata": {"rt": 626, "stimulus": "<p id='stroop-text' class='stroop-blue'>BLUE</p>", "response": "b", "stimulus-type": "congruent", "word": "blue", "color": "blue", "correct_response": "b", "trial_id": "stroop-trial-1-congruent-24", "trial_type": "html-keyboard-response", "trial_index": 117, "time_elapsed": 218354, "internal_node_id": "0.0-6.0-22.0"}}, {"uniqueid": "w15973615:a44117693", "current_trial": 118, "dateTime": 1664555134721, "trialdata": {"rt": 441, "stimulus": "<p id='stroop-text' class='stroop-red'>RED</p>", "response": "r", "stimulus-type": "congruent", "word": "red", "color": "red", "correct_response": "r", "trial_id": "stroop-trial-1-congruent-25", "trial_type": "html-keyboard-response", "trial_index": 118, "time_elapsed": 219299, "internal_node_id": "0.0-6.0-23.0"}}, {"uniqueid": "w15973615:a44117693", "current_trial": 119, "dateTime": 1664555135822, "trialdata": {"rt": 594, "stimulus": "<p id='stroop-text' class='stroop-green'>BLUE</p>", "response": "y", "stimulus-type": "incongruent", "word": "blue", "color": "green", "correct_response": "g", "trial_id": "stroop-trial-1-incongruent-2", "trial_type": "html-keyboard-response", "trial_index": 119, "time_elapsed": 220400, "internal_node_id": "0.0-6.0-24.0"}}, {"uniqueid": "w15973615:a44117693", "current_trial": 120, "dateTime": 1664555136963, "trialdata": {"rt": 633, "stimulus": "<p id='stroop-text' class='stroop-green'>YELLOW</p>", "response": "g", "stimulus-type": "incongruent", "word": "yellow", "color": "green", "correct_response": "g", "trial_id": "stroop-trial-1-incongruent-26", "trial_type": "html-keyboard-response", "trial_index": 120, "time_elapsed": 221542, "internal_node_id": "0.0-6.0-25.0"}}, {"uniqueid": "w15973615:a44117693", "current_trial": 121, "dateTime": 1664555138212, "trialdata": {"rt": 740, "stimulus": "<p id='stroop-text' class='stroop-blue'>BLUE</p>", "response": "b", "stimulus-type": "congruent", "word": "blue", "color": "blue", "correct_response": "b", "trial_id": "stroop-trial-1-congruent-16", "trial_type": "html-keyboard-response", "trial_index": 121, "time_elapsed": 222790, "internal_node_id": "0.0-6.0-26.0"}}, {"uniqueid": "w15973615:a44117693", "current_trial": 122, "dateTime": 1664555139644, "trialdata": {"rt": 928, "stimulus": "<p id='stroop-text' class='stroop-green'>YELLOW</p>", "response": "g", "stimulus-type": "incongruent", "word": "yellow", "color": "green", "correct_response": "g", "trial_id": "stroop-trial-1-incongruent-25", "trial_type": "html-keyboard-response", "trial_index": 122, "time_elapsed": 224223, "internal_node_id": "0.0-6.0-27.0"}}, {"uniqueid": "w15973615:a44117693", "current_trial": 123, "dateTime": 1664555140623, "trialdata": {"rt": 476, "stimulus": "<p id='stroop-text' class='stroop-green'>YELLOW</p>", "response": "g", "stimulus-type": "incongruent", "word": "yellow", "color": "green", "correct_response": "g", "trial_id": "stroop-trial-1-incongruent-21", "trial_type": "html-keyboard-response", "trial_index": 123, "time_elapsed": 225202, "internal_node_id": "0.0-6.0-28.0"}}, {"uniqueid": "w15973615:a44117693", "current_trial": 124, "dateTime": 1664555141656, "trialdata": {"rt": 526, "stimulus": "<p id='stroop-text' class='stroop-red'>SHIP</p>", "response": "r", "stimulus-type": "unrelated", "word": "SHIP", "color": "red", "correct_response": "r", "trial_id": "stroop-trial-1-unrelated-18", "trial_type": "html-keyboard-response", "trial_index": 124, "time_elapsed": 226235, "internal_node_id": "0.0-6.0-29.0"}}, {"uniqueid": "w15973615:a44117693", "current_trial": 125, "dateTime": 1664555142633, "trialdata": {"rt": 470, "stimulus": "<p id='stroop-text' class='stroop-red'>BOAT</p>", "response": "r", "stimulus-type": "unrelated", "word": "BOAT", "color": "red", "correct_response": "r", "trial_id": "stroop-trial-1-unrelated-16", "trial_type": "html-keyboard-response", "trial_index": 125, "time_elapsed": 227212, "internal_node_id": "0.0-6.0-30.0"}}, {"uniqueid": "w15973615:a44117693", "current_trial": 126, "dateTime": 1664555143715, "trialdata": {"rt": 577, "stimulus": "<p id='stroop-text' class='stroop-yellow'>SHIP</p>", "response": "y", "stimulus-type": "unrelated", "word": "SHIP", "color": "yellow", "correct_response": "y", "trial_id": "stroop-trial-1-unrelated-29", "trial_type": "html-keyboard-response", "trial_index": 126, "time_elapsed": 228294, "internal_node_id": "0.0-6.0-31.0"}}, {"uniqueid": "w15973615:a44117693", "current_trial": 127, "dateTime": 1664555144659, "trialdata": {"rt": 435, "stimulus": "<p id='stroop-text' class='stroop-red'>RED</p>", "response": "r", "stimulus-type": "congruent", "word": "red", "color": "red", "correct_response": "r", "trial_id": "stroop-trial-1-congruent-30", "trial_type": "html-keyboard-response", "trial_index": 127, "time_elapsed": 229238, "internal_node_id": "0.0-6.0-32.0"}}, {"uniqueid": "w15973615:a44117693", "current_trial": 128, "dateTime": 1664555145826, "trialdata": {"rt": 658, "stimulus": "<p id='stroop-text' class='stroop-green'>BOAT</p>", "response": "g", "stimulus-type": "unrelated", "word": "BOAT", "color": "green", "correct_response": "g", "trial_id": "stroop-trial-1-unrelated-10", "trial_type": "html-keyboard-response", "trial_index": 128, "time_elapsed": 230405, "internal_node_id": "0.0-6.0-33.0"}}, {"uniqueid": "w15973615:a44117693", "current_trial": 129, "dateTime": 1664555146990, "trialdata": {"rt": 655, "stimulus": "<p id='stroop-text' class='stroop-green'>YELLOW</p>", "response": "g", "stimulus-type": "incongruent", "word": "yellow", "color": "green", "correct_response": "g", "trial_id": "stroop-trial-1-incongruent-3", "trial_type": "html-keyboard-response", "trial_index": 129, "time_elapsed": 231568, "internal_node_id": "0.0-6.0-34.0"}}, {"uniqueid": "w15973615:a44117693", "current_trial": 130, "dateTime": 1664555148128, "trialdata": {"rt": 631, "stimulus": "<p id='stroop-text' class='stroop-blue'>CHAIR</p>", "response": "b", "stimulus-type": "unrelated", "word": "CHAIR", "color": "blue", "correct_response": "b", "trial_id": "stroop-trial-1-unrelated-8", "trial_type": "html-keyboard-response", "trial_index": 130, "time_elapsed": 232707, "internal_node_id": "0.0-6.0-35.0"}}, {"uniqueid": "w15973615:a44117693", "current_trial": 131, "dateTime": 1664555149242, "trialdata": {"rt": 608, "stimulus": "<p id='stroop-text' class='stroop-blue'>BOTTLE</p>", "response": "b", "stimulus-type": "unrelated", "word": "BOTTLE", "color": "blue", "correct_response": "b", "trial_id": "stroop-trial-1-unrelated-14", "trial_type": "html-keyboard-response", "trial_index": 131, "time_elapsed": 233821, "internal_node_id": "0.0-6.0-36.0"}}, {"uniqueid": "w15973615:a44117693", "current_trial": 132, "dateTime": 1664555150622, "trialdata": {"rt": 871, "stimulus": "<p id='stroop-text' class='stroop-red'>YELLOW</p>", "response": "r", "stimulus-type": "incongruent", "word": "yellow", "color": "red", "correct_response": "r", "trial_id": "stroop-trial-1-incongruent-1", "trial_type": "html-keyboard-response", "trial_index": 132, "time_elapsed": 235200, "internal_node_id": "0.0-6.0-37.0"}}, {"uniqueid": "w15973615:a44117693", "current_trial": 133, "dateTime": 1664555151762, "trialdata": {"rt": 631, "stimulus": "<p id='stroop-text' class='stroop-yellow'>YELLOW</p>", "response": "y", "stimulus-type": "congruent", "word": "yellow", "color": "yellow", "correct_response": "y", "trial_id": "stroop-trial-1-congruent-18", "trial_type": "html-keyboard-response", "trial_index": 133, "time_elapsed": 236340, "internal_node_id": "0.0-6.0-38.0"}}, {"uniqueid": "w15973615:a44117693", "current_trial": 134, "dateTime": 1664555153160, "trialdata": {"rt": 896, "stimulus": "<p id='stroop-text' class='stroop-blue'>FORK</p>", "response": "b", "stimulus-type": "unrelated", "word": "FORK", "color": "blue", "correct_response": "b", "trial_id": "stroop-trial-1-unrelated-1", "trial_type": "html-keyboard-response", "trial_index": 134, "time_elapsed": 237738, "internal_node_id": "0.0-6.0-39.0"}}, {"uniqueid": "w15973615:a44117693", "current_trial": 135, "dateTime": 1664555154287, "trialdata": {"rt": 619, "stimulus": "<p id='stroop-text' class='stroop-yellow'>YELLOW</p>", "response": "y", "stimulus-type": "congruent", "word": "yellow", "color": "yellow", "correct_response": "y", "trial_id": "stroop-trial-1-congruent-15", "trial_type": "html-keyboard-response", "trial_index": 135, "time_elapsed": 238866, "internal_node_id": "0.0-6.0-40.0"}}, {"uniqueid": "w15973615:a44117693", "current_trial": 136, "dateTime": 1664555155731, "trialdata": {"rt": 936, "stimulus": "<p id='stroop-text' class='stroop-blue'>BLUE</p>", "response": "b", "stimulus-type": "congruent", "word": "blue", "color": "blue", "correct_response": "b", "trial_id": "stroop-trial-1-congruent-13", "trial_type": "html-keyboard-response", "trial_index": 136, "time_elapsed": 240309, "internal_node_id": "0.0-6.0-41.0"}}, {"uniqueid": "w15973615:a44117693", "current_trial": 137, "dateTime": 1664555156678, "trialdata": {"rt": 443, "stimulus": "<p id='stroop-text' class='stroop-blue'>BLUE</p>", "response": "b", "stimulus-type": "congruent", "word": "blue", "color": "blue", "correct_response": "b", "trial_id": "stroop-trial-1-congruent-10", "trial_type": "html-keyboard-response", "trial_index": 137, "time_elapsed": 241255, "internal_node_id": "0.0-6.0-42.0"}}, {"uniqueid": "w15973615:a44117693", "current_trial": 138, "dateTime": 1664555157662, "trialdata": {"rt": 476, "stimulus": "<p id='stroop-text' class='stroop-blue'>BLUE</p>", "response": "b", "stimulus-type": "congruent", "word": "blue", "color": "blue", "correct_response": "b", "trial_id": "stroop-trial-1-congruent-7", "trial_type": "html-keyboard-response", "trial_index": 138, "time_elapsed": 242241, "internal_node_id": "0.0-6.0-43.0"}}, {"uniqueid": "w15973615:a44117693", "current_trial": 139, "dateTime": 1664555159124, "trialdata": {"rt": 953, "stimulus": "<p id='stroop-text' class='stroop-yellow'>RED</p>", "response": "y", "stimulus-type": "incongruent", "word": "red", "color": "yellow", "correct_response": "y", "trial_id": "stroop-trial-1-incongruent-19", "trial_type": "html-keyboard-response", "trial_index": 139, "time_elapsed": 243702, "internal_node_id": "0.0-6.0-44.0"}}, {"uniqueid": "w15973615:a44117693", "current_trial": 140, "dateTime": 1664555160267, "trialdata": {"rt": 636, "stimulus": "<p id='stroop-text' class='stroop-blue'>CHAIR</p>", "response": "b", "stimulus-type": "unrelated", "word": "CHAIR", "color": "blue", "correct_response": "b", "trial_id": "stroop-trial-1-unrelated-15", "trial_type": "html-keyboard-response", "trial_index": 140, "time_elapsed": 244846, "internal_node_id": "0.0-6.0-45.0"}}, {"uniqueid": "w15973615:a44117693", "current_trial": 141, "dateTime": 1664555161427, "trialdata": {"rt": 653, "stimulus": "<p id='stroop-text' class='stroop-red'>FORK</p>", "response": "r", "stimulus-type": "unrelated", "word": "FORK", "color": "red", "correct_response": "r", "trial_id": "stroop-trial-1-unrelated-27", "trial_type": "html-keyboard-response", "trial_index": 141, "time_elapsed": 246005, "internal_node_id": "0.0-6.0-46.0"}}, {"uniqueid": "w15973615:a44117693", "current_trial": 142, "dateTime": 1664555162684, "trialdata": {"rt": 748, "stimulus": "<p id='stroop-text' class='stroop-green'>RED</p>", "response": "g", "stimulus-type": "incongruent", "word": "red", "color": "green", "correct_response": "g", "trial_id": "stroop-trial-1-incongruent-30", "trial_type": "html-keyboard-response", "trial_index": 142, "time_elapsed": 247262, "internal_node_id": "0.0-6.0-47.0"}}, {"uniqueid": "w15973615:a44117693", "current_trial": 143, "dateTime": 1664555163754, "trialdata": {"rt": 564, "stimulus": "<p id='stroop-text' class='stroop-yellow'>GREEN</p>", "response": "b", "stimulus-type": "incongruent", "word": "green", "color": "yellow", "correct_response": "y", "trial_id": "stroop-trial-1-incongruent-23", "trial_type": "html-keyboard-response", "trial_index": 143, "time_elapsed": 248332, "internal_node_id": "0.0-6.0-48.0"}}, {"uniqueid": "w15973615:a44117693", "current_trial": 144, "dateTime": 1664555165123, "trialdata": {"rt": 866, "stimulus": "<p id='stroop-text' class='stroop-green'>YELLOW</p>", "response": "g", "stimulus-type": "incongruent", "word": "yellow", "color": "green", "correct_response": "g", "trial_id": "stroop-trial-1-incongruent-8", "trial_type": "html-keyboard-response", "trial_index": 144, "time_elapsed": 249702, "internal_node_id": "0.0-6.0-49.0"}}, {"uniqueid": "w15973615:a44117693", "current_trial": 145, "dateTime": 1664555166481, "trialdata": {"rt": 850, "stimulus": "<p id='stroop-text' class='stroop-blue'>YELLOW</p>", "response": "b", "stimulus-type": "incongruent", "word": "yellow", "color": "blue", "correct_response": "b", "trial_id": "stroop-trial-1-incongruent-12", "trial_type": "html-keyboard-response", "trial_index": 145, "time_elapsed": 251060, "internal_node_id": "0.0-6.0-50.0"}}, {"uniqueid": "w15973615:a44117693", "current_trial": 146, "dateTime": 1664555167429, "trialdata": {"rt": 443, "stimulus": "<p id='stroop-text' class='stroop-blue'>YELLOW</p>", "response": "b", "stimulus-type": "incongruent", "word": "yellow", "color": "blue", "correct_response": "b", "trial_id": "stroop-trial-1-incongruent-22", "trial_type": "html-keyboard-response", "trial_index": 146, "time_elapsed": 252007, "internal_node_id": "0.0-6.0-51.0"}}, {"uniqueid": "w15973615:a44117693", "current_trial": 147, "dateTime": 1664555168419, "trialdata": {"rt": 484, "stimulus": "<p id='stroop-text' class='stroop-red'>RED</p>", "response": "r", "stimulus-type": "congruent", "word": "red", "color": "red", "correct_response": "r", "trial_id": "stroop-trial-1-congruent-9", "trial_type": "html-keyboard-response", "trial_index": 147, "time_elapsed": 252998, "internal_node_id": "0.0-6.0-52.0"}}, {"uniqueid": "w15973615:a44117693", "current_trial": 148, "dateTime": 1664555169513, "trialdata": {"rt": 588, "stimulus": "<p id='stroop-text' class='stroop-yellow'>YELLOW</p>", "response": "y", "stimulus-type": "congruent", "word": "yellow", "color": "yellow", "correct_response": "y", "trial_id": "stroop-trial-1-congruent-11", "trial_type": "html-keyboard-response", "trial_index": 148, "time_elapsed": 254091, "internal_node_id": "0.0-6.0-53.0"}}, {"uniqueid": "w15973615:a44117693", "current_trial": 149, "dateTime": 1664555170767, "trialdata": {"rt": 745, "stimulus": "<p id='stroop-text' class='stroop-red'>RED</p>", "response": "r", "stimulus-type": "congruent", "word": "red", "color": "red", "correct_response": "r", "trial_id": "stroop-trial-1-congruent-3", "trial_type": "html-keyboard-response", "trial_index": 149, "time_elapsed": 255346, "internal_node_id": "0.0-6.0-54.0"}}, {"uniqueid": "w15973615:a44117693", "current_trial": 150, "dateTime": 1664555172675, "trialdata": {"rt": 1399, "stimulus": "<p id='stroop-text' class='stroop-yellow'>YELLOW</p>", "response": "y", "stimulus-type": "congruent", "word": "yellow", "color": "yellow", "correct_response": "y", "trial_id": "stroop-trial-1-congruent-1", "trial_type": "html-keyboard-response", "trial_index": 150, "time_elapsed": 257254, "internal_node_id": "0.0-6.0-55.0"}}, {"uniqueid": "w15973615:a44117693", "current_trial": 151, "dateTime": 1664555173859, "trialdata": {"rt": 676, "stimulus": "<p id='stroop-text' class='stroop-red'>RED</p>", "response": "r", "stimulus-type": "congruent", "word": "red", "color": "red", "correct_response": "r", "trial_id": "stroop-trial-1-congruent-20", "trial_type": "html-keyboard-response", "trial_index": 151, "time_elapsed": 258438, "internal_node_id": "0.0-6.0-56.0"}}, {"uniqueid": "w15973615:a44117693", "current_trial": 152, "dateTime": 1664555174991, "trialdata": {"rt": 622, "stimulus": "<p id='stroop-text' class='stroop-blue'>BLUE</p>", "response": "b", "stimulus-type": "congruent", "word": "blue", "color": "blue", "correct_response": "b", "trial_id": "stroop-trial-1-congruent-29", "trial_type": "html-keyboard-response", "trial_index": 152, "time_elapsed": 259569, "internal_node_id": "0.0-6.0-57.0"}}, {"uniqueid": "w15973615:a44117693", "current_trial": 153, "dateTime": 1664555176168, "trialdata": {"rt": 674, "stimulus": "<p id='stroop-text' class='stroop-green'>RED</p>", "response": "g", "stimulus-type": "incongruent", "word": "red", "color": "green", "correct_response": "g", "trial_id": "stroop-trial-1-incongruent-17", "trial_type": "html-keyboard-response", "trial_index": 153, "time_elapsed": 260747, "internal_node_id": "0.0-6.0-58.0"}}, {"uniqueid": "w15973615:a44117693", "current_trial": 154, "dateTime": 1664555177521, "trialdata": {"rt": 843, "stimulus": "<p id='stroop-text' class='stroop-blue'>BOTTLE</p>", "response": "r", "stimulus-type": "unrelated", "word": "BOTTLE", "color": "blue", "correct_response": "b", "trial_id": "stroop-trial-1-unrelated-17", "trial_type": "html-keyboard-response", "trial_index": 154, "time_elapsed": 262100, "internal_node_id": "0.0-6.0-59.0"}}, {"uniqueid": "w15973615:a44117693", "current_trial": 155, "dateTime": 1664555178488, "trialdata": {"rt": 461, "stimulus": "<p id='stroop-text' class='stroop-red'>GREEN</p>", "response": "r", "stimulus-type": "incongruent", "word": "green", "color": "red", "correct_response": "r", "trial_id": "stroop-trial-1-incongruent-18", "trial_type": "html-keyboard-response", "trial_index": 155, "time_elapsed": 263067, "internal_node_id": "0.0-6.0-60.0"}}, {"uniqueid": "w15973615:a44117693", "current_trial": 156, "dateTime": 1664555179492, "trialdata": {"rt": 495, "stimulus": "<p id='stroop-text' class='stroop-red'>BOAT</p>", "response": "r", "stimulus-type": "unrelated", "word": "BOAT", "color": "red", "correct_response": "r", "trial_id": "stroop-trial-1-unrelated-9", "trial_type": "html-keyboard-response", "trial_index": 156, "time_elapsed": 264070, "internal_node_id": "0.0-6.0-61.0"}}, {"uniqueid": "w15973615:a44117693", "current_trial": 157, "dateTime": 1664555180406, "trialdata": {"rt": 405, "stimulus": "<p id='stroop-text' class='stroop-red'>GREEN</p>", "response": "r", "stimulus-type": "incongruent", "word": "green", "color": "red", "correct_response": "r", "trial_id": "stroop-trial-1-incongruent-13", "trial_type": "html-keyboard-response", "trial_index": 157, "time_elapsed": 264985, "internal_node_id": "0.0-6.0-62.0"}}, {"uniqueid": "w15973615:a44117693", "current_trial": 158, "dateTime": 1664555181414, "trialdata": {"rt": 499, "stimulus": "<p id='stroop-text' class='stroop-red'>BRIDGE</p>", "response": "r", "stimulus-type": "unrelated", "word": "BRIDGE", "color": "red", "correct_response": "r", "trial_id": "stroop-trial-1-unrelated-30", "trial_type": "html-keyboard-response", "trial_index": 158, "time_elapsed": 265993, "internal_node_id": "0.0-6.0-63.0"}}, {"uniqueid": "w15973615:a44117693", "current_trial": 159, "dateTime": 1664555182470, "trialdata": {"rt": 551, "stimulus": "<p id='stroop-text' class='stroop-yellow'>BLUE</p>", "response": "y", "stimulus-type": "incongruent", "word": "blue", "color": "yellow", "correct_response": "y", "trial_id": "stroop-trial-1-incongruent-5", "trial_type": "html-keyboard-response", "trial_index": 159, "time_elapsed": 267049, "internal_node_id": "0.0-6.0-64.0"}}, {"uniqueid": "w15973615:a44117693", "current_trial": 160, "dateTime": 1664555183564, "trialdata": {"rt": 584, "stimulus": "<p id='stroop-text' class='stroop-green'>STONE</p>", "response": "g", "stimulus-type": "unrelated", "word": "STONE", "color": "green", "correct_response": "g", "trial_id": "stroop-trial-1-unrelated-28", "trial_type": "html-keyboard-response", "trial_index": 160, "time_elapsed": 268142, "internal_node_id": "0.0-6.0-65.0"}}, {"uniqueid": "w15973615:a44117693", "current_trial": 161, "dateTime": 1664555184648, "trialdata": {"rt": 575, "stimulus": "<p id='stroop-text' class='stroop-blue'>YELLOW</p>", "response": "b", "stimulus-type": "incongruent", "word": "yellow", "color": "blue", "correct_response": "b", "trial_id": "stroop-trial-1-incongruent-20", "trial_type": "html-keyboard-response", "trial_index": 161, "time_elapsed": 269226, "internal_node_id": "0.0-6.0-66.0"}}, {"uniqueid": "w15973615:a44117693", "current_trial": 162, "dateTime": 1664555186273, "trialdata": {"rt": 1121, "stimulus": "<p id='stroop-text' class='stroop-yellow'>FORK</p>", "response": "y", "stimulus-type": "unrelated", "word": "FORK", "color": "yellow", "correct_response": "y", "trial_id": "stroop-trial-1-unrelated-2", "trial_type": "html-keyboard-response", "trial_index": 162, "time_elapsed": 270851, "internal_node_id": "0.0-6.0-67.0"}}, {"uniqueid": "w15973615:a44117693", "current_trial": 163, "dateTime": 1664555187246, "trialdata": {"rt": 467, "stimulus": "<p id='stroop-text' class='stroop-yellow'>BLUE</p>", "response": "y", "stimulus-type": "incongruent", "word": "blue", "color": "yellow", "correct_response": "y", "trial_id": "stroop-trial-1-incongruent-14", "trial_type": "html-keyboard-response", "trial_index": 163, "time_elapsed": 271825, "internal_node_id": "0.0-6.0-68.0"}}, {"uniqueid": "w15973615:a44117693", "current_trial": 164, "dateTime": 1664555188340, "trialdata": {"rt": 585, "stimulus": "<p id='stroop-text' class='stroop-blue'>BRIDGE</p>", "response": "b", "stimulus-type": "unrelated", "word": "BRIDGE", "color": "blue", "correct_response": "b", "trial_id": "stroop-trial-1-unrelated-12", "trial_type": "html-keyboard-response", "trial_index": 164, "time_elapsed": 272919, "internal_node_id": "0.0-6.0-69.0"}}, {"uniqueid": "w15973615:a44117693", "current_trial": 165, "dateTime": 1664555189355, "trialdata": {"rt": 508, "stimulus": "<p id='stroop-text' class='stroop-green'>GREEN</p>", "response": "g", "stimulus-type": "congruent", "word": "green", "color": "green", "correct_response": "g", "trial_id": "stroop-trial-1-congruent-26", "trial_type": "html-keyboard-response", "trial_index": 165, "time_elapsed": 273933, "internal_node_id": "0.0-6.0-70.0"}}, {"uniqueid": "w15973615:a44117693", "current_trial": 166, "dateTime": 1664555190336, "trialdata": {"rt": 472, "stimulus": "<p id='stroop-text' class='stroop-yellow'>YELLOW</p>", "response": "y", "stimulus-type": "congruent", "word": "yellow", "color": "yellow", "correct_response": "y", "trial_id": "stroop-trial-1-congruent-28", "trial_type": "html-keyboard-response", "trial_index": 166, "time_elapsed": 274915, "internal_node_id": "0.0-6.0-71.0"}}, {"uniqueid": "w15973615:a44117693", "current_trial": 167, "dateTime": 1664555191448, "trialdata": {"rt": 605, "stimulus": "<p id='stroop-text' class='stroop-red'>GREEN</p>", "response": "r", "stimulus-type": "incongruent", "word": "green", "color": "red", "correct_response": "r", "trial_id": "stroop-trial-1-incongruent-7", "trial_type": "html-keyboard-response", "trial_index": 167, "time_elapsed": 276027, "internal_node_id": "0.0-6.0-72.0"}}, {"uniqueid": "w15973615:a44117693", "current_trial": 168, "dateTime": 1664555192609, "trialdata": {"rt": 654, "stimulus": "<p id='stroop-text' class='stroop-green'>DOG</p>", "response": "g", "stimulus-type": "unrelated", "word": "DOG", "color": "green", "correct_response": "g", "trial_id": "stroop-trial-1-unrelated-5", "trial_type": "html-keyboard-response", "trial_index": 168, "time_elapsed": 277188, "internal_node_id": "0.0-6.0-73.0"}}, {"uniqueid": "w15973615:a44117693", "current_trial": 169, "dateTime": 1664555194103, "trialdata": {"rt": 985, "stimulus": "<p id='stroop-text' class='stroop-yellow'>BLUE</p>", "response": "y", "stimulus-type": "incongruent", "word": "blue", "color": "yellow", "correct_response": "y", "trial_id": "stroop-trial-1-incongruent-29", "trial_type": "html-keyboard-response", "trial_index": 169, "time_elapsed": 278681, "internal_node_id": "0.0-6.0-74.0"}}, {"uniqueid": "w15973615:a44117693", "current_trial": 170, "dateTime": 1664555195095, "trialdata": {"rt": 482, "stimulus": "<p id='stroop-text' class='stroop-yellow'>YELLOW</p>", "response": "y", "stimulus-type": "congruent", "word": "yellow", "color": "yellow", "correct_response": "y", "trial_id": "stroop-trial-1-congruent-4", "trial_type": "html-keyboard-response", "trial_index": 170, "time_elapsed": 279673, "internal_node_id": "0.0-6.0-75.0"}}, {"uniqueid": "w15973615:a44117693", "current_trial": 171, "dateTime": 1664555196276, "trialdata": {"rt": 676, "stimulus": "<p id='stroop-text' class='stroop-green'>GREEN</p>", "response": "g", "stimulus-type": "congruent", "word": "green", "color": "green", "correct_response": "g", "trial_id": "stroop-trial-1-congruent-23", "trial_type": "html-keyboard-response", "trial_index": 171, "time_elapsed": 280854, "internal_node_id": "0.0-6.0-76.0"}}, {"uniqueid": "w15973615:a44117693", "current_trial": 172, "dateTime": 1664555197578, "trialdata": {"rt": 793, "stimulus": "<p id='stroop-text' class='stroop-red'>GREEN</p>", "response": "r", "stimulus-type": "incongruent", "word": "green", "color": "red", "correct_response": "r", "trial_id": "stroop-trial-1-incongruent-16", "trial_type": "html-keyboard-response", "trial_index": 172, "time_elapsed": 282157, "internal_node_id": "0.0-6.0-77.0"}}, {"uniqueid": "w15973615:a44117693", "current_trial": 173, "dateTime": 1664555198715, "trialdata": {"rt": 628, "stimulus": "<p id='stroop-text' class='stroop-green'>FORK</p>", "response": "g", "stimulus-type": "unrelated", "word": "FORK", "color": "green", "correct_response": "g", "trial_id": "stroop-trial-1-unrelated-22", "trial_type": "html-keyboard-response", "trial_index": 173, "time_elapsed": 283294, "internal_node_id": "0.0-6.0-78.0"}}, {"uniqueid": "w15973615:a44117693", "current_trial": 174, "dateTime": 1664555199741, "trialdata": {"rt": 518, "stimulus": "<p id='stroop-text' class='stroop-yellow'>MONKEY</p>", "response": "b", "stimulus-type": "unrelated", "word": "MONKEY", "color": "yellow", "correct_response": "y", "trial_id": "stroop-trial-1-unrelated-20", "trial_type": "html-keyboard-response", "trial_index": 174, "time_elapsed": 284320, "internal_node_id": "0.0-6.0-79.0"}}, {"uniqueid": "w15973615:a44117693", "current_trial": 175, "dateTime": 1664555200868, "trialdata": {"rt": 621, "stimulus": "<p id='stroop-text' class='stroop-red'>BLUE</p>", "response": "r", "stimulus-type": "incongruent", "word": "blue", "color": "red", "correct_response": "r", "trial_id": "stroop-trial-1-incongruent-10", "trial_type": "html-keyboard-response", "trial_index": 175, "time_elapsed": 285447, "internal_node_id": "0.0-6.0-80.0"}}, {"uniqueid": "w15973615:a44117693", "current_trial": 176, "dateTime": 1664555201976, "trialdata": {"rt": 603, "stimulus": "<p id='stroop-text' class='stroop-yellow'>YELLOW</p>", "response": "y", "stimulus-type": "congruent", "word": "yellow", "color": "yellow", "correct_response": "y", "trial_id": "stroop-trial-1-congruent-17", "trial_type": "html-keyboard-response", "trial_index": 176, "time_elapsed": 286555, "internal_node_id": "0.0-6.0-81.0"}}, {"uniqueid": "w15973615:a44117693", "current_trial": 177, "dateTime": 1664555202922, "trialdata": {"rt": 438, "stimulus": "<p id='stroop-text' class='stroop-yellow'>SHIP</p>", "response": "y", "stimulus-type": "unrelated", "word": "SHIP", "color": "yellow", "correct_response": "y", "trial_id": "stroop-trial-1-unrelated-21", "trial_type": "html-keyboard-response", "trial_index": 177, "time_elapsed": 287500, "internal_node_id": "0.0-6.0-82.0"}}, {"uniqueid": "w15973615:a44117693", "current_trial": 178, "dateTime": 1664555203824, "trialdata": {"rt": 396, "stimulus": "<p id='stroop-text' class='stroop-yellow'>RED</p>", "response": "y", "stimulus-type": "incongruent", "word": "red", "color": "yellow", "correct_response": "y", "trial_id": "stroop-trial-1-incongruent-6", "trial_type": "html-keyboard-response", "trial_index": 178, "time_elapsed": 288403, "internal_node_id": "0.0-6.0-83.0"}}, {"uniqueid": "w15973615:a44117693", "current_trial": 179, "dateTime": 1664555204922, "trialdata": {"rt": 594, "stimulus": "<p id='stroop-text' class='stroop-red'>RED</p>", "response": "r", "stimulus-type": "congruent", "word": "red", "color": "red", "correct_response": "r", "trial_id": "stroop-trial-1-congruent-8", "trial_type": "html-keyboard-response", "trial_index": 179, "time_elapsed": 289500, "internal_node_id": "0.0-6.0-84.0"}}, {"uniqueid": "w15973615:a44117693", "current_trial": 180, "dateTime": 1664555206356, "trialdata": {"rt": 930, "stimulus": "<p id='stroop-text' class='stroop-green'>WINDOW</p>", "response": "g", "stimulus-type": "unrelated", "word": "WINDOW", "color": "green", "correct_response": "g", "trial_id": "stroop-trial-1-unrelated-7", "trial_type": "html-keyboard-response", "trial_index": 180, "time_elapsed": 290934, "internal_node_id": "0.0-6.0-85.0"}}, {"uniqueid": "w15973615:a44117693", "current_trial": 181, "dateTime": 1664555207523, "trialdata": {"rt": 661, "stimulus": "<p id='stroop-text' class='stroop-yellow'>GREEN</p>", "response": "y", "stimulus-type": "incongruent", "word": "green", "color": "yellow", "correct_response": "y", "trial_id": "stroop-trial-1-incongruent-27", "trial_type": "html-keyboard-response", "trial_index": 181, "time_elapsed": 292101, "internal_node_id": "0.0-6.0-86.0"}}, {"uniqueid": "w15973615:a44117693", "current_trial": 182, "dateTime": 1664555208774, "trialdata": {"rt": 745, "stimulus": "<p id='stroop-text' class='stroop-red'>FORK</p>", "response": "r", "stimulus-type": "unrelated", "word": "FORK", "color": "red", "correct_response": "r", "trial_id": "stroop-trial-1-unrelated-6", "trial_type": "html-keyboard-response", "trial_index": 182, "time_elapsed": 293352, "internal_node_id": "0.0-6.0-87.0"}}, {"uniqueid": "w15973615:a44117693", "current_trial": 183, "dateTime": 1664555209909, "trialdata": {"rt": 628, "stimulus": "<p id='stroop-text' class='stroop-yellow'>GREEN</p>", "response": "y", "stimulus-type": "incongruent", "word": "green", "color": "yellow", "correct_response": "y", "trial_id": "stroop-trial-1-incongruent-11", "trial_type": "html-keyboard-response", "trial_index": 183, "time_elapsed": 294487, "internal_node_id": "0.0-6.0-88.0"}}, {"uniqueid": "w15973615:a44117693", "current_trial": 184, "dateTime": 1664555211000, "trialdata": {"rt": 581, "stimulus": "<p id='stroop-text' class='stroop-red'>RED</p>", "response": "r", "stimulus-type": "congruent", "word": "red", "color": "red", "correct_response": "r", "trial_id": "stroop-trial-1-congruent-22", "trial_type": "html-keyboard-response", "trial_index": 184, "time_elapsed": 295579, "internal_node_id": "0.0-6.0-89.0"}}, {"uniqueid": "w15973615:a44117693", "current_trial": 185, "dateTime": 1664555277914, "trialdata": {"rt": 66405, "stimulus": "  <h1> End of block! </h1>\n\n  You have reached the end of the block 2/5. If you need a short break, feel free to take one now before moving on.\n\n  <br><br>\n  In the next block, you will complete another 90 rounds of this game.\n\n  <br><br>\n  <div style='text-align: center;'>Press <code>space</code> to begin.</div>\n  <br><br>\n<div style='text-align: center;'>(If the experiment doesn't continue, try clicking on the text and then pressing <code>space</code>.)</div>", "response": " ", "trial_id": "stroop_1_ready_3", "trial_type": "html-keyboard-response", "trial_index": 185, "time_elapsed": 362493, "internal_node_id": "0.0-7.0"}}, {"uniqueid": "w15973615:a44117693", "current_trial": 186, "dateTime": 1664555278533, "trialdata": {"rt": 612, "stimulus": "<p id='stroop-text' class='stroop-yellow'>MONKEY</p>", "response": "y", "stimulus-type": "unrelated", "word": "MONKEY", "color": "yellow", "correct_response": "y", "trial_id": "stroop-trial-1-unrelated-11", "trial_type": "html-keyboard-response", "trial_index": 186, "time_elapsed": 363111, "internal_node_id": "0.0-8.0-0.0"}}, {"uniqueid": "w15973615:a44117693", "current_trial": 187, "dateTime": 1664555279764, "trialdata": {"rt": 724, "stimulus": "<p id='stroop-text' class='stroop-blue'>RED</p>", "response": "g", "stimulus-type": "incongruent", "word": "red", "color": "blue", "correct_response": "b", "trial_id": "stroop-trial-1-incongruent-12", "trial_type": "html-keyboard-response", "trial_index": 187, "time_elapsed": 364343, "internal_node_id": "0.0-8.0-1.0"}}, {"uniqueid": "w15973615:a44117693", "current_trial": 188, "dateTime": 1664555280863, "trialdata": {"rt": 591, "stimulus": "<p id='stroop-text' class='stroop-red'>FORK</p>", "response": "r", "stimulus-type": "unrelated", "word": "FORK", "color": "red", "correct_response": "r", "trial_id": "stroop-trial-1-unrelated-6", "trial_type": "html-keyboard-response", "trial_index": 188, "time_elapsed": 365442, "internal_node_id": "0.0-8.0-2.0"}}, {"uniqueid": "w15973615:a44117693", "current_trial": 189, "dateTime": 1664555282104, "trialdata": {"rt": 736, "stimulus": "<p id='stroop-text' class='stroop-blue'>STONE</p>", "response": "b", "stimulus-type": "unrelated", "word": "STONE", "color": "blue", "correct_response": "b", "trial_id": "stroop-trial-1-unrelated-8", "trial_type": "html-keyboard-response", "trial_index": 189, "time_elapsed": 366682, "internal_node_id": "0.0-8.0-3.0"}}, {"uniqueid": "w15973615:a44117693", "current_trial": 190, "dateTime": 1664555283744, "trialdata": {"rt": 1132, "stimulus": "<p id='stroop-text' class='stroop-red'>YELLOW</p>", "response": "r", "stimulus-type": "incongruent", "word": "yellow", "color": "red", "correct_response": "r", "trial_id": "stroop-trial-1-incongruent-22", "trial_type": "html-keyboard-response", "trial_index": 190, "time_elapsed": 368323, "internal_node_id": "0.0-8.0-4.0"}}, {"uniqueid": "w15973615:a44117693", "current_trial": 191, "dateTime": 1664555285045, "trialdata": {"rt": 791, "stimulus": "<p id='stroop-text' class='stroop-green'>WINDOW</p>", "response": "g", "stimulus-type": "unrelated", "word": "WINDOW", "color": "green", "correct_response": "g", "trial_id": "stroop-trial-1-unrelated-18", "trial_type": "html-keyboard-response", "trial_index": 191, "time_elapsed": 369623, "internal_node_id": "0.0-8.0-5.0"}}, {"uniqueid": "w15973615:a44117693", "current_trial": 192, "dateTime": 1664555286060, "trialdata": {"rt": 505, "stimulus": "<p id='stroop-text' class='stroop-yellow'>YELLOW</p>", "response": "y", "stimulus-type": "congruent", "word": "yellow", "color": "yellow", "correct_response": "y", "trial_id": "stroop-trial-1-congruent-17", "trial_type": "html-keyboard-response", "trial_index": 192, "time_elapsed": 370638, "internal_node_id": "0.0-8.0-6.0"}}, {"uniqueid": "w15973615:a44117693", "current_trial": 193, "dateTime": 1664555287310, "trialdata": {"rt": 744, "stimulus": "<p id='stroop-text' class='stroop-blue'>YELLOW</p>", "response": "b", "stimulus-type": "incongruent", "word": "yellow", "color": "blue", "correct_response": "b", "trial_id": "stroop-trial-1-incongruent-4", "trial_type": "html-keyboard-response", "trial_index": 193, "time_elapsed": 371889, "internal_node_id": "0.0-8.0-7.0"}}, {"uniqueid": "w15973615:a44117693", "current_trial": 194, "dateTime": 1664555288344, "trialdata": {"rt": 524, "stimulus": "<p id='stroop-text' class='stroop-red'>RED</p>", "response": "r", "stimulus-type": "congruent", "word": "red", "color": "red", "correct_response": "r", "trial_id": "stroop-trial-1-congruent-29", "trial_type": "html-keyboard-response", "trial_index": 194, "time_elapsed": 372922, "internal_node_id": "0.0-8.0-8.0"}}, {"uniqueid": "w15973615:a44117693", "current_trial": 195, "dateTime": 1664555289497, "trialdata": {"rt": 644, "stimulus": "<p id='stroop-text' class='stroop-green'>GREEN</p>", "response": "g", "stimulus-type": "congruent", "word": "green", "color": "green", "correct_response": "g", "trial_id": "stroop-trial-1-congruent-19", "trial_type": "html-keyboard-response", "trial_index": 195, "time_elapsed": 374075, "internal_node_id": "0.0-8.0-9.0"}}, {"uniqueid": "w15973615:a44117693", "current_trial": 196, "dateTime": 1664555290431, "trialdata": {"rt": 428, "stimulus": "<p id='stroop-text' class='stroop-green'>BLUE</p>", "response": "g", "stimulus-type": "incongruent", "word": "blue", "color": "green", "correct_response": "g", "trial_id": "stroop-trial-1-incongruent-10", "trial_type": "html-keyboard-response", "trial_index": 196, "time_elapsed": 375010, "internal_node_id": "0.0-8.0-10.0"}}, {"uniqueid": "w15973615:a44117693", "current_trial": 197, "dateTime": 1664555291473, "trialdata": {"rt": 531, "stimulus": "<p id='stroop-text' class='stroop-yellow'>YELLOW</p>", "response": "g", "stimulus-type": "congruent", "word": "yellow", "color": "yellow", "correct_response": "y", "trial_id": "stroop-trial-1-congruent-1", "trial_type": "html-keyboard-response", "trial_index": 197, "time_elapsed": 376051, "internal_node_id": "0.0-8.0-11.0"}}, {"uniqueid": "w15973615:a44117693", "current_trial": 198, "dateTime": 1664555292645, "trialdata": {"rt": 666, "stimulus": "<p id='stroop-text' class='stroop-red'>MONKEY</p>", "response": "r", "stimulus-type": "unrelated", "word": "MONKEY", "color": "red", "correct_response": "r", "trial_id": "stroop-trial-1-unrelated-27", "trial_type": "html-keyboard-response", "trial_index": 198, "time_elapsed": 377223, "internal_node_id": "0.0-8.0-12.0"}}, {"uniqueid": "w15973615:a44117693", "current_trial": 199, "dateTime": 1664555293770, "trialdata": {"rt": 619, "stimulus": "<p id='stroop-text' class='stroop-yellow'>YELLOW</p>", "response": "y", "stimulus-type": "congruent", "word": "yellow", "color": "yellow", "correct_response": "y", "trial_id": "stroop-trial-1-congruent-18", "trial_type": "html-keyboard-response", "trial_index": 199, "time_elapsed": 378349, "internal_node_id": "0.0-8.0-13.0"}}, {"uniqueid": "w15973615:a44117693", "current_trial": 200, "dateTime": 1664555294897, "trialdata": {"rt": 620, "stimulus": "<p id='stroop-text' class='stroop-red'>RED</p>", "response": "r", "stimulus-type": "congruent", "word": "red", "color": "red", "correct_response": "r", "trial_id": "stroop-trial-1-congruent-4", "trial_type": "html-keyboard-response", "trial_index": 200, "time_elapsed": 379475, "internal_node_id": "0.0-8.0-14.0"}}, {"uniqueid": "w15973615:a44117693", "current_trial": 201, "dateTime": 1664555296130, "trialdata": {"rt": 729, "stimulus": "<p id='stroop-text' class='stroop-green'>BLUE</p>", "response": "g", "stimulus-type": "incongruent", "word": "blue", "color": "green", "correct_response": "g", "trial_id": "stroop-trial-1-incongruent-21", "trial_type": "html-keyboard-response", "trial_index": 201, "time_elapsed": 380709, "internal_node_id": "0.0-8.0-15.0"}}, {"uniqueid": "w15973615:a44117693", "current_trial": 202, "dateTime": 1664555297170, "trialdata": {"rt": 530, "stimulus": "<p id='stroop-text' class='stroop-blue'>BLUE</p>", "response": "y", "stimulus-type": "congruent", "word": "blue", "color": "blue", "correct_response": "b", "trial_id": "stroop-trial-1-congruent-28", "trial_type": "html-keyboard-response", "trial_index": 202, "time_elapsed": 381749, "internal_node_id": "0.0-8.0-16.0"}}, {"uniqueid": "w15973615:a44117693", "current_trial": 203, "dateTime": 1664555298604, "trialdata": {"rt": 923, "stimulus": "<p id='stroop-text' class='stroop-red'>RED</p>", "response": "r", "stimulus-type": "congruent", "word": "red", "color": "red", "correct_response": "r", "trial_id": "stroop-trial-1-congruent-25", "trial_type": "html-keyboard-response", "trial_index": 203, "time_elapsed": 383183, "internal_node_id": "0.0-8.0-17.0"}}, {"uniqueid": "w15973615:a44117693", "current_trial": 204, "dateTime": 1664555299823, "trialdata": {"rt": 710, "stimulus": "<p id='stroop-text' class='stroop-green'>RED</p>", "response": "g", "stimulus-type": "incongruent", "word": "red", "color": "green", "correct_response": "g", "trial_id": "stroop-trial-1-incongruent-27", "trial_type": "html-keyboard-response", "trial_index": 204, "time_elapsed": 384401, "internal_node_id": "0.0-8.0-18.0"}}, {"uniqueid": "w15973615:a44117693", "current_trial": 205, "dateTime": 1664555300781, "trialdata": {"rt": 447, "stimulus": "<p id='stroop-text' class='stroop-green'>GREEN</p>", "response": "g", "stimulus-type": "congruent", "word": "green", "color": "green", "correct_response": "g", "trial_id": "stroop-trial-1-congruent-22", "trial_type": "html-keyboard-response", "trial_index": 205, "time_elapsed": 385359, "internal_node_id": "0.0-8.0-19.0"}}, {"uniqueid": "w15973615:a44117693", "current_trial": 206, "dateTime": 1664555301864, "trialdata": {"rt": 575, "stimulus": "<p id='stroop-text' class='stroop-blue'>CHAIR</p>", "response": "b", "stimulus-type": "unrelated", "word": "CHAIR", "color": "blue", "correct_response": "b", "trial_id": "stroop-trial-1-unrelated-14", "trial_type": "html-keyboard-response", "trial_index": 206, "time_elapsed": 386442, "internal_node_id": "0.0-8.0-20.0"}}, {"uniqueid": "w15973615:a44117693", "current_trial": 207, "dateTime": 1664555302875, "trialdata": {"rt": 506, "stimulus": "<p id='stroop-text' class='stroop-yellow'>YELLOW</p>", "response": "y", "stimulus-type": "congruent", "word": "yellow", "color": "yellow", "correct_response": "y", "trial_id": "stroop-trial-1-congruent-3", "trial_type": "html-keyboard-response", "trial_index": 207, "time_elapsed": 387453, "internal_node_id": "0.0-8.0-21.0"}}, {"uniqueid": "w15973615:a44117693", "current_trial": 208, "dateTime": 1664555303997, "trialdata": {"rt": 612, "stimulus": "<p id='stroop-text' class='stroop-red'>BOTTLE</p>", "response": "r", "stimulus-type": "unrelated", "word": "BOTTLE", "color": "red", "correct_response": "r", "trial_id": "stroop-trial-1-unrelated-15", "trial_type": "html-keyboard-response", "trial_index": 208, "time_elapsed": 388575, "internal_node_id": "0.0-8.0-22.0"}}, {"uniqueid": "w15973615:a44117693", "current_trial": 209, "dateTime": 1664555305236, "trialdata": {"rt": 731, "stimulus": "<p id='stroop-text' class='stroop-green'>GREEN</p>", "response": "g", "stimulus-type": "congruent", "word": "green", "color": "green", "correct_response": "g", "trial_id": "stroop-trial-1-congruent-27", "trial_type": "html-keyboard-response", "trial_index": 209, "time_elapsed": 389814, "internal_node_id": "0.0-8.0-23.0"}}, {"uniqueid": "w15973615:a44117693", "current_trial": 210, "dateTime": 1664555306361, "trialdata": {"rt": 616, "stimulus": "<p id='stroop-text' class='stroop-yellow'>YELLOW</p>", "response": "y", "stimulus-type": "congruent", "word": "yellow", "color": "yellow", "correct_response": "y", "trial_id": "stroop-trial-1-congruent-16", "trial_type": "html-keyboard-response", "trial_index": 210, "time_elapsed": 390940, "internal_node_id": "0.0-8.0-24.0"}}, {"uniqueid": "w15973615:a44117693", "current_trial": 211, "dateTime": 1664555307600, "trialdata": {"rt": 734, "stimulus": "<p id='stroop-text' class='stroop-blue'>BLUE</p>", "response": "b", "stimulus-type": "congruent", "word": "blue", "color": "blue", "correct_response": "b", "trial_id": "stroop-trial-1-congruent-23", "trial_type": "html-keyboard-response", "trial_index": 211, "time_elapsed": 392178, "internal_node_id": "0.0-8.0-25.0"}}, {"uniqueid": "w15973615:a44117693", "current_trial": 212, "dateTime": 1664555308891, "trialdata": {"rt": 785, "stimulus": "<p id='stroop-text' class='stroop-yellow'>RED</p>", "response": "y", "stimulus-type": "incongruent", "word": "red", "color": "yellow", "correct_response": "y", "trial_id": "stroop-trial-1-incongruent-5", "trial_type": "html-keyboard-response", "trial_index": 212, "time_elapsed": 393469, "internal_node_id": "0.0-8.0-26.0"}}, {"uniqueid": "w15973615:a44117693", "current_trial": 213, "dateTime": 1664555309999, "trialdata": {"rt": 600, "stimulus": "<p id='stroop-text' class='stroop-green'>RED</p>", "response": "g", "stimulus-type": "incongruent", "word": "red", "color": "green", "correct_response": "g", "trial_id": "stroop-trial-1-incongruent-24", "trial_type": "html-keyboard-response", "trial_index": 213, "time_elapsed": 394578, "internal_node_id": "0.0-8.0-27.0"}}, {"uniqueid": "w15973615:a44117693", "current_trial": 214, "dateTime": 1664555311130, "trialdata": {"rt": 623, "stimulus": "<p id='stroop-text' class='stroop-blue'>WINDOW</p>", "response": "b", "stimulus-type": "unrelated", "word": "WINDOW", "color": "blue", "correct_response": "b", "trial_id": "stroop-trial-1-unrelated-23", "trial_type": "html-keyboard-response", "trial_index": 214, "time_elapsed": 395709, "internal_node_id": "0.0-8.0-28.0"}}, {"uniqueid": "w15973615:a44117693", "current_trial": 215, "dateTime": 1664555312163, "trialdata": {"rt": 524, "stimulus": "<p id='stroop-text' class='stroop-blue'>BRIDGE</p>", "response": "b", "stimulus-type": "unrelated", "word": "BRIDGE", "color": "blue", "correct_response": "b", "trial_id": "stroop-trial-1-unrelated-29", "trial_type": "html-keyboard-response", "trial_index": 215, "time_elapsed": 396741, "internal_node_id": "0.0-8.0-29.0"}}, {"uniqueid": "w15973615:a44117693", "current_trial": 216, "dateTime": 1664555313347, "trialdata": {"rt": 675, "stimulus": "<p id='stroop-text' class='stroop-blue'>SHIP</p>", "response": "b", "stimulus-type": "unrelated", "word": "SHIP", "color": "blue", "correct_response": "b", "trial_id": "stroop-trial-1-unrelated-7", "trial_type": "html-keyboard-response", "trial_index": 216, "time_elapsed": 397926, "internal_node_id": "0.0-8.0-30.0"}}, {"uniqueid": "w15973615:a44117693", "current_trial": 217, "dateTime": 1664555314436, "trialdata": {"rt": 579, "stimulus": "<p id='stroop-text' class='stroop-red'>BLUE</p>", "response": "r", "stimulus-type": "incongruent", "word": "blue", "color": "red", "correct_response": "r", "trial_id": "stroop-trial-1-incongruent-18", "trial_type": "html-keyboard-response", "trial_index": 217, "time_elapsed": 399013, "internal_node_id": "0.0-8.0-31.0"}}, {"uniqueid": "w15973615:a44117693", "current_trial": 218, "dateTime": 1664555315526, "trialdata": {"rt": 585, "stimulus": "<p id='stroop-text' class='stroop-green'>RED</p>", "response": "g", "stimulus-type": "incongruent", "word": "red", "color": "green", "correct_response": "g", "trial_id": "stroop-trial-1-incongruent-30", "trial_type": "html-keyboard-response", "trial_index": 218, "time_elapsed": 400105, "internal_node_id": "0.0-8.0-32.0"}}, {"uniqueid": "w15973615:a44117693", "current_trial": 219, "dateTime": 1664555316678, "trialdata": {"rt": 645, "stimulus": "<p id='stroop-text' class='stroop-blue'>YELLOW</p>", "response": "b", "stimulus-type": "incongruent", "word": "yellow", "color": "blue", "correct_response": "b", "trial_id": "stroop-trial-1-incongruent-25", "trial_type": "html-keyboard-response", "trial_index": 219, "time_elapsed": 401256, "internal_node_id": "0.0-8.0-33.0"}}, {"uniqueid": "w15973615:a44117693", "current_trial": 220, "dateTime": 1664555318021, "trialdata": {"rt": 839, "stimulus": "<p id='stroop-text' class='stroop-green'>BOTTLE</p>", "response": "g", "stimulus-type": "unrelated", "word": "BOTTLE", "color": "green", "correct_response": "g", "trial_id": "stroop-trial-1-unrelated-28", "trial_type": "html-keyboard-response", "trial_index": 220, "time_elapsed": 402599, "internal_node_id": "0.0-8.0-34.0"}}, {"uniqueid": "w15973615:a44117693", "current_trial": 221, "dateTime": 1664555318986, "trialdata": {"rt": 457, "stimulus": "<p id='stroop-text' class='stroop-green'>BLUE</p>", "response": "g", "stimulus-type": "incongruent", "word": "blue", "color": "green", "correct_response": "g", "trial_id": "stroop-trial-1-incongruent-2", "trial_type": "html-keyboard-response", "trial_index": 221, "time_elapsed": 403564, "internal_node_id": "0.0-8.0-35.0"}}, {"uniqueid": "w15973615:a44117693", "current_trial": 222, "dateTime": 1664555320071, "trialdata": {"rt": 578, "stimulus": "<p id='stroop-text' class='stroop-blue'>BLUE</p>", "response": "b", "stimulus-type": "congruent", "word": "blue", "color": "blue", "correct_response": "b", "trial_id": "stroop-trial-1-congruent-7", "trial_type": "html-keyboard-response", "trial_index": 222, "time_elapsed": 404649, "internal_node_id": 