{"condition": 1, "counterbalance": 0, "assignmentId": "a84877452", "workerId": "w84705526", "hitId": "h64509049", "currenttrial": 137, "bonus": 0, "data": [{"uniqueid": "w84705526:a84877452", "current_trial": 0, "dateTime": 1664464166297, "trialdata": {"success": true, "trial_type": "fullscreen", "trial_index": 0, "time_elapsed": 4488, "internal_node_id": "0.0-0.0"}}, {"uniqueid": "w84705526:a84877452", "current_trial": 1, "dateTime": 1664464180483, "trialdata": {"view_history": [{"page_index": 0, "viewing_time": 14181}], "rt": 14183, "trial_id": "exp_instructions_no_distractor", "trial_type": "instructions", "trial_index": 1, "time_elapsed": 18675, "internal_node_id": "0.0-1.0"}}, {"uniqueid": "w84705526:a84877452", "current_trial": 2, "dateTime": 1664464186409, "trialdata": {"success": true, "trial_type": "fullscreen", "trial_index": 2, "time_elapsed": 24601, "internal_node_id": "0.0-2.0-0.0"}}, {"uniqueid": "w84705526:a84877452", "current_trial": 3, "dateTime": 1664464276673, "trialdata": {"view_history": [{"page_index": 0, "viewing_time": 36740}, {"page_index": 1, "viewing_time": 20778}, {"page_index": 2, "viewing_time": 9887}, {"page_index": 3, "viewing_time": 5863}, {"page_index": 4, "viewing_time": 16995}], "rt": 90263, "trial_id": "mouselab_instructions_1", "trial_type": "instructions", "trial_index": 3, "time_elapsed": 114865, "internal_node_id": "0.0-2.0-1.0"}}, {"uniqueid": "w84705526:a84877452", "current_trial": 4, "dateTime": 1664464298518, "trialdata": {"revealed_states": [], "num_clicks_accrued": [0, 0, 0, 0, 0, 0, 0, 0, 0, 0, 0, 0, 0], "stateRewards": ["", 10, -10, -10, 10, -10, 10, 10, -10, -10, 10, -10, 10], "withholdReward": false, "trial_id": "practice_1", "block": "test", "trialIndex": 0, "score": 11.25, "costs": -0.75, "simulationMode": [null, null, null], "rewards": [10, -10, 10], "path": ["0", "0", "1", "2", "4"], "rt": [10051, 144, 98], "actions": ["up", "up", "left"], "actionTimes": [12156, 12859, 13531], "queries": {"click": {"state": {"target": ["5", "1", "4"], "time": [7556, 9304, 10245]}, "edge": {"target": [], "time": []}}, "mouseover": {"state": {"target": ["5", "0", "1", "1", "0", "4", "3"], "time": [6213, 8230, 8460, 8734, 9611, 9971, 10679]}, "edge": {"target": [], "time": []}}, "mouseout": {"state": {"target": ["0", "5", "0", "1", "1", "0", "4", "1", "3", "8"], "time": [6129, 7796, 8265, 8557, 9530, 9812, 10425, 10580, 11183, 14143]}, "edge": {"target": [], "time": []}}}, "displayed_time": "14.09", "trialTime": 20036, "trial_type": "mouselab-mdp", "trial_index": 4, "time_elapsed": 136710, "internal_node_id": "0.0-2.0-2.0-0.0"}}, {"uniqueid": "w84705526:a84877452", "current_trial": 5, "dateTime": 1664464319942, "trialdata": {"revealed_states": [], "num_clicks_accrued": [0, 0, 0, 0, 0, 0, 0, 0, 0, 0, 0, 0, 0], "stateRewards": ["", -10, 10, -10, 10, -10, 10, 10, 10, 10, 10, -10, -10], "withholdReward": false, "trial_id": "practice_2", "block": "test", "trialIndex": 1, "score": 10.5, "costs": -1.5, "simulationMode": [null, null, null], "rewards": [10, 10, -10], "path": ["0", "0", "9", "10", "12"], "rt": [12915, 15, 1571], "actions": ["left", "left", "down"], "actionTimes": [14864, 15430, 17574], "queries": {"click": {"state": {"target": ["1", "9", "12", "11", "5", "10"], "time": [3321, 4219, 5389, 6580, 9127, 10786]}, "edge": {"target": [], "time": []}}, "mouseover": {"state": {"target": ["1", "0", "9", "10", "12", "10", "11", "10", "5", "6", "10", "2", "2"], "time": [2426, 3808, 4056, 4931, 5182, 6091, 6162, 7341, 8688, 9606, 10545, 12188, 14216]}, "edge": {"target": [], "time": []}}, "mouseout": {"state": {"target": ["5", "0", "1", "0", "9", "9", "10", "12", "10", "11", "9", "10", "9", "5", "6", "5", "9", "10", "1", "2", "2", "3", "5", "1"], "time": [134, 2377, 3508, 3833, 4423, 4908, 5158, 5561, 6137, 6743, 7245, 8375, 8458, 9276, 9922, 10074, 10523, 11057, 11738, 13125, 14239, 18617, 19307, 19972]}, "edge": {"target": [], "time": []}}}, "displayed_time": "18.14", "trialTime": 20975, "trial_type": "mouselab-mdp", "trial_index": 5, "time_elapsed": 158134, "internal_node_id": "0.0-2.0-2.0-1.0"}}, {"uniqueid": "w84705526:a84877452", "current_trial": 6, "dateTime": 1664464369364, "trialdata": {"view_history": [{"page_index": 0, "viewing_time": 35133}, {"page_index": 1, "viewing_time": 9704}, {"page_index": 2, "viewing_time": 4582}], "rt": 49419, "trial_id": "mouselab_instructions_2_scarce", "trial_type": "instructions", "trial_index": 6, "time_elapsed": 207556, "internal_node_id": "0.0-2.0-3.0"}}, {"uniqueid": "w84705526:a84877452", "current_trial": 7, "dateTime": 1664464401075, "trialdata": {"rt": 31706, "response": {"Q0": "$-48 to $48", "Q1": "The cost is always $0.25.", "Q2": "The better I perform the higher my bonus will be.", "Q3": "No, the amount of cash at each node of the web may be different each time.", "Q4": "The values of the nodes walked through from start to finish.", "Q5": "No, the spider might forget to count the money on some rounds."}, "question_order": [0, 1, 2, 3, 4, 5], "correct": {"Q0": "$-48 to $48", "Q1": "The cost is always $0.25.", "Q2": "The better I perform the higher my bonus will be.", "Q3": "No, the amount of cash at each node of the web may be different each time.", "Q4": "The values of the nodes walked through from start to finish.", "Q5": "No, the spider might forget to count the money on some rounds."}, "trial_id": "mouselab_quiz_scarce", "trial_type": "survey-multi-choice", "trial_index": 7, "time_elapsed": 239267, "internal_node_id": "0.0-2.0-4.0"}}, {"uniqueid": "w84705526:a84877452", "current_trial": 8, "dateTime": 1664464413247, "trialdata": {"rt": 12165, "stimulus": "\n<h1> Get ready to start the game! </h1>\n\nThank you for reading the instructions. Get ready start with the first of 4 block(s) of this game.\n<br><br>\nIn this first block, you will complete 30 rounds of this game before moving on.\n<br><br>\nRemember, the more money the spider gets, the bigger your bonus will be!\n<br><br>\n<div style='text-align: center;'>Press <code>space</code> to begin.</div>\n\n<br><br>\n(If, at any point, the <code>space</code> key does not take you to the next page, click once on the text and try again.)", "response": " ", "trial_id": "mdp_ready_1", "trial_type": "html-keyboard-response", "trial_index": 8, "time_elapsed": 251439, "internal_node_id": "0.0-4.0-0.0"}}, {"uniqueid": "w84705526:a84877452", "current_trial": 9, "dateTime": 1664464432367, "trialdata": {"revealed_states": [], "num_clicks_accrued": [0, 0, 0, 0, 0, 0, 0, 0, 0, 0, 0, 0, 0], "stateRewards": ["", 4, -8, 24, 48, 2, 4, 48, 48, 2, 8, -48, -48], "withholdReward": true, "trial_id": "mdp_783704746330", "block": "test1", "trialIndex": 2, "score": 56.25, "costs": -2.75, "simulationMode": [null, null, null], "rewards": [2, 4, 48], "path": ["0", "0", "5", "6", "7"], "rt": [12610, 491, 469], "actions": ["right", "right", "up"], "actionTimes": [13929, 14985, 16026], "queries": {"click": {"state": {"target": ["9", "1", "5", "2", "4", "11", "12", "10", "6", "7", "8"], "time": [2822, 4660, 5110, 5994, 6541, 9182, 10036, 10490, 11376, 11630, 12672]}, "edge": {"target": [], "time": []}}, "mouseover": {"state": {"target": ["0", "9", "10", "11", "1", "5", "2", "4", "10", "11", "10", "12", "10", "6", "7", "8", "8"], "time": [1603, 2024, 3904, 4309, 4558, 4907, 5673, 6425, 8857, 9074, 9502, 9973, 10421, 11005, 11558, 11880, 12131]}, "edge": {"target": [], "time": []}}, "mouseout": {"state": {"target": ["0", "0", "9", "9", "10", "11", "1", "5", "2", "4", "9", "9", "10", "11", "10", "12", "10", "6", "7", "6", "8", "8"], "time": [836, 1923, 3039, 3806, 4173, 4333, 4842, 5275, 6158, 6791, 7223, 8492, 8922, 9374, 9644, 10307, 10609, 11509, 11808, 11856, 11954, 12826]}, "edge": {"target": [], "time": []}}}, "displayed_time": "16.56", "trialTime": 18714, "trial_type": "mouselab-mdp", "trial_index": 9, "time_elapsed": 270559, "internal_node_id": "0.0-4.0-1.0-0.0"}}, {"uniqueid": "w84705526:a84877452", "current_trial": 10, "dateTime": 1664464452359, "trialdata": {"revealed_states": [], "num_clicks_accrued": [0, 0, 0, 0, 0, 0, 0, 0, 0, 0, 0, 0, 0], "stateRewards": ["", 4, -4, 48, 24, 2, -8, 24, -48, -2, -4, -48, -48], "withholdReward": false, "trial_id": "mdp_655302318695", "block": "test1", "trialIndex": 3, "score": 50, "costs": -3, "simulationMode": [null, null, null], "rewards": [4, -4, 48], "path": ["0", "0", "1", "2", "3"], "rt": [13145, 27, 932], "actions": ["up", "up", "right"], "actionTimes": [15594, 16185, 17675], "queries": {"click": {"state": {"target": ["9", "1", "2", "6", "10", "4", "3", "7", "5", "8", "11", "12"], "time": [3680, 5616, 6237, 6993, 7806, 8941, 9393, 12751, 13028, 13620, 14506, 14792]}, "edge": {"target": [], "time": []}}, "mouseover": {"state": {"target": ["9", "0", "1", "1", "0", "2", "5", "6", "5", "0", "10", "0", "4", "3", "5", "7", "5", "8", "11", "12"], "time": [3370, 4340, 4577, 5443, 5815, 6072, 6576, 6910, 7311, 7477, 7733, 8493, 8796, 9231, 9996, 10412, 12958, 13576, 14378, 14708]}, "edge": {"target": [], "time": []}}, "mouseout": {"state": {"target": ["8", "0", "9", "9", "0", "1", "1", "0", "1", "2", "1", "5", "6", "5", "0", "9", "10", "0", "1", "4", "2", "3", "5", "7", "5", "8", "10", "11", "10", "12"], "time": [921, 3348, 3913, 4313, 4363, 4978, 5761, 5961, 6046, 6430, 6528, 6660, 7237, 7447, 7528, 7616, 8162, 8562, 8695, 9134, 9209, 9561, 10080, 12876, 13494, 13845, 14113, 14629, 14685, 15162]}, "edge": {"target": [], "time": []}}}, "displayed_time": "18.24", "trialTime": 19579, "trial_type": "mouselab-mdp", "trial_index": 10, "time_elapsed": 290551, "internal_node_id": "0.0-4.0-1.0-1.0"}}, {"uniqueid": "w84705526:a84877452", "current_trial": 11, "dateTime": 1664464468301, "trialdata": {"revealed_states": [], "num_clicks_accrued": [0, 0, 0, 0, 0, 0, 0, 0, 0, 0, 0, 0, 0], "stateRewards": ["", 2, 8, -24, -48, 2, 4, -24, 48, 2, -8, 48, -24], "withholdReward": true, "trial_id": "mdp_791659307216", "block": "test1", "trialIndex": 4, "score": 56.5, "costs": -2.5, "simulationMode": [null, null, null], "rewards": [2, 4, 48], "path": ["0", "0", "5", "6", "8"], "rt": [9282, 446, 820], "actions": ["right", "right", "down"], "actionTimes": [10738, 11754, 13144], "queries": {"click": {"state": {"target": ["2", "6", "10", "9", "5", "1", "3", "4", "7", "8"], "time": [2476, 3458, 4137, 4600, 5023, 6174, 7928, 8491, 9205, 9592]}, "edge": {"target": [], "time": []}}, "mouseover": {"state": {"target": ["0", "1", "2", "1", "5", "6", "5", "0", "9", "10", "9", "0", "5", "0", "1", "0", "3", "3", "4", "7", "8"], "time": [1825, 1957, 2256, 2747, 2880, 2930, 3698, 3787, 3840, 3975, 4492, 4771, 4855, 6005, 6093, 6473, 7589, 7873, 8359, 9091, 9507]}, "edge": {"target": [], "time": []}}, "mouseout": {"state": {"target": ["0", "0", "1", "2", "1", "5", "6", "5", "0", "9", "10", "9", "0", "5", "0", "1", "0", "1", "3", "3", "2", "4", "1", "7", "6", "8"], "time": [951, 1852, 2061, 2691, 2776, 2907, 3661, 3759, 3813, 3908, 4409, 4745, 4796, 5207, 6043, 6375, 7241, 7325, 7710, 8179, 8287, 8729, 8875, 9358, 9441, 9907]}, "edge": {"target": [], "time": []}}}, "displayed_time": "13.71", "trialTime": 15520, "trial_type": "mouselab-mdp", "trial_index": 11, "time_elapsed": 306493, "internal_node_id": "0.0-4.0-1.0-2.0"}}, {"uniqueid": "w84705526:a84877452", "current_trial": 12, "dateTime": 1664464484182, "trialdata": {"revealed_states": [], "num_clicks_accrued": [0, 0, 0, 0, 0, 0, 0, 0, 0, 0, 0, 0, 0], "stateRewards": ["", -4, 8, -24, -24, 4, -8, 48, -24, -4, -8, -24, -48], "withholdReward": true, "trial_id": "mdp_391766721791", "block": "test1", "trialIndex": 5, "score": 46, "costs": -3, "simulationMode": [null, null, null], "rewards": [4, -8, 48], "path": ["0", "0", "5", "6", "7"], "rt": [10461, 511, 499], "actions": ["right", "right", "up"], "actionTimes": [11622, 12701, 13734], "queries": {"click": {"state": {"target": ["5", "1", "9", "10", "6", "2", "3", "4", "11", "12", "8", "7"], "time": [2888, 3375, 4264, 4826, 5372, 6068, 6677, 7431, 7938, 8619, 9683, 10398]}, "edge": {"target": [], "time": []}}, "mouseover": {"state": {"target": ["5", "5", "6", "5", "1", "9", "9", "10", "0", "6", "2", "3", "4", "11", "12", "8", "8", "7", "7"], "time": [1219, 1807, 2144, 2336, 3218, 3883, 4165, 4632, 5058, 5158, 5859, 6615, 7331, 7879, 8549, 9068, 9613, 9937, 10263]}, "edge": {"target": [], "time": []}}, "mouseout": {"state": {"target": ["0", "5", "5", "6", "5", "1", "9", "9", "10", "9", "0", "5", "6", "5", "1", "2", "1", "3", "1", "4", "11", "10", "12", "8", "8", "6", "7", "7", "8"], "time": [657, 1333, 1981, 2216, 3066, 3534, 3948, 4416, 5005, 5032, 5085, 5133, 5634, 5785, 5833, 6232, 6413, 6816, 7135, 7665, 8132, 8249, 8815, 9183, 9849, 9915, 9961, 10547, 15101]}, "edge": {"target": [], "time": []}}}, "displayed_time": "14.29", "trialTime": 15461, "trial_type": "mouselab-mdp", "trial_index": 12, "time_elapsed": 322374, "internal_node_id": "0.0-4.0-1.0-3.0"}}, {"uniqueid": "w84705526:a84877452", "current_trial": 13, "dateTime": 1664464495703, "trialdata": {"revealed_states": [], "num_clicks_accrued": [0, 0, 0, 0, 0, 0, 0, 0, 0, 0, 0, 0, 0], "stateRewards": ["", 2, 8, -48, -24, 4, 4, 24, 48, 4, -4, -48, 48], "withholdReward": true, "trial_id": "mdp_665096999232", "block": "test1", "trialIndex": 6, "score": 59.5, "costs": -1.5, "simulationMode": [null, null, null], "rewards": [4, 4, 48], "path": ["0", "0", "5", "6", "8"], "rt": [5738, 2, 7], "actions": ["right", "right", "down"], "actionTimes": [7185, 7771, 8329], "queries": {"click": {"state": {"target": ["4", "3", "7", "8", "6", "5"], "time": [3208, 3833, 4298, 4814, 5798, 6123]}, "edge": {"target": [], "time": []}}, "mouseover": {"state": {"target": ["0", "1", "4", "2", "3", "7", "6", "8", "6", "5"], "time": [1516, 1951, 2233, 3561, 3672, 4107, 4516, 4655, 5721, 5979]}, "edge": {"target": [], "time": []}}, "mouseout": {"state": {"target": ["0", "0", "1", "4", "2", "3", "7", "6", "8", "6", "5"], "time": [1000, 1885, 2002, 3534, 3587, 4001, 4484, 4554, 5016, 5952, 6452]}, "edge": {"target": [], "time": []}}}, "displayed_time": "10.45", "trialTime": 11019, "trial_type": "mouselab-mdp", "trial_index": 13, "time_elapsed": 333895, "internal_node_id": "0.0-4.0-1.0-4.0"}}, {"uniqueid": "w84705526:a84877452", "current_trial": 14, "dateTime": 1664464507766, "trialdata": {"revealed_states": [], "num_clicks_accrued": [0, 0, 0, 0, 0, 0, 0, 0, 0, 0, 0, 0, 0], "stateRewards": ["", -4, 8, 24, -24, -2, 4, -24, 48, -2, 8, -48, -24], "withholdReward": false, "trial_id": "mdp_799359103169", "block": "test1", "trialIndex": 7, "score": 53, "costs": -2, "simulationMode": [null, null, null], "rewards": [-2, 4, 48], "path": ["0", "0", "5", "6", "8"], "rt": [6822, 635, 310], "actions": ["right", "right", "down"], "actionTimes": [8012, 9195, 10076], "queries": {"click": {"state": {"target": ["4", "3", "7", "8", "5", "6", "12", "11"], "time": [2542, 3129, 3698, 4640, 5733, 6099, 6841, 7126]}, "edge": {"target": [], "time": []}}, "mouseover": {"state": {"target": ["5", "6", "5", "0", "4", "3", "7", "6", "8", "8", "5", "6", "12", "10", "11", "9"], "time": [1596, 1860, 2050, 2161, 2328, 2945, 3578, 3908, 3968, 4275, 5627, 6044, 6694, 6994, 7076, 7401]}, "edge": {"target": [], "time": []}}, "mouseout": {"state": {"target": ["0", "5", "6", "5", "0", "4", "3", "7", "6", "8", "8", "5", "6", "8", "12", "10", "11", "9", "0"], "time": [1477, 1728, 1980, 2077, 2213, 2762, 3295, 3860, 3940, 4030, 4846, 5944, 6313, 6379, 6962, 7029, 7347, 7444, 10998]}, "edge": {"target": [], "time": []}}}, "displayed_time": "10.64", "trialTime": 11644, "trial_type": "mouselab-mdp", "trial_index": 14, "time_elapsed": 345958, "internal_node_id": "0.0-4.0-1.0-5.0"}}, {"uniqueid": "w84705526:a84877452", "current_trial": 15, "dateTime": 1664464524807, "trialdata": {"revealed_states": [], "num_clicks_accrued": [0, 0, 0, 0, 0, 0, 0, 0, 0, 0, 0, 0, 0], "stateRewards": ["", -2, -8, 24, -48, 4, 4, -24, -48, -2, -8, -48, 24], "withholdReward": true, "trial_id": "mdp_556006673466", "block": "test1", "trialIndex": 8, "score": 16, "costs": -3, "simulationMode": [null, null, null], "rewards": [-2, -8, 24], "path": ["0", "0", "9", "10", "12"], "rt": [11987, 2, 433], "actions": ["left", "left", "down"], "actionTimes": [13080, 13620, 14617], "queries": {"click": {"state": {"target": ["7", "8", "3", "4", "11", "12", "9", "10", "1", "2", "5", "6"], "time": [2206, 2472, 3221, 3990, 4551, 5187, 6778, 7250, 8331, 8576, 9231, 9473]}, "edge": {"target": [], "time": []}}, "mouseover": {"state": {"target": ["5", "6", "7", "6", "8", "3", "2", "4", "11", "10", "12", "1", "9", "10", "1", "2", "1", "2", "5", "5", "6"], "time": [1842, 1932, 2047, 2358, 2404, 3066, 3411, 3950, 4419, 4712, 5027, 6300, 6600, 7116, 7715, 8133, 8232, 8552, 8899, 9065, 9449]}, "edge": {"target": [], "time": []}}, "mouseout": {"state": {"target": ["0", "5", "6", "7", "6", "8", "3", "2", "4", "11", "10", "12", "1", "9", "10", "1", "2", "1", "2", "1", "5", "5", "6", "8"], "time": [1818, 1903, 1955, 2333, 2384, 2723, 3384, 3499, 4351, 4686, 4786, 5335, 6517, 6919, 7386, 7766, 8203, 8483, 8703, 8798, 8950, 9369, 9638, 9716]}, "edge": {"target": [], "time": []}}}, "displayed_time": "15.18", "trialTime": 16625, "trial_type": "mouselab-mdp", "trial_index": 15, "time_elapsed": 362999, "internal_node_id": "0.0-4.0-1.0-6.0"}}, {"uniqueid": "w84705526:a84877452", "current_trial": 16, "dateTime": 1664464537494, "trialdata": {"revealed_states": [], "num_clicks_accrued": [0, 0, 0, 0, 0, 0, 0, 0, 0, 0, 0, 0, 0], "stateRewards": ["", -2, -8, -48, 24, 2, -4, -48, 48, 2, 4, 24, -24], "withholdReward": false, "trial_id": "mdp_849341543762", "block": "test1", "trialIndex": 9, "score": 49, "costs": -2, "simulationMode": [null, null, null], "rewards": [2, -4, 48], "path": ["0", "0", "5", "6", "8"], "rt": [6555, 548, 127], "actions": ["right", "right", "down"], "actionTimes": [8344, 9455, 10143], "queries": {"click": {"state": {"target": ["12", "11", "4", "3", "7", "8", "5", "6"], "time": [2421, 3162, 4440, 5041, 5498, 5920, 6814, 7013]}, "edge": {"target": [], "time": []}}, "mouseover": {"state": {"target": ["12", "10", "11", "4", "3", "7", "6", "8", "6", "5", "6"], "time": [2191, 2853, 3075, 4275, 5005, 5343, 5659, 5758, 6609, 6723, 6965]}, "edge": {"target": [], "time": []}}, "mouseout": {"state": {"target": ["5", "0", "12", "12", "10", "11", "4", "3", "7", "6", "8", "8", "6", "5", "6"], "time": [720, 2138, 2610, 2826, 2879, 3341, 4709, 5177, 5607, 5705, 6075, 6557, 6637, 6943, 7224]}, "edge": {"target": [], "time": []}}}, "displayed_time": "10.79", "trialTime": 12255, "trial_type": "mouselab-mdp", "trial_index": 16, "time_elapsed": 375686, "internal_node_id": "0.0-4.0-1.0-7.0"}}, {"uniqueid": "w84705526:a84877452", "current_trial": 17, "dateTime": 1664464551239, "trialdata": {"revealed_states": [], "num_clicks_accrued": [0, 0, 0, 0, 0, 0, 0, 0, 0, 0, 0, 0, 0], "stateRewards": ["", -2, 4, -48, -48, -4, -8, 48, -48, 2, 4, 48, -48], "withholdReward": true, "trial_id": "mdp_258647270500", "block": "test1", "trialIndex": 10, "score": 56.75, "costs": -2.25, "simulationMode": [null, null, null], "rewards": [2, 4, 48], "path": ["0", "0", "9", "10", "11"], "rt": [8915, 588, 370], "actions": ["left", "left", "up"], "actionTimes": [9968, 11136, 12064], "queries": {"click": {"state": {"target": ["8", "7", "5", "6", "3", "4", "11", "9", "10"], "time": [1866, 2210, 4205, 4427, 7469, 7945, 8418, 9309, 9569]}, "edge": {"target": [], "time": []}}, "mouseover": {"state": {"target": ["0", "8", "6", "7", "6", "5", "1", "4", "2", "1", "5", "6", "3", "3", "2", "2", "3", "4", "11", "10", "12", "9", "10"], "time": [1235, 1767, 2052, 2105, 2454, 2520, 2603, 2751, 2902, 3719, 3915, 4358, 5582, 7018, 7074, 7319, 7378, 7850, 8349, 8584, 8668, 9281, 9489]}, "edge": {"target": [], "time": []}}, "mouseout": {"state": {"target": ["0", "0", "8", "6", "7", "6", "5", "1", "4", "2", "1", "5", "6", "8", "8", "5", "3", "3", "2", "2", "3", "4", "11", "10", "12", "9", "10"], "time": [1111, 1504, 2024, 2078, 2367, 2483, 2546, 2627, 2796, 3470, 3744, 4336, 4636, 4751, 5303, 5368, 5935, 7043, 7100, 7354, 7638, 8117, 8552, 8635, 9086, 9467, 9786]}, "edge": {"target": [], "time": []}}}, "displayed_time": "12.62", "trialTime": 13313, "trial_type": "mouselab-mdp", "trial_index": 17, "time_elapsed": 389431, "internal_node_id": "0.0-4.0-1.0-8.0"}}, {"uniqueid": "w84705526:a84877452", "current_trial": 18, "dateTime": 1664464564158, "trialdata": {"revealed_states": [], "num_clicks_accrued": [0, 0, 0, 0, 0, 0, 0, 0, 0, 0, 0, 0, 0], "stateRewards": ["", -4, -8, -24, 24, 4, 4, -48, -48, -4, -4, 24, -48], "withholdReward": true, "trial_id": "mdp_431592223624", "block": "test1", "trialIndex": 11, "score": 18.5, "costs": -2.5, "simulationMode": [null, null, null], "rewards": [-4, -4, 24], "path": ["0", "0", "9", "10", "11"], "rt": [8006, 595, 2], "actions": ["left", "left", "up"], "actionTimes": [9788, 10941, 11514], "queries": {"click": {"state": {"target": ["12", "11", "4", "3", "7", "8", "9", "10", "1", "2"], "time": [2575, 3079, 3599, 3928, 4941, 5279, 6476, 7831, 8370, 8626]}, "edge": {"target": [], "time": []}}, "mouseover": {"state": {"target": ["12", "10", "11", "4", "2", "3", "7", "6", "8", "6", "7", "6", "8", "9", "10", "1", "2", "0"], "time": [2494, 2887, 2978, 3534, 3767, 3835, 4201, 4546, 4663, 4821, 4887, 5112, 5211, 6177, 7727, 8161, 8523, 9129]}, "edge": {"target": [], "time": []}}, "mouseout": {"state": {"target": ["0", "12", "10", "11", "4", "2", "3", "7", "6", "8", "6", "7", "6", "8", "9", "10", "1", "2", "0"], "time": [2280, 2862, 2930, 3248, 3716, 3800, 4100, 4229, 4612, 4795, 4862, 5078, 5162, 5479, 6612, 8029, 8497, 8811, 9153]}, "edge": {"target": [], "time": []}}}, "displayed_time": "12.07", "trialTime": 12477, "trial_type": "mouselab-mdp", "trial_index": 18, "time_elapsed": 402350, "internal_node_id": "0.0-4.0-1.0-9.0"}}, {"uniqueid": "w84705526:a84877452", "current_trial": 19, "dateTime": 1664464577774, "trialdata": {"revealed_states": [], "num_clicks_accrued": [0, 0, 0, 0, 0, 0, 0, 0, 0, 0, 0, 0, 0], "stateRewards": ["", -2, -8, -24, 48, -2, -8, -48, -48, 2, -8, -48, 24], "withholdReward": true, "trial_id": "mdp_288324580942", "block": "test1", "trialIndex": 12, "score": 40.5, "costs": -2.5, "simulationMode": [null, null, null], "rewards": [-2, -8, 48], "path": ["0", "0", "1", "2", "4"], "rt": [7698, 516, 264], "actions": ["up", "up", "left"], "actionTimes": [9558, 10661, 11469], "queries": {"click": {"state": {"target": ["11", "12", "7", "8", "3", "4", "1", "2", "9", "10"], "time": [2654, 2956, 3742, 4411, 5582, 5967, 6568, 6772, 7928, 8487]}, "edge": {"target": [], "time": []}}, "mouseover": {"state": {"target": ["0", "9", "11", "10", "12", "6", "7", "6", "8", "6", "3", "3", "3", "2", "4", "1", "2", "9", "10"], "time": [1922, 2271, 2554, 2817, 2868, 3439, 3661, 3890, 4089, 4618, 4721, 5245, 5471, 5748, 5801, 6489, 6706, 7674, 8367]}, "edge": {"target": [], "time": []}}, "mouseout": {"state": {"target": ["12", "11", "1", "0", "0", "9", "11", "10", "12", "6", "7", "6", "8", "6", "3", "3", "3", "2", "4", "1", "2", "1", "9", "10", "9"], "time": [552, 816, 902, 1348, 1991, 2391, 2789, 2842, 3195, 3525, 3855, 3941, 4590, 4643, 4853, 5373, 5721, 5775, 6188, 6677, 6988, 7238, 8023, 8821, 8855]}, "edge": {"target": [], "time": []}}}, "displayed_time": "12.03", "trialTime": 13204, "trial_type": "mouselab-mdp", "trial_index": 19, "time_elapsed": 415966, "internal_node_id": "0.0-4.0-1.0-10.0"}}, {"uniqueid": "w84705526:a84877452", "current_trial": 20, "dateTime": 1664464588687, "trialdata": {"revealed_states": [], "num_clicks_accrued": [0, 0, 0, 0, 0, 0, 0, 0, 0, 0, 0, 0, 0], "stateRewards": ["", -4, 4, 48, 24, -4, 4, -24, 48, -2, -8, 24, -48], "withholdReward": true, "trial_id": "mdp_261501605436", "block": "test1", "trialIndex": 13, "score": 52, "costs": -1, "simulationMode": [null, null, null], "rewards": [-4, 4, 48], "path": ["0", "0", "1", "2", "3"], "rt": [5871, 38, 80], "actions": ["up", "up", "right"], "actionTimes": [6903, 7485, 8127], "queries": {"click": {"state": {"target": ["11", "12", "4", "3"], "time": [2017, 2872, 4038, 4286]}, "edge": {"target": [], "time": []}}, "mouseover": {"state": {"target": ["0", "9", "11", "10", "12", "12", "4", "4", "2", "3", "2", "4", "2", "3", "7", "7", "2"], "time": [1091, 1663, 1995, 2164, 2220, 2496, 3231, 3498, 3558, 3601, 3841, 3930, 4198, 4241, 4598, 4948, 5405]}, "edge": {"target": [], "time": []}}, "mouseout": {"state": {"target": ["0", "0", "9", "11", "10", "12", "12", "4", "4", "2", "3", "2", "4", "2", "3", "7", "7", "2", "5"], "time": [576, 1447, 1748, 2137, 2192, 2266, 3048, 3314, 3526, 3581, 3815, 3865, 4168, 4223, 4515, 4628, 4998, 5536, 9264]}, "edge": {"target": [], "time": []}}}, "displayed_time": "9.03", "trialTime": 10495, "trial_type": "mouselab-mdp", "trial_index": 20, "time_elapsed": 426879, "internal_node_id": "0.0-4.0-1.0-11.0"}}, {"uniqueid": "w84705526:a84877452", "current_trial": 21, "dateTime": 1664464600166, "trialdata": {"revealed_states": [], "num_clicks_accrued": [0, 0, 0, 0, 0, 0, 0, 0, 0, 0, 0, 0, 0], "stateRewards": ["", -4, -8, 48, -24, 4, -8, 48, 48, -2, 4, -48, -24], "withholdReward": true, "trial_id": "mdp_925905402462", "block": "test1", "trialIndex": 14, "score": 40.75, "costs": -0.25, "simulationMode": [null, null, null], "rewards": [-4, -8, 48], "path": ["0", "0", "1", "2", "3"], "rt": [1937, 610, 18], "actions": ["up", "up", "right"], "actionTimes": [3020, 4206, 4780], "queries": {"click": {"state": {"target": ["3"], "time": [2023]}, "edge": {"target": [], "time": []}}, "mouseover": {"state": {"target": ["0", "3", "3"], "time": [1230, 1525, 1893]}, "edge": {"target": [], "time": []}}, "mouseout": {"state": {"target": ["0", "0", "3", "3", "5"], "time": [1141, 1420, 1573, 2238, 3709]}, "edge": {"target": [], "time": []}}}, "displayed_time": "10.08", "trialTime": 11053, "trial_type": "mouselab-mdp", "trial_index": 21, "time_elapsed": 438358, "internal_node_id": "0.0-4.0-1.0-12.0"}}, {"uniqueid": "w84705526:a84877452", "current_trial": 22, "dateTime": 1664464611950, "trialdata": {"revealed_states": [], "num_clicks_accrued": [0, 0, 0, 0, 0, 0, 0, 0, 0, 0, 0, 0, 0], "stateRewards": ["", 4, -8, -48, 24, 4, 4, -24, -24, 2, 4, -48, 24], "withholdReward": true, "trial_id": "mdp_626971397185", "block": "test1", "trialIndex": 15, "score": 32.5, "costs": -2.5, "simulationMode": [null, null, null], "rewards": [2, 4, 24], "path": ["0", "0", "9", "10", "12"], "rt": [7101, 3, 42], "actions": ["left", "left", "down"], "actionTimes": [8545, 9112, 9705], "queries": {"click": {"state": {"target": ["3", "4", "11", "12", "7", "8", "9", "10", "1", "2"], "time": [2283, 3573, 4340, 4706, 5290, 5977, 6768, 7064, 7495, 7710]}, "edge": {"target": [], "time": []}}, "mouseover": {"state": {"target": ["0", "2", "3", "1", "4", "4", "4", "11", "10", "12", "6", "7", "6", "8", "9", "10", "1", "2"], "time": [1798, 1968, 2112, 2767, 2966, 3313, 3515, 4215, 4508, 4599, 5066, 5185, 5464, 5899, 6616, 6943, 7364, 7676]}, "edge": {"target": [], "time": []}}, "mouseout": {"state": {"target": ["8", "0", "0", "2", "3", "1", "4", "4", "4", "11", "10", "12", "6", "7", "6", "8", "9", "10", "9", "1", "2", "1", "5"], "time": [724, 1504, 1824, 2082, 2429, 2831, 3046, 3414, 3715, 4482, 4549, 4901, 5150, 5437, 5547, 6163, 6903, 7217, 7300, 7647, 7947, 8030, 9208]}, "edge": {"target": [], "time": []}}}, "displayed_time": "10.27", "trialTime": 11378, "trial_type": "mouselab-mdp", "trial_index": 22, "time_elapsed": 450142, "internal_node_id": "0.0-4.0-1.0-13.0"}}, {"uniqueid": "w84705526:a84877452", "current_trial": 23, "dateTime": 1664464656543, "trialdata": {"revealed_states": [], "num_clicks_accrued": [0, 0, 0, 0, 0, 0, 0, 0, 0, 0, 0, 0, 0], "stateRewards": ["", 2, -4, -24, 24, 2, 8, 48, 48, 2, -8, 48, -24], "withholdReward": false, "trial_id": "mdp_330392242530", "block": "test1", "trialIndex": 16, "score": 62.25, "costs": -0.75, "simulationMode": [null, null, null], "rewards": [2, 8, 48], "path": ["0", "0", "5", "6", "7"], "rt": [3196, 3, 664], "actions": ["right", "right", "up"], "actionTimes": [4192, 4783, 5999], "queries": {"click": {"state": {"target": ["4", "3", "7"], "time": [1595, 2229, 2745]}, "edge": {"target": [], "time": []}}, "mouseover": {"state": {"target": ["1", "4", "2", "3", "7", "6", "8", "6", "8"], "time": [1332, 1545, 1846, 2028, 2713, 2918, 3012, 3294, 4130]}, "edge": {"target": [], "time": []}}, "mouseout": {"state": {"target": ["0", "1", "4", "2", "3", "7", "6", "8", "6", "8", "0", "11", "7"], "time": [1281, 1379, 1812, 1946, 2367, 2880, 2963, 3245, 3462, 4712, 31425, 31575, 31976]}, "edge": {"target": [], "time": []}}}, "displayed_time": "9.00", "trialTime": 44153, "trial_type": "mouselab-mdp", "trial_index": 23, "time_elapsed": 494735, "internal_node_id": "0.0-4.0-1.0-14.0"}}, {"uniqueid": "w84705526:a84877452", "current_trial": 24, "dateTime": 1664464669182, "trialdata": {"revealed_states": [], "num_clicks_accrued": [0, 0, 0, 0, 0, 0, 0, 0, 0, 0, 0, 0, 0], "stateRewards": ["", -2, -4, -24, 24, -2, 4, -24, -24, -4, 4, 24, -24], "withholdReward": true, "trial_id": "mdp_999419261719", "block": "test1", "trialIndex": 17, "score": 26.5, "costs": -2.5, "simulationMode": [null, null, null], "rewards": [-4, 4, 24], "path": ["0", "0", "9", "10", "11"], "rt": [7385, 84, 462], "actions": ["left", "left", "up"], "actionTimes": [9122, 9787, 10812], "queries": {"click": {"state": {"target": ["7", "3", "4", "11", "12", "8", "10", "9", "1", "2"], "time": [2847, 3467, 3907, 4436, 4963, 6047, 6937, 7368, 8332, 8542]}, "edge": {"target": [], "time": []}}, "mouseover": {"state": {"target": ["7", "7", "3", "2", "4", "11", "10", "12", "8", "10", "9", "1", "1", "2"], "time": [2675, 2792, 3343, 3676, 3767, 4344, 4637, 4939, 5955, 6611, 7307, 8060, 8274, 8505]}, "edge": {"target": [], "time": []}}, "mouseout": {"state": {"target": ["0", "7", "7", "7", "3", "2", "4", "11", "10", "12", "8", "10", "9", "1", "1", "2"], "time": [2062, 2698, 3108, 3277, 3626, 3742, 4126, 4611, 4762, 5208, 6228, 7175, 7643, 8107, 8480, 8761]}, "edge": {"target": [], "time": []}}}, "displayed_time": "11.38", "trialTime": 12162, "trial_type": "mouselab-mdp", "trial_index": 24, "time_elapsed": 507374, "internal_node_id": "0.0-4.0-1.0-15.0"}}, {"uniqueid": "w84705526:a84877452", "current_trial": 25, "dateTime": 1664464679583, "trialdata": {"revealed_states": [], "num_clicks_accrued": [0, 0, 0, 0, 0, 0, 0, 0, 0, 0, 0, 0, 0], "stateRewards": ["", 2, -8, 24, 24, 4, -4, -24, -48, 4, 8, 24, 24], "withholdReward": true, "trial_id": "mdp_249803813713", "block": "test1", "trialIndex": 18, "score": 38.5, "costs": -2.5, "simulationMode": [null, null, null], "rewards": [4, 8, 24], "path": ["0", "0", "9", "10", "11"], "rt": [6395, 61, 2], "actions": ["left", "left", "up"], "actionTimes": [7245, 7876, 8425], "queries": {"click": {"state": {"target": ["11", "12", "4", "3", "7", "8", "10", "9", "1", "2"], "time": [1678, 2323, 2896, 3301, 3696, 4207, 5188, 5503, 6671, 6851]}, "edge": {"target": [], "time": []}}, "mouseover": {"state": {"target": ["0", "9", "11", "9", "12", "10", "4", "2", "3", "7", "6", "8", "9", "10", "9", "1", "1", "2"], "time": [968, 1380, 1605, 1932, 2251, 2564, 2816, 3081, 3167, 3533, 3842, 4182, 4866, 4943, 5403, 5902, 6450, 6814]}, "edge": {"target": [], "time": []}}, "mouseout": {"state": {"target": ["0", "0", "9", "11", "9", "12", "12", "10", "4", "2", "3", "7", "6", "8", "9", "10", "9", "1", "1", "2", "5"], "time": [360, 1354, 1470, 1816, 2033, 2367, 2537, 2589, 3054, 3106, 3432, 3819, 3918, 4570, 4920, 5300, 5785, 5950, 6790, 7038, 8059]}, "edge": {"target": [], "time": []}}}, "displayed_time": "8.97", "trialTime": 9972, "trial_type": "mouselab-mdp", "trial_index": 25, "time_elapsed": 517775, "internal_node_id": "0.0-4.0-1.0-16.0"}}, {"uniqueid": "w84705526:a84877452", "current_trial": 26, "dateTime": 1664464694061, "trialdata": {"revealed_states": [], "num_clicks_accrued": [0, 0, 0, 0, 0, 0, 0, 0, 0, 0, 0, 0, 0], "stateRewards": ["", -4, -4, 24, -24, 4, 4, 24, 48, 4, -4, 48, -48], "withholdReward": false, "trial_id": "mdp_522385334882", "block": "test1", "trialIndex": 19, "score": 52.75, "costs": -0.25, "simulationMode": [null, null, null], "rewards": [4, -4, 48], "path": ["0", "0", "9", "10", "11"], "rt": [2827, 1083, 2], "actions": ["left", "left", "up"], "actionTimes": [3832, 5497, 6068], "queries": {"click": {"state": {"target": ["11"], "time": [2138]}, "edge": {"target": [], "time": []}}, "mouseover": {"state": {"target": ["0", "9", "11", "10", "12", "10", "9"], "time": [1259, 1472, 2086, 2331, 2554, 2867, 3021]}, "edge": {"target": [], "time": []}}, "mouseout": {"state": {"target": ["0", "0", "9", "11", "10", "12", "10", "9"], "time": [1063, 1355, 1496, 2304, 2388, 2837, 2941, 3971]}, "edge": {"target": [], "time": []}}}, "displayed_time": "10.01", "trialTime": 14039, "trial_type": "mouselab-mdp", "trial_index": 26, "time_elapsed": 532253, "internal_node_id": "0.0-4.0-1.0-17.0"}}, {"uniqueid": "w84705526:a84877452", "current_trial": 27, "dateTime": 1664464721695, "trialdata": {"revealed_states": [], "num_clicks_accrued": [0, 0, 0, 0, 0, 0, 0, 0, 0, 0, 0, 0, 0], "stateRewards": ["", 2, -8, -24, 48, -4, -8, 24, -48, 4, -8, -24, -24], "withholdReward": true, "trial_id": "mdp_928911266656", "block": "test1", "trialIndex": 20, "score": 46.25, "costs": -0.75, "simulationMode": [null, null, null], "rewards": [2, -8, 48], "path": ["0", "0", "1", "2", "4"], "rt": [4328, 421, 398], "actions": ["up", "up", "left"], "actionTimes": [23424, 24425, 25393], "queries": {"click": {"state": {"target": ["11", "12", "4"], "time": [20351, 21084, 21716]}, "edge": {"target": [], "time": []}}, "mouseover": {"state": {"target": ["10", "11", "10", "12", "9", "4", "2", "1"], "time": [19947, 20297, 20778, 20911, 21380, 21628, 22510, 23411]}, "edge": {"target": [], "time": []}}, "mouseout": {"state": {"target": ["0", "10", "11", "10", "12", "9", "4", "2", "1", "0"], "time": [7792, 20027, 20643, 20844, 21315, 21406, 21913, 23027, 23604, 25798]}, "edge": {"target": [], "time": []}}}, "displayed_time": "26.10", "trialTime": 27201, "trial_type": "mouselab-mdp", "trial_index": 27, "time_elapsed": 559887, "internal_node_id": "0.0-4.0-1.0-18.0"}}, {"uniqueid": "w84705526:a84877452", "current_trial": 28, "dateTime": 1664464732095, "trialdata": {"revealed_states": [], "num_clicks_accrued": [0, 0, 0, 0, 0, 0, 0, 0, 0, 0, 0, 0, 0], "stateRewards": ["", -4, -8, 48, 24, 4, -8, 24, -48, -2, -8, 24, -48], "withholdReward": true, "trial_id": "mdp_952038635544", "block": "test1", "trialIndex": 21, "score": 40, "costs": -1, "simulationMode": [null, null, null], "rewards": [-4, -8, 48], "path": ["0", "0", "1", "2", "3"], "rt": [3041, 415, 275], "actions": ["up", "up", "right"], "actionTimes": [3973, 4964, 5803], "queries": {"click": {"state": {"target": ["11", "12", "4", "3"], "time": [1398, 1920, 2646, 3056]}, "edge": {"target": [], "time": []}}, "mouseover": {"state": {"target": ["11", "12", "4", "2", "3", "7"], "time": [1351, 1833, 2565, 2886, 2937, 3620]}, "edge": {"target": [], "time": []}}, "mouseout": {"state": {"target": ["0", "11", "12", "4", "2", "3", "7", "7"], "time": [1069, 1584, 2168, 2860, 2914, 3250, 3671, 4598]}, "edge": {"target": [], "time": []}}}, "displayed_time": "8.93", "trialTime": 9955, "trial_type": "mouselab-mdp", "trial_index": 28, "time_elapsed": 570287, "internal_node_id": "0.0-4.0-1.0-19.0"}}, {"uniqueid": "w84705526:a84877452", "current_trial": 29, "dateTime": 1664464745175, "trialdata": {"revealed_states": [], "num_clicks_accrued": [0, 0, 0, 0, 0, 0, 0, 0, 0, 0, 0, 0, 0], "stateRewards": ["", -4, 8, 24, -48, -4, -8, -24, 24, 2, -4, -48, 24], "withholdReward": true, "trial_id": "mdp_898449441629", "block": "test1", "trialIndex": 22, "score": 30, "costs": -3, "simulationMode": [null, null, null], "rewards": [-4, 8, 24], "path": ["0", "0", "1", "2", "3"], "rt": [8825, 99, 2], "actions": ["up", "up", "right"], "actionTimes": [9543, 10197, 10771], "queries": {"click": {"state": {"target": ["4", "3", "7", "8", "12", "11", "9", "10", "5", "6", "1", "2"], "time": [1945, 2507, 3010, 3501, 4178, 5104, 5584, 5782, 6959, 7182, 7919, 8125]}, "edge": {"target": [], "time": []}}, "mouseover": {"state": {"target": ["1", "4", "4", "4", "2", "3", "7", "6", "8", "12", "10", "11", "9", "10", "5", "6", "1", "2"], "time": [1049, 1150, 1504, 1865, 2317, 2415, 2883, 3281, 3428, 3982, 4347, 4719, 5500, 5724, 6614, 7128, 7798, 8061]}, "edge": {"target": [], "time": []}}, "mouseout": {"state": {"target": ["0", "1", "4", "4", "4", "2", "3", "7", "6", "8", "12", "10", "11", "9", "10", "9", "5", "6", "6", "5", "1", "2", "5"], "time": [889, 1102, 1283, 1636, 2231, 2345, 2686, 3166, 3401, 3768, 4319, 4386, 5437, 5690, 6031, 6219, 7101, 7225, 7384, 7619, 8034, 8317, 8534]}, "edge": {"target": [], "time": []}}}, "displayed_time": "11.32", "trialTime": 12622, "trial_type": "mouselab-mdp", "trial_index": 29, "time_elapsed": 583367, "internal_node_id": "0.0-4.0-1.0-20.0"}}, {"uniqueid": "w84705526:a84877452", "current_trial": 30, "dateTime": 1664464762311, "trialdata": {"revealed_states": [], "num_clicks_accrued": [0, 0, 0, 0, 0, 0, 0, 0, 0, 0, 0, 0, 0], "stateRewards": ["", -4, -4, -48, 48, -4, -8, -24, -48, -2, 8, 48, 24], "withholdReward": false, "trial_id": "mdp_365393526663", "block": "test1", "trialIndex": 23, "score": 58.25, "costs": -0.75, "simulationMode": [null, null, null], "rewards": [-2, 8, 48], "path": ["0", "0", "9", "10", "11"], "rt": [8634, 316, 11], "actions": ["left", "left", "up"], "actionTimes": [11609, 12499, 13108], "queries": {"click": {"state": {"target": ["11", "9", "10"], "time": [5472, 9922, 10238]}, "edge": {"target": [], "time": []}}, "mouseover": {"state": {"target": ["0", "11", "11", "10", "12", "9", "1", "9", "10", "11", "9", "9", "9", "9", "10", "0"], "time": [3313, 3457, 3623, 3674, 3714, 3969, 4489, 5189, 5238, 5321, 5889, 6507, 8805, 8893, 10103, 11239]}, "edge": {"target": [], "time": []}}, "mouseout": {"state": {"target": ["8", "6", "0", "0", "11", "11", "10", "12", "9", "1", "9", "10", "11", "9", "9", "9", "9", "10", "9", "0", "8"], "time": [2063, 2149, 3037, 3356, 3480, 3651, 3696, 3887, 4391, 4517, 5213, 5262, 5754, 5988, 8092, 8831, 10034, 10440, 10770, 11402, 13033]}, "edge": {"target": [], "time": []}}}, "displayed_time": "13.68", "trialTime": 16714, "trial_type": "mouselab-mdp", "trial_index": 30, "time_elapsed": 600503, "internal_node_id": "0.0-4.0-1.0-21.0"}}, {"uniqueid": "w84705526:a84877452", "current_trial": 31, "dateTime": 1664464774511, "trialdata": {"revealed_states": [], "num_clicks_accrued": [0, 0, 0, 0, 0, 0, 0, 0, 0, 0, 0, 0, 0], "stateRewards": ["", 2, 4, -24, -24, 4, 8, -48, 48, 2, 4, -24, -48], "withholdReward": false, "trial_id": "mdp_565165082781", "block": "test1", "trialIndex": 24, "score": 63.5, "costs": -1.5, "simulationMode": [null, null, null], "rewards": [4, 8, 48], "path": ["0", "0", "5", "6", "8"], "rt": [5571, 581, 69], "actions": ["right", "right", "down"], "actionTimes": [7420, 8548, 9163], "queries": {"click": {"state": {"target": ["11", "12", "4", "3", "7", "8"], "time": [2573, 3357, 3949, 4798, 5192, 5518]}, "edge": {"target": [], "time": []}}, "mouseover": {"state": {"target": ["0", "11", "12", "12", "9", "4", "2", "3", "3", "7", "6", "8"], "time": [2097, 2490, 3068, 3215, 3628, 3761, 4149, 4225, 4708, 5110, 5359, 5420]}, "edge": {"target": [], "time": []}}, "mouseout": {"state": {"target": ["0", "0", "11", "12", "12", "9", "4", "2", "3", "3", "7", "6", "8", "8"], "time": [1122, 2177, 2798, 3097, 3595, 3662, 4103, 4197, 4311, 5031, 5329, 5397, 5831, 6460]}, "edge": {"target": [], "time": []}}}, "displayed_time": "10.85", "trialTime": 11772, "trial_type": "mouselab-mdp", "trial_index": 31, "time_elapsed": 612703, "internal_node_id": "0.0-4.0-1.0-22.0"}}, {"uniqueid": "w84705526:a84877452", "current_trial": 32, "dateTime": 1664464787215, "trialdata": {"revealed_states": [], "num_clicks_accrued": [0, 0, 0, 0, 0, 0, 0, 0, 0, 0, 0, 0, 0], "stateRewards": ["", -4, 8, -24, 24, -2, -8, 24, -24, 4, -4, -48, 48], "withholdReward": true, "trial_id": "mdp_297684722007", "block": "test1", "trialIndex": 25, "score": 51.5, "costs": -1.5, "simulationMode": [null, null, null], "rewards": [4, -4, 48], "path": ["0", "0", "9", "10", "12"], "rt": [5977, 503, 29], "actions": ["left", "left", "down"], "actionTimes": [8331, 9395, 9979], "queries": {"click": {"state": {"target": ["11", "12", "7", "8", "3", "4"], "time": [3620, 4303, 6401, 6715, 7328, 7853]}, "edge": {"target": [], "time": []}}, "mouseover": {"state": {"target": ["11", "11", "10", "12", "5", "0", "0", "5", "5", "7", "6", "8", "3", "2", "4", "9"], "time": [2971, 3513, 3845, 3964, 4850, 4970, 5318, 5452, 6134, 6331, 6579, 6635, 7171, 7493, 7785, 8117]}, "edge": {"target": [], "time": []}}, "mouseout": {"state": {"target": ["5", "5", "0", "11", "11", "10", "12", "5", "0", "0", "5", "5", "7", "6", "8", "3", "2", "4", "9"], "time": [877, 1079, 2417, 3000, 3821, 3933, 4485, 4951, 4997, 5402, 5702, 6162, 6551, 6605, 7017, 7467, 7520, 8017, 8320]}, "edge": {"target": [], "time": []}}}, "displayed_time": "11.35", "trialTime": 12268, "trial_type": "mouselab-mdp", "trial_index": 32, "time_elapsed": 625407, "internal_node_id": "0.0-4.0-1.0-23.0"}}, {"uniqueid": "w84705526:a84877452", "current_trial": 33, "dateTime": 1664464797095, "trialdata": {"revealed_states": [], "num_clicks_accrued": [0, 0, 0, 0, 0, 0, 0, 0, 0, 0, 0, 0, 0], "stateRewards": ["", -4, 4, -24, 48, -2, 8, -48, 24, 2, 4, 48, -48], "withholdReward": true, "trial_id": "mdp_366632183904", "block": "test1", "trialIndex": 26, "score": 56.5, "costs": -2.5, "simulationMode": [null, null, null], "rewards": [2, 4, 48], "path": ["0", "0", "9", "10", "11"], "rt": [5579, 2, 524], "actions": ["left", "left", "up"], "actionTimes": [6483, 7051, 8145], "queries": {"click": {"state": {"target": ["11", "12", "4", "3", "7", "8", "1", "2", "9", "10"], "time": [1954, 2204, 2918, 3191, 3597, 3896, 4670, 4868, 5396, 6012]}, "edge": {"target": [], "time": []}}, "mouseover": {"state": {"target": ["0", "9", "10", "12", "10", "11", "10", "12", "9", "4", "2", "3", "7", "6", "8", "5", "1", "2", "9", "9", "10"], "time": [1002, 1251, 1704, 1755, 1845, 1895, 2096, 2169, 2452, 2836, 3065, 3110, 3472, 3716, 3810, 4337, 4486, 4799, 5102, 5251, 5985]}, "edge": {"target": [], "time": []}}, "mouseout": {"state": {"target": ["0", "9", "10", "12", "10", "11", "10", "12", "9", "4", "2", "3", "7", "6", "8", "5", "1", "2", "1", "9", "9", "10"], "time": [1119, 1275, 1731, 1819, 1871, 2070, 2122, 2423, 2479, 3037, 3090, 3320, 3689, 3771, 4254, 4384, 4772, 5002, 5073, 5125, 5493, 6188]}, "edge": {"target": [], "time": []}}}, "displayed_time": "8.91", "trialTime": 9434, "trial_type": "mouselab-mdp", "trial_index": 33, "time_elapsed": 635287, "internal_node_id": "0.0-4.0-1.0-24.0"}}, {"uniqueid": "w84705526:a84877452", "current_trial": 34, "dateTime": 1664464808237, "trialdata": {"revealed_states": [], "num_clicks_accrued": [0, 0, 0, 0, 0, 0, 0, 0, 0, 0, 0, 0, 0], "stateRewards": ["", 4, -8, 48, -24, 4, -4, -48, -48, 4, -4, 24, 24], "withholdReward": true, "trial_id": "mdp_221562928904", "block": "test1", "trialIndex": 27, "score": 47.5, "costs": -1.5, "simulationMode": [null, null, null], "rewards": [4, -8, 48], "path": ["0", "0", "1", "2", "3"], "rt": [3384, 537, 2], "actions": ["up", "up", "right"], "actionTimes": [4416, 5551, 6113], "queries": {"click": {"state": {"target": ["11", "12", "4", "3", "7", "8"], "time": [1491, 1984, 2633, 2878, 3440, 3739]}, "edge": {"target": [], "time": []}}, "mouseover": {"state": {"target": ["11", "12", "0", "1", "4", "2", "3", "6", "7", "6", "8", "5"], "time": [1424, 1850, 2241, 2294, 2563, 2773, 2837, 3127, 3324, 3589, 3663, 4093]}, "edge": {"target": [], "time": []}}, "mouseout": {"state": {"target": ["0", "11", "12", "0", "1", "4", "2", "3", "6", "7", "6", "8", "5", "5"], "time": [487, 1708, 2160, 2267, 2320, 2744, 2811, 3028, 3275, 3560, 3616, 4025, 4119, 4967]}, "edge": {"target": [], "time": []}}}, "displayed_time": "9.03", "trialTime": 10718, "trial_type": "mouselab-mdp", "trial_index": 34, "time_elapsed": 646429, "internal_node_id": "0.0-4.0-1.0-25.0"}}, {"uniqueid": "w84705526:a84877452", "current_trial": 35, "dateTime": 1664464819774, "trialdata": {"revealed_states": [], "num_clicks_accrued": [0, 0, 0, 0, 0, 0, 0, 0, 0, 0, 0, 0, 0], "stateRewards": ["", -2, 8, 48, -24, 2, 4, -48, -24, -4, 8, -48, -48], "withholdReward": true, "trial_id": "mdp_539167561933", "block": "test1", "trialIndex": 28, "score": 57.5, "costs": -1.5, "simulationMode": [null, null, null], "rewards": [-2, 8, 48], "path": ["0", "0", "1", "2", "3"], "rt": [4961, 33, 3], "actions": ["up", "up", "right"], "actionTimes": [6280, 6896, 7483], "queries": {"click": {"state": {"target": ["4", "3", "7", "8", "12", "11"], "time": [2268, 3150, 3959, 4204, 4996, 5660]}, "edge": {"target": [], "time": []}}, "mouseover": {"state": {"target": ["9", "4", "2", "3", "7", "7", "7", "6", "8", "12", "10", "11"], "time": [1382, 2128, 2504, 2821, 3339, 3641, 3822, 4089, 4176, 4904, 5156, 5626]}, "edge": {"target": [], "time": []}}, "mouseout": {"state": {"target": ["5", "9", "4", "2", "3", "7", "7", "7", "6", "8", "12", "10", "11"], "time": [854, 1707, 2475, 2554, 3291, 3364, 3667, 4058, 4119, 4426, 5125, 5181, 5992]}, "edge": {"target": [], "time": []}}}, "displayed_time": "10.32", "trialTime": 11104, "trial_type": "mouselab-mdp", "trial_index": 35, "time_elapsed": 657966, "internal_node_id": "0.0-4.0-1.0-26.0"}}, {"uniqueid": "w84705526:a84877452", "current_trial": 36, "dateTime": 1664464830614, "trialdata": {"revealed_states": [], "num_clicks_accrued": [0, 0, 0, 0, 0, 0, 0, 0, 0, 0, 0, 0, 0], "stateRewards": ["", -2, -4, -24, -24, 4, 8, 24, 24, -2, 8, 48, 48], "withholdReward": false, "trial_id": "mdp_620787912291", "block": "test1", "trialIndex": 29, "score": 57.5, "costs": -1.5, "simulationMode": [null, null, null], "rewards": [-2, 8, 48], "path": ["0", "0", "9", "10", "12"], "rt": [4912, 2, 134], "actions": ["left", "left", "down"], "actionTimes": [6809, 7351, 8041], "queries": {"click": {"state": {"target": ["4", "3", "7", "8", "12", "11"], "time": [2572, 3014, 3407, 3809, 4427, 4680]}, "edge": {"target": [], "time": []}}, "mouseover": {"state": {"target": ["1", "4", "2", "3", "7", "6", "8", "12", "10", "11", "10", "9", "9"], "time": [2230, 2512, 2764, 2896, 3295, 3585, 3681, 4281, 4558, 4632, 4948, 5166, 5731]}, "edge": {"target": [], "time": []}}, "mouseout": {"state": {"target": ["0", "1", "9", "1", "4", "2", "3", "7", "6", "8", "12", "10", "11", "10", "9", "9"], "time": [609, 941, 1154, 2262, 2714, 2813, 3213, 3550, 3630, 3980, 4529, 4585, 4900, 4999, 5231, 6147]}, "edge": {"target": [], "time": []}}}, "displayed_time": "9.90", "trialTime": 10385, "trial_type": "mouselab-mdp", "trial_index": 36, "time_elapsed": 668806, "internal_node_id": "0.0-4.0-1.0-27.0"}}, {"uniqueid": "w84705526:a84877452", "current_trial": 37, "dateTime": 1664464861014, "trialdata": {"revealed_states": [], "num_clicks_accrued": [0, 0, 0, 0, 0, 0, 0, 0, 0, 0, 0, 0, 0], "stateRewards": ["", 2, -4, 48, -48, -4, -8, -48, 24, -4, 4, 48, 48], "withholdReward": true, "trial_id": "mdp_544803968425", "block": "test1", "trialIndex": 30, "score": 50.5, "costs": -2.5, "simulationMode": [null, null, null], "rewards": [-4, 4, 48], "path": ["0", "0", "9", "10", "11"], "rt": [8485, 63, 1229], "actions": ["left", "left", "up"], "actionTimes": [25949, 26571, 28348], "queries": {"click": {"state": {"target": ["11", "12", "4", "3", "7", "8", "1", "2", "9", "10"], "time": [18504, 20356, 21279, 21737, 22222, 22719, 23525, 23731, 24298, 24525]}, "edge": {"target": [], "time": []}}, "mouseover": {"state": {"target": ["11", "12", "4", "2", "3", "7", "6", "8", "5", "1", "2", "9", "10"], "time": [18104, 19287, 20802, 21472, 21569, 21955, 22359, 22453, 23022, 23287, 23688, 24033, 24440]}, "edge": {"target": [], "time": []}}, "mouseout": {"state": {"target": ["10", "12", "9", "0", "0", "11", "12", "4", "2", "3", "7", "6", "8", "5", "1", "2", "1", "9", "10"], "time": [1049, 16600, 16622, 16813, 17657, 18773, 20539, 21441, 21500, 21893, 22332, 22387, 22922, 23049, 23619, 23871, 23909, 24409, 24787]}, "edge": {"target": [], "time": []}}}, "displayed_time": "28.92", "trialTime": 29963, "trial_type": "mouselab-mdp", "trial_index": 37, "time_elapsed": 699206, "internal_node_id": "0.0-4.0-1.0-28.0"}}, {"uniqueid": "w84705526:a84877452", "current_trial": 38, "dateTime": 1664464873143, "trialdata": {"revealed_states": [], "num_clicks_accrued": [0, 0, 0, 0, 0, 0, 0, 0, 0, 0, 0, 0, 0], "stateRewards": ["", -2, 8, -48, 48, -4, -8, 24, 24, -2, -4, 48, -48], "withholdReward": true, "trial_id": "mdp_867247318592", "block": "test1", "trialIndex": 31, "score": 56.5, "costs": -2.5, "simulationMode": [null, null, null], "rewards": [-2, 8, 48], "path": ["0", "0", "1", "2", "4"], "rt": [7478, 179, 145], "actions": ["up", "up", "left"], "actionTimes": [8538, 9299, 10020], "queries": {"click": {"state": {"target": ["11", "12", "4", "3", "7", "8", "9", "10", "1", "2"], "time": [1640, 3325, 3878, 4151, 4617, 5189, 6149, 6431, 7248, 7501]}, "edge": {"target": [], "time": []}}, "mouseover": {"state": {"target": ["11", "10", "12", "4", "2", "3", "7", "6", "8", "9", "10", "1", "2", "0"], "time": [1552, 1880, 1983, 3668, 4029, 4086, 4451, 4754, 4810, 5868, 6278, 7137, 7399, 7771]}, "edge": {"target": [], "time": []}}, "mouseout": {"state": {"target": ["0", "11", "10", "12", "4", "2", "3", "7", "6", "8", "9", "10", "9", "1", "2", "1", "0"], "time": [1131, 1853, 1923, 3503, 4002, 4059, 4387, 4719, 4783, 5366, 6255, 6704, 6817, 7369, 7684, 7738, 7798]}, "edge": {"target": [], "time": []}}}, "displayed_time": "10.59", "trialTime": 11675, "trial_type": "mouselab-mdp", "trial_index": 38, "time_elapsed": 711335, "internal_node_id": "0.0-4.0-1.0-29.0"}}, {"uniqueid": "w84705526:a84877452", "current_trial": 39, "dateTime": 1664465283567, "trialdata": {"rt": 410421, "stimulus": "<h1> End of block! </h1>\n\nYou have reached the end of the block 1/4. If you need a short break, feel free to take one now before moving on.\n\n<br><br>\nIn the next block, you will complete another 30 rounds of this game.\n\n<br><br>\n<div style='text-align: center;'>Press <code>space</code> to begin.</div>\n<br><br>\n<div style='text-align: center;'>(If the experiment doesn't continue, try clicking on the text and then pressing <code>space</code>.)</div>", "response": " ", "trial_id": "mdp_ready_2", "trial_type": "html-keyboard-response", "trial_index": 39, "time_elapsed": 1121759, "internal_node_id": "0.0-4.0-2.0"}}, {"uniqueid": "w84705526:a84877452", "current_trial": 40, "dateTime": 1664465296839, "trialdata": {"revealed_states": [], "num_clicks_accrued": [0, 0, 0, 0, 0, 0, 0, 0, 0, 0, 0, 0, 0], "stateRewards": ["", 4, -4, 48, -48, -4, -4, 48, -48, 4, 4, -48, -24], "withholdReward": true, "trial_id": "mdp_490058671112", "block": "test2", "trialIndex": 32, "score": 50.5, "costs": -2.5, "simulationMode": [null, null, null], "rewards": [4, -4, 48], "path": ["0", "0", "1", "2", "3"], "rt": [7693, 147, 477], "actions": ["up", "up", "right"], "actionTimes": [9651, 10363, 11410], "queries": {"click": {"state": {"target": ["12", "11", "4", "3", "1", "2", "7", "8", "5", "6"], "time": [2648, 3370, 4098, 4696, 5591, 5764, 7500, 7895, 8738, 9139]}, "edge": {"target": [], "time": []}}, "mouseover": {"state": {"target": ["0", "12", "10", "11", "4", "2", "3", "3", "7", "1", "2", "7", "8", "5", "6"], "time": [2265, 2507, 3075, 3174, 4008, 4287, 4333, 4592, 4890, 5389, 5726, 6357, 7641, 8717, 9078]}, "edge": {"target": [], "time": []}}, "mouseout": {"state": {"target": ["1", "0", "0", "12", "10", "11", "4", "2", "3", "3", "7", "1", "2", "3", "7", "8", "5", "6"], "time": [981, 2104, 2291, 2924, 3124, 3540, 4257, 4315, 4357, 4827, 5311, 5686, 5992, 6040, 7603, 8123, 9030, 10710]}, "edge": {"target": [], "time": []}}}, "displayed_time": "11.96", "trialTime": 12690, "trial_type": "mouselab-mdp", "trial_index": 40, "time_elapsed": 1135031, "internal_node_id": "0.0-4.0-3.0-0.0"}}, {"uniqueid": "w84705526:a84877452", "current_trial": 41, "dateTime": 1664465308071, "trialdata": {"revealed_states": [], "num_clicks_accrued": [0, 0, 0, 0, 0, 0, 0, 0, 0, 0, 0, 0, 0], "stateRewards": ["", -2, 4, -48, -48, 4, 4, 48, -48, 2, 8, 24, 48], "withholdReward": true, "trial_id": "mdp_686771069745", "block": "test2", "trialIndex": 33, "score": 60.75, "costs": -2.25, "simulationMode": [null, null, null], "rewards": [2, 8, 48], "path": ["0", "0", "9", "10", "12"], "rt": [7242, 3, 2], "actions": ["left", "left", "down"], "actionTimes": [8265, 8834, 9416], "queries": {"click": {"state": {"target": ["11", "12", "4", "3", "7", "6", "5", "9", "10"], "time": [1517, 2348, 3516, 4114, 4934, 5828, 6091, 6770, 7369]}, "edge": {"target": [], "time": []}}, "mouseover": {"state": {"target": ["11", "10", "12", "4", "4", "2", "3", "7", "6", "8", "6", "6", "5", "0", "9", "10"], "time": [1436, 1773, 2203, 2653, 3454, 3700, 3778, 4820, 5188, 5385, 5538, 5719, 6006, 6367, 6569, 7254]}, "edge": {"target": [], "time": []}}, "mouseout": {"state": {"target": ["0", "11", "10", "12", "4", "4", "2", "3", "7", "6", "8", "6", "6", "5", "0", "9", "10"], "time": [1084, 1738, 1890, 2505, 3093, 3672, 3755, 4238, 5138, 5288, 5505, 5561, 5938, 6338, 6393, 6868, 7588]}, "edge": {"target": [], "time": []}}}, "displayed_time": "9.98", "trialTime": 10769, "trial_type": "mouselab-mdp", "trial_index": 41, "time_elapsed": 1146263, "internal_node_id": "0.0-4.0-3.0-1.0"}}, {"uniqueid": "w84705526:a84877452", "current_trial": 42, "dateTime": 1664465320849, "trialdata": {"revealed_states": [], "num_clicks_accrued": [0, 0, 0, 0, 0, 0, 0, 0, 0, 0, 0, 0, 0], "stateRewards": ["", 4, -8, 24, 48, -2, -4, -48, 24, 2, 4, -48, -24], "withholdReward": true, "trial_id": "mdp_749974461966", "block": "test2", "trialIndex": 34, "score": 47.25, "costs": -1.75, "simulationMode": [null, null, null], "rewards": [4, -8, 48], "path": ["0", "0", "1", "2", "4"], "rt": [5061, 3, 497], "actions": ["up", "up", "left"], "actionTimes": [7971, 8538, 9595], "queries": {"click": {"state": {"target": ["12", "7", "8", "11", "4", "1", "2"], "time": [3665, 4864, 5291, 5991, 6409, 7403, 7596]}, "edge": {"target": [], "time": []}}, "mouseover": {"state": {"target": ["0", "9", "9", "12", "9", "7", "6", "8", "5", "11", "4", "2", "3", "2", "1", "2"], "time": [3009, 3057, 3161, 3596, 3998, 4678, 5064, 5197, 5507, 5844, 6264, 6577, 6693, 7111, 7325, 7551]}, "edge": {"target": [], "time": []}}, "mouseout": {"state": {"target": ["0", "0", "9", "9", "12", "9", "7", "6", "8", "5", "11", "4", "2", "3", "2", "1", "2"], "time": [2977, 3038, 3083, 3314, 3912, 4025, 5014, 5112, 5479, 5549, 6179, 6548, 6629, 7046, 7247, 7525, 7829]}, "edge": {"target": [], "time": []}}}, "displayed_time": "11.93", "trialTime": 12341, "trial_type": "mouselab-mdp", "trial_index": 42, "time_elapsed": 1159041, "internal_node_id": "0.0-4.0-3.0-2.0"}}, {"uniqueid": "w84705526:a84877452", "current_trial": 43, "dateTime": 1664465340055, "trialdata": {"revealed_states": [], "num_clicks_accrued": [0, 0, 0, 0, 0, 0, 0, 0, 0, 0, 0, 0, 0], "stateRewards": ["", 2, 8, -24, -48, 2, 4, -24, 48, 2, -8, 48, -24], "withholdReward": true, "trial_id": "mdp_791659307216", "block": "test2", "trialIndex": 35, "score": 56.5, "costs": -2.5, "simulationMode": [null, null, null], "rewards": [2, 4, 48], "path": ["0", "0", "5", "6", "8"], "rt": [8255, 501, 100], "actions": ["right", "right", "down"], "actionTimes": [9354, 10435, 11090], "queries": {"click": {"state": {"target": ["12", "11", "4", "3", "7", "8", "5", "6", "9", "10"], "time": [1928, 2900, 4530, 5133, 5539, 6168, 7171, 7870, 8513, 8708]}, "edge": {"target": [], "time": []}}, "mouseover": {"state": {"target": ["9", "10", "12", "11", "11", "4", "2", "4", "2", "3", "7", "6", "8", "5", "0", "6", "9", "9", "10"], "time": [1407, 1504, 1802, 2450, 2737, 4150, 4317, 4466, 4930, 4992, 5433, 5770, 5968, 7066, 7692, 7810, 8236, 8482, 8650]}, "edge": {"target": [], "time": []}}, "mouseout": {"state": {"target": ["0", "9", "10", "12", "11", "11", "4", "2", "4", "2", "3", "7", "6", "8", "5", "5", "0", "5", "6", "9", "9", "10", "12"], "time": [647, 1430, 1552, 2103, 2531, 3198, 4254, 4401, 4903, 4964, 5300, 5720, 5867, 6302, 7269, 7551, 7721, 7785, 8036, 8399, 8602, 8952, 9003]}, "edge": {"target": [], "time": []}}}, "displayed_time": "11.64", "trialTime": 18753, "trial_type": "mouselab-mdp", "trial_index": 43, "time_elapsed": 1178247, "internal_node_id": "0.0-4.0-3.0-3.0"}}, {"uniqueid": "w84705526:a84877452", "current_trial": 44, "dateTime": 1664465352407, "trialdata": {"revealed_states": [], "num_clicks_accrued": [0, 0, 0, 0, 0, 0, 0, 0, 0, 0, 0, 0, 0], "stateRewards": ["", 2, 4, -48, -24, 2, 8, 24, 48, -2, 4, 48, -48], "withholdReward": true, "trial_id": "mdp_551894842204", "block": "test2", "trialIndex": 36, "score": 60.5, "costs": -2.5, "simulationMode": [null, null, null], "rewards": [2, 8, 48], "path": ["0", "0", "5", "6", "8"], "rt": [6378, 510, 165], "actions": ["right", "right", "down"], "actionTimes": [8506, 9563, 10307], "queries": {"click": {"state": {"target": ["12", "11", "4", "3", "7", "8", "6", "5", "9", "10"], "time": [2909, 3685, 4523, 5073, 5453, 6106, 6722, 6943, 7556, 7980]}, "edge": {"target": [], "time": []}}, "mouseover": {"state": {"target": ["9", "9", "12", "10", "11", "4", "2", "3", "7", "6", "8", "6", "5", "0", "9", "10"], "time": [2190, 2500, 2815, 3175, 3297, 4015, 4731, 4797, 5250, 5633, 5867, 6557, 6915, 7265, 7365, 7950]}, "edge": {"target": [], "time": []}}, "mouseout": {"state": {"target": ["9", "9", "12", "10", "11", "4", "2", "3", "7", "6", "8", "8", "6", "5", "0", "9", "10"], "time": [2366, 2617, 3149, 3250, 3817, 4664, 4770, 5199, 5587, 5732, 6267, 6532, 6835, 7215, 7299, 7732, 8352]}, "edge": {"target": [], "time": []}}}, "displayed_time": "10.86", "trialTime": 11923, "trial_type": "mouselab-mdp", "trial_index": 44, "time_elapsed": 1190599, "internal_node_id": "0.0-4.0-3.0-4.0"}}, {"uniqueid": "w84705526:a84877452", "current_trial": 45, "dateTime": 1664465365567, "trialdata": {"revealed_states": [], "num_clicks_accrued": [0, 0, 0, 0, 0, 0, 0, 0, 0, 0, 0, 0, 0], "stateRewards": ["", -2, -4, -48, -48, -2, -8, 48, -48, 4, -8, -48, 24], "withholdReward": false, "trial_id": "mdp_468495641521", "block": "test2", "trialIndex": 37, "score": 41.25, "costs": -1.75, "simulationMode": [null, null, null], "rewards": [-2, -8, 48], "path": ["0", "0", "5", "6", "7"], "rt": [8680, 560, 108], "actions": ["right", "right", "up"], "actionTimes": [9514, 10647, 11320], "queries": {"click": {"state": {"target": ["12", "11", "4", "3", "7", "5", "6"], "time": [1456, 2059, 2544, 3077, 3446, 4251, 4625]}, "edge": {"target": [], "time": []}}, "mouseover": {"state": {"target": ["9", "12", "10", "11", "4", "2", "3", "7", "6", "8", "6", "5", "6"], "time": [919, 1284, 1629, 1736, 2333, 2705, 2803, 3334, 3669, 3835, 4072, 4184, 4436]}, "edge": {"target": [], "time": []}}, "mouseout": {"state": {"target": ["5", "0", "9", "12", "10", "11", "4", "2", "3", "7", "6", "8", "6", "5", "6"], "time": [164, 897, 1022, 1602, 1671, 2218, 2681, 2776, 3206, 3570, 3769, 4020, 4098, 4385, 4802]}, "edge": {"target": [], "time": []}}}, "displayed_time": "11.87", "trialTime": 12703, "trial_type": "mouselab-mdp", "trial_index": 45, "time_elapsed": 1203758, "internal_node_id": "0.0-4.0-3.0-5.0"}}, {"uniqueid": "w84705526:a84877452", "current_trial": 46, "dateTime": 1664465377551, "trialdata": {"revealed_states": [], "num_clicks_accrued": [0, 0, 0, 0, 0, 0, 0, 0, 0, 0, 0, 0, 0], "stateRewards": ["", 2, 8, 48, -48, -2, -4, -24, 24, 4, -4, 48, -48], "withholdReward": false, "trial_id": "mdp_105734044587", "block": "test2", "trialIndex": 38, "score": 60.75, "costs": -2.25, "simulationMode": [null, null, null], "rewards": [2, 8, 48], "path": ["0", "0", "1", "2", "3"], "rt": [7513, 524, 112], "actions": ["up", "up", "right"], "actionTimes": [8535, 9631, 10296], "queries": {"click": {"state": {"target": ["11", "4", "3", "7", "8", "1", "2", "9", "10"], "time": [2676, 3559, 4202, 5106, 5610, 6398, 6637, 7362, 7979]}, "edge": {"target": [], "time": []}}, "mouseover": {"state": {"target": ["9", "9", "10", "11", "9", "9", "4", "3", "7", "8", "5", "1", "2", "9", "10"], "time": [1504, 1866, 1950, 2646, 2967, 3153, 3268, 4049, 4505, 5480, 6000, 6352, 6582, 7164, 7756]}, "edge": {"target": [], "time": []}}, "mouseout": {"state": {"target": ["0", "9", "9", "10", "11", "9", "9", "4", "3", "7", "8", "5", "1", "2", "1", "9", "10"], "time": [1091, 1715, 1915, 1999, 2871, 2991, 3188, 3702, 4329, 5249, 5800, 6027, 6534, 6799, 6851, 7499, 8150]}, "edge": {"target": [], "time": []}}}, "displayed_time": "10.88", "trialTime": 11520, "trial_type": "mouselab-mdp", "trial_index": 46, "time_elapsed": 1215743, "internal_node_id": "0.0-4.0-3.0-6.0"}}, {"uniqueid": "w84705526:a84877452", "current_trial": 47, "dateTime": 1664465391063, "trialdata": {"revealed_states": [], "num_clicks_accrued": [0, 0, 0, 0, 0, 0, 0, 0, 0, 0, 0, 0, 0], "stateRewards": ["", 2, 8, -48, -24, 2, -4, -48, 24, 2, -4, -24, -24], "withholdReward": true, "trial_id": "mdp_954659099093", "block": "test2", "trialIndex": 39, "score": 25.5, "costs": -1.5, "simulationMode": [null, null, null], "rewards": [2, -4, 24], "path": ["0", "0", "5", "6", "8"], "rt": [5239, 172, 66], "actions": ["right", "right", "down"], "actionTimes": [8060, 8813, 9454], "queries": {"click": {"state": {"target": ["3", "7", "11", "4", "12", "8"], "time": [3379, 3940, 4950, 5531, 6117, 6788]}, "edge": {"target": [], "time": []}}, "mouseover": {"state": {"target": ["3", "7", "6", "5", "1", "11", "4", "12", "8"], "time": [3259, 3910, 4154, 4421, 4490, 4890, 5426, 6058, 6610]}, "edge": {"target": [], "time": []}}, "mouseout": {"state": {"target": ["0", "3", "7", "6", "5", "1", "11", "4", "12", "8"], "time": [2067, 3544, 4125, 4393, 4459, 4545, 5125, 5662, 6276, 6895]}, "edge": {"target": [], "time": []}}}, "displayed_time": "11.82", "trialTime": 13076, "trial_type": "mouselab-mdp", "trial_index": 47, "time_elapsed": 1229254, "internal_node_id": "0.0-4.0-3.0-7.0"}}, {"uniqueid": "w84705526:a84877452", "current_trial": 48, "dateTime": 1664465403079, "trialdata": {"revealed_states": [], "num_clicks_accrued": [0, 0, 0, 0, 0, 0, 0, 0, 0, 0, 0, 0, 0], "stateRewards": ["", -2, -4, -24, -48, -4, -8, -48, 24, -4, -8, -24, -48], "withholdReward": true, "trial_id": "mdp_475782454549", "block": "test2", "trialIndex": 40, "score": 15.75, "costs": -1.25, "simulationMode": [null, null, null], "rewards": [-4, -8, 24], "path": ["0", "0", "5", "6", "8"], "rt": [4641, 50, 24], "actions": ["right", "right", "down"], "actionTimes": [5410, 6035, 6633], "queries": {"click": {"state": {"target": ["12", "11", "4", "3", "7"], "time": [1413, 2357, 2815, 3460, 3883]}, "edge": {"target": [], "time": []}}, "mouseover": {"state": {"target": ["0", "0", "9", "12", "11", "4", "2", "3", "7", "6", "8"], "time": [944, 1146, 1200, 1377, 2210, 2757, 3126, 3242, 3792, 4055, 4137]}, "edge": {"target": [], "time": []}}, "mouseout": {"state": {"target": ["0", "0", "0", "9", "12", "11", "4", "2", "3", "7", "6", "8"], "time": [829, 1006, 1180, 1230, 1695, 2542, 3041, 3196, 3661, 4028, 4110, 5911]}, "edge": {"target": [], "time": []}}}, "displayed_time": "9.77", "trialTime": 11562, "trial_type": "mouselab-mdp", "trial_index": 48, "time_elapsed": 1241271, "internal_node_id": "0.0-4.0-3.0-8.0"}}, {"uniqueid": "w84705526:a84877452", "current_trial": 49, "dateTime": 1664465414128, "trialdata": {"revealed_states": [], "num_clicks_accrued": [0, 0, 0, 0, 0, 0, 0, 0, 0, 0, 0, 0, 0], "stateRewards": ["", -4, 8, -48, -48, -2, -8, -24, -48, 2, -4, -48, 24], "withholdReward": true, "trial_id": "mdp_743906784415", "block": "test2", "trialIndex": 41, "score": 25.5, "costs": -1.5, "simulationMode": [null, null, null], "rewards": [2, -4, 24], "path": ["0", "0", "9", "10", "12"], "rt": [4643, 54, 19], "actions": ["left", "left", "down"], "actionTimes": [5632, 6264, 6838], "queries": {"click": {"state": {"target": ["12", "11", "4", "3", "7", "8"], "time": [1514, 2303, 2705, 3597, 4000, 4796]}, "edge": {"target": [], "time": []}}, "mouseover": {"state": {"target": ["12", "10", "11", "4", "2", "3", "7", "3", "7", "6", "8"], "time": [1414, 1766, 1840, 2598, 2882, 2962, 3400, 3547, 3848, 4169, 4244]}, "edge": {"target": [], "time": []}}, "mouseout": {"state": {"target": ["0", "12", "10", "11", "4", "2", "3", "7", "3", "7", "6", "8"], "time": [1057, 1713, 1816, 2447, 2831, 2933, 3046, 3482, 3748, 4131, 4219, 4945]}, "edge": {"target": [], "time": []}}}, "displayed_time": "9.99", "trialTime": 10617, "trial_type": "mouselab-mdp", "trial_index": 49, "time_elapsed": 1252320, "internal_node_id": "0.0-4.0-3.0-9.0"}}, {"uniqueid": "w84705526:a84877452", "current_trial": 50, "dateTime": 1664465427054, "trialdata": {"revealed_states": [], "num_clicks_accrued": [0, 0, 0, 0, 0, 0, 0, 0, 0, 0, 0, 0, 0], "stateRewards": ["", 4, -4, 48, 24, 2, 4, 24, -24, 2, 4, 24, 48], "withholdReward": true, "trial_id": "mdp_736351885282", "block": "test2", "trialIndex": 42, "score": 56.75, "costs": -2.25, "simulationMode": [null, null, null], "rewards": [2, 4, 48], "path": ["0", "0", "9", "10", "12"], "rt": [6356, 4, 2], "actions": ["left", "left", "down"], "actionTimes": [7057, 7613, 8202], "queries": {"click": {"state": {"target": ["12", "4", "3", "7", "8", "2", "1", "9", "10"], "time": [1282, 2376, 3087, 3870, 4380, 5236, 5415, 5908, 6582]}, "edge": {"target": [], "time": []}}, "mouseover": {"state": {"target": ["12", "9", "12", "4", "2", "3", "7", "6", "8", "5", "2", "1", "9", "10"], "time": [786, 981, 1181, 2298, 2610, 2770, 3314, 4053, 4230, 4817, 5096, 5377, 5667, 6543]}, "edge": {"target": [], "time": []}}, "mouseout": {"state": {"target": ["0", "12", "9", "12", "4", "2", "3", "7", "6", "8", "5", "2", "1", "9", "12", "10"], "time": [767, 865, 1132, 1511, 2582, 2666, 3199, 4018, 4098, 4530, 4847, 5351, 5601, 6016, 6515, 6798]}, "edge": {"target": [], "time": []}}}, "displayed_time": "8.76", "trialTime": 12478, "trial_type": "mouselab-mdp", "trial_index": 50, "time_elapsed": 1265246, "internal_node_id": "0.0-4.0-3.0-10.0"}}, {"uniqueid": "w84705526:a84877452", "current_trial": 51, "dateTime": 1664465437727, "trialdata": {"revealed_states": [], "num_clicks_accrued": [0, 0, 0, 0, 0, 0, 0, 0, 0, 0, 0, 0, 0], "stateRewards": ["", 4, 8, -24, 48, 4, -8, -48, 48, -4, 8, -24, -48], "withholdReward": false, "trial_id": "mdp_376126356841", "block": "test2", "trialIndex": 43, "score": 62.75, "costs": -2.25, "simulationMode": [null, null, null], "rewards": [4, 8, 48], "path": ["0", "0", "1", "2", "4"], "rt": [6068, 10, 2], "actions": ["up", "up", "left"], "actionTimes": [7330, 7931, 8512], "queries": {"click": {"state": {"target": ["12", "11", "4", "7", "8", "6", "5", "1", "2"], "time": [1882, 2366, 2884, 3999, 4416, 5248, 6046, 6603, 6801]}, "edge": {"target": [], "time": []}}, "mouseover": {"state": {"target": ["1", "9", "12", "11", "4", "2", "3", "7", "6", "8", "6", "5", "5", "1", "2"], "time": [1480, 1686, 1743, 2298, 2829, 3050, 3148, 3897, 4161, 4247, 4997, 5715, 5982, 6364, 6748]}, "edge": {"target": [], "time": []}}, "mouseout": {"state": {"target": ["0", "1", "9", "12", "11", "4", "2", "3", "7", "6", "8", "6", "5", "5", "1", "2", "1"], "time": [1399, 1649, 1715, 2182, 2567, 3021, 3101, 3733, 4133, 4219, 4581, 5438, 5765, 6263, 6712, 7015, 7066]}, "edge": {"target": [], "time": []}}}, "displayed_time": "9.26", "trialTime": 10186, "trial_type": "mouselab-mdp", "trial_index": 51, "time_elapsed": 1275919, "internal_node_id": "0.0-4.0-3.0-11.0"}}, {"uniqueid": "w84705526:a84877452", "current_trial": 52, "dateTime": 1664465450249, "trialdata": {"revealed_states": [], "num_clicks_accrued": [0, 0, 0, 0, 0, 0, 0, 0, 0, 0, 0, 0, 0], "stateRewards": ["", 4, 8, 48, 48, 4, 4, -24, -48, 4, 8, -48, -48], "withholdReward": true, "trial_id": "mdp_984548726931", "block": "test2", "trialIndex": 44, "score": 63.75, "costs": -1.25, "simulationMode": [null, null, null], "rewards": [4, 8, 48], "path": ["0", "0", "1", "2", "4"], "rt": [5327, 3, 2], "actions": ["up", "up", "left"], "actionTimes": [8759, 9318, 9886], "queries": {"click": {"state": {"target": ["12", "11", "4", "7", "8"], "time": [4224, 5860, 6511, 7348, 7886]}, "edge": {"target": [], "time": []}}, "mouseover": {"state": {"target": ["9", "0", "12", "10", "11", "11", "4", "7", "6", "8", "8", "5", "1"], "time": [3492, 3830, 4028, 4573, 5376, 5793, 6442, 7189, 7490, 7537, 7744, 8364, 8661]}, "edge": {"target": [], "time": []}}, "mouseout": {"state": {"target": ["9", "0", "12", "10", "11", "11", "4", "7", "6", "8", "8", "5", "1", "5"], "time": [3644, 3880, 4544, 4598, 5509, 6092, 6645, 7461, 7516, 7623, 8043, 8393, 8798, 8961]}, "edge": {"target": [], "time": []}}}, "displayed_time": "11.43", "trialTime": 12106, "trial_type": "mouselab-mdp", "trial_index": 52, "time_elapsed": 1288441, "internal_node_id": "0.0-4.0-3.0-12.0"}}, {"uniqueid": "w84705526:a84877452", "current_trial": 53, "dateTime": 1664465463991, "trialdata": {"revealed_states": [], "num_clicks_accrued": [0, 0, 0, 0, 0, 0, 0, 0, 0, 0, 0, 0, 0], "stateRewards": ["", 2, -4, 24, -24, 2, -8, 48, 48, 4, -4, 24, 48], "withholdReward": true, "trial_id": "mdp_947836623875", "block": "test2", "trialIndex": 45, "score": 45.5, "costs": -1.5, "simulationMode": [null, null, null], "rewards": [2, -8, 48], "path": ["0", "0", "5", "6", "7"], "rt": [8082, 568, 83], "actions": ["right", "right", "up"], "actionTimes": [9851, 10977, 11608], "queries": {"click": {"state": {"target": ["11", "4", "3", "7", "12", "10"], "time": [2225, 2416, 3240, 3856, 6569, 8784]}, "edge": {"target": [], "time": []}}, "mouseover": {"state": {"target": ["11", "4", "1", "3", "7", "8", "8", "12", "9", "10"], "time": [1925, 2373, 2811, 3171, 3706, 4389, 5011, 6489, 7123, 8657]}, "edge": {"target": [], "time": []}}, "mouseout": {"state": {"target": ["0", "11", "4", "1", "3", "7", "8", "8", "12", "9", "10"], "time": [1830, 2328, 2642, 2873, 3329, 3962, 4678, 5141, 6739, 8560, 8923]}, "edge": {"target": [], "time": []}}}, "displayed_time": "12.17", "trialTime": 13296, "trial_type": "mouselab-mdp", "trial_index": 53, "time_elapsed": 1302183, "internal_node_id": "0.0-4.0-3.0-13.0"}}, {"uniqueid": "w84705526:a84877452", "current_trial": 54, "dateTime": 1664465474359, "trialdata": {"revealed_states": [], "num_clicks_accrued": [0, 0, 0, 0, 0, 0, 0, 0, 0, 0, 0, 0, 0], "stateRewards": ["", 4, 8, -24, 48, -2, -4, 24, -24, -2, 4, 24, 24], "withholdReward": true, "trial_id": "mdp_948713805479", "block": "test2", "trialIndex": 46, "score": 63.75, "costs": -1.25, "simulationMode": [null, null, null], "rewards": [4, 8, 48], "path": ["0", "0", "1", "2", "4"], "rt": [4159, 565, 40], "actions": ["up", "up", "left"], "actionTimes": [5528, 6641, 7248], "queries": {"click": {"state": {"target": ["12", "11", "4", "7", "8"], "time": [1819, 2736, 3289, 4131, 4691]}, "edge": {"target": [], "time": []}}, "mouseover": {"state": {"target": ["12", "9", "11", "11", "4", "3", "7", "6", "8", "0", "1"], "time": [1760, 2312, 2390, 2660, 3180, 3850, 4010, 4298, 4562, 5146, 5206]}, "edge": {"target": [], "time": []}}, "mouseout": {"state": {"target": ["0", "12", "9", "11", "11", "4", "3", "7", "6", "8", "0", "1", "5"], "time": [1437, 2097, 2362, 2414, 2881, 3396, 3962, 4229, 4344, 4881, 5179, 5527, 5701]}, "edge": {"target": [], "time": []}}}, "displayed_time": "9.37", "trialTime": 9937, "trial_type": "mouselab-mdp", "trial_index": 54, "time_elapsed": 1312551, "internal_node_id": "0.0-4.0-3.0-14.0"}}, {"uniqueid": "w84705526:a84877452", "current_trial": 55, "dateTime": 1664465490110, "trialdata": {"revealed_states": [], "num_clicks_accrued": [0, 0, 0, 0, 0, 0, 0, 0, 0, 0, 0, 0, 0], "stateRewards": ["", -2, 8, 48, -24, 2, 4, -48, -24, -4, 8, -48, -48], "withholdReward": false, "trial_id": "mdp_539167561933", "block": "test2", "trialIndex": 47, "score": 57.5, "costs": -1.5, "simulationMode": [null, null, null], "rewards": [-2, 8, 48], "path": ["0", "0", "1", "2", "3"], "rt": [3825, 2, 4], "actions": ["up", "up", "right"], "actionTimes": [6296, 6877, 7442], "queries": {"click": {"state": {"target": ["11", "4", "3", "7", "8", "12"], "time": [2885, 3080, 3795, 4097, 4716, 5316]}, "edge": {"target": [], "time": []}}, "mouseover": {"state": {"target": ["11", "4", "1", "3", "7", "6", "8", "12", "0", "1"], "time": [2600, 3053, 3366, 3699, 4077, 4459, 4584, 5286, 5699, 5753]}, "edge": {"target": [], "time": []}}, "mouseout": {"state": {"target": ["0", "0", "11", "4", "1", "3", "7", "6", "8", "12", "0", "1", "5"], "time": [1512, 1898, 3004, 3316, 3435, 3935, 4351, 4516, 4867, 5532, 5727, 6016, 6812]}, "edge": {"target": [], "time": []}}}, "displayed_time": "11.47", "trialTime": 15261, "trial_type": "mouselab-mdp", "trial_index": 55, "time_elapsed": 1328302, "internal_node_id": "0.0-4.0-3.0-15.0"}}, {"uniqueid": "w84705526:a84877452", "current_trial": 56, "dateTime": 1664465501512, "trialdata": {"revealed_states": [], "num_clicks_accrued": [0, 0, 0, 0, 0, 0, 0, 0, 0, 0, 0, 0, 0], "stateRewards": ["", 2, -4, 24, 24, 2, 4, 24, 24, -4, 8, 24, 48], "withholdReward": false, "trial_id": "mdp_268430387178", "block": "test2", "trialIndex": 48, "score": 55.75, "costs": -1.25, "simulationMode": [null, null, null], "rewards": [-4, 8, 48], "path": ["0", "0", "9", "10", "12"], "rt": [3940, 2, 22], "actions": ["left", "left", "down"], "actionTimes": [5157, 5723, 6317], "queries": {"click": {"state": {"target": ["12", "4", "3", "7", "8"], "time": [1797, 2702, 3402, 3944, 4327]}, "edge": {"target": [], "time": []}}, "mouseover": {"state": {"target": ["12", "10", "11", "4", "3", "7", "6", "8"], "time": [1744, 2193, 2260, 2609, 3375, 3645, 4127, 4205]}, "edge": {"target": [], "time": []}}, "mouseout": {"state": {"target": ["0", "12", "10", "11", "4", "3", "7", "6", "8", "12", "9"], "time": [1279, 2163, 2221, 2378, 2827, 3513, 4057, 4178, 4533, 9906, 10397]}, "edge": {"target": [], "time": []}}}, "displayed_time": "10.22", "trialTime": 10974, "trial_type": "mouselab-mdp", "trial_index": 56, "time_elapsed": 1339703, "internal_node_id": "0.0-4.0-3.0-16.0"}}, {"uniqueid": "w84705526:a84877452", "current_trial": 57, "dateTime": 1664465513031, "trialdata": {"revealed_states": [], "num_clicks_accrued": [0, 0, 0, 0, 0, 0, 0, 0, 0, 0, 0, 0, 0], "stateRewards": ["", -4, 8, 24, 24, 2, 4, -48, 24, -2, -4, -24, -24], "withholdReward": true, "trial_id": "mdp_752328329546", "block": "test2", "trialIndex": 49, "score": 32.5, "costs": -2.5, "simulationMode": [null, null, null], "rewards": [2, 4, 24], "path": ["0", "0", "5", "6", "8"], "rt": [7293, 58, 2], "actions": ["right", "right", "down"], "actionTimes": [8480, 9102, 9679], "queries": {"click": {"state": {"target": ["11", "4", "3", "7", "8", "12", "1", "2", "5", "6"], "time": [2238, 2472, 3225, 3424, 4056, 4925, 6682, 7201, 7635, 7847]}, "edge": {"target": [], "time": []}}, "mouseover": {"state": {"target": ["11", "11", "4", "1", "3", "7", "6", "6", "8", "12", "0", "1", "1", "2", "5", "6"], "time": [1310, 2108, 2427, 2761, 3096, 3393, 3675, 3876, 3979, 4625, 5496, 5660, 6508, 7032, 7511, 7792]}, "edge": {"target": [], "time": []}}, "mouseout": {"state": {"target": ["11", "11", "4", "1", "3", "7", "6", "6", "8", "12", "0", "1", "1", "2", "5", "6", "8"], "time": [1358, 2379, 2694, 2929, 3323, 3611, 3727, 3908, 4204, 5077, 5527, 6293, 6841, 7343, 7763, 8141, 8260]}, "edge": {"target": [], "time": []}}}, "displayed_time": "10.23", "trialTime": 11096, "trial_type": "mouselab-mdp", "trial_index": 57, "time_elapsed": 1351223, "internal_node_id": "0.0-4.0-3.0-17.0"}}, {"uniqueid": "w84705526:a84877452", "current_trial": 58, "dateTime": 1664465524489, "trialdata": {"revealed_states": [], "num_clicks_accrued": [0, 0, 0, 0, 0, 0, 0, 0, 0, 0, 0, 0, 0], "stateRewards": ["", -2, -4, -24, 48, -2, -8, -48, -24, 4, 8, 48, 24], "withholdReward": true, "trial_id": "mdp_625355871626", "block": "test2", "trialIndex": 50, "score": 63.75, "costs": -1.25, "simulationMode": [null, null, null], "rewards": [4, 8, 48], "path": ["0", "0", "9", "10", "11"], "rt": [5098, 481, 305], "actions": ["left", "left", "up"], "actionTimes": [7246, 8294, 9174], "queries": {"click": {"state": {"target": ["11", "4", "7", "8", "10"], "time": [2863, 3071, 4278, 4995, 6380]}, "edge": {"target": [], "time": []}}, "mouseover": {"state": {"target": ["9", "10", "11", "4", "1", "3", "7", "6", "8", "9", "10"], "time": [2228, 2463, 2760, 3042, 3327, 3861, 4174, 4446, 4664, 5646, 6329]}, "edge": {"target": [], "time": []}}, "mouseout": {"state": {"target": ["1", "9", "10", "11", "4", "1", "3", "7", "6", "8", "9", "10"], "time": [1641, 2260, 2535, 2997, 3280, 3561, 3986, 4413, 4561, 5164, 6213, 6528]}, "edge": {"target": [], "time": []}}}, "displayed_time": "9.74", "trialTime": 11040, "trial_type": "mouselab-mdp", "trial_index": 58, "time_elapsed": 1362681, "internal_node_id": "0.0-4.0-3.0-18.0"}}, {"uniqueid": "w84705526:a84877452", "current_trial": 59, "dateTime": 1664465534679, "trialdata": {"revealed_states": [], "num_clicks_accrued": [0, 0, 0, 0, 0, 0, 0, 0, 0, 0, 0, 0, 0], "stateRewards": ["", 2, 8, -24, -48, -4, 8, -48, -48, -2, -8, -24, -24], "withholdReward": true, "trial_id": "mdp_978177451072", "block": "test2", "trialIndex": 51, "score": -40.25, "costs": -1.25, "simulationMode": [null, null, null], "rewards": [-4, 8, -48], "path": ["0", "0", "5", "6", "8"], "rt": [5065, 602, 21], "actions": ["right", "right", "down"], "actionTimes": [5950, 7110, 7693], "queries": {"click": {"state": {"target": ["12", "11", "4", "3", "7"], "time": [1380, 2924, 3286, 3777, 4195]}, "edge": {"target": [], "time": []}}, "mouseover": {"state": {"target": ["9", "12", "10", "11", "11", "11", "11", "4", "2", "3", "7", "6", "8"], "time": [951, 1257, 1772, 2121, 2324, 2523, 2889, 3139, 3507, 3583, 4106, 4350, 4519]}, "edge": {"target": [], "time": []}}, "mouseout": {"state": {"target": ["0", "9", "12", "10", "11", "11", "11", "11", "4", "2", "3", "7", "6", "8"], "time": [414, 1021, 1739, 1908, 2150, 2348, 2704, 3073, 3461, 3557, 3921, 4322, 4453, 6239]}, "edge": {"target": [], "time": []}}}, "displayed_time": "8.89", "trialTime": 9757, "trial_type": "mouselab-mdp", "trial_index": 59, "time_elapsed": 1372871, "internal_node_id": "0.0-4.0-3.0-19.0"}}, {"uniqueid": "w84705526:a84877452", "current_trial": 60, "dateTime": 1664465549104, "trialdata": {"revealed_states": [], "num_clicks_accrued": [0, 0, 0, 0, 0, 0, 0, 0, 0, 0, 0, 0, 0], "stateRewards": ["", -2, -8, 48, 24, -2, 8, -48, -24, -2, 4, -48, 48], "withholdReward": true, "trial_id": "mdp_295220852217", "block": "test2", "trialIndex": 52, "score": 53.25, "costs": -1.75, "simulationMode": [null, null, null], "rewards": [-2, 4, 48], "path": ["0", "0", "9", "10", "12"], "rt": [7262, 448, 6], "actions": ["left", "left", "down"], "actionTimes": [10787, 11812, 12393], "queries": {"click": {"state": {"target": ["7", "3", "11", "12", "8", "10", "2"], "time": [4301, 4967, 5957, 6549, 7897, 9118, 10003]}, "edge": {"target": [], "time": []}}, "mouseover": {"state": {"target": ["6", "5", "6", "7", "3", "1", "4", "11", "10", "12", "8", "9", "10", "9", "2", "1"], "time": [3623, 3817, 3964, 4217, 4933, 5204, 5564, 5764, 6103, 6218, 7865, 8550, 9002, 9634, 9831, 10216]}, "edge": {"target": [], "time": []}}, "mouseout": {"state": {"target": ["0", "5", "5", "0", "6", "5", "6", "7", "3", "1", "4", "11", "10", "12", "8", "9", "10", "9", "2", "1", "0"], "time": [630, 1842, 2983, 3595, 3787, 3899, 4151, 4420, 5118, 5231, 5671, 6068, 6154, 6683, 7991, 8917, 9329, 9700, 10187, 10667, 11001]}, "edge": {"target": [], "time": []}}}, "displayed_time": "12.95", "trialTime": 13995, "trial_type": "mouselab-mdp", "trial_index": 60, "time_elapsed": 1387295, "internal_node_id": "0.0-4.0-3.0-20.0"}}, {"uniqueid": "w84705526:a84877452", "current_trial": 61, "dateTime": 1664465559785, "trialdata": {"revealed_states": [], "num_clicks_accrued": [0, 0, 0, 0, 0, 0, 0, 0, 0, 0, 0, 0, 0], "stateRewards": ["", 2, -8, -24, -48, -2, -4, 48, 48, 4, 8, 48, 48], "withholdReward": true, "trial_id": "mdp_347285045422", "block": "test2", "trialIndex": 53, "score": 63.75, "costs": -1.25, "simulationMode": [null, null, null], "rewards": [4, 8, 48], "path": ["0", "0", "9", "10", "11"], "rt": [6296, 366, 4], "actions": ["left", "left", "up"], "actionTimes": [7337, 8274, 8853], "queries": {"click": {"state": {"target": ["11", "3", "4", "7", "6"], "time": [2594, 3506, 4680, 5368, 6569]}, "edge": {"target": [], "time": []}}, "mouseover": {"state": {"target": ["12", "12", "11", "4", "2", "3", "7", "7", "2", "4", "1", "5", "6", "7", "6", "8", "6", "6", "8"], "time": [1622, 1892, 2525, 2807, 3188, 3270, 3922, 4307, 4458, 4555, 4973, 5089, 5154, 5223, 5523, 5637, 6090, 6440, 6756]}, "edge": {"target": [], "time": []}}, "mouseout": {"state": {"target": ["0", "12", "12", "11", "4", "2", "3", "7", "7", "2", "4", "1", "5", "6", "7", "6", "8", "6", "6", "8"], "time": [600, 1688, 2024, 2741, 3158, 3243, 3643, 4072, 4336, 4488, 4838, 5002, 5125, 5182, 5493, 5608, 6022, 6188, 6706, 6805]}, "edge": {"target": [], "time": []}}}, "displayed_time": "9.42", "trialTime": 10252, "trial_type": "mouselab-mdp", "trial_index": 61, "time_elapsed": 1397977, "internal_node_id": "0.0-4.0-3.0-21.0"}}, {"uniqueid": "w84705526:a84877452", "current_trial": 62, "dateTime": 1664465583768, "trialdata": {"revealed_states": [], "num_clicks_accrued": [0, 0, 0, 0, 0, 0, 0, 0, 0, 0, 0, 0, 0], "stateRewards": ["", 4, -4, 24, 48, 4, 8, -24, -24, -2, 4, 48, 48], "withholdReward": false, "trial_id": "mdp_624998450453", "block": "test2", "trialIndex": 54, "score": 54, "costs": -1, "simulationMode": [null, null, null], "rewards": [-2, 4, 48], "path": ["0", "0", "9", "10", "11"], "rt": [5463, 45, 2], "actions": ["left", "left", "up"], "actionTimes": [6249, 6840, 7403], "queries": {"click": {"state": {"target": ["11", "4", "2", "10"], "time": [1298, 2035, 4574, 5253]}, "edge": {"target": [], "time": []}}, "mouseover": {"state": {"target": ["9", "11", "4", "1", "7", "7", "1", "1", "2", "1", "9", "10"], "time": [1060, 1175, 1858, 2790, 3123, 3489, 3977, 4342, 4476, 4781, 5008, 5157]}, "edge": {"target": [], "time": []}}, "mouseout": {"state": {"target": ["12", "0", "9", "11", "4", "1", "7", "7", "1", "1", "2", "1", "9", "10"], "time": [53, 972, 1089, 1457, 2192, 2855, 3192, 3727, 4008, 4392, 4725, 4857, 5041, 5421]}, "edge": {"target": [], "time": []}}}, "displayed_time": "8.79", "trialTime": 23570, "trial_type": "mouselab-mdp", "trial_index": 62, "time_elapsed": 1421960, "internal_node_id": "0.0-4.0-3.0-22.0"}}, {"uniqueid": "w84705526:a84877452", "current_trial": 63, "dateTime": 1664465596248, "trialdata": {"revealed_states": [], "num_clicks_accrued": [0, 0, 0, 0, 0, 0, 0, 0, 0, 0, 0, 0, 0], "stateRewards": ["", -4, -8, 48, 48, -4, 4, 48, -24, 4, 8, -24, -48], "withholdReward": true, "trial_id": "mdp_142906093415", "block": "test2", "trialIndex": 55, "score": 51.75, "costs": -1.25, "simulationMode": [null, null, null], "rewards": [-4, 4, 48], "path": ["0", "0", "5", "6", "7"], "rt": [5291, 97, 138], "actions": ["right", "right", "up"], "actionTimes": [6815, 7489, 8184], "queries": {"click": {"state": {"target": ["11", "4", "7", "6", "2"], "time": [2225, 2797, 4097, 5159, 6039]}, "edge": {"target": [], "time": []}}, "mouseover": {"state": {"target": ["0", "9", "11", "4", "1", "7", "6", "8", "6", "5", "6", "5", "2", "1", "5"], "time": [1584, 1866, 2053, 2720, 2987, 3701, 4247, 4404, 4686, 4882, 5069, 5553, 5666, 6197, 6320]}, "edge": {"target": [], "time": []}}, "mouseout": {"state": {"target": ["9", "0", "9", "11", "4", "1", "7", "6", "8", "6", "5", "6", "5", "2", "1", "5"], "time": [815, 1738, 1951, 2416, 2957, 3037, 4219, 4333, 4637, 4839, 4971, 5291, 5583, 6169, 6231, 7031]}, "edge": {"target": [], "time": []}}}, "displayed_time": "10.53", "trialTime": 12048, "trial_type": "mouselab-mdp", "trial_index": 63, "time_elapsed": 1434440, "internal_node_id": "0.0-4.0-3.0-23.0"}}, {"uniqueid": "w84705526:a84877452", "current_trial": 64, "dateTime": 1664465611287, "trialdata": {"revealed_states": [], "num_clicks_accrued": [0, 0, 0, 0, 0, 0, 0, 0, 0, 0, 0, 0, 0], "stateRewards": ["", 4, 4, -24, -48, -4, 4, -48, 24, 4, -8, -48, 48], "withholdReward": false, "trial_id": "mdp_566768794366", "block": "test2", "trialIndex": 56, "score": 47.5, "costs": -1.5, "simulationMode": [null, null, null], "rewards": [4, -8, 48], "path": ["0", "0", "9", "10", "12"], "rt": [6697, 533, 129], "actions": ["left", "left", "down"], "actionTimes": [9265, 10361, 11059], "queries": {"click": {"state": {"target": ["11", "12", "4", "3", "7", "8"], "time": [3496, 4605, 5397, 6138, 7096, 7585]}, "edge": {"target": [], "time": []}}, "mouseover": {"state": {"target": ["11", "9", "12", "9", "4", "7", "3", "7", "7", "6", "8", "10"], "time": [3342, 3941, 4325, 4941, 5040, 5823, 6056, 6453, 7005, 7295, 7523, 8586]}, "edge": {"target": [], "time": []}}, "mouseout": {"state": {"target": ["0", "9", "0", "11", "9", "12", "9", "4", "7", "3", "7", "7", "6", "8", "10"], "time": [1068, 1267, 2625, 3657, 3968, 4755, 4974, 5494, 5876, 6274, 6589, 7245, 7408, 7859, 8791]}, "edge": {"target": [], "time": []}}}, "displayed_time": "12.57", "trialTime": 14576, "trial_type": "mouselab-mdp", "trial_index": 64, "time_elapsed": 1449479, "internal_node_id": "0.0-4.0-3.0-24.0"}}, {"uniqueid": "w84705526:a84877452", "current_trial": 65, "dateTime": 1664465623703, "trialdata": {"revealed_states": [], "num_clicks_accrued": [0, 0, 0, 0, 0, 0, 0, 0, 0, 0, 0, 0, 0], "stateRewards": ["", 4, 4, 48, -48, -2, -8, -48, -24, 2, 4, -24, -48], "withholdReward": false, "trial_id": "mdp_239929662917", "block": "test2", "trialIndex": 57, "score": 59.5, "costs": -1.5, "simulationMode": [null, null, null], "rewards": [4, 4, 48], "path": ["0", "0", "1", "2", "3"], "rt": [4911, 30, 84], "actions": ["up", "up", "right"], "actionTimes": [6926, 7527, 8181], "queries": {"click": {"state": {"target": ["11", "4", "3", "7", "8", "12"], "time": [2540, 3116, 3955, 4938, 5771, 6457]}, "edge": {"target": [], "time": []}}, "mouseover": {"state": {"target": ["9", "11", "4", "3", "7", "6", "8", "12"], "time": [2107, 2427, 3003, 3886, 4352, 5121, 5303, 6167]}, "edge": {"target": [], "time": []}}, "mouseout": {"state": {"target": ["0", "9", "11", "9", "0", "9", "11", "4", "3", "7", "6", "8", "12"], "time": [1015, 1065, 1346, 1448, 2089, 2139, 2905, 3470, 4118, 5071, 5201, 5905, 7455]}, "edge": {"target": [], "time": []}}}, "displayed_time": "11.02", "trialTime": 11941, "trial_type": "mouselab-mdp", "trial_index": 65, "time_elapsed": 1461895, "internal_node_id": "0.0-4.0-3.0-25.0"}}, {"uniqueid": "w84705526:a84877452", "current_trial": 66, "dateTime": 1664465635960, "trialdata": {"revealed_states": [], "num_clicks_accrued": [0, 0, 0, 0, 0, 0, 0, 0, 0, 0, 0, 0, 0], "stateRewards": ["", -4, 4, 24, 24, 4, -8, 48, -48, -2, -8, 24, 24], "withholdReward": true, "trial_id": "mdp_395264223239", "block": "test2", "trialIndex": 58, "score": 47.75, "costs": -1.25, "simulationMode": [null, null, null], "rewards": [4, -8, 48], "path": ["0", "0", "5", "6", "7"], "rt": [5215, 36, 2], "actions": ["right", "right", "up"], "actionTimes": [7966, 8580, 9169], "queries": {"click": {"state": {"target": ["11", "4", "3", "7", "12"], "time": [3363, 4033, 4716, 5265, 6597]}, "edge": {"target": [], "time": []}}, "mouseover": {"state": {"target": ["11", "4", "3", "7", "7", "6", "8", "12", "12"], "time": [3232, 3867, 4582, 4904, 5187, 5485, 6032, 6236, 6532]}, "edge": {"target": [], "time": []}}, "mouseout": {"state": {"target": ["0", "0", "0", "11", "4", "3", "7", "7", "6", "8", "12", "12"], "time": [1260, 1743, 2814, 3800, 4286, 4850, 4932, 5434, 5598, 6133, 6264, 6734]}, "edge": {"target": [], "time": []}}}, "displayed_time": "10.75", "trialTime": 11812, "trial_type": "mouselab-mdp", "trial_index": 66, "time_elapsed": 1474151, "internal_node_id": "0.0-4.0-3.0-26.0"}}, {"uniqueid": "w84705526:a84877452", "current_trial": 67, "dateTime": 1664465647488, "trialdata": {"revealed_states": [], "num_clicks_accrued": [0, 0, 0, 0, 0, 0, 0, 0, 0, 0, 0, 0, 0], "stateRewards": ["", 2, -4, -24, -24, -2, -8, -48, 24, -4, -8, 24, 24], "withholdReward": true, "trial_id": "mdp_521351546461", "block": "test2", "trialIndex": 59, "score": 16.5, "costs": -2.5, "simulationMode": [null, null, null], "rewards": [-2, -8, 24], "path": ["0", "0", "5", "6", "8"], "rt": [7820, 45, 28], "actions": ["right", "right", "down"], "actionTimes": [8595, 9195, 9801], "queries": {"click": {"state": {"target": ["11", "4", "3", "7", "8", "12", "10", "6", "5", "9"], "time": [1536, 1930, 2535, 2936, 3566, 4481, 5207, 5986, 7009, 7921]}, "edge": {"target": [], "time": []}}, "mouseover": {"state": {"target": ["9", "11", "4", "2", "3", "7", "6", "8", "12", "10", "5", "6", "5", "9", "9"], "time": [1302, 1418, 1884, 2148, 2440, 2767, 3149, 3317, 4067, 5149, 5618, 5862, 6868, 7368, 7684]}, "edge": {"target": [], "time": []}}, "mouseout": {"state": {"target": ["0", "9", "11", "4", "2", "3", "7", "6", "8", "12", "10", "5", "6", "8", "8", "5", "9", "9"], "time": [30, 1330, 1837, 2119, 2186, 2652, 3084, 3186, 3687, 4633, 5404, 5702, 6134, 6250, 6685, 7152, 7517, 8034]}, "edge": {"target": [], "time": []}}}, "displayed_time": "10.37", "trialTime": 11027, "trial_type": "mouselab-mdp", "trial_index": 67, "time_elapsed": 1485680, "internal_node_id": "0.0-4.0-3.0-27.0"}}, {"uniqueid": "w84705526:a84877452", "current_trial": 68, "dateTime": 1664465658408, "trialdata": {"revealed_states": [], "num_clicks_accrued": [0, 0, 0, 0, 0, 0, 0, 0, 0, 0, 0, 0, 0], "stateRewards": ["", 4, 4, -48, -48, 4, 4, -24, -24, -4, 8, -48, 24], "withholdReward": true, "trial_id": "mdp_669785455541", "block": "test2", "trialIndex": 60, "score": 31.5, "costs": -1.5, "simulationMode": [null, null, null], "rewards": [-4, 8, 24], "path": ["0", "0", "9", "10", "12"], "rt": [4716, 62, 18], "actions": ["left", "left", "down"], "actionTimes": [5392, 6016, 6590], "queries": {"click": {"state": {"target": ["11", "4", "3", "7", "8", "12"], "time": [1276, 1534, 2334, 2713, 3316, 3878]}, "edge": {"target": [], "time": []}}, "mouseover": {"state": {"target": ["11", "4", "1", "3", "7", "6", "8", "12"], "time": [1242, 1508, 1776, 2270, 2529, 2877, 2958, 3726]}, "edge": {"target": [], "time": []}}, "mouseout": {"state": {"target": ["9", "0", "11", "4", "1", "3", "7", "6", "8", "12"], "time": [106, 934, 1467, 1731, 1824, 2464, 2822, 2928, 3445, 4209]}, "edge": {"target": [], "time": []}}}, "displayed_time": "9.68", "trialTime": 10440, "trial_type": "mouselab-mdp", "trial_index": 68, "time_elapsed": 1496600, "internal_node_id": "0.0-4.0-3.0-28.0"}}, {"uniqueid": "w84705526:a84877452", "current_trial": 69, "dateTime": 1664465668952, "trialdata": {"revealed_states": [], "num_clicks_accrued": [0, 0, 0, 0, 0, 0, 0, 0, 0, 0, 0, 0, 0], "stateRewards": ["", 2, -8, 48, -24, 2, 8, 24, -24, 4, -4, -48, -48], "withholdReward": true, "trial_id": "mdp_130946197263", "block": "test2", "trialIndex": 61, "score": 45.5, "costs": -1.5, "simulationMode": [null, null, null], "rewards": [2, -8, 48], "path": ["0", "0", "1", "2", "3"], "rt": [5413, 597, 2], "actions": ["up", "up", "right"], "actionTimes": [6420, 7573, 8143], "queries": {"click": {"state": {"target": ["11", "4", "3", "7", "8", "12"], "time": [1782, 2240, 2885, 4268, 4774, 6070]}, "edge": {"target": [], "time": []}}, "mouseover": {"state": {"target": ["9", "11", "4", "3", "7", "6", "8", "12", "12"], "time": [1270, 1532, 2115, 2753, 3302, 4435, 4534, 5575, 5919]}, "edge": {"target": [], "time": []}}, "mouseout": {"state": {"target": ["0", "9", "11", "4", "3", "7", "6", "8", "8", "12", "12", "12"], "time": [1070, 1335, 1934, 2487, 3002, 4400, 4499, 4901, 4972, 5699, 6369, 9588]}, "edge": {"target": [], "time": []}}}, "displayed_time": "9.01", "trialTime": 10076, "trial_type": "mouselab-mdp", "trial_index": 69, "time_elapsed": 1507143, "internal_node_id": "0.0-4.0-3.0-29.0"}}, {"uniqueid": "w84705526:a84877452", "current_trial": 70, "dateTime": 1664465670872, "trialdata": {"rt": 1916, "stimulus": "<h1> End of block! </h1>\n\nYou have reached the end of the block 2/4. If you need a short break, feel free to take one now before moving on.\n\n<br><br>\nIn the next block, you will complete another 30 rounds of this game.\n\n<br><br>\n<div style='text-align: center;'>Press <code>space</code> to begin.</div>\n<br><br>\n<div style='text-align: center;'>(If the experiment doesn't continue, try clicking on the text and then pressing <code>space</code>.)</div>", "response": " ", "trial_id": "mdp_ready_3", "trial_type": "html-keyboard-response", "trial_index": 70, "time_elapsed": 1509064, "internal_node_id": "0.0-4.0-4.0"}}, {"uniqueid": "w84705526:a84877452", "current_trial": 71, "dateTime": 1664465681824, "trialdata": {"revealed_states": [], "num_clicks_accrued": [0, 0, 0, 0, 0, 0, 0, 0, 0, 0, 0, 0, 0], "stateRewards": ["", -2, 8, -24, 24, -4, -8, -24, 48, -2, -8, -48, 48], "withholdReward": true, "trial_id": "mdp_238332601315", "block": "test3", "trialIndex": 62, "score": 40.5, "costs": -2.5, "simulationMode": [null, null, null], "rewards": [-2, -8, 48], "path": ["0", "0", "9", "10", "12"], "rt": [6252, 540, 153], "actions": ["left", "left", "down"], "actionTimes": [7450, 8556, 9274], "queries": {"click": {"state": {"target": ["11", "4", "3", "7", "8", "12", "10", "6", "5", "9"], "time": [1571, 1816, 2469, 2738, 3432, 4403, 5186, 5766, 6416, 6937]}, "edge": {"target": [], "time": []}}, "mouseover": {"state": {"target": ["11", "4", "2", "3", "7", "6", "8", "12", "10", "9", "0", "5", "6", "5", "9"], "time": [1332, 1749, 2135, 2252, 2684, 2962, 3183, 3769, 5104, 5412, 5483, 5533, 5573, 6334, 6814]}, "edge": {"target": [], "time": []}}, "mouseout": {"state": {"target": ["11", "4", "2", "3", "7", "6", "8", "12", "10", "9", "0", "5", "6", "8", "5", "9"], "time": [1700, 2033, 2163, 2600, 2934, 3083, 3538, 4682, 5383, 5454, 5512, 5556, 5934, 6032, 6582, 7099]}, "edge": {"target": [], "time": []}}}, "displayed_time": "9.86", "trialTime": 10499, "trial_type": "mouselab-mdp", "trial_index": 71, "time_elapsed": 1520016, "internal_node_id": "0.0-4.0-5.0-0.0"}}, {"uniqueid": "w84705526:a84877452", "current_trial": 72, "dateTime": 1664465693786, "trialdata": {"revealed_states": [], "num_clicks_accrued": [0, 0, 0, 0, 0, 0, 0, 0, 0, 0, 0, 0, 0], "stateRewards": ["", -2, -4, -24, -24, 4, 8, 24, 24, -2, 8, 48, 48], "withholdReward": true, "trial_id": "mdp_620787912291", "block": "test3", "trialIndex": 63, "score": 57.75, "costs": -1.25, "simulationMode": [null, null, null], "rewards": [-2, 8, 48], "path": ["0", "0", "9", "10", "11"], "rt": [3764, 621, 4], "actions": ["left", "left", "up"], "actionTimes": [4551, 5735, 6318], "queries": {"click": {"state": {"target": ["11", "4", "3", "7", "8"], "time": [1307, 1513, 2618, 3066, 3842]}, "edge": {"target": [], "time": []}}, "mouseover": {"state": {"target": ["9", "11", "4", "1", "3", "7", "6", "8"], "time": [992, 1219, 1471, 1785, 2321, 2985, 3319, 3450]}, "edge": {"target": [], "time": []}}, "mouseout": {"state": {"target": ["0", "9", "11", "4", "1", "3", "7", "6", "8", "0", "11"], "time": [855, 1173, 1422, 1734, 2104, 2818, 3269, 3402, 4018, 9272, 9952]}, "edge": {"target": [], "time": []}}}, "displayed_time": "10.79", "trialTime": 11513, "trial_type": "mouselab-mdp", "trial_index": 72, "time_elapsed": 1531978, "internal_node_id": "0.0-4.0-5.0-1.0"}}, {"uniqueid": "w84705526:a84877452", "current_trial": 73, "dateTime": 1664465704527, "trialdata": {"revealed_states": [], "num_clicks_accrued": [0, 0, 0, 0, 0, 0, 0, 0, 0, 0, 0, 0, 0], "stateRewards": ["", 2, 8, 48, 24, 2, 8, 48, 48, -2, -4, -24, -48], "withholdReward": true, "trial_id": "mdp_717636349175", "block": "test3", "trialIndex": 64, "score": 61.75, "costs": -1.25, "simulationMode": [null, null, null], "rewards": [2, 8, 48], "path": ["0", "0", "5", "6", "7"], "rt": [5551, 4, 2], "actions": ["right", "right", "up"], "actionTimes": [6179, 6748, 7318], "queries": {"click": {"state": {"target": ["11", "4", "3", "7", "6"], "time": [1783, 2312, 2931, 4041, 5621]}, "edge": {"target": [], "time": []}}, "mouseover": {"state": {"target": ["0", "11", "4", "1", "3", "7", "6", "8", "6", "5"], "time": [952, 1720, 2154, 2569, 2839, 3136, 4206, 4286, 5502, 6002]}, "edge": {"target": [], "time": []}}, "mouseout": {"state": {"target": ["0", "0", "11", "4", "1", "3", "7", "6", "8", "6", "5"], "time": [699, 1020, 1953, 2481, 2598, 3070, 4148, 4256, 5419, 5772, 6151]}, "edge": {"target": [], "time": []}}}, "displayed_time": "9.63", "trialTime": 10292, "trial_type": "mouselab-mdp", "trial_index": 73, "time_elapsed": 1542719, "internal_node_id": "0.0-4.0-5.0-2.0"}}, {"uniqueid": "w84705526:a84877452", "current_trial": 74, "dateTime": 1664465717783, "trialdata": {"revealed_states": [], "num_clicks_accrued": [0, 0, 0, 0, 0, 0, 0, 0, 0, 0, 0, 0, 0], "stateRewards": ["", 2, -8, 48, -24, 2, -4, 24, 48, 4, -4, 48, -24], "withholdReward": false, "trial_id": "mdp_656500928756", "block": "test3", "trialIndex": 65, "score": 50.5, "costs": -2.5, "simulationMode": [null, null, null], "rewards": [4, -4, 48], "path": ["0", "0", "9", "10", "11"], "rt": [8927, 493, 11], "actions": ["left", "left", "up"], "actionTimes": [9746, 10786, 11353], "queries": {"click": {"state": {"target": ["11", "4", "3", "2", "10", "7", "8", "6", "5", "9"], "time": [1166, 1367, 2153, 3425, 4189, 5150, 5798, 6631, 7377, 8256]}, "edge": {"target": [], "time": []}}, "mouseover": {"state": {"target": ["11", "4", "3", "7", "1", "2", "1", "10", "9", "0", "5", "7", "6", "8", "6", "5", "0", "9", "1", "0"], "time": [985, 1337, 1983, 2401, 3219, 3355, 3738, 3922, 4738, 4804, 4859, 5042, 5337, 5589, 6536, 7304, 7756, 7962, 8452, 8874]}, "edge": {"target": [], "time": []}}, "mouseout": {"state": {"target": ["9", "11", "4", "3", "7", "1", "2", "1", "10", "9", "0", "5", "7", "6", "8", "8", "6", "8", "5", "0", "9", "1", "0"], "time": [179, 1288, 1606, 2287, 3056, 3304, 3639, 3789, 4438, 4776, 4834, 4938, 5307, 5368, 5989, 6437, 6754, 6907, 7505, 7784, 8387, 8758, 8904]}, "edge": {"target": [], "time": []}}}, "displayed_time": "11.92", "trialTime": 12833, "trial_type": "mouselab-mdp", "trial_index": 74, "time_elapsed": 1555975, "internal_node_id": "0.0-4.0-5.0-3.0"}}, {"uniqueid": "w84705526:a84877452", "current_trial": 75, "dateTime": 1664465731553, "trialdata": {"revealed_states": [], "num_clicks_accrued": [0, 0, 0, 0, 0, 0, 0, 0, 0, 0, 0, 0, 0], "stateRewards": ["", 4, 4, -48, -48, 4, 4, -24, -24, -4, 8, -48, 24], "withholdReward": false, "trial_id": "mdp_669785455541", "block": "test3", "trialIndex": 66, "score": 31.5, "costs": -1.5, "simulationMode": [null, null, null], "rewards": [-4, 8, 24], "path": ["0", "0", "9", "10", "12"], "rt": [4737, 46, 39], "actions": ["left", "left", "down"], "actionTimes": [7396, 7996, 8607], "queries": {"click": {"state": {"target": ["4", "11", "3", "7", "8", "12"], "time": [4098, 4577, 5266, 5546, 6036, 6788]}, "edge": {"target": [], "time": []}}, "mouseover": {"state": {"target": ["5", "5", "10", "11", "4", "11", "9", "1", "3", "7", "6", "8", "12"], "time": [3106, 3189, 3515, 3691, 4024, 4471, 4905, 5027, 5141, 5489, 5742, 5972, 6676]}, "edge": {"target": [], "time": []}}, "mouseout": {"state": {"target": ["0", "9", "5", "0", "5", "5", "10", "11", "4", "11", "9", "1", "3", "7", "6", "8", "12", "0"], "time": [953, 974, 1469, 2797, 3160, 3220, 3546, 3743, 4308, 4826, 4975, 5077, 5392, 5708, 5839, 6211, 7015, 8936]}, "edge": {"target": [], "time": []}}}, "displayed_time": "11.66", "trialTime": 13359, "trial_type": "mouselab-mdp", "trial_index": 75, "time_elapsed": 1569745, "internal_node_id": "0.0-4.0-5.0-4.0"}}, {"uniqueid": "w84705526:a84877452", "current_trial": 76, "dateTime": 1664465749872, "trialdata": {"revealed_states": [], "num_clicks_accrued": [0, 0, 0, 0, 0, 0, 0, 0, 0, 0, 0, 0, 0], "stateRewards": ["", -4, -8, -24, 24, 2, 8, 24, 48, 2, 4, 24, -48], "withholdReward": false, "trial_id": "mdp_122352383932", "block": "test3", "trialIndex": 67, "score": 61.5, 