{"condition": 0, "counterbalance": 0, "assignmentId": "a99734111", "workerId": "w27178158", "hitId": "h36239782", "currenttrial": 959, "bonus": 0, "data": [{"uniqueid": "w27178158:a99734111", "current_trial": 0, "dateTime": 1664562903991, "trialdata": {"success": true, "trial_type": "fullscreen", "trial_index": 0, "time_elapsed": 3254, "internal_node_id": "0.0-0.0"}}, {"uniqueid": "w27178158:a99734111", "current_trial": 1, "dateTime": 1664562928302, "trialdata": {"view_history": [{"page_index": 0, "viewing_time": 24291}], "rt": 24292, "trial_id": "exp_instructions_distractor", "trial_type": "instructions", "trial_index": 1, "time_elapsed": 27567, "internal_node_id": "0.0-1.0"}}, {"uniqueid": "w27178158:a99734111", "current_trial": 2, "dateTime": 1664562993203, "trialdata": {"view_history": [{"page_index": 0, "viewing_time": 64899}], "rt": 64899, "trial_id": "color_game_instructions", "trial_type": "instructions", "trial_index": 2, "time_elapsed": 92468, "internal_node_id": "0.0-2.0"}}, {"uniqueid": "w27178158:a99734111", "current_trial": 3, "dateTime": 1664563053881, "trialdata": {"rt": 60676, "stimulus": "<h1> Get ready to start the game! </h1>\n\nThank you for reading the instructions. Get ready start with the first of 5 block(s) of this game.\n<br><br>\nIn this first block, you will complete 90 rounds of this game before moving on.\n<br><br>\nRemember, the better you perform, the bigger your bonus will be!\n<br><br>\n<div style='text-align: center;'>Press <code>space</code> to begin.</div>", "response": " ", "trial_id": "stroop_1_ready_1", "trial_type": "html-keyboard-response", "trial_index": 3, "time_elapsed": 153146, "internal_node_id": "0.0-3.0"}}, {"uniqueid": "w27178158:a99734111", "current_trial": 4, "dateTime": 1664563056628, "trialdata": {"rt": 2728, "stimulus": "<p id='stroop-text' class='stroop-green'>YELLOW</p>", "response": "g", "stimulus-type": "incongruent", "word": "yellow", "color": "green", "correct_response": "g", "trial_id": "stroop-trial-1-incongruent-23", "trial_type": "html-keyboard-response", "trial_index": 4, "time_elapsed": 155893, "internal_node_id": "0.0-4.0-0.0"}}, {"uniqueid": "w27178158:a99734111", "current_trial": 5, "dateTime": 1664563058504, "trialdata": {"rt": 1366, "stimulus": "<p id='stroop-text' class='stroop-blue'>BLUE</p>", "response": "b", "stimulus-type": "congruent", "word": "blue", "color": "blue", "correct_response": "b", "trial_id": "stroop-trial-1-congruent-13", "trial_type": "html-keyboard-response", "trial_index": 5, "time_elapsed": 157768, "internal_node_id": "0.0-4.0-1.0"}}, {"uniqueid": "w27178158:a99734111", "current_trial": 6, "dateTime": 1664563060116, "trialdata": {"rt": 1106, "stimulus": "<p id='stroop-text' class='stroop-blue'>WINDOW</p>", "response": "b", "stimulus-type": "unrelated", "word": "WINDOW", "color": "blue", "correct_response": "b", "trial_id": "stroop-trial-1-unrelated-1", "trial_type": "html-keyboard-response", "trial_index": 6, "time_elapsed": 159380, "internal_node_id": "0.0-4.0-2.0"}}, {"uniqueid": "w27178158:a99734111", "current_trial": 7, "dateTime": 1664563061487, "trialdata": {"rt": 867, "stimulus": "<p id='stroop-text' class='stroop-green'>GREEN</p>", "response": "g", "stimulus-type": "congruent", "word": "green", "color": "green", "correct_response": "g", "trial_id": "stroop-trial-1-congruent-16", "trial_type": "html-keyboard-response", "trial_index": 7, "time_elapsed": 160751, "internal_node_id": "0.0-4.0-3.0"}}, {"uniqueid": "w27178158:a99734111", "current_trial": 8, "dateTime": 1664563062591, "trialdata": {"rt": 599, "stimulus": "<p id='stroop-text' class='stroop-green'>GREEN</p>", "response": "g", "stimulus-type": "congruent", "word": "green", "color": "green", "correct_response": "g", "trial_id": "stroop-trial-1-congruent-7", "trial_type": "html-keyboard-response", "trial_index": 8, "time_elapsed": 161855, "internal_node_id": "0.0-4.0-4.0"}}, {"uniqueid": "w27178158:a99734111", "current_trial": 9, "dateTime": 1664563064123, "trialdata": {"rt": 1027, "stimulus": "<p id='stroop-text' class='stroop-blue'>YELLOW</p>", "response": "b", "stimulus-type": "incongruent", "word": "yellow", "color": "blue", "correct_response": "b", "trial_id": "stroop-trial-1-incongruent-3", "trial_type": "html-keyboard-response", "trial_index": 9, "time_elapsed": 163388, "internal_node_id": "0.0-4.0-5.0"}}, {"uniqueid": "w27178158:a99734111", "current_trial": 10, "dateTime": 1664563065581, "trialdata": {"rt": 953, "stimulus": "<p id='stroop-text' class='stroop-red'>BOTTLE</p>", "response": "r", "stimulus-type": "unrelated", "word": "BOTTLE", "color": "red", "correct_response": "r", "trial_id": "stroop-trial-1-unrelated-21", "trial_type": "html-keyboard-response", "trial_index": 10, "time_elapsed": 164846, "internal_node_id": "0.0-4.0-6.0"}}, {"uniqueid": "w27178158:a99734111", "current_trial": 11, "dateTime": 1664563067891, "trialdata": {"rt": 1792, "stimulus": "<p id='stroop-text' class='stroop-green'>MONKEY</p>", "response": "g", "stimulus-type": "unrelated", "word": "MONKEY", "color": "green", "correct_response": "g", "trial_id": "stroop-trial-1-unrelated-12", "trial_type": "html-keyboard-response", "trial_index": 11, "time_elapsed": 167155, "internal_node_id": "0.0-4.0-7.0"}}, {"uniqueid": "w27178158:a99734111", "current_trial": 12, "dateTime": 1664563069084, "trialdata": {"rt": 687, "stimulus": "<p id='stroop-text' class='stroop-green'>GREEN</p>", "response": "g", "stimulus-type": "congruent", "word": "green", "color": "green", "correct_response": "g", "trial_id": "stroop-trial-1-congruent-4", "trial_type": "html-keyboard-response", "trial_index": 12, "time_elapsed": 168348, "internal_node_id": "0.0-4.0-8.0"}}, {"uniqueid": "w27178158:a99734111", "current_trial": 13, "dateTime": 1664563070544, "trialdata": {"rt": 955, "stimulus": "<p id='stroop-text' class='stroop-yellow'>RED</p>", "response": "y", "stimulus-type": "incongruent", "word": "red", "color": "yellow", "correct_response": "y", "trial_id": "stroop-trial-1-incongruent-4", "trial_type": "html-keyboard-response", "trial_index": 13, "time_elapsed": 169809, "internal_node_id": "0.0-4.0-9.0"}}, {"uniqueid": "w27178158:a99734111", "current_trial": 14, "dateTime": 1664563071870, "trialdata": {"rt": 820, "stimulus": "<p id='stroop-text' class='stroop-green'>SHIP</p>", "response": "g", "stimulus-type": "unrelated", "word": "SHIP", "color": "green", "correct_response": "g", "trial_id": "stroop-trial-1-unrelated-11", "trial_type": "html-keyboard-response", "trial_index": 14, "time_elapsed": 171134, "internal_node_id": "0.0-4.0-10.0"}}, {"uniqueid": "w27178158:a99734111", "current_trial": 15, "dateTime": 1664563073275, "trialdata": {"rt": 900, "stimulus": "<p id='stroop-text' class='stroop-blue'>RED</p>", "response": "b", "stimulus-type": "incongruent", "word": "red", "color": "blue", "correct_response": "b", "trial_id": "stroop-trial-1-incongruent-6", "trial_type": "html-keyboard-response", "trial_index": 15, "time_elapsed": 172539, "internal_node_id": "0.0-4.0-11.0"}}, {"uniqueid": "w27178158:a99734111", "current_trial": 16, "dateTime": 1664563074495, "trialdata": {"rt": 714, "stimulus": "<p id='stroop-text' class='stroop-blue'>FORK</p>", "response": "b", "stimulus-type": "unrelated", "word": "FORK", "color": "blue", "correct_response": "b", "trial_id": "stroop-trial-1-unrelated-30", "trial_type": "html-keyboard-response", "trial_index": 16, "time_elapsed": 173760, "internal_node_id": "0.0-4.0-12.0"}}, {"uniqueid": "w27178158:a99734111", "current_trial": 17, "dateTime": 1664563075418, "trialdata": {"rt": 417, "stimulus": "<p id='stroop-text' class='stroop-blue'>BLUE</p>", "response": "b", "stimulus-type": "congruent", "word": "blue", "color": "blue", "correct_response": "b", "trial_id": "stroop-trial-1-congruent-18", "trial_type": "html-keyboard-response", "trial_index": 17, "time_elapsed": 174682, "internal_node_id": "0.0-4.0-13.0"}}, {"uniqueid": "w27178158:a99734111", "current_trial": 18, "dateTime": 1664563076837, "trialdata": {"rt": 914, "stimulus": "<p id='stroop-text' class='stroop-yellow'>GREEN</p>", "response": "y", "stimulus-type": "incongruent", "word": "green", "color": "yellow", "correct_response": "y", "trial_id": "stroop-trial-1-incongruent-24", "trial_type": "html-keyboard-response", "trial_index": 18, "time_elapsed": 176102, "internal_node_id": "0.0-4.0-14.0"}}, {"uniqueid": "w27178158:a99734111", "current_trial": 19, "dateTime": 1664563078630, "trialdata": {"rt": 1288, "stimulus": "<p id='stroop-text' class='stroop-green'>RED</p>", "response": "g", "stimulus-type": "incongruent", "word": "red", "color": "green", "correct_response": "g", "trial_id": "stroop-trial-1-incongruent-16", "trial_type": "html-keyboard-response", "trial_index": 19, "time_elapsed": 177894, "internal_node_id": "0.0-4.0-15.0"}}, {"uniqueid": "w27178158:a99734111", "current_trial": 20, "dateTime": 1664563080364, "trialdata": {"rt": 1229, "stimulus": "<p id='stroop-text' class='stroop-red'>RED</p>", "response": "r", "stimulus-type": "congruent", "word": "red", "color": "red", "correct_response": "r", "trial_id": "stroop-trial-1-congruent-23", "trial_type": "html-keyboard-response", "trial_index": 20, "time_elapsed": 179629, "internal_node_id": "0.0-4.0-16.0"}}, {"uniqueid": "w27178158:a99734111", "current_trial": 21, "dateTime": 1664563082486, "trialdata": {"rt": 1614, "stimulus": "<p id='stroop-text' class='stroop-blue'>WINDOW</p>", "response": "b", "stimulus-type": "unrelated", "word": "WINDOW", "color": "blue", "correct_response": "b", "trial_id": "stroop-trial-1-unrelated-4", "trial_type": "html-keyboard-response", "trial_index": 21, "time_elapsed": 181751, "internal_node_id": "0.0-4.0-17.0"}}, {"uniqueid": "w27178158:a99734111", "current_trial": 22, "dateTime": 1664563083797, "trialdata": {"rt": 806, "stimulus": "<p id='stroop-text' class='stroop-yellow'>RED</p>", "response": "y", "stimulus-type": "incongruent", "word": "red", "color": "yellow", "correct_response": "y", "trial_id": "stroop-trial-1-incongruent-12", "trial_type": "html-keyboard-response", "trial_index": 22, "time_elapsed": 183061, "internal_node_id": "0.0-4.0-18.0"}}, {"uniqueid": "w27178158:a99734111", "current_trial": 23, "dateTime": 1664563084843, "trialdata": {"rt": 541, "stimulus": "<p id='stroop-text' class='stroop-yellow'>YELLOW</p>", "response": "y", "stimulus-type": "congruent", "word": "yellow", "color": "yellow", "correct_response": "y", "trial_id": "stroop-trial-1-congruent-12", "trial_type": "html-keyboard-response", "trial_index": 23, "time_elapsed": 184107, "internal_node_id": "0.0-4.0-19.0"}}, {"uniqueid": "w27178158:a99734111", "current_trial": 24, "dateTime": 1664563086136, "trialdata": {"rt": 788, "stimulus": "<p id='stroop-text' class='stroop-red'>BOAT</p>", "response": "r", "stimulus-type": "unrelated", "word": "BOAT", "color": "red", "correct_response": "r", "trial_id": "stroop-trial-1-unrelated-16", "trial_type": "html-keyboard-response", "trial_index": 24, "time_elapsed": 185400, "internal_node_id": "0.0-4.0-20.0"}}, {"uniqueid": "w27178158:a99734111", "current_trial": 25, "dateTime": 1664563087344, "trialdata": {"rt": 702, "stimulus": "<p id='stroop-text' class='stroop-yellow'>RED</p>", "response": "y", "stimulus-type": "incongruent", "word": "red", "color": "yellow", "correct_response": "y", "trial_id": "stroop-trial-1-incongruent-18", "trial_type": "html-keyboard-response", "trial_index": 25, "time_elapsed": 186608, "internal_node_id": "0.0-4.0-21.0"}}, {"uniqueid": "w27178158:a99734111", "current_trial": 26, "dateTime": 1664563089222, "trialdata": {"rt": 1372, "stimulus": "<p id='stroop-text' class='stroop-blue'>BLUE</p>", "response": "b", "stimulus-type": "congruent", "word": "blue", "color": "blue", "correct_response": "b", "trial_id": "stroop-trial-1-congruent-27", "trial_type": "html-keyboard-response", "trial_index": 26, "time_elapsed": 188486, "internal_node_id": "0.0-4.0-22.0"}}, {"uniqueid": "w27178158:a99734111", "current_trial": 27, "dateTime": 1664563090297, "trialdata": {"rt": 571, "stimulus": "<p id='stroop-text' class='stroop-blue'>BLUE</p>", "response": "b", "stimulus-type": "congruent", "word": "blue", "color": "blue", "correct_response": "b", "trial_id": "stroop-trial-1-congruent-1", "trial_type": "html-keyboard-response", "trial_index": 27, "time_elapsed": 189561, "internal_node_id": "0.0-4.0-23.0"}}, {"uniqueid": "w27178158:a99734111", "current_trial": 28, "dateTime": 1664563092369, "trialdata": {"rt": 1567, "stimulus": "<p id='stroop-text' class='stroop-yellow'>BLUE</p>", "response": "y", "stimulus-type": "incongruent", "word": "blue", "color": "yellow", "correct_response": "y", "trial_id": "stroop-trial-1-incongruent-21", "trial_type": "html-keyboard-response", "trial_index": 28, "time_elapsed": 191633, "internal_node_id": "0.0-4.0-24.0"}}, {"uniqueid": "w27178158:a99734111", "current_trial": 29, "dateTime": 1664563093663, "trialdata": {"rt": 790, "stimulus": "<p id='stroop-text' class='stroop-blue'>BRAIN</p>", "response": "b", "stimulus-type": "unrelated", "word": "BRAIN", "color": "blue", "correct_response": "b", "trial_id": "stroop-trial-1-unrelated-7", "trial_type": "html-keyboard-response", "trial_index": 29, "time_elapsed": 192928, "internal_node_id": "0.0-4.0-25.0"}}, {"uniqueid": "w27178158:a99734111", "current_trial": 30, "dateTime": 1664563094988, "trialdata": {"rt": 817, "stimulus": "<p id='stroop-text' class='stroop-green'>GREEN</p>", "response": "g", "stimulus-type": "congruent", "word": "green", "color": "green", "correct_response": "g", "trial_id": "stroop-trial-1-congruent-6", "trial_type": "html-keyboard-response", "trial_index": 30, "time_elapsed": 194252, "internal_node_id": "0.0-4.0-26.0"}}, {"uniqueid": "w27178158:a99734111", "current_trial": 31, "dateTime": 1664563096904, "trialdata": {"rt": 1410, "stimulus": "<p id='stroop-text' class='stroop-blue'>GREEN</p>", "response": "b", "stimulus-type": "incongruent", "word": "green", "color": "blue", "correct_response": "b", "trial_id": "stroop-trial-1-incongruent-10", "trial_type": "html-keyboard-response", "trial_index": 31, "time_elapsed": 196168, "internal_node_id": "0.0-4.0-27.0"}}, {"uniqueid": "w27178158:a99734111", "current_trial": 32, "dateTime": 1664563098111, "trialdata": {"rt": 699, "stimulus": "<p id='stroop-text' class='stroop-blue'>YELLOW</p>", "response": "b", "stimulus-type": "incongruent", "word": "yellow", "color": "blue", "correct_response": "b", "trial_id": "stroop-trial-1-incongruent-27", "trial_type": "html-keyboard-response", "trial_index": 32, "time_elapsed": 197375, "internal_node_id": "0.0-4.0-28.0"}}, {"uniqueid": "w27178158:a99734111", "current_trial": 33, "dateTime": 1664563099344, "trialdata": {"rt": 728, "stimulus": "<p id='stroop-text' class='stroop-green'>DOG</p>", "response": "g", "stimulus-type": "unrelated", "word": "DOG", "color": "green", "correct_response": "g", "trial_id": "stroop-trial-1-unrelated-25", "trial_type": "html-keyboard-response", "trial_index": 33, "time_elapsed": 198608, "internal_node_id": "0.0-4.0-29.0"}}, {"uniqueid": "w27178158:a99734111", "current_trial": 34, "dateTime": 1664563100529, "trialdata": {"rt": 680, "stimulus": "<p id='stroop-text' class='stroop-yellow'>BLUE</p>", "response": "y", "stimulus-type": "incongruent", "word": "blue", "color": "yellow", "correct_response": "y", "trial_id": "stroop-trial-1-incongruent-5", "trial_type": "html-keyboard-response", "trial_index": 34, "time_elapsed": 199793, "internal_node_id": "0.0-4.0-30.0"}}, {"uniqueid": "w27178158:a99734111", "current_trial": 35, "dateTime": 1664563101726, "trialdata": {"rt": 693, "stimulus": "<p id='stroop-text' class='stroop-red'>GREEN</p>", "response": "r", "stimulus-type": "incongruent", "word": "green", "color": "red", "correct_response": "r", "trial_id": "stroop-trial-1-incongruent-29", "trial_type": "html-keyboard-response", "trial_index": 35, "time_elapsed": 200991, "internal_node_id": "0.0-4.0-31.0"}}, {"uniqueid": "w27178158:a99734111", "current_trial": 36, "dateTime": 1664563102891, "trialdata": {"rt": 660, "stimulus": "<p id='stroop-text' class='stroop-green'>GREEN</p>", "response": "g", "stimulus-type": "congruent", "word": "green", "color": "green", "correct_response": "g", "trial_id": "stroop-trial-1-congruent-3", "trial_type": "html-keyboard-response", "trial_index": 36, "time_elapsed": 202155, "internal_node_id": "0.0-4.0-32.0"}}, {"uniqueid": "w27178158:a99734111", "current_trial": 37, "dateTime": 1664563104139, "trialdata": {"rt": 740, "stimulus": "<p id='stroop-text' class='stroop-blue'>BLUE</p>", "response": "b", "stimulus-type": "congruent", "word": "blue", "color": "blue", "correct_response": "b", "trial_id": "stroop-trial-1-congruent-11", "trial_type": "html-keyboard-response", "trial_index": 37, "time_elapsed": 203404, "internal_node_id": "0.0-4.0-33.0"}}, {"uniqueid": "w27178158:a99734111", "current_trial": 38, "dateTime": 1664563105427, "trialdata": {"rt": 781, "stimulus": "<p id='stroop-text' class='stroop-yellow'>YELLOW</p>", "response": "y", "stimulus-type": "congruent", "word": "yellow", "color": "yellow", "correct_response": "y", "trial_id": "stroop-trial-1-congruent-15", "trial_type": "html-keyboard-response", "trial_index": 38, "time_elapsed": 204691, "internal_node_id": "0.0-4.0-34.0"}}, {"uniqueid": "w27178158:a99734111", "current_trial": 39, "dateTime": 1664563106706, "trialdata": {"rt": 774, "stimulus": "<p id='stroop-text' class='stroop-yellow'>BLUE</p>", "response": "y", "stimulus-type": "incongruent", "word": "blue", "color": "yellow", "correct_response": "y", "trial_id": "stroop-trial-1-incongruent-30", "trial_type": "html-keyboard-response", "trial_index": 39, "time_elapsed": 205970, "internal_node_id": "0.0-4.0-35.0"}}, {"uniqueid": "w27178158:a99734111", "current_trial": 40, "dateTime": 1664563107890, "trialdata": {"rt": 678, "stimulus": "<p id='stroop-text' class='stroop-yellow'>GREEN</p>", "response": "y", "stimulus-type": "incongruent", "word": "green", "color": "yellow", "correct_response": "y", "trial_id": "stroop-trial-1-incongruent-8", "trial_type": "html-keyboard-response", "trial_index": 40, "time_elapsed": 207154, "internal_node_id": "0.0-4.0-36.0"}}, {"uniqueid": "w27178158:a99734111", "current_trial": 41, "dateTime": 1664563109077, "trialdata": {"rt": 676, "stimulus": "<p id='stroop-text' class='stroop-blue'>YELLOW</p>", "response": "b", "stimulus-type": "incongruent", "word": "yellow", "color": "blue", "correct_response": "b", "trial_id": "stroop-trial-1-incongruent-13", "trial_type": "html-keyboard-response", "trial_index": 41, "time_elapsed": 208341, "internal_node_id": "0.0-4.0-37.0"}}, {"uniqueid": "w27178158:a99734111", "current_trial": 42, "dateTime": 1664563110150, "trialdata": {"rt": 569, "stimulus": "<p id='stroop-text' class='stroop-red'>RED</p>", "response": "r", "stimulus-type": "congruent", "word": "red", "color": "red", "correct_response": "r", "trial_id": "stroop-trial-1-congruent-24", "trial_type": "html-keyboard-response", "trial_index": 42, "time_elapsed": 209415, "internal_node_id": "0.0-4.0-38.0"}}, {"uniqueid": "w27178158:a99734111", "current_trial": 43, "dateTime": 1664563111099, "trialdata": {"rt": 443, "stimulus": "<p id='stroop-text' class='stroop-red'>DOG</p>", "response": "r", "stimulus-type": "unrelated", "word": "DOG", "color": "red", "correct_response": "r", "trial_id": "stroop-trial-1-unrelated-2", "trial_type": "html-keyboard-response", "trial_index": 43, "time_elapsed": 210363, "internal_node_id": "0.0-4.0-39.0"}}, {"uniqueid": "w27178158:a99734111", "current_trial": 44, "dateTime": 1664563112343, "trialdata": {"rt": 738, "stimulus": "<p id='stroop-text' class='stroop-blue'>BLUE</p>", "response": "b", "stimulus-type": "congruent", "word": "blue", "color": "blue", "correct_response": "b", "trial_id": "stroop-trial-1-congruent-19", "trial_type": "html-keyboard-response", "trial_index": 44, "time_elapsed": 211608, "internal_node_id": "0.0-4.0-40.0"}}, {"uniqueid": "w27178158:a99734111", "current_trial": 45, "dateTime": 1664563113350, "trialdata": {"rt": 501, "stimulus": "<p id='stroop-text' class='stroop-red'>RED</p>", "response": "r", "stimulus-type": "congruent", "word": "red", "color": "red", "correct_response": "r", "trial_id": "stroop-trial-1-congruent-2", "trial_type": "html-keyboard-response", "trial_index": 45, "time_elapsed": 212614, "internal_node_id": "0.0-4.0-41.0"}}, {"uniqueid": "w27178158:a99734111", "current_trial": 46, "dateTime": 1664563114413, "trialdata": {"rt": 555, "stimulus": "<p id='stroop-text' class='stroop-yellow'>YELLOW</p>", "response": "y", "stimulus-type": "congruent", "word": "yellow", "color": "yellow", "correct_response": "y", "trial_id": "stroop-trial-1-congruent-30", "trial_type": "html-keyboard-response", "trial_index": 46, "time_elapsed": 213677, "internal_node_id": "0.0-4.0-42.0"}}, {"uniqueid": "w27178158:a99734111", "current_trial": 47, "dateTime": 1664563115407, "trialdata": {"rt": 488, "stimulus": "<p id='stroop-text' class='stroop-blue'>BLUE</p>", "response": "b", "stimulus-type": "congruent", "word": "blue", "color": "blue", "correct_response": "b", "trial_id": "stroop-trial-1-congruent-14", "trial_type": "html-keyboard-response", "trial_index": 47, "time_elapsed": 214671, "internal_node_id": "0.0-4.0-43.0"}}, {"uniqueid": "w27178158:a99734111", "current_trial": 48, "dateTime": 1664563116417, "trialdata": {"rt": 504, "stimulus": "<p id='stroop-text' class='stroop-red'>RED</p>", "response": "r", "stimulus-type": "congruent", "word": "red", "color": "red", "correct_response": "r", "trial_id": "stroop-trial-1-congruent-5", "trial_type": "html-keyboard-response", "trial_index": 48, "time_elapsed": 215681, "internal_node_id": "0.0-4.0-44.0"}}, {"uniqueid": "w27178158:a99734111", "current_trial": 49, "dateTime": 1664563117629, "trialdata": {"rt": 707, "stimulus": "<p id='stroop-text' class='stroop-green'>BRIDGE</p>", "response": "g", "stimulus-type": "unrelated", "word": "BRIDGE", "color": "green", "correct_response": "g", "trial_id": "stroop-trial-1-unrelated-14", "trial_type": "html-keyboard-response", "trial_index": 49, "time_elapsed": 216894, "internal_node_id": "0.0-4.0-45.0"}}, {"uniqueid": "w27178158:a99734111", "current_trial": 50, "dateTime": 1664563118847, "trialdata": {"rt": 713, "stimulus": "<p id='stroop-text' class='stroop-green'>FORK</p>", "response": "g", "stimulus-type": "unrelated", "word": "FORK", "color": "green", "correct_response": "g", "trial_id": "stroop-trial-1-unrelated-24", "trial_type": "html-keyboard-response", "trial_index": 50, "time_elapsed": 218112, "internal_node_id": "0.0-4.0-46.0"}}, {"uniqueid": "w27178158:a99734111", "current_trial": 51, "dateTime": 1664563119786, "trialdata": {"rt": 433, "stimulus": "<p id='stroop-text' class='stroop-green'>MONKEY</p>", "response": "g", "stimulus-type": "unrelated", "word": "MONKEY", "color": "green", "correct_response": "g", "trial_id": "stroop-trial-1-unrelated-6", "trial_type": "html-keyboard-response", "trial_index": 51, "time_elapsed": 219050, "internal_node_id": "0.0-4.0-47.0"}}, {"uniqueid": "w27178158:a99734111", "current_trial": 52, "dateTime": 1664563120863, "trialdata": {"rt": 572, "stimulus": "<p id='stroop-text' class='stroop-red'>GREEN</p>", "response": "r", "stimulus-type": "incongruent", "word": "green", "color": "red", "correct_response": "r", "trial_id": "stroop-trial-1-incongruent-25", "trial_type": "html-keyboard-response", "trial_index": 52, "time_elapsed": 220128, "internal_node_id": "0.0-4.0-48.0"}}, {"uniqueid": "w27178158:a99734111", "current_trial": 53, "dateTime": 1664563121782, "trialdata": {"rt": 413, "stimulus": "<p id='stroop-text' class='stroop-red'>GREEN</p>", "response": "r", "stimulus-type": "incongruent", "word": "green", "color": "red", "correct_response": "r", "trial_id": "stroop-trial-1-incongruent-2", "trial_type": "html-keyboard-response", "trial_index": 53, "time_elapsed": 221046, "internal_node_id": "0.0-4.0-49.0"}}, {"uniqueid": "w27178158:a99734111", "current_trial": 54, "dateTime": 1664563122844, "trialdata": {"rt": 557, "stimulus": "<p id='stroop-text' class='stroop-yellow'>BRAIN</p>", "response": "y", "stimulus-type": "unrelated", "word": "BRAIN", "color": "yellow", "correct_response": "y", "trial_id": "stroop-trial-1-unrelated-18", "trial_type": "html-keyboard-response", "trial_index": 54, "time_elapsed": 222108, "internal_node_id": "0.0-4.0-50.0"}}, {"uniqueid": "w27178158:a99734111", "current_trial": 55, "dateTime": 1664563123828, "trialdata": {"rt": 479, "stimulus": "<p id='stroop-text' class='stroop-blue'>BLUE</p>", "response": "b", "stimulus-type": "congruent", "word": "blue", "color": "blue", "correct_response": "b", "trial_id": "stroop-trial-1-congruent-25", "trial_type": "html-keyboard-response", "trial_index": 55, "time_elapsed": 223093, "internal_node_id": "0.0-4.0-51.0"}}, {"uniqueid": "w27178158:a99734111", "current_trial": 56, "dateTime": 1664563124844, "trialdata": {"rt": 510, "stimulus": "<p id='stroop-text' class='stroop-red'>MONKEY</p>", "response": "r", "stimulus-type": "unrelated", "word": "MONKEY", "color": "red", "correct_response": "r", "trial_id": "stroop-trial-1-unrelated-27", "trial_type": "html-keyboard-response", "trial_index": 56, "time_elapsed": 224109, "internal_node_id": "0.0-4.0-52.0"}}, {"uniqueid": "w27178158:a99734111", "current_trial": 57, "dateTime": 1664563126178, "trialdata": {"rt": 825, "stimulus": "<p id='stroop-text' class='stroop-red'>BRIDGE</p>", "response": "r", "stimulus-type": "unrelated", "word": "BRIDGE", "color": "red", "correct_response": "r", "trial_id": "stroop-trial-1-unrelated-10", "trial_type": "html-keyboard-response", "trial_index": 57, "time_elapsed": 225442, "internal_node_id": "0.0-4.0-53.0"}}, {"uniqueid": "w27178158:a99734111", "current_trial": 58, "dateTime": 1664563127402, "trialdata": {"rt": 709, "stimulus": "<p id='stroop-text' class='stroop-green'>WINDOW</p>", "response": "g", "stimulus-type": "unrelated", "word": "WINDOW", "color": "green", "correct_response": "g", "trial_id": "stroop-trial-1-unrelated-5", "trial_type": "html-keyboard-response", "trial_index": 58, "time_elapsed": 226667, "internal_node_id": "0.0-4.0-54.0"}}, {"uniqueid": "w27178158:a99734111", "current_trial": 59, "dateTime": 1664563128426, "trialdata": {"rt": 518, "stimulus": "<p id='stroop-text' class='stroop-red'>CHAIR</p>", "response": "r", "stimulus-type": "unrelated", "word": "CHAIR", "color": "red", "correct_response": "r", "trial_id": "stroop-trial-1-unrelated-23", "trial_type": "html-keyboard-response", "trial_index": 59, "time_elapsed": 227690, "internal_node_id": "0.0-4.0-55.0"}}, {"uniqueid": "w27178158:a99734111", "current_trial": 60, "dateTime": 1664563129328, "trialdata": {"rt": 397, "stimulus": "<p id='stroop-text' class='stroop-red'>RED</p>", "response": "r", "stimulus-type": "congruent", "word": "red", "color": "red", "correct_response": "r", "trial_id": "stroop-trial-1-congruent-20", "trial_type": "html-keyboard-response", "trial_index": 60, "time_elapsed": 228593, "internal_node_id": "0.0-4.0-56.0"}}, {"uniqueid": "w27178158:a99734111", "current_trial": 61, "dateTime": 1664563130609, "trialdata": {"rt": 774, "stimulus": "<p id='stroop-text' class='stroop-green'>RED</p>", "response": "g", "stimulus-type": "incongruent", "word": "red", "color": "green", "correct_response": "g", "trial_id": "stroop-trial-1-incongruent-15", "trial_type": "html-keyboard-response", "trial_index": 61, "time_elapsed": 229873, "internal_node_id": "0.0-4.0-57.0"}}, {"uniqueid": "w27178158:a99734111", "current_trial": 62, "dateTime": 1664563131618, "trialdata": {"rt": 504, "stimulus": "<p id='stroop-text' class='stroop-yellow'>FORK</p>", "response": "y", "stimulus-type": "unrelated", "word": "FORK", "color": "yellow", "correct_response": "y", "trial_id": "stroop-trial-1-unrelated-8", "trial_type": "html-keyboard-response", "trial_index": 62, "time_elapsed": 230882, "internal_node_id": "0.0-4.0-58.0"}}, {"uniqueid": "w27178158:a99734111", "current_trial": 63, "dateTime": 1664563132654, "trialdata": {"rt": 530, "stimulus": "<p id='stroop-text' class='stroop-red'>GREEN</p>", "response": "r", "stimulus-type": "incongruent", "word": "green", "color": "red", "correct_response": "r", "trial_id": "stroop-trial-1-incongruent-14", "trial_type": "html-keyboard-response", "trial_index": 63, "time_elapsed": 231918, "internal_node_id": "0.0-4.0-59.0"}}, {"uniqueid": "w27178158:a99734111", "current_trial": 64, "dateTime": 1664563134319, "trialdata": {"rt": 1157, "stimulus": "<p id='stroop-text' class='stroop-green'>GREEN</p>", "response": "g", "stimulus-type": "congruent", "word": "green", "color": "green", "correct_response": "g", "trial_id": "stroop-trial-1-congruent-21", "trial_type": "html-keyboard-response", "trial_index": 64, "time_elapsed": 233583, "internal_node_id": "0.0-4.0-60.0"}}, {"uniqueid": "w27178158:a99734111", "current_trial": 65, "dateTime": 1664563135414, "trialdata": {"rt": 590, "stimulus": "<p id='stroop-text' class='stroop-red'>YELLOW</p>", "response": "r", "stimulus-type": "incongruent", "word": "yellow", "color": "red", "correct_response": "r", "trial_id": "stroop-trial-1-incongruent-9", "trial_type": "html-keyboard-response", "trial_index": 65, "time_elapsed": 234678, "internal_node_id": "0.0-4.0-61.0"}}, {"uniqueid": "w27178158:a99734111", "current_trial": 66, "dateTime": 1664563136486, "trialdata": {"rt": 567, "stimulus": "<p id='stroop-text' class='stroop-blue'>MONKEY</p>", "response": "b", "stimulus-type": "unrelated", "word": "MONKEY", "color": "blue", "correct_response": "b", "trial_id": "stroop-trial-1-unrelated-3", "trial_type": "html-keyboard-response", "trial_index": 66, "time_elapsed": 235751, "internal_node_id": "0.0-4.0-62.0"}}, {"uniqueid": "w27178158:a99734111", "current_trial": 67, "dateTime": 1664563137918, "trialdata": {"rt": 928, "stimulus": "<p id='stroop-text' class='stroop-green'>RED</p>", "response": "g", "stimulus-type": "incongruent", "word": "red", "color": "green", "correct_response": "g", "trial_id": "stroop-trial-1-incongruent-22", "trial_type": "html-keyboard-response", "trial_index": 67, "time_elapsed": 237182, "internal_node_id": "0.0-4.0-63.0"}}, {"uniqueid": "w27178158:a99734111", "current_trial": 68, "dateTime": 1664563139045, "trialdata": {"rt": 621, "stimulus": "<p id='stroop-text' class='stroop-yellow'>FORK</p>", "response": "y", "stimulus-type": "unrelated", "word": "FORK", "color": "yellow", "correct_response": "y", "trial_id": "stroop-trial-1-unrelated-28", "trial_type": "html-keyboard-response", "trial_index": 68, "time_elapsed": 238310, "internal_node_id": "0.0-4.0-64.0"}}, {"uniqueid": "w27178158:a99734111", "current_trial": 69, "dateTime": 1664563140248, "trialdata": {"rt": 696, "stimulus": "<p id='stroop-text' class='stroop-red'>RED</p>", "response": "r", "stimulus-type": "congruent", "word": "red", "color": "red", "correct_response": "r", "trial_id": "stroop-trial-1-congruent-22", "trial_type": "html-keyboard-response", "trial_index": 69, "time_elapsed": 239513, "internal_node_id": "0.0-4.0-65.0"}}, {"uniqueid": "w27178158:a99734111", "current_trial": 70, "dateTime": 1664563141248, "trialdata": {"rt": 494, "stimulus": "<p id='stroop-text' class='stroop-red'>WINDOW</p>", "response": "r", "stimulus-type": "unrelated", "word": "WINDOW", "color": "red", "correct_response": "r", "trial_id": "stroop-trial-1-unrelated-9", "trial_type": "html-keyboard-response", "trial_index": 70, "time_elapsed": 240513, "internal_node_id": "0.0-4.0-66.0"}}, {"uniqueid": "w27178158:a99734111", "current_trial": 71, "dateTime": 1664563142562, "trialdata": {"rt": 808, "stimulus": "<p id='stroop-text' class='stroop-yellow'>RED</p>", "response": "y", "stimulus-type": "incongruent", "word": "red", "color": "yellow", "correct_response": "y", "trial_id": "stroop-trial-1-incongruent-28", "trial_type": "html-keyboard-response", "trial_index": 71, "time_elapsed": 241826, "internal_node_id": "0.0-4.0-67.0"}}, {"uniqueid": "w27178158:a99734111", "current_trial": 72, "dateTime": 1664563143577, "trialdata": {"rt": 507, "stimulus": "<p id='stroop-text' class='stroop-yellow'>BLUE</p>", "response": "y", "stimulus-type": "incongruent", "word": "blue", "color": "yellow", "correct_response": "y", "trial_id": "stroop-trial-1-incongruent-17", "trial_type": "html-keyboard-response", "trial_index": 72, "time_elapsed": 242841, "internal_node_id": "0.0-4.0-68.0"}}, {"uniqueid": "w27178158:a99734111", "current_trial": 73, "dateTime": 1664563144681, "trialdata": {"rt": 599, "stimulus": "<p id='stroop-text' class='stroop-green'>FORK</p>", "response": "g", "stimulus-type": "unrelated", "word": "FORK", "color": "green", "correct_response": "g", "trial_id": "stroop-trial-1-unrelated-29", "trial_type": "html-keyboard-response", "trial_index": 73, "time_elapsed": 243946, "internal_node_id": "0.0-4.0-69.0"}}, {"uniqueid": "w27178158:a99734111", "current_trial": 74, "dateTime": 1664563145728, "trialdata": {"rt": 541, "stimulus": "<p id='stroop-text' class='stroop-yellow'>YELLOW</p>", "response": "y", "stimulus-type": "congruent", "word": "yellow", "color": "yellow", "correct_response": "y", "trial_id": "stroop-trial-1-congruent-28", "trial_type": "html-keyboard-response", "trial_index": 74, "time_elapsed": 244993, "internal_node_id": "0.0-4.0-70.0"}}, {"uniqueid": "w27178158:a99734111", "current_trial": 75, "dateTime": 1664563147087, "trialdata": {"rt": 850, "stimulus": "<p id='stroop-text' class='stroop-green'>WINDOW</p>", "response": "g", "stimulus-type": "unrelated", "word": "WINDOW", "color": "green", "correct_response": "g", "trial_id": "stroop-trial-1-unrelated-22", "trial_type": "html-keyboard-response", "trial_index": 75, "time_elapsed": 246351, "internal_node_id": "0.0-4.0-71.0"}}, {"uniqueid": "w27178158:a99734111", "current_trial": 76, "dateTime": 1664563148031, "trialdata": {"rt": 437, "stimulus": "<p id='stroop-text' class='stroop-green'>GREEN</p>", "response": "g", "stimulus-type": "congruent", "word": "green", "color": "green", "correct_response": "g", "trial_id": "stroop-trial-1-congruent-17", "trial_type": "html-keyboard-response", "trial_index": 76, "time_elapsed": 247295, "internal_node_id": "0.0-4.0-72.0"}}, {"uniqueid": "w27178158:a99734111", "current_trial": 77, "dateTime": 1664563149063, "trialdata": {"rt": 515, "stimulus": "<p id='stroop-text' class='stroop-yellow'>YELLOW</p>", "response": "y", "stimulus-type": "congruent", "word": "yellow", "color": "yellow", "correct_response": "y", "trial_id": "stroop-trial-1-congruent-9", "trial_type": "html-keyboard-response", "trial_index": 77, "time_elapsed": 248328, "internal_node_id": "0.0-4.0-73.0"}}, {"uniqueid": "w27178158:a99734111", "current_trial": 78, "dateTime": 1664563150437, "trialdata": {"rt": 868, "stimulus": "<p id='stroop-text' class='stroop-red'>BOAT</p>", "response": "r", "stimulus-type": "unrelated", "word": "BOAT", "color": "red", "correct_response": "r", "trial_id": "stroop-trial-1-unrelated-19", "trial_type": "html-keyboard-response", "trial_index": 78, "time_elapsed": 249701, "internal_node_id": "0.0-4.0-74.0"}}, {"uniqueid": "w27178158:a99734111", "current_trial": 79, "dateTime": 1664563151566, "trialdata": {"rt": 623, "stimulus": "<p id='stroop-text' class='stroop-red'>GREEN</p>", "response": "r", "stimulus-type": "incongruent", "word": "green", "color": "red", "correct_response": "r", "trial_id": "stroop-trial-1-incongruent-19", "trial_type": "html-keyboard-response", "trial_index": 79, "time_elapsed": 250830, "internal_node_id": "0.0-4.0-75.0"}}, {"uniqueid": "w27178158:a99734111", "current_trial": 80, "dateTime": 1664563153746, "trialdata": {"rt": 1670, "stimulus": "<p id='stroop-text' class='stroop-green'>GREEN</p>", "response": "g", "stimulus-type": "congruent", "word": "green", "color": "green", "correct_response": "g", "trial_id": "stroop-trial-1-congruent-8", "trial_type": "html-keyboard-response", "trial_index": 80, "time_elapsed": 253010, "internal_node_id": "0.0-4.0-76.0"}}, {"uniqueid": "w27178158:a99734111", "current_trial": 81, "dateTime": 1664563155092, "trialdata": {"rt": 841, "stimulus": "<p id='stroop-text' class='stroop-yellow'>BLUE</p>", "response": "y", "stimulus-type": "incongruent", "word": "blue", "color": "yellow", "correct_response": "y", "trial_id": "stroop-trial-1-incongruent-26", "trial_type": "html-keyboard-response", "trial_index": 81, "time_elapsed": 254357, "internal_node_id": "0.0-4.0-77.0"}}, {"uniqueid": "w27178158:a99734111", "current_trial": 82, "dateTime": 1664563156446, "trialdata": {"rt": 851, "stimulus": "<p id='stroop-text' class='stroop-blue'>RED</p>", "response": "b", "stimulus-type": "incongruent", "word": "red", "color": "blue", "correct_response": "b", "trial_id": "stroop-trial-1-incongruent-1", "trial_type": "html-keyboard-response", "trial_index": 82, "time_elapsed": 255711, "internal_node_id": "0.0-4.0-78.0"}}, {"uniqueid": "w27178158:a99734111", "current_trial": 83, "dateTime": 1664563157484, "trialdata": {"rt": 532, "stimulus": "<p id='stroop-text' class='stroop-yellow'>YELLOW</p>", "response": "y", "stimulus-type": "congruent", "word": "yellow", "color": "yellow", "correct_response": "y", "trial_id": "stroop-trial-1-congruent-26", "trial_type": "html-keyboard-response", "trial_index": 83, "time_elapsed": 256749, "internal_node_id": "0.0-4.0-79.0"}}, {"uniqueid": "w27178158:a99734111", "current_trial": 84, "dateTime": 1664563158592, "trialdata": {"rt": 603, "stimulus": "<p id='stroop-text' class='stroop-red'>BRIDGE</p>", "response": "r", "stimulus-type": "unrelated", "word": "BRIDGE", "color": "red", "correct_response": "r", "trial_id": "stroop-trial-1-unrelated-20", "trial_type": "html-keyboard-response", "trial_index": 84, "time_elapsed": 257857, "internal_node_id": "0.0-4.0-80.0"}}, {"uniqueid": "w27178158:a99734111", "current_trial": 85, "dateTime": 1664563159501, "trialdata": {"rt": 403, "stimulus": "<p id='stroop-text' class='stroop-red'>BLUE</p>", "response": "r", "stimulus-type": "incongruent", "word": "blue", "color": "red", "correct_response": "r", "trial_id": "stroop-trial-1-incongruent-7", "trial_type": "html-keyboard-response", "trial_index": 85, "time_elapsed": 258766, "internal_node_id": "0.0-4.0-81.0"}}, {"uniqueid": "w27178158:a99734111", "current_trial": 86, "dateTime": 1664563160930, "trialdata": {"rt": 917, "stimulus": "<p id='stroop-text' class='stroop-green'>BOAT</p>", "response": "g", "stimulus-type": "unrelated", "word": "BOAT", "color": "green", "correct_response": "g", "trial_id": "stroop-trial-1-unrelated-26", "trial_type": "html-keyboard-response", "trial_index": 86, "time_elapsed": 260194, "internal_node_id": "0.0-4.0-82.0"}}, {"uniqueid": "w27178158:a99734111", "current_trial": 87, "dateTime": 1664563162342, "trialdata": {"rt": 905, "stimulus": "<p id='stroop-text' class='stroop-blue'>BLUE</p>", "response": "b", "stimulus-type": "congruent", "word": "blue", "color": "blue", "correct_response": "b", "trial_id": "stroop-trial-1-congruent-29", "trial_type": "html-keyboard-response", "trial_index": 87, "time_elapsed": 261606, "internal_node_id": "0.0-4.0-83.0"}}, {"uniqueid": "w27178158:a99734111", "current_trial": 88, "dateTime": 1664563163295, "trialdata": {"rt": 442, "stimulus": "<p id='stroop-text' class='stroop-blue'>BRAIN</p>", "response": "b", "stimulus-type": "unrelated", "word": "BRAIN", "color": "blue", "correct_response": "b", "trial_id": "stroop-trial-1-unrelated-13", "trial_type": "html-keyboard-response", "trial_index": 88, "time_elapsed": 262559, "internal_node_id": "0.0-4.0-84.0"}}, {"uniqueid": "w27178158:a99734111", "current_trial": 89, "dateTime": 1664563165137, "trialdata": {"rt": 1336, "stimulus": "<p id='stroop-text' class='stroop-yellow'>SHIP</p>", "response": "y", "stimulus-type": "unrelated", "word": "SHIP", "color": "yellow", "correct_response": "y", "trial_id": "stroop-trial-1-unrelated-15", "trial_type": "html-keyboard-response", "trial_index": 89, "time_elapsed": 264401, "internal_node_id": "0.0-4.0-85.0"}}, {"uniqueid": "w27178158:a99734111", "current_trial": 90, "dateTime": 1664563167389, "trialdata": {"rt": 1744, "stimulus": "<p id='stroop-text' class='stroop-green'>BRAIN</p>", "response": "g", "stimulus-type": "unrelated", "word": "BRAIN", "color": "green", "correct_response": "g", "trial_id": "stroop-trial-1-unrelated-17", "trial_type": "html-keyboard-response", "trial_index": 90, "time_elapsed": 266653, "internal_node_id": "0.0-4.0-86.0"}}, {"uniqueid": "w27178158:a99734111", "current_trial": 91, "dateTime": 1664563168611, "trialdata": {"rt": 711, "stimulus": "<p id='stroop-text' class='stroop-blue'>BLUE</p>", "response": "b", "stimulus-type": "congruent", "word": "blue", "color": "blue", "correct_response": "b", "trial_id": "stroop-trial-1-congruent-10", "trial_type": "html-keyboard-response", "trial_index": 91, "time_elapsed": 267876, "internal_node_id": "0.0-4.0-87.0"}}, {"uniqueid": "w27178158:a99734111", "current_trial": 92, "dateTime": 1664563170169, "trialdata": {"rt": 1052, "stimulus": "<p id='stroop-text' class='stroop-red'>GREEN</p>", "response": "r", "stimulus-type": "incongruent", "word": "green", "color": "red", "correct_response": "r", "trial_id": "stroop-trial-1-incongruent-20", "trial_type": "html-keyboard-response", "trial_index": 92, "time_elapsed": 269434, "internal_node_id": "0.0-4.0-88.0"}}, {"uniqueid": "w27178158:a99734111", "current_trial": 93, "dateTime": 1664563171811, "trialdata": {"rt": 1135, "stimulus": "<p id='stroop-text' class='stroop-blue'>GREEN</p>", "response": "b", "stimulus-type": "incongruent", "word": "green", "color": "blue", "correct_response": "b", "trial_id": "stroop-trial-1-incongruent-11", "trial_type": "html-keyboard-response", "trial_index": 93, "time_elapsed": 271075, "internal_node_id": "0.0-4.0-89.0"}}, {"uniqueid": "w27178158:a99734111", "current_trial": 94, "dateTime": 1664563178314, "trialdata": {"rt": 5995, "stimulus": "  <h1> End of block! </h1>\n\n  You have reached the end of the block 1/5. If you need a short break, feel free to take one now before moving on.\n\n  <br><br>\n  In the next block, you will complete another 90 rounds of this game.\n\n  <br><br>\n  <div style='text-align: center;'>Press <code>space</code> to begin.</div>\n  <br><br>\n<div style='text-align: center;'>(If the experiment doesn't continue, try clicking on the text and then pressing <code>space</code>.)</div>", "response": " ", "trial_id": "stroop_1_ready_2", "trial_type": "html-keyboard-response", "trial_index": 94, "time_elapsed": 277579, "internal_node_id": "0.0-5.0"}}, {"uniqueid": "w27178158:a99734111", "current_trial": 95, "dateTime": 1664563179156, "trialdata": {"rt": 833, "stimulus": "<p id='stroop-text' class='stroop-red'>YELLOW</p>", "response": "r", "stimulus-type": "incongruent", "word": "yellow", "color": "red", "correct_response": "r", "trial_id": "stroop-trial-1-incongruent-9", "trial_type": "html-keyboard-response", "trial_index": 95, "time_elapsed": 278420, "internal_node_id": "0.0-6.0-0.0"}}, {"uniqueid": "w27178158:a99734111", "current_trial": 96, "dateTime": 1664563180128, "trialdata": {"rt": 460, "stimulus": "<p id='stroop-text' class='stroop-red'>BOTTLE</p>", "response": "r", "stimulus-type": "unrelated", "word": "BOTTLE", "color": "red", "correct_response": "r", "trial_id": "stroop-trial-1-unrelated-5", "trial_type": "html-keyboard-response", "trial_index": 96, "time_elapsed": 279393, "internal_node_id": "0.0-6.0-1.0"}}, {"uniqueid": "w27178158:a99734111", "current_trial": 97, "dateTime": 1664563181599, "trialdata": {"rt": 965, "stimulus": "<p id='stroop-text' class='stroop-green'>GREEN</p>", "response": "g", "stimulus-type": "congruent", "word": "green", "color": "green", "correct_response": "g", "trial_id": "stroop-trial-1-congruent-5", "trial_type": "html-keyboard-response", "trial_index": 97, "time_elapsed": 280863, "internal_node_id": "0.0-6.0-2.0"}}, {"uniqueid": "w27178158:a99734111", "current_trial": 98, "dateTime": 1664563182752, "trialdata": {"rt": 647, "stimulus": "<p id='stroop-text' class='stroop-blue'>SHIP</p>", "response": "b", "stimulus-type": "unrelated", "word": "SHIP", "color": "blue", "correct_response": "b", "trial_id": "stroop-trial-1-unrelated-25", "trial_type": "html-keyboard-response", "trial_index": 98, "time_elapsed": 282017, "internal_node_id": "0.0-6.0-3.0"}}, {"uniqueid": "w27178158:a99734111", "current_trial": 99, "dateTime": 1664563184546, "trialdata": {"rt": 1281, "stimulus": "<p id='stroop-text' class='stroop-green'>FORK</p>", "response": "g", "stimulus-type": "unrelated", "word": "FORK", "color": "green", "correct_response": "g", "trial_id": "stroop-trial-1-unrelated-23", "trial_type": "html-keyboard-response", "trial_index": 99, "time_elapsed": 283810, "internal_node_id": "0.0-6.0-4.0"}}, {"uniqueid": "w27178158:a99734111", "current_trial": 100, "dateTime": 1664563186812, "trialdata": {"rt": 1759, "stimulus": "<p id='stroop-text' class='stroop-blue'>BLUE</p>", "response": "b", "stimulus-type": "congruent", "word": "blue", "color": "blue", "correct_response": "b", "trial_id": "stroop-trial-1-congruent-14", "trial_type": "html-keyboard-response", "trial_index": 100, "time_elapsed": 286076, "internal_node_id": "0.0-6.0-5.0"}}, {"uniqueid": "w27178158:a99734111", "current_trial": 101, "dateTime": 1664563188324, "trialdata": {"rt": 1003, "stimulus": "<p id='stroop-text' class='stroop-green'>BRAIN</p>", "response": "g", "stimulus-type": "unrelated", "word": "BRAIN", "color": "green", "correct_response": "g", "trial_id": "stroop-trial-1-unrelated-2", "trial_type": "html-keyboard-response", "trial_index": 101, "time_elapsed": 287588, "internal_node_id": "0.0-6.0-6.0"}}, {"uniqueid": "w27178158:a99734111", "current_trial": 102, "dateTime": 1664563189626, "trialdata": {"rt": 796, "stimulus": "<p id='stroop-text' class='stroop-red'>MONKEY</p>", "response": "r", "stimulus-type": "unrelated", "word": "MONKEY", "color": "red", "correct_response": "r", "trial_id": "stroop-trial-1-unrelated-26", "trial_type": "html-keyboard-response", "trial_index": 102, "time_elapsed": 288890, "internal_node_id": "0.0-6.0-7.0"}}, {"uniqueid": "w27178158:a99734111", "current_trial": 103, "dateTime": 1664563191108, "trialdata": {"rt": 976, "stimulus": "<p id='stroop-text' class='stroop-blue'>BLUE</p>", "response": "b", "stimulus-type": "congruent", "word": "blue", "color": "blue", "correct_response": "b", "trial_id": "stroop-trial-1-congruent-3", "trial_type": "html-keyboard-response", "trial_index": 103, "time_elapsed": 290372, "internal_node_id": "0.0-6.0-8.0"}}, {"uniqueid": "w27178158:a99734111", "current_trial": 104, "dateTime": 1664563192045, "trialdata": {"rt": 430, "stimulus": "<p id='stroop-text' class='stroop-red'>RED</p>", "response": "r", "stimulus-type": "congruent", "word": "red", "color": "red", "correct_response": "r", "trial_id": "stroop-trial-1-congruent-27", "trial_type": "html-keyboard-response", "trial_index": 104, "time_elapsed": 291310, "internal_node_id": "0.0-6.0-9.0"}}, {"uniqueid": "w27178158:a99734111", "current_trial": 105, "dateTime": 1664563192933, "trialdata": {"rt": 383, "stimulus": "<p id='stroop-text' class='stroop-red'>RED</p>", "response": "r", "stimulus-type": "congruent", "word": "red", "color": "red", "correct_response": "r", "trial_id": "stroop-trial-1-congruent-13", "trial_type": "html-keyboard-response", "trial_index": 105, "time_elapsed": 292198, "internal_node_id": "0.0-6.0-10.0"}}, {"uniqueid": "w27178158:a99734111", "current_trial": 106, "dateTime": 1664563193865, "trialdata": {"rt": 421, "stimulus": "<p id='stroop-text' class='stroop-red'>RED</p>", "response": "r", "stimulus-type": "congruent", "word": "red", "color": "red", "correct_response": "r", "trial_id": "stroop-trial-1-congruent-11", "trial_type": "html-keyboard-response", "trial_index": 106, "time_elapsed": 293130, "internal_node_id": "0.0-6.0-11.0"}}, {"uniqueid": "w27178158:a99734111", "current_trial": 107, "dateTime": 1664563195281, "trialdata": {"rt": 908, "stimulus": "<p id='stroop-text' class='stroop-blue'>BRIDGE</p>", "response": "b", "stimulus-type": "unrelated", "word": "BRIDGE", "color": "blue", "correct_response": "b", "trial_id": "stroop-trial-1-unrelated-28", "trial_type": "html-keyboard-response", "trial_index": 107, "time_elapsed": 294545, "internal_node_id": "0.0-6.0-12.0"}}, {"uniqueid": "w27178158:a99734111", "current_trial": 108, "dateTime": 1664563196468, "trialdata": {"rt": 680, "stimulus": "<p id='stroop-text' class='stroop-green'>SHIP</p>", "response": "g", "stimulus-type": "unrelated", "word": "SHIP", "color": "green", "correct_response": "g", "trial_id": "stroop-trial-1-unrelated-27", "trial_type": "html-keyboard-response", "trial_index": 108, "time_elapsed": 295732, "internal_node_id": "0.0-6.0-13.0"}}, {"uniqueid": "w27178158:a99734111", "current_trial": 109, "dateTime": 1664563197642, "trialdata": {"rt": 662, "stimulus": "<p id='stroop-text' class='stroop-red'>CHAIR</p>", "response": "r", "stimulus-type": "unrelated", "word": "CHAIR", "color": "red", "correct_response": "r", "trial_id": "stroop-trial-1-unrelated-30", "trial_type": "html-keyboard-response", "trial_index": 109, "time_elapsed": 296906, "internal_node_id": "0.0-6.0-14.0"}}, {"uniqueid": "w27178158:a99734111", "current_trial": 110, "dateTime": 1664563198646, "trialdata": {"rt": 496, "stimulus": "<p id='stroop-text' class='stroop-red'>DOG</p>", "response": "r", "stimulus-type": "unrelated", "word": "DOG", "color": "red", "correct_response": "r", "trial_id": "stroop-trial-1-unrelated-12", "trial_type": "html-keyboard-response", "trial_index": 110, "time_elapsed": 297910, "internal_node_id": "0.0-6.0-15.0"}}, {"uniqueid": "w27178158:a99734111", "current_trial": 111, "dateTime": 1664563199733, "trialdata": {"rt": 579, "stimulus": "<p id='stroop-text' class='stroop-yellow'>DOG</p>", "response": "y", "stimulus-type": "unrelated", "word": "DOG", "color": "yellow", "correct_response": "y", "trial_id": "stroop-trial-1-unrelated-3", "trial_type": "html-keyboard-response", "trial_index": 111, "time_elapsed": 298998, "internal_node_id": "0.0-6.0-16.0"}}, {"uniqueid": "w27178158:a99734111", "current_trial": 112, "dateTime": 1664563200864, "trialdata": {"rt": 622, "stimulus": "<p id='stroop-text' class='stroop-green'>BLUE</p>", "response": "g", "stimulus-type": "incongruent", "word": "blue", "color": "green", "correct_response": "g", "trial_id": "stroop-trial-1-incongruent-17", "trial_type": "html-keyboard-response", "trial_index": 112, "time_elapsed": 300128, "internal_node_id": "0.0-6.0-17.0"}}, {"uniqueid": "w27178158:a99734111", "current_trial": 113, "dateTime": 1664563201803, "trialdata": {"rt": 431, "stimulus": "<p id='stroop-text' class='stroop-green'>GREEN</p>", "response": "g", "stimulus-type": "congruent", "word": "green", "color": "green", "correct_response": "g", "trial_id": "stroop-trial-1-congruent-2", "trial_type": "html-keyboard-response", "trial_index": 113, "time_elapsed": 301068, "internal_node_id": "0.0-6.0-18.0"}}, {"uniqueid": "w27178158:a99734111", "current_trial": 114, "dateTime": 1664563202752, "trialdata": {"rt": 436, "stimulus": "<p id='stroop-text' class='stroop-red'>BOTTLE</p>", "response": "r", "stimulus-type": "unrelated", "word": "BOTTLE", "color": "red", "correct_response": "r", "trial_id": "stroop-trial-1-unrelated-6", "trial_type": "html-keyboard-response", "trial_index": 114, "time_elapsed": 302017, "internal_node_id": "0.0-6.0-19.0"}}, {"uniqueid": "w27178158:a99734111", "current_trial": 115, "dateTime": 1664563203793, "trialdata": {"rt": 533, "stimulus": "<p id='stroop-text' class='stroop-yellow'>YELLOW</p>", "response": "y", "stimulus-type": "congruent", "word": "yellow", "color": "yellow", "correct_response": "y", "trial_id": "stroop-trial-1-congruent-23", "trial_type": "html-keyboard-response", "trial_index": 115, "time_elapsed": 303057, "internal_node_id": "0.0-6.0-20.0"}}, {"uniqueid": "w27178158:a99734111", "current_trial": 116, "dateTime": 1664563204914, "trialdata": {"rt": 604, "stimulus": "<p id='stroop-text' class='stroop-blue'>BLUE</p>", "response": "b", "stimulus-type": "congruent", "word": "blue", "color": "blue", "correct_response": "b", "trial_id": "stroop-trial-1-congruent-4", "trial_type": "html-keyboard-response", "trial_index": 116, "time_elapsed": 304178, "internal_node_id": "0.0-6.0-21.0"}}, {"uniqueid": "w27178158:a99734111", "current_trial": 117, "dateTime": 1664563205927, "trialdata": {"rt": 507, "stimulus": "<p id='stroop-text' class='stroop-red'>RED</p>", "response": "r", "stimulus-type": "congruent", "word": "red", "color": "red", "correct_response": "r", "trial_id": "stroop-trial-1-congruent-9", "trial_type": "html-keyboard-response", "trial_index": 117, "time_elapsed": 305191, "internal_node_id": "0.0-6.0-22.0"}}, {"uniqueid": "w27178158:a99734111", "current_trial": 118, "dateTime": 1664563207817, "trialdata": {"rt": 1380, "stimulus": "<p id='stroop-text' class='stroop-blue'>YELLOW</p>", "response": "y", "stimulus-type": "incongruent", "word": "yellow", "color": "blue", "correct_response": "b", "trial_id": "stroop-trial-1-incongruent-6", "trial_type": "html-keyboard-response", "trial_index": 118, "time_elapsed": 307081, "internal_node_id": "0.0-6.0-23.0"}}, {"uniqueid": "w27178158:a99734111", "current_trial": 119, "dateTime": 1664563209437, "trialdata": {"rt": 1112, "stimulus": "<p id='stroop-text' class='stroop-blue'>FORK</p>", "response": "b", "stimulus-type": "unrelated", "word": "FORK", "color": "blue", "correct_response": "b", "trial_id": "stroop-trial-1-unrelated-16", "trial_type": "html-keyboard-response", "trial_index": 119, "time_elapsed": 308701, "internal_node_id": "0.0-6.0-24.0"}}, {"uniqueid": "w27178158:a99734111", "current_trial": 120, "dateTime": 1664563210684, "trialdata": {"rt": 739, "stimulus": "<p id='stroop-text' class='stroop-green'>RED</p>", "response": "g", "stimulus-type": "incongruent", "word": "red", "color": "green", "correct_response": "g", "trial_id": "stroop-trial-1-incongruent-11", "trial_type": "html-keyboard-response", "trial_index": 120, "time_elapsed": 309949, "internal_node_id": "0.0-6.0-25.0"}}, {"uniqueid": "w27178158:a99734111", "current_trial": 121, "dateTime": 1664563212729, "trialdata": {"rt": 1539, "stimulus": "<p id='stroop-text' class='stroop-blue'>CHAIR</p>", "response": "b", "stimulus-type": "unrelated", "word": "CHAIR", "color": "blue", "correct_response": "b", "trial_id": "stroop-trial-1-unrelated-11", "trial_type": "html-keyboard-response", "trial_index": 121, "time_elapsed": 311993, "internal_node_id": "0.0-6.0-26.0"}}, {"uniqueid": "w27178158:a99734111", "current_trial": 122, "dateTime": 1664563213782, "trialdata": {"rt": 546, "stimulus": "<p id='stroop-text' class='stroop-red'>STONE</p>", "response": "r", "stimulus-type": "unrelated", "word": "STONE", "color": "red", "correct_response": "r", "trial_id": "stroop-trial-1-unrelated-18", "trial_type": "html-keyboard-response", "trial_index": 122, "time_elapsed": 313046, "internal_node_id": "0.0-6.0-27.0"}}, {"uniqueid": "w27178158:a99734111", "current_trial": 123, "dateTime": 1664563215720, "trialdata": {"rt": 1431, "stimulus": "<p id='stroop-text' class='stroop-green'>BLUE</p>", "response": "g", "stimulus-type": "incongruent", "word": "blue", "color": "green", "correct_response": "g", "trial_id": "stroop-trial-1-incongruent-19", "trial_type": "html-keyboard-response", "trial_index": 123, "time_elapsed": 314984, "internal_node_id": "0.0-6.0-28.0"}}, {"uniqueid": "w27178158:a99734111", "current_trial": 124, "dateTime": 1664563216893, "trialdata": {"rt": 662, "stimulus": "<p id='stroop-text' class='stroop-red'>BLUE</p>", "response": "r", "stimulus-type": "incongruent", "word": "blue", "color": "red", "correct_response": "r", "trial_id": "stroop-trial-1-incongruent-18", "trial_type": "html-keyboard-response", "trial_index": 124, "time_elapsed": 316157, "internal_node_id": "0.0-6.0-29.0"}}, {"uniqueid": "w27178158:a99734111", "current_trial": 125, "dateTime": 1664563218771, "trialdata": {"rt": 1363, "stimulus": "<p id='stroop-text' class='stroop-blue'>DOG</p>", "response": "b", "stimulus-type": "unrelated", "word": "DOG", "color": "blue", "correct_response": "b", "trial_id": "stroop-trial-1-unrelated-14", "trial_type": "html-keyboard-response", "trial_index": 125, "time_elapsed": 318035, "internal_node_id": "0.0-6.0-30.0"}}, {"uniqueid": "w27178158:a99734111", "current_trial": 126, "dateTime": 1664563219960, "trialdata": {"rt": 676, "stimulus": "<p id='stroop-text' class='stroop-yellow'>RED</p>", "response": "y", "stimulus-type": "incongruent", "word": "red", "color": "yellow", "correct_response": "y", "trial_id": "stroop-trial-1-incongruent-14", "trial_type": "html-keyboard-response", "trial_index": 126, "time_elapsed": 319224, "internal_node_id": "0.0-6.0-31.0"}}, {"uniqueid": "w27178158:a99734111", "current_trial": 127, "dateTime": 1664563220971, "trialdata": {"rt": 504, "stimulus": "<p id='stroop-text' class='stroop-yellow'>MONKEY</p>", "response": "y", "stimulus-type": "unrelated", "word": "MONKEY", "color": "yellow", "correct_response": "y", "trial_id": "stroop-trial-1-unrelated-9", "trial_type": "html-keyboard-response", "trial_index": 127, "time_elapsed": 320235, "internal_node_id": "0.0-6.0-32.0"}}, {"uniqueid": "w27178158:a99734111", "current_trial": 128, "dateTime": 1664563222327, "trialdata": {"rt": 847, "stimulus": "<p id='stroop-text' class='stroop-green'>WINDOW</p>", "response": "g", "stimulus-type": "unrelated", "word": "WINDOW", "color": "green", "correct_response": "g", "trial_id": "stroop-trial-1-unrelated-21", "trial_type": "html-keyboard-response", "trial_index": 128, "time_elapsed": 321592, "internal_node_id": "0.0-6.0-33.0"}}, {"uniqueid": "w27178158:a99734111", "current_trial": 129, "dateTime": 1664563223303, "trialdata": {"rt": 468, "stimulus": "<p id='stroop-text' class='stroop-red'>RED</p>", "response": "r", "stimulus-type": "congruent", "word": "red", "color": "red", "correct_response": "r", "trial_id": "stroop-trial-1-congruent-20", "trial_type": "html-keyboard-response", "trial_index": 129, "time_elapsed": 322567, "internal_node_id": "0.0-6.0-34.0"}}, {"uniqueid": "w27178158:a99734111", "current_trial": 130, "dateTime": 1664563224556, "trialdata": {"rt": 740, "stimulus": "<p id='stroop-text' class='stroop-yellow'>YELLOW</p>", "response": "y", "stimulus-type": "congruent", "word": "yellow", "color": "yellow", "correct_response": "y", "trial_id": "stroop-trial-1-congruent-6", "trial_type": "html-keyboard-response", "trial_index": 130, "time_elapsed": 323819, "internal_node_id": "0.0-6.0-35.0"}}, {"uniqueid": "w27178158:a99734111", "current_trial": 131, "dateTime": 1664563225533, "trialdata": {"rt": 466, "stimulus": "<p id='stroop-text' class='stroop-red'>RED</p>", "response": "r", "stimulus-type": "congruent", "word": "red", "color": "red", "correct_response": "r", "trial_id": "stroop-trial-1-congruent-7", "trial_type": "html-keyboard-response", "trial_index": 131, "time_elapsed": 324797, "internal_node_id": "0.0-6.0-36.0"}}, {"uniqueid": "w27178158:a99734111", "current_trial": 132, "dateTime": 1664563226842, "trialdata": {"rt": 798, "stimulus": "<p id='stroop-text' class='stroop-green'>BLUE</p>", "response": "g", "stimulus-type": "incongruent", "word": "blue", "color": "green", "correct_response": "g", "trial_id": "stroop-trial-1-incongruent-10", "trial_type": "html-keyboard-response", "trial_index": 132, "time_elapsed": 326106, "internal_node_id": "0.0-6.0-37.0"}}, {"uniqueid": "w27178158:a99734111", "current_trial": 133, "dateTime": 1664563227790, "trialdata": {"rt": 441, "stimulus": "<p id='stroop-text' class='stroop-green'>RED</p>", "response": "g", "stimulus-type": "incongruent", "word": "red", "color": "green", "correct_response": "g", "trial_id": "stroop-trial-1-incongruent-5", "trial_type": "html-keyboard-response", "trial_index": 133, "time_elapsed": 327055, "internal_node_id": "0.0-6.0-38.0"}}, {"uniqueid": "w27178158:a99734111", "current_trial": 134, "dateTime": 1664563228969, "trialdata": {"rt": 669, "stimulus": "<p id='stroop-text' class='stroop-blue'>CHAIR</p>", "response": "b", "stimulus-type": "unrelated", "word": "CHAIR", "color": "blue", "correct_response": "b", "trial_id": "stroop-trial-1-unrelated-24", "trial_type": "html-keyboard-response", "trial_index": 134, "time_elapsed": 328233, "internal_node_id": "0.0-6.0-39.0"}}, {"uniqueid": "w27178158:a99734111", "current_trial": 135, "dateTime": 1664563230182, "trialdata": {"rt": 705, "stimulus": "<p id='stroop-text' class='stroop-yellow'>STONE</p>", "response": "y", "stimulus-type": "unrelated", "word": "STONE", "color": "yellow", "correct_response": "y", "trial_id": "stroop-trial-1-unrelated-17", "trial_type": "html-keyboard-response", "trial_index": 135, "time_elapsed": 329446, "internal_node_id": "0.0-6.0-40.0"}}, {"uniqueid": "w27178158:a99734111", "current_trial": 136, "dateTime": 1664563231506, "trialdata": {"rt": 816, "stimulus": "<p id='stroop-text' class='stroop-blue'>BLUE</p>", "response": "b", "stimulus-type": "congruent", "word": "blue", "color": "blue", "correct_response": "b", "trial_id": "stroop-trial-1-congruent-18", "trial_type": "html-keyboard-response", "trial_index": 136, "time_elapsed": 330769, "internal_node_id": "0.0-6.0-41.0"}}, {"uniqueid": "w27178158:a99734111", "current_trial": 137, "dateTime": 1664563232694, "trialdata": {"rt": 681, "stimulus": "<p id='stroop-text' class='stroop-green'>RED</p>", "response": "g", "stimulus-type": "incongruent", "word": "red", "color": "green", "correct_response": "g", "trial_id": "stroop-trial-1-incongruent-8", "trial_type": "html-keyboard-response", "trial_index": 137, "time_elapsed": 331958, "internal_node_id": "0.0-6.0-42.0"}}, {"uniqueid": "w27178158:a99734111", "current_trial": 138, "dateTime": 1664563233909, "trialdata": {"rt": 707, "stimulus": "<p id='stroop-text' class='stroop-yellow'>YELLOW</p>", "response": "y", "stimulus-type": "congruent", "word": "yellow", "color": "yellow", "correct_response": "y", "trial_id": "stroop-trial-1-congruent-29", "trial_type": "html-keyboard-response", "trial_index": 138, "time_elapsed": 333173, "internal_node_id": "0.0-6.0-43.0"}}, {"uniqueid": "w27178158:a99734111", "current_trial": 139, "dateTime": 1664563235383, "trialdata": {"rt": 968, "stimulus": "<p id='stroop-text' class='stroop-blue'>BRIDGE</p>", "response": "b", "stimulus-type": "unrelated", "word": "BRIDGE", "color": "blue", "correct_response": "b", "trial_id": "stroop-trial-1-unrelated-10", "trial_type": "html-keyboard-response", "trial_index": 139, "time_elapsed": 334648, "internal_node_id": "0.0-6.0-44.0"}}, {"uniqueid": "w27178158:a99734111", "current_trial": 140, "dateTime": 1664563237062, "trialdata": {"rt": 1171, "stimulus": "<p id='stroop-text' class='stroop-green'>GREEN</p>", "response": "g", "stimulus-type": "congruent", "word": "green", "color": "green", "correct_response": "g", "trial_id": "stroop-trial-1-congruent-17", "trial_type": "html-keyboard-response", "trial_index": 140, "time_elapsed": 336326, "internal_node_id": "0.0-6.0-45.0"}}, {"uniqueid": "w27178158:a99734111", "current_trial": 141, "dateTime": 1664563238516, "trialdata": {"rt": 948, "stimulus": "<p id='stroop-text' class='stroop-blue'>BRIDGE</p>", "response": "b", "stimulus-type": "unrelated", "word": "BRIDGE", "color": "blue", "correct_response": "b", "trial_id": "stroop-trial-1-unrelated-7", "trial_type": "html-keyboard-response", "trial_index": 141, "time_elapsed": 337780, "internal_node_id": "0.0-6.0-46.0"}}, {"uniqueid": "w27178158:a99734111", "current_trial": 142, "dateTime": 1664563239486, "trialdata": {"rt": 463, "stimulus": "<p id='stroop-text' class='stroop-blue'>BLUE</p>", "response": "b", "stimulus-type": "congruent", "word": "blue", "color": "blue", "correct_response": "b", "trial_id": "stroop-trial-1-congruent-16", "trial_type": "html-keyboard-response", "trial_index": 142, "time_elapsed": 338751, "internal_node_id": "0.0-6.0-47.0"}}, {"uniqueid": "w27178158:a99734111", "current_trial": 143, "dateTime": 1664563240569, "trialdata": {"rt": 576, "stimulus": "<p id='stroop-text' class='stroop-yellow'>BLUE</p>", "response": "y", "stimulus-type": "incongruent", "word": "blue", "color": "yellow", "correct_response": "y", "trial_id": "stroop-trial-1-incongruent-23", "trial_type": "html-keyboard-response", "trial_index": 143, "time_elapsed": 339834, "internal_node_id": "0.0-6.0-48.0"}}, {"uniqueid": "w27178158:a99734111", "current_trial": 144, "dateTime": 1664563241850, "trialdata": {"rt": 770, "stimulus": "<p id='stroop-text' class='stroop-blue'>BLUE</p>", "response": "b", "stimulus-type": "congruent", "word": "blue", "color": "blue", "correct_response": "b", "trial_id": "stroop-trial-1-congruent-26", "trial_type": "html-keyboard-response", "trial_index": 144, "time_elapsed": 341114, "internal_node_id": "0.0-6.0-49.0"}}, {"uniqueid": "w27178158:a99734111", "current_trial": 145, "dateTime": 1664563242859, "trialdata": {"rt": 500, "stimulus": "<p id='stroop-text' class='stroop-blue'>BLUE</p>", "response": "b", "stimulus-type": "congruent", "word": "blue", "color": "blue", "correct_response": "b", "trial_id": "stroop-trial-1-congruent-15", "trial_type": "html-keyboard-response", "trial_index": 145, "time_elapsed": 342124, "internal_node_id": "0.0-6.0-50.0"}}, {"uniqueid": "w27178158:a99734111", "current_trial": 146, "dateTime": 1664563243943, "trialdata": {"rt": 574, "stimulus": "<p id='stroop-text' class='stroop-blue'>BLUE</p>", "response": "b", "stimulus-type": "congruent", "word": "blue", "color": "blue", "correct_response": "b", "trial_id": "stroop-trial-1-congruent-1", "trial_type": "html-keyboard-response", "trial_index": 146, "time_elapsed": 343208, "internal_node_id": "0.0-6.0-51.0"}}, {"uniqueid": "w27178158:a99734111", "current_trial": 147, "dateTime": 1664563245066, "trialdata": {"rt": 618, "stimulus": "<p id='stroop-text' class='stroop-yellow'>GREEN</p>", "response": "y", "stimulus-type": "incongruent", "word": "green", "color": "yellow", "correct_response": "y", "trial_id": "stroop-trial-1-incongruent-20", "trial_type": "html-keyboard-response", "trial_index": 147, "time_elapsed": 344331, "internal_node_id": "0.0-6.0-52.0"}}, {"uniqueid": "w27178158:a99734111", "current_trial": 148, "dateTime": 1664563246200, "trialdata": {"rt": 624, "stimulus": "<p id='stroop-text' class='stroop-blue'>RED</p>", "response": "b", "stimulus-type": "incongruent", "word": "red", "color": "blue", "correct_response": "b", "trial_id": "stroop-trial-1-incongruent-4", "trial_type": "html-keyboard-response", "trial_index": 148, "time_elapsed": 345464, "internal_node_id": "0.0-6.0-53.0"}}, {"uniqueid": "w27178158:a99734111", "current_trial": 149, "dateTime": 1664563247299, "trialdata": {"rt": 590, "stimulus": "<p id='stroop-text' class='stroop-yellow'>RED</p>", "response": "y", "stimulus-type": "incongruent", "word": "red", "color": "yellow", "correct_response": "y", "trial_id": "stroop-trial-1-incongruent-22", "trial_type": "html-keyboard-response", "trial_index": 149, "time_elapsed": 346564, "internal_node_id": "0.0-6.0-54.0"}}, {"uniqueid": "w27178158:a99734111", "current_trial": 150, "dateTime": 1664563248392, "trialdata": {"rt": 582, "stimulus": "<p id='stroop-text' class='stroop-red'>YELLOW</p>", "response": "r", "stimulus-type": "incongruent", "word": "yellow", "color": "red", "correct_response": "r", "trial_id": "stroop-trial-1-incongruent-2", "trial_type": "html-keyboard-response", "trial_index": 150, "time_elapsed": 347656, "internal_node_id": "0.0-6.0-55.0"}}, {"uniqueid": "w27178158:a99734111", "current_trial": 151, "dateTime": 1664563249392, "trialdata": {"rt": 492, "stimulus": "<p id='stroop-text' class='stroop-red'>YELLOW</p>", "response": "r", "stimulus-type": "incongruent", "word": "yellow", "color": "red", "correct_response": "r", "trial_id": "stroop-trial-1-incongruent-3", "trial_type": "html-keyboard-response", "trial_index": 151, "time_elapsed": 348657, "internal_node_id": "0.0-6.0-56.0"}}, {"uniqueid": "w27178158:a99734111", "current_trial": 152, "dateTime": 1664563250469, "trialdata": {"rt": 564, "stimulus": "<p id='stroop-text' class='stroop-yellow'>SHIP</p>", "response": "y", "stimulus-type": "unrelated", "word": "SHIP", "color": "yellow", "correct_response": "y", "trial_id": "stroop-trial-1-unrelated-1", "trial_type": "html-keyboard-response", "trial_index": 152, "time_elapsed": 349733, "internal_node_id": "0.0-6.0-57.0"}}, {"uniqueid": "w27178158:a99734111", "current_trial": 153, "dateTime": 1664563251423, "trialdata": {"rt": 446, "stimulus": "<p id='stroop-text' class='stroop-yellow'>YELLOW</p>", "response": "y", "stimulus-type": "congruent", "word": "yellow", "color": "yellow", "correct_response": "y", "trial_id": "stroop-trial-1-congruent-19", "trial_type": "html-keyboard-response", "trial_index": 153, "time_elapsed": 350687, "internal_node_id": "0.0-6.0-58.0"}}, {"uniqueid": "w27178158:a99734111", "current_trial": 154, "dateTime": 1664563252542, "trialdata": {"rt": 612, "stimulus": "<p id='stroop-text' class='stroop-green'>YELLOW</p>", "response": "g", "stimulus-type": "incongruent", "word": "yellow", "color": "green", "correct_response": "g", "trial_id": "stroop-trial-1-incongruent-1", "trial_type": "html-keyboard-response", "trial_index": 154, "time_elapsed": 351806, "internal_node_id": "0.0-6.0-59.0"}}, {"uniqueid": "w27178158:a99734111", "current_trial": 155, "dateTime": 1664563253474, "trialdata": {"rt": 425, "stimulus": "<p id='stroop-text' class='stroop-green'>YELLOW</p>", "response": "g", "stimulus-type": "incongruent", "word": "yellow", "color": "green", "correct_response": "g", "trial_id": "stroop-trial-1-incongruent-15", "trial_type": "html-keyboard-response", "trial_index": 155, "time_elapsed": 352738, "internal_node_id": "0.0-6.0-60.0"}}, {"uniqueid": "w27178158:a99734111", "current_trial": 156, "dateTime": 1664563254568, "trialdata": {"rt": 587, "stimulus": "<p id='stroop-text' class='stroop-blue'>CHAIR</p>", "response": "b", "stimulus-type": "unrelated", "word": "CHAIR", "color": "blue", "correct_response": "b", "trial_id": "stroop-trial-1-unrelated-8", "trial_type": "html-keyboard-response", "trial_index": 156, "time_elapsed": 353833, "internal_node_id": "0.0-6.0-61.0"}}, {"uniqueid": "w27178158:a99734111", "current_trial": 157, "dateTime": 1664563255530, "trialdata": {"rt": 453, "stimulus": "<p id='stroop-text' class='stroop-blue'>BLUE</p>", "response": "b", "stimulus-type": "congruent", "word": "blue", "color": "blue", "correct_response": "b", "trial_id": "stroop-trial-1-congruent-12", "trial_type": "html-keyboard-response", "trial_index": 157, "time_elapsed": 354795, "internal_node_id": "0.0-6.0-62.0"}}, {"uniqueid": "w27178158:a99734111", "current_trial": 158, "dateTime": 1664563257109, "trialdata": {"rt": 1071, "stimulus": "<p id='stroop-text' class='stroop-green'>YELLOW</p>", "response": "g", "stimulus-type": "incongruent", "word": "yellow", "color": "green", "correct_response": "g", "trial_id": "stroop-trial-1-incongruent-13", "trial_type": "html-keyboard-response", "trial_index": 158, "time_elapsed": 356373, "internal_node_id": "0.0-6.0-63.0"}}, {"uniqueid": "w27178158:a99734111", "current_trial": 159, "dateTime": 1664563258203, "trialdata": {"rt": 586, "stimulus": "<p id='stroop-text' class='stroop-yellow'>STONE</p>", "response": "y", "stimulus-type": "unrelated", "word": "STONE", "color": "yellow", "correct_response": "y", "trial_id": "stroop-trial-1-unrelated-4", "trial_type": "html-keyboard-response", "trial_index": 159, "time_elapsed": 357468, "internal_node_id": "0.0-6.0-64.0"}}, {"uniqueid": "w27178158:a99734111", "current_trial": 160, "dateTime": 1664563259355, "trialdata": {"rt": 643, "stimulus": "<p id='stroop-text' class='stroop-red'>RED</p>", "response": "r", "stimulus-type": "congruent", "word": "red", "color": "red", "correct_response": "r", "trial_id": "stroop-trial-1-congruent-30", "trial_type": "html-keyboard-response", "trial_index": 160, "time_elapsed": 358619, "internal_node_id": "0.0-6.0-65.0"}}, {"uniqueid": "w27178158:a99734111", "current_trial": 161, "dateTime": 1664563260355, "trialdata": {"rt": 494, "stimulus": "<p id='stroop-text' class='stroop-yellow'>FORK</p>", "response": "y", "stimulus-type": "unrelated", "word": "FORK", "color": "yellow", "correct_response": "y", "trial_id": "stroop-trial-1-unrelated-20", "trial_type": "html-keyboard-response", "trial_index": 161, "time_elapsed": 359619, "internal_node_id": "0.0-6.0-66.0"}}, {"uniqueid": "w27178158:a99734111", "current_trial": 162, "dateTime": 1664563261346, "trialdata": {"rt": 483, "stimulus": "<p id='stroop-text' class='stroop-red'>YELLOW</p>", "response": "r", "stimulus-type": "incongruent", "word": "yellow", "color": "red", "correct_response": "r", "trial_id": "stroop-trial-1-incongruent-29", "trial_type": "html-keyboard-response", "trial_index": 162, "time_elapsed": 360610, "internal_node_id": "0.0-6.0-67.0"}}, {"uniqueid": "w27178158:a99734111", "current_trial": 163, "dateTime": 1664563262508, "trialdata": {"rt": 655, "stimulus": "<p id='stroop-text' class='stroop-blue'>GREEN</p>", "response": "g", "stimulus-type": "incongruent", "word": "green", "color": "blue", "correct_response": "b", "trial_id": "stroop-trial-1-incongruent-12", "trial_type": "html-keyboard-response", "trial_index": 163, "time_elapsed": 361773, "internal_node_id": "0.0-6.0-68.0"}}, {"uniqueid": "w27178158:a99734111", "current_trial": 164, "dateTime": 1664563263726, "trialdata": {"rt": 711, "stimulus": "<p id='stroop-text' class='stroop-yellow'>BLUE</p>", "response": "y", "stimulus-type": "incongruent", "word": "blue", "color": "yellow", "correct_response": "y", "trial_id": "stroop-trial-1-incongruent-25", "trial_type": "html-keyboard-response", "trial_index": 164, "time_elapsed": 362991, "internal_node_id": "0.0-6.0-69.0"}}, {"uniqueid": "w27178158:a99734111", "current_trial": 165, "dateTime": 1664563264973, "trialdata": {"rt": 742, "stimulus": "<p id='stroop-text' class='stroop-blue'>BLUE</p>", "response": "b", "stimulus-type": "congruent", "word": "blue", "color": "blue", "correct_response": "b", "trial_id": "stroop-trial-1-congruent-22", "trial_type": "html-keyboard-response", "trial_index": 165, "time_elapsed": 364238, "internal_node_id": "0.0-6.0-70.0"}}, {"uniqueid": "w27178158:a99734111", "current_trial": 166, "dateTime": 1664563266062, "trialdata": {"rt": 583, "stimulus": "<p id='stroop-text' class='stroop-red'>RED</p>", "response": "r", "stimulus-type": "congruent", "word": "red", "color": "red", "correct_response": "r", "trial_id": "stroop-trial-1-congruent-25", "trial_type": "html-keyboard-response", "trial_index": 166, "time_elapsed": 365327, "internal_node_id": "0.0-6.0-71.0"}}, {"uniqueid": "w27178158:a99734111", "current_trial": 167, "dateTime": 1664563266965, "trialdata": {"rt": 395, "stimulus": "<p id='stroop-text' class='stroop-red'>BOTTLE</p>", "response": "r", "stimulus-type": "unrelated", "word": "BOTTLE", "color": "red", "correct_response": "r", "trial_id": "stroop-trial-1-unrelated-29", "trial_type": "html-keyboard-response", "trial_index": 167, "time_elapsed": 366229, "internal_node_id": "0.0-6.0-72.0"}}, {"uniqueid": "w27178158:a99734111", "current_trial": 168, "dateTime": 1664563267922, "trialdata": {"rt": 447, "stimulus": "<p id='stroop-text' class='stroop-red'>RED</p>", "response": "r", "stimulus-type": "congruent", "word": "red", "color": "red", "correct_response": "r", "trial_id": "stroop-trial-1-congruent-24", "trial_type": "html-keyboard-response", "trial_index": 168, "time_elapsed": 367185, "internal_node_id": "0.0-6.0-73.0"}}, {"uniqueid": "w27178158:a99734111", "current_trial": 169, "dateTime": 1664563268803, "trialdata": {"rt": 372, "stimulus": "<p id='stroop-text' class='stroop-red'>BLUE</p>", "response": "r", "stimulus-type": "incongruent", "word": "blue", "color": "red", "correct_response": "r", "trial_id": "stroop-trial-1-incongruent-16", "trial_type": "html-keyboard-response", "trial_index": 169, "time_elapsed": 368068, "internal_node_id": "0.0-6.0-74.0"}}, {"uniqueid": "w27178158:a99734111", "current_trial": 170, "dateTime": 1664563270077, "trialdata": {"rt": 768, "stimulus": "<p id='stroop-text' class='stroop-green'>CHAIR</p>", "response": "g", "stimulus-type": "unrelated", "word": "CHAIR", "color": "green", "correct_response": "g", "trial_id": "stroop-trial-1-unrelated-19", "trial_type": "html-keyboard-response", "trial_index": 170, "time_elapsed": 369342, "internal_node_id": "0.0-6.0-75.0"}}, {"uniqueid": "w27178158:a99734111", "current_trial": 171, "dateTime": 1664563271076, "trialdata": {"rt": 490, "stimulus": "<p id='stroop-text' class='stroop-red'>GREEN</p>", "response": "r", "stimulus-type": "incongruent", "word": "green", "color": "red", "correct_response": "r", "trial_id": "stroop-trial-1-incongruent-21", "trial_type": "html-keyboard-response", "trial_index": 171, "time_elapsed": 370340, "internal_node_id": "0.0-6.0-76.0"}}, {"uniqueid": "w27178158:a99734111", "current_trial": 172, "dateTime": 1664563272016, "trialdata": {"rt": 431, "stimulus": "<p id='stroop-text' class='stroop-red'>GREEN</p>", "response": "r", "stimulus-type": "incongruent", "word": "green", "color": "red", "correct_response": "r", "trial_id": "stroop-trial-1-incongruent-7", "trial_type": "html-keyboard-response", "trial_index": 172, "time_elapsed": 371280, "internal_node_id": "0.0-6.0-77.0"}}, {"uniqueid": "w27178158:a99734111", "current_trial": 173, "dateTime": 1664563273193, "trialdata": {"rt": 669, "stimulus": "<p id='stroop-text' class='stroop-yellow'>RED</p>", "response": "y", "stimulus-type": "incongruent", "word": "red", "color": "yellow", "correct_response": "y", "trial_id": "stroop-trial-1-incongruent-26", "trial_type": "html-keyboard-response", "trial_index": 173, "time_elapsed": 372457, "internal_node_id": "0.0-6.0-78.0"}}, {"uniqueid": "w27178158:a99734111", "current_trial": 174, "dateTime": 1664563274764, "trialdata": {"rt": 1061, "stimulus": "<p id='stroop-text' class='stroop-blue'>BLUE</p>", "response": "b", "stimulus-type": "congruent", "word": "blue", "color": "blue", "correct_response": "b", "trial_id": "stroop-trial-1-congruent-10", "trial_type": "html-keyboard-response", "trial_index": 174, "time_elapsed": 374028, "internal_node_id": "0.0-6.0-79.0"}}, {"uniqueid": "w27178158:a99734111", "current_trial": 175, "dateTime": 1664563275714, "trialdata": {"rt": 442, "stimulus": "<p id='stroop-text' class='stroop-blue'>GREEN</p>", "response": "b", "stimulus-type": "incongruent", "word": "green", "color": "blue", "correct_response": "b", "trial_id": "stroop-trial-1-incongruent-28", "trial_type": "html-keyboard-response", "trial_index": 175, "time_elapsed": 374978, "internal_node_id": "0.0-6.0-80.0"}}, {"uniqueid": "w27178158:a99734111", "current_trial": 176, "dateTime": 1664563276695, "trialdata": {"rt": 474, "stimulus": "<p id='stroop-text' class='stroop-red'>RED</p>", "response": "r", "stimulus-type": "congruent", "word": "red", "color": "red", "correct_response": "r", "trial_id": "stroop-trial-1-congruent-28", "trial_type": "html-keyboard-response", "trial_index": 176, "time_elapsed": 375960, "internal_node_id": "0.0-6.0-81.0"}}, {"uniqueid": "w27178158:a99734111", "current_trial": 177, "dateTime": 1664563278014, "trialdata": {"rt": 811, "stimulus": "<p id='stroop-text' class='stroop-blue'>BLUE</p>", "response": "b", "stimulus-type": "congruent", "word": "blue", "color": "blue", "correct_response": "b", "trial_id": "stroop-trial-1-congruent-8", "trial_type": "html-keyboard-response", "trial_index": 177, "time_elapsed": 377279, "internal_node_id": "0.0-6.0-82.0"}}, {"uniqueid": "w27178158:a99734111", "current_trial": 178, "dateTime": 1664563279064, "trialdata": {"rt": 542, "stimulus": "<p id='stroop-text' class='stroop-blue'>CHAIR</p>", "response": "b", "stimulus-type": "unrelated", "word": "CHAIR", "color": "blue", "correct_response": "b", "trial_id": "stroop-trial-1-unrelated-13", "trial_type": "html-keyboard-response", "trial_index": 178, "time_elapsed": 378329, "internal_node_id": "0.0-6.0-83.0"}}, {"uniqueid": "w27178158:a99734111", "current_trial": 179, "dateTime": 1664563280260, "trialdata": {"rt": 688, "stimulus": "<p id='stroop-text' class='stroop-green'>WINDOW</p>", "response": "g", "stimulus-type": "unrelated", "word": "WINDOW", "color": "green", "correct_response": "g", "trial_id": "stroop-trial-1-unrelated-22", "trial_type": "html-keyboard-response", "trial_index": 179, "time_elapsed": 379524, "internal_node_id": "0.0-6.0-84.0"}}, {"uniqueid": "w27178158:a99734111", "current_trial": 180, "dateTime": 1664563281395, "trialdata": {"rt": 629, "stimulus": "<p id='stroop-text' class='stroop-blue'>BRAIN</p>", "response": "b", "stimulus-type": "unrelated", "word": "BRAIN", "color": "blue", "correct_response": "b", "trial_id": "stroop-trial-1-unrelated-15", "trial_type": "html-keyboard-response", "trial_index": 180, "time_elapsed": 380659, "internal_node_id": "0.0-6.0-85.0"}}, {"uniqueid": "w27178158:a99734111", "current_trial": 181, "dateTime": 1664563282569, "trialdata": {"rt": 665, "stimulus": "<p id='stroop-text' class='stroop-blue'>GREEN</p>", "response": "b", "stimulus-type": "incongruent", "word": "green", "color": "blue", "correct_response": "b", "trial_id": "stroop-trial-1-incongruent-24", "trial_type": "html-keyboard-response", "trial_index": 181, "time_elapsed": 381834, "internal_node_id": "0.0-6.0-86.0"}}, {"uniqueid": "w27178158:a99734111", "current_trial": 182, "dateTime": 1664563283548, "trialdata": {"rt": 472, "stimulus": "<p id='stroop-text' class='stroop-yellow'>RED</p>", "response": "y", "stimulus-type": "incongruent", "word": "red", "color": "yellow", "correct_response": "y", "trial_id": "stroop-trial-1-incongruent-30", "trial_type": "html-keyboard-response", "trial_index": 182, "time_elapsed": 382812, "internal_node_id": "0.0-6.0-87.0"}}, {"uniqueid": "w27178158:a99734111", "current_trial": 183, "dateTime": 1664563284701, "trialdata": {"rt": 645, "stimulus": "<p id='stroop-text' class='stroop-green'>GREEN</p>", "response": "g", "stimulus-type": "congruent", "word": "green", "color": "green", "correct_response": "g", "trial_id": "stroop-trial-1-congruent-21", "trial_type": "html-keyboard-response", "trial_index": 183, "time_elapsed": 383965, "internal_node_id": "0.0-6.0-88.0"}}, {"uniqueid": "w27178158:a99734111", "current_trial": 184, "dateTime": 1664563285781, "trialdata": {"rt": 572, "stimulus": "<p id='stroop-text' class='stroop-red'>YELLOW</p>", "response": "r", "stimulus-type": "incongruent", "word": "yellow", "color": "red", "correct_response": "r", "trial_id": "stroop-trial-1-incongruent-27", "trial_type": "html-keyboard-response", "trial_index": 184, "time_elapsed": 385045, "internal_node_id": "0.0-6.0-89.0"}}, {"uniqueid": "w27178158:a99734111", "current_trial": 185, "dateTime": 1664563362485, "trialdata": {"rt": 76195, "stimulus": "  <h1> End of block! </h1>\n\n  You have reached the end of the block 2/5. If you need a short break, feel free to take one now before moving on.\n\n  <br><br>\n  In the next block, you will complete another 90 rounds of this game.\n\n  <br><br>\n  <div style='text-align: center;'>Press <code>space</code> to begin.</div>\n  <br><br>\n<div style='text-align: center;'>(If the experiment doesn't continue, try clicking on the text and then pressing <code>space</code>.)</div>", "response": " ", "trial_id": "stroop_1_ready_3", "trial_type": "html-keyboard-response", "trial_index": 185, "time_elapsed": 461750, "internal_node_id": "0.0-7.0"}}, {"uniqueid": "w27178158:a99734111", "current_trial": 186, "dateTime": 1664563363071, "trialdata": {"rt": 576, "stimulus": "<p id='stroop-text' class='stroop-red'>BLUE</p>", "response": "r", "stimulus-type": "incongruent", "word": "blue", "color": "red", "correct_response": "r", "trial_id": "stroop-trial-1-incongruent-22", "trial_type": "html-keyboard-response", "trial_index": 186, "time_elapsed": 462336, "internal_node_id": "0.0-8.0-0.0"}}, {"uniqueid": "w27178158:a99734111", "current_trial": 187, "dateTime": 1664563363996, "trialdata": {"rt": 417, "stimulus": "<p id='stroop-text' class='stroop-blue'>BLUE</p>", "response": "b", "stimulus-type": "congruent", "word": "blue", "color": "blue", "correct_response": "b", "trial_id": "stroop-trial-1-congruent-14", "trial_type": "html-keyboard-response", "trial_index": 187, "time_elapsed": 463260, "internal_node_id": "0.0-8.0-1.0"}}, {"uniqueid": "w27178158:a99734111", "current_trial": 188, "dateTime": 1664563365362, "trialdata": {"rt": 855, "stimulus": "<p id='stroop-text' class='stroop-blue'>GREEN</p>", "response": "b", "stimulus-type": "incongruent", "word": "green", "color": "blue", "correct_response": "b", "trial_id": "stroop-trial-1-incongruent-29", "trial_type": "html-keyboard-response", "trial_index": 188, "time_elapsed": 464626, "internal_node_id": "0.0-8.0-2.0"}}, {"uniqueid": "w27178158:a99734111", "current_trial": 189, "dateTime": 1664563366485, "trialdata": {"rt": 619, "stimulus": "<p id='stroop-text' class='stroop-yellow'>GREEN</p>", "response": "y", "stimulus-type": "incongruent", "word": "green", "color": "yellow", "correct_response": "y", "trial_id": "stroop-trial-1-incongruent-13", "trial_type": "html-keyboard-response", "trial_index": 189, "time_elapsed": 465749, "internal_node_id": "0.0-8.0-3.0"}}, {"uniqueid": "w27178158:a99734111", "current_trial": 190, "dateTime": 1664563367525, "trialdata": {"rt": 532, "stimulus": "<p id='stroop-text' class='stroop-red'>RED</p>", "response": "r", "stimulus-type": "congruent", "word": "red", "color": "red", "correct_response": "r", "trial_id": "stroop-trial-1-congruent-28", "trial_type": "html-keyboard-response", "trial_index": 190, "time_elapsed": 466789, "internal_node_id": "0.0-8.0-4.0"}}, {"uniqueid": "w27178158:a99734111", "current_trial": 191, "dateTime": 1664563368655, "trialdata": {"rt": 622, "stimulus": "<p id='stroop-text' class='stroop-yellow'>BOAT</p>", "response": "y", "stimulus-type": "unrelated", "word": "BOAT", "color": "yellow", "correct_response": "y", "trial_id": "stroop-trial-1-unrelated-9", "trial_type": "html-keyboard-response", "trial_index": 191, "time_elapsed": 467920, "internal_node_id": "0.0-8.0-5.0"}}, {"uniqueid": "w27178158:a99734111", "current_trial": 192, "dateTime": 1664563369777, "trialdata": {"rt": 606, "stimulus": "<p id='stroop-text' class='stroop-blue'>FORK</p>", "response": "b", "stimulus-type": "unrelated", "word": "FORK", "color": "blue", "correct_response": "b", "trial_id": "stroop-trial-1-unrelated-16", "trial_type": "html-keyboard-response", "trial_index": 192, "time_elapsed": 469042, "internal_node_id": "0.0-8.0-6.0"}}, {"uniqueid": "w27178158:a99734111", "current_trial": 193, "dateTime": 1664563370862, "trialdata": {"rt": 576, "stimulus": "<p id='stroop-text' class='stroop-green'>BOAT</p>", "response": "g", "stimulus-type": "unrelated", "word": "BOAT", "color": "green", "correct_response": "g", "trial_id": "stroop-trial-1-unrelated-4", "trial_type": "html-keyboard-response", "trial_index": 193, "time_elapsed": 470126, "internal_node_id": "0.0-8.0-7.0"}}, {"uniqueid": "w27178158:a99734111", "current_trial": 194, "dateTime": 1664563371947, "trialdata": {"rt": 575, "stimulus": "<p id='stroop-text' class='stroop-red'>MONKEY</p>", "response": "r", "stimulus-type": "unrelated", "word": "MONKEY", "color": "red", "correct_response": "r", "trial_id": "stroop-trial-1-unrelated-21", "trial_type": "html-keyboard-response", "trial_index": 194, "time_elapsed": 471211, "internal_node_id": "0.0-8.0-8.0"}}, {"uniqueid": "w27178158:a99734111", "current_trial": 195, "dateTime": 1664563372940, "trialdata": {"rt": 483, "stimulus": "<p id='stroop-text' class='stroop-blue'>BLUE</p>", "response": "b", "stimulus-type": "congruent", "word": "blue", "color": "blue", "correct_response": "b", "trial_id": "stroop-trial-1-congruent-13", "trial_type": "html-keyboard-response", "trial_index": 195, "time_elapsed": 472204, "internal_node_id": "0.0-8.0-9.0"}}, {"uniqueid": "w27178158:a99734111", "current_trial": 196, "dateTime": 1664563374276, "trialdata": {"rt": 829, "stimulus": "<p id='stroop-text' class='stroop-yellow'>SHIP</p>", "response": "y", "stimulus-type": "unrelated", "word": "SHIP", "color": "yellow", "correct_response": "y", "trial_id": "stroop-trial-1-unrelated-22", "trial_type": "html-keyboard-response", "trial_index": 196, "time_elapsed": 473541, "internal_node_id": "0.0-8.0-10.0"}}, {"uniqueid": "w27178158:a99734111", "current_trial": 197, "dateTime": 1664563375334, "trialdata": {"rt": 550, "stimulus": "<p id='stroop-text' class='stroop-green'>GREEN</p>", "response": "g", "stimulus-type": "congruent", "word": "green", "color": "green", "correct_response": "g", "trial_id": "stroop-trial-1-congruent-8", "trial_type": "html-keyboard-response", "trial_index": 197, "time_elapsed": 474598, "internal_node_id": "0.0-8.0-11.0"}}, {"uniqueid": "w27178158:a99734111", "current_trial": 198, "dateTime": 1664563376271, "trialdata": {"rt": 427, "stimulus": "<p id='stroop-text' class='stroop-green'>GREEN</p>", "response": "g", "stimulus-type": "congruent", "word": "green", "color": "green", "correct_response": "g", "trial_id": "stroop-trial-1-congruent-18", "trial_type": "html-keyboard-response", "trial_index": 198, "time_elapsed": 475535, "internal_node_id": "0.0-8.0-12.0"}}, {"uniqueid": "w27178158:a99734111", "current_trial": 199, "dateTime": 1664563377321, "trialdata": {"rt": 542, "stimulus": "<p id='stroop-text' class='stroop-yellow'>BOTTLE</p>", "response": "y", "stimulus-type": "unrelated", "word": "BOTTLE", "color": "yellow", "correct_response": "y", "trial_id": "stroop-trial-1-unrelated-26", "trial_type": "html-keyboard-response", "trial_index": 199, "time_elapsed": 476586, "internal_node_id": "0.0-8.0-13.0"}}, {"uniqueid": "w27178158:a99734111", "current_trial": 200, "dateTime": 1664563378544, "trialdata": {"rt": 715, "stimulus": "<p id='stroop-text' class='stroop-green'>YELLOW</p>", "response": "g", "stimulus-type": "incongruent", "word": "yellow", "color": "green", "correct_response": "g", "trial_id": "stroop-trial-1-incongruent-14", "trial_type": "html-keyboard-response", "trial_index": 200, "time_elapsed": 477809, "internal_node_id": "0.0-8.0-14.0"}}, {"uniqueid": "w27178158:a99734111", "current_trial": 201, "dateTime": 1664563379578, "trialdata": {"rt": 521, "stimulus": "<p id='stroop-text' class='stroop-green'>RED</p>", "response": "g", "stimulus-type": "incongruent", "word": "red", "color": "green", "correct_response": "g", "trial_id": "stroop-trial-1-incongruent-16", "trial_type": "html-keyboard-response", "trial_index": 201, "time_elapsed": 478842, "internal_node_id": "0.0-8.0-15.0"}}, {"uniqueid": "w27178158:a99734111", "current_trial": 202, "dateTime": 1664563380686, "trialdata": {"rt": 599, "stimulus": "<p id='stroop-text' class='stroop-blue'>DOG</p>", "response": "b", "stimulus-type": "unrelated", "word": "DOG", "color": "blue", "correct_response": "b", "trial_id": "stroop-trial-1-unrelated-30", "trial_type": "html-keyboard-response", "trial_index": 202, "time_elapsed": 479949, "internal_node_id": "0.0-8.0-16.0"}}, {"uniqueid": "w27178158:a99734111", "current_trial": 203, "dateTime": 1664563381782, "trialdata": {"rt": 587, "stimulus": "<p id='stroop-text' class='stroop-yellow'>YELLOW</p>", "response": "y", "stimulus-type": "congruent", "word": "yellow", "color": "yellow", "correct_response": "y", "trial_id": "stroop-trial-1-congruent-10", "trial_type": "html-keyboard-response", "trial_index": 203, "time_elapsed": 481046, "internal_node_id": "0.0-8.0-17.0"}}, {"uniqueid": "w27178158:a99734111", "current_trial": 204, "dateTime": 1664563383009, "trialdata": {"rt": 718, "stimulus": "<p id='stroop-text' class='stroop-blue'>BOTTLE</p>", "response": "b", "stimulus-type": "unrelated", "word": "BOTTLE", "color": "blue", "correct_response": "b", "trial_id": "stroop-trial-1-unrelated-17", "trial_type": "html-keyboard-response", "trial_index": 204, "time_elapsed": 482274, "internal_node_id": "0.0-8.0-18.0"}}, {"uniqueid": "w27178158:a99734111", "current_trial": 205, "dateTime": 1664563384110, "trialdata": {"rt": 593, "stimulus": "<p id='stroop-text' class='stroop-red'>BRIDGE</p>", "response": "r", "stimulus-type": "unrelated", "word": "BRIDGE", "color": "red", "correct_response": "r", "trial_id": "stroop-trial-1-unrelated-25", "trial_type": "html-keyboard-response", "trial_index": 205, "time_elapsed": 483375, "internal_node_id": "0.0-8.0-19.0"}}, {"uniqueid": "w27178158:a99734111", "current_trial": 206, "dateTime": 1664563385369, "trialdata": {"rt": 748, "stimulus": "<p id='stroop-text' class='stroop-red'>GREEN</p>", "response": "r", "stimulus-type": "incongruent", "word": "green", "color": "red", "correct_response": "r", "trial_id": "stroop-trial-1-incongruent-21", "trial_type": "html-keyboard-response", "trial_index": 206, "time_elapsed": 484632, "internal_node_id": "0.0-8.0-20.0"}}, {"uniqueid": "w27178158:a99734111", "current_trial": 207, "dateTime": 1664563387050, "trialdata": {"rt": 1172, "stimulus": "<p id='stroop-text' class='stroop-blue'>YELLOW</p>", "response": "b", "stimulus-type": "incongruent", "word": "yellow", "color": "blue", "correct_response": "b", "trial_id": "stroop-trial-1-incongruent-7", "trial_type": "html-keyboard-response", "trial_index": 207, "time_elapsed": 486314, "internal_node_id": "0.0-8.0-21.0"}}, {"uniqueid": "w27178158:a99734111", "current_trial": 208, "dateTime": 1664563388907, "trialdata": {"rt": 1344, "stimulus": "<p id='stroop-text' class='stroop-blue'>DOG</p>", "response": "b", "stimulus-type": "unrelated", "word": "DOG", "color": "blue", "correct_response": "b", "trial_id": "stroop-trial-1-unrelated-28", "trial_type": "html-keyboard-response", "trial_index": 208, "time_elapsed": 488171, "internal_node_id": "0.0-8.0-22.0"}}, {"uniqueid": "w27178158:a99734111", "current_trial": 209, "dateTime": 1664563391395, "trialdata": {"rt": 1981, "stimulus": "<p id='stroop-text' class='stroop-yellow'>BRIDGE</p>", "response": "y", "stimulus-type": "unrelated", "word": "BRIDGE", "color": "yellow", "correct_response": "y", "trial_id": "stroop-trial-1-unrelated-8", "trial_type": "html-keyboard-response", "trial_index": 209, "time_elapsed": 490660, "internal_node_id": "0.0-8.0-23.0"}}, {"uniqueid": "w27178158:a99734111", "current_trial": 210, "dateTime": 1664563392563, "trialdata": {"rt": 660, "stimulus": "<p id='stroop-text' class='stroop-red'>BOTTLE</p>", "response": "r", "stimulus-type": "unrelated", "word": "BOTTLE", "color": "red", "correct_response": "r", "trial_id": "stroop-trial-1-unrelated-11", "trial_type": "html-keyboard-response", "trial_index": 210, "time_elapsed": 491828, "internal_node_id": "0.0-8.0-24.0"}}, {"uniqueid": "w27178158:a99734111", "current_trial": 211, "dateTime": 1664563395428, "trialdata": {"rt": 2350, "stimulus": "<p id='stroop-text' class='stroop-green'>CHAIR</p>", "response": "g", "stimulus-type": "unrelated", "word": "CHAIR", "color": "green", "correct_response": "g", "trial_id": "stroop-trial-1-unrelated-20", "trial_type": "html-keyboard-response", "trial_index": 211, "time_elapsed": 494692, "internal_node_id": "0.0-8.0-25.0"}}, {"uniqueid": "w27178158:a99734111", "current_trial": 212, "dateTime": 1664563396371, "trialdata": {"rt": 431, "stimulus": "<p id='stroop-text' class='stroop-red'>RED</p>", "response": "r", "stimulus-type": "congruent", "word": "red", "color": "red", "correct_response": "r", "trial_id": "stroop-trial-1-congruent-22", "trial_type": "html-keyboard-response", "trial_index": 212, "time_elapsed": 495636, "internal_node_id": "0.0-8.0-26.0"}}, {"uniqueid": "w27178158:a99734111", "current_trial": 213, "dateTime": 1664563397645, "trialdata": {"rt": 767, "stimulus": "<p id='stroop-text' class='stroop-red'>BLUE</p>", "response": "r", "stimulus-type": "incongruent", "word": "blue", "color": "red", "correct_response": "r", "trial_id": "stroop-trial-1-incongruent-17", "trial_type": "html-keyboard-response", "trial_index": 213, "time_elapsed": 496910, "internal_node_id": "0.0-8.0-27.0"}}, {"uniqueid": "w27178158:a99734111", "current_trial": 214, "dateTime": 1664563398923, "trialdata": {"rt": 765, "stimulus": "<p id='stroop-text' class='stroop-green'>BOTTLE</p>", "response": "g", "stimulus-type": "unrelated", "word": "BOTTLE", "color": "green", "correct_response": "g", "trial_id": "stroop-trial-1-unrelated-10", "trial_type": "html-keyboard-response", "trial_index": 214, "time_elapsed": 498187, "internal_node_id": "0.0-8.0-28.0"}}, {"uniqueid": "w27178158:a99734111", "current_trial": 215, "dateTime": 1664563399886, "trialdata": {"rt": 454, "stimulus": "<p id='stroop-text' class='stroop-red'>GREEN</p>", "response": "r", "stimulus-type": "incongruent", "word": "green", "color": "red", "correct_response": "r", "trial_id": "stroop-trial-1-incongruent-27", "trial_type": "html-keyboard-response", "trial_index": 215, "time_elapsed": 499150, "internal_node_id": "0.0-8.0-29.0"}}, {"uniqueid": "w27178158:a99734111", "current_trial": 216, "dateTime": 1664563400846, "trialdata": {"rt": 450, "stimulus": "<p id='stroop-text' class='stroop-red'>RED</p>", "response": "r", "stimulus-type": "congruent", "word": "red", "color": "red", "correct_response": "r", "trial_id": "stroop-trial-1-congruent-26", "trial_type": "html-keyboard-response", "trial_index": 216, "time_elapsed": 500110, "internal_node_id": "0.0-8.0-30.0"}}, {"uniqueid": "w27178158:a99734111", "current_trial": 217, "dateTime": 1664563401819, "trialdata": {"rt": 462, "stimulus": "<p id='stroop-text' class='stroop-red'>GREEN</p>", "response": "r", "stimulus-type": "incongruent", "word": "green", "color": "red", "correct_response": "r", "trial_id": "stroop-trial-1-incongruent-1", "trial_type": "html-keyboard-response", "trial_index": 217, "time_elapsed": 501082, "internal_node_id": "0.0-8.0-31.0"}}, {"uniqueid": "w27178158:a99734111", "current_trial": 218, "dateTime": 1664563402875, "trialdata": {"rt": 547, "stimulus": "<p id='stroop-text' class='stroop-blue'>BRAIN</p>", "response": "b", "stimulus-type": "unrelated", "word": "BRAIN", "color": "blue", "correct_response": "b", "trial_id": "stroop-trial-1-unrelated-13", "trial_type": "html-keyboard-response", "trial_index": 218, "time_elapsed": 502140, "internal_node_id": "0.0-8.0-32.0"}}, {"uniqueid": "w27178158:a99734111", "current_trial": 219, "dateTime": 1664563403975, "trialdata": {"rt": 590, "stimulus": "<p id='stroop-text' class='stroop-red'>STONE</p>", "response": "r", "stimulus-type": "unrelated", "word": "STONE", "color": "red", "correct_response": "r", "trial_id": "stroop-trial-1-unrelated-12", "trial_type": "html-keyboard-response", "trial_index": 219, "time_elapsed": 503239, "internal_node_id": "0.0-8.0-33.0"}}, {"uniqueid": "w27178158:a99734111", "current_trial": 220, "dateTime": 1664563405077, "trialdata": {"rt": 589, "stimulus": "<p id='stroop-text' class='stroop-yellow'>BLUE</p>", "response": "y", "stimulus-type": "incongruent", "word": "blue", "color": "yellow", "correct_response": "y", "trial_id": "stroop-trial-1-incongruent-12", "trial_type": "html-keyboard-response", "trial_index": 220, "time_elapsed": 504341, "internal_node_id": "0.0-8.0-34.0"}}, {"uniqueid": "w27178158:a99734111", "current_trial": 221, "dateTime": 1664563406586, "trialdata": {"rt": 1000, "stimulus": "<p id='stroop-text' class='stroop-yellow'>YELLOW</p>", "response": "y", "stimulus-type": "congruent", "word": "yellow", "color": "yellow", "correct_response": "y", "trial_id": "stroop-trial-1-congruent-1", "trial_type": "html-keyboard-response", "trial_index": 221, "time_elapsed": 505850, "internal_node_id": "0.0-8.0-35.0"}}, {"uniqueid": "w27178158:a99734111", "current_trial": 222, "dateTime": 1664563407751, "trialdata": {"rt": 656, "stimulus": "<p id='stroop-text' class='stroop-green'>BLUE</p>", "response": "g", "stimulus-type": "incongruent", "word": "blue", "color": "green", "correct_response": "g", "trial_id": "stroop-trial-1-incongruent-5", "trial_type": "html-keyboard-response", "trial_index": 222, "time_elapsed": 507015, "internal_node_id": "0.0-8.0-3