{"condition": 0, "counterbalance": 0, "assignmentId": "a86575817", "workerId": "w64010420", "hitId": "h96545563", "currenttrial": 959, "bonus": 0, "data": [{"uniqueid": "w64010420:a86575817", "current_trial": 0, "dateTime": 1664463904254, "trialdata": {"success": true, "trial_type": "fullscreen", "trial_index": 0, "time_elapsed": 2426, "internal_node_id": "0.0-0.0"}}, {"uniqueid": "w64010420:a86575817", "current_trial": 1, "dateTime": 1664463918884, "trialdata": {"view_history": [{"page_index": 0, "viewing_time": 14627}], "rt": 14628, "trial_id": "exp_instructions_distractor", "trial_type": "instructions", "trial_index": 1, "time_elapsed": 17056, "internal_node_id": "0.0-1.0"}}, {"uniqueid": "w64010420:a86575817", "current_trial": 2, "dateTime": 1664463934000, "trialdata": {"view_history": [{"page_index": 0, "viewing_time": 15115}], "rt": 15115, "trial_id": "color_game_instructions", "trial_type": "instructions", "trial_index": 2, "time_elapsed": 32172, "internal_node_id": "0.0-2.0"}}, {"uniqueid": "w64010420:a86575817", "current_trial": 3, "dateTime": 1664463936880, "trialdata": {"rt": 2879, "stimulus": "<h1> Get ready to start the game! </h1>\n\nThank you for reading the instructions. Get ready start with the first of 5 block(s) of this game.\n<br><br>\nIn this first block, you will complete 90 rounds of this game before moving on.\n<br><br>\nRemember, the better you perform, the bigger your bonus will be!\n<br><br>\n<div style='text-align: center;'>Press <code>space</code> to begin.</div>", "response": " ", "trial_id": "stroop_1_ready_1", "trial_type": "html-keyboard-response", "trial_index": 3, "time_elapsed": 35052, "internal_node_id": "0.0-3.0"}}, {"uniqueid": "w64010420:a86575817", "current_trial": 4, "dateTime": 1664463938329, "trialdata": {"rt": 1445, "stimulus": "<p id='stroop-text' class='stroop-blue'>BLUE</p>", "response": "b", "stimulus-type": "congruent", "word": "blue", "color": "blue", "correct_response": "b", "trial_id": "stroop-trial-1-congruent-6", "trial_type": "html-keyboard-response", "trial_index": 4, "time_elapsed": 36501, "internal_node_id": "0.0-4.0-0.0"}}, {"uniqueid": "w64010420:a86575817", "current_trial": 5, "dateTime": 1664463939738, "trialdata": {"rt": 907, "stimulus": "<p id='stroop-text' class='stroop-red'>GREEN</p>", "response": "r", "stimulus-type": "incongruent", "word": "green", "color": "red", "correct_response": "r", "trial_id": "stroop-trial-1-incongruent-27", "trial_type": "html-keyboard-response", "trial_index": 5, "time_elapsed": 37910, "internal_node_id": "0.0-4.0-1.0"}}, {"uniqueid": "w64010420:a86575817", "current_trial": 6, "dateTime": 1664463941067, "trialdata": {"rt": 827, "stimulus": "<p id='stroop-text' class='stroop-yellow'>BOAT</p>", "response": "y", "stimulus-type": "unrelated", "word": "BOAT", "color": "yellow", "correct_response": "y", "trial_id": "stroop-trial-1-unrelated-19", "trial_type": "html-keyboard-response", "trial_index": 6, "time_elapsed": 39239, "internal_node_id": "0.0-4.0-2.0"}}, {"uniqueid": "w64010420:a86575817", "current_trial": 7, "dateTime": 1664463942385, "trialdata": {"rt": 817, "stimulus": "<p id='stroop-text' class='stroop-red'>RED</p>", "response": "r", "stimulus-type": "congruent", "word": "red", "color": "red", "correct_response": "r", "trial_id": "stroop-trial-1-congruent-3", "trial_type": "html-keyboard-response", "trial_index": 7, "time_elapsed": 40557, "internal_node_id": "0.0-4.0-3.0"}}, {"uniqueid": "w64010420:a86575817", "current_trial": 8, "dateTime": 1664463943452, "trialdata": {"rt": 565, "stimulus": "<p id='stroop-text' class='stroop-yellow'>DOG</p>", "response": "y", "stimulus-type": "unrelated", "word": "DOG", "color": "yellow", "correct_response": "y", "trial_id": "stroop-trial-1-unrelated-5", "trial_type": "html-keyboard-response", "trial_index": 8, "time_elapsed": 41624, "internal_node_id": "0.0-4.0-4.0"}}, {"uniqueid": "w64010420:a86575817", "current_trial": 9, "dateTime": 1664463944696, "trialdata": {"rt": 742, "stimulus": "<p id='stroop-text' class='stroop-red'>YELLOW</p>", "response": "r", "stimulus-type": "incongruent", "word": "yellow", "color": "red", "correct_response": "r", "trial_id": "stroop-trial-1-incongruent-9", "trial_type": "html-keyboard-response", "trial_index": 9, "time_elapsed": 42868, "internal_node_id": "0.0-4.0-5.0"}}, {"uniqueid": "w64010420:a86575817", "current_trial": 10, "dateTime": 1664463945745, "trialdata": {"rt": 547, "stimulus": "<p id='stroop-text' class='stroop-red'>RED</p>", "response": "r", "stimulus-type": "congruent", "word": "red", "color": "red", "correct_response": "r", "trial_id": "stroop-trial-1-congruent-17", "trial_type": "html-keyboard-response", "trial_index": 10, "time_elapsed": 43917, "internal_node_id": "0.0-4.0-6.0"}}, {"uniqueid": "w64010420:a86575817", "current_trial": 11, "dateTime": 1664463946635, "trialdata": {"rt": 388, "stimulus": "<p id='stroop-text' class='stroop-red'>GREEN</p>", "response": "r", "stimulus-type": "incongruent", "word": "green", "color": "red", "correct_response": "r", "trial_id": "stroop-trial-1-incongruent-7", "trial_type": "html-keyboard-response", "trial_index": 11, "time_elapsed": 44807, "internal_node_id": "0.0-4.0-7.0"}}, {"uniqueid": "w64010420:a86575817", "current_trial": 12, "dateTime": 1664463948325, "trialdata": {"rt": 1187, "stimulus": "<p id='stroop-text' class='stroop-green'>BOAT</p>", "response": "g", "stimulus-type": "unrelated", "word": "BOAT", "color": "green", "correct_response": "g", "trial_id": "stroop-trial-1-unrelated-29", "trial_type": "html-keyboard-response", "trial_index": 12, "time_elapsed": 46496, "internal_node_id": "0.0-4.0-8.0"}}, {"uniqueid": "w64010420:a86575817", "current_trial": 13, "dateTime": 1664463949539, "trialdata": {"rt": 712, "stimulus": "<p id='stroop-text' class='stroop-blue'>GREEN</p>", "response": "b", "stimulus-type": "incongruent", "word": "green", "color": "blue", "correct_response": "b", "trial_id": "stroop-trial-1-incongruent-28", "trial_type": "html-keyboard-response", "trial_index": 13, "time_elapsed": 47711, "internal_node_id": "0.0-4.0-9.0"}}, {"uniqueid": "w64010420:a86575817", "current_trial": 14, "dateTime": 1664463950640, "trialdata": {"rt": 600, "stimulus": "<p id='stroop-text' class='stroop-red'>CHAIR</p>", "response": "r", "stimulus-type": "unrelated", "word": "CHAIR", "color": "red", "correct_response": "r", "trial_id": "stroop-trial-1-unrelated-6", "trial_type": "html-keyboard-response", "trial_index": 14, "time_elapsed": 48812, "internal_node_id": "0.0-4.0-10.0"}}, {"uniqueid": "w64010420:a86575817", "current_trial": 15, "dateTime": 1664463951861, "trialdata": {"rt": 720, "stimulus": "<p id='stroop-text' class='stroop-yellow'>MONKEY</p>", "response": "y", "stimulus-type": "unrelated", "word": "MONKEY", "color": "yellow", "correct_response": "y", "trial_id": "stroop-trial-1-unrelated-24", "trial_type": "html-keyboard-response", "trial_index": 15, "time_elapsed": 50033, "internal_node_id": "0.0-4.0-11.0"}}, {"uniqueid": "w64010420:a86575817", "current_trial": 16, "dateTime": 1664463953926, "trialdata": {"rt": 1563, "stimulus": "<p id='stroop-text' class='stroop-green'>YELLOW</p>", "response": "g", "stimulus-type": "incongruent", "word": "yellow", "color": "green", "correct_response": "g", "trial_id": "stroop-trial-1-incongruent-15", "trial_type": "html-keyboard-response", "trial_index": 16, "time_elapsed": 52098, "internal_node_id": "0.0-4.0-12.0"}}, {"uniqueid": "w64010420:a86575817", "current_trial": 17, "dateTime": 1664463955300, "trialdata": {"rt": 873, "stimulus": "<p id='stroop-text' class='stroop-red'>FORK</p>", "response": "r", "stimulus-type": "unrelated", "word": "FORK", "color": "red", "correct_response": "r", "trial_id": "stroop-trial-1-unrelated-2", "trial_type": "html-keyboard-response", "trial_index": 17, "time_elapsed": 53472, "internal_node_id": "0.0-4.0-13.0"}}, {"uniqueid": "w64010420:a86575817", "current_trial": 18, "dateTime": 1664463956310, "trialdata": {"rt": 509, "stimulus": "<p id='stroop-text' class='stroop-red'>RED</p>", "response": "r", "stimulus-type": "congruent", "word": "red", "color": "red", "correct_response": "r", "trial_id": "stroop-trial-1-congruent-12", "trial_type": "html-keyboard-response", "trial_index": 18, "time_elapsed": 54482, "internal_node_id": "0.0-4.0-14.0"}}, {"uniqueid": "w64010420:a86575817", "current_trial": 19, "dateTime": 1664463957183, "trialdata": {"rt": 372, "stimulus": "<p id='stroop-text' class='stroop-red'>BLUE</p>", "response": "r", "stimulus-type": "incongruent", "word": "blue", "color": "red", "correct_response": "r", "trial_id": "stroop-trial-1-incongruent-17", "trial_type": "html-keyboard-response", "trial_index": 19, "time_elapsed": 55355, "internal_node_id": "0.0-4.0-15.0"}}, {"uniqueid": "w64010420:a86575817", "current_trial": 20, "dateTime": 1664463958278, "trialdata": {"rt": 594, "stimulus": "<p id='stroop-text' class='stroop-yellow'>BRAIN</p>", "response": "y", "stimulus-type": "unrelated", "word": "BRAIN", "color": "yellow", "correct_response": "y", "trial_id": "stroop-trial-1-unrelated-3", "trial_type": "html-keyboard-response", "trial_index": 20, "time_elapsed": 56450, "internal_node_id": "0.0-4.0-16.0"}}, {"uniqueid": "w64010420:a86575817", "current_trial": 21, "dateTime": 1664463959618, "trialdata": {"rt": 833, "stimulus": "<p id='stroop-text' class='stroop-blue'>BLUE</p>", "response": "b", "stimulus-type": "congruent", "word": "blue", "color": "blue", "correct_response": "b", "trial_id": "stroop-trial-1-congruent-14", "trial_type": "html-keyboard-response", "trial_index": 21, "time_elapsed": 57790, "internal_node_id": "0.0-4.0-17.0"}}, {"uniqueid": "w64010420:a86575817", "current_trial": 22, "dateTime": 1664463960919, "trialdata": {"rt": 799, "stimulus": "<p id='stroop-text' class='stroop-yellow'>STONE</p>", "response": "y", "stimulus-type": "unrelated", "word": "STONE", "color": "yellow", "correct_response": "y", "trial_id": "stroop-trial-1-unrelated-28", "trial_type": "html-keyboard-response", "trial_index": 22, "time_elapsed": 59091, "internal_node_id": "0.0-4.0-18.0"}}, {"uniqueid": "w64010420:a86575817", "current_trial": 23, "dateTime": 1664463961934, "trialdata": {"rt": 514, "stimulus": "<p id='stroop-text' class='stroop-red'>DOG</p>", "response": "r", "stimulus-type": "unrelated", "word": "DOG", "color": "red", "correct_response": "r", "trial_id": "stroop-trial-1-unrelated-17", "trial_type": "html-keyboard-response", "trial_index": 23, "time_elapsed": 60106, "internal_node_id": "0.0-4.0-19.0"}}, {"uniqueid": "w64010420:a86575817", "current_trial": 24, "dateTime": 1664463962921, "trialdata": {"rt": 485, "stimulus": "<p id='stroop-text' class='stroop-red'>RED</p>", "response": "r", "stimulus-type": "congruent", "word": "red", "color": "red", "correct_response": "r", "trial_id": "stroop-trial-1-congruent-13", "trial_type": "html-keyboard-response", "trial_index": 24, "time_elapsed": 61093, "internal_node_id": "0.0-4.0-20.0"}}, {"uniqueid": "w64010420:a86575817", "current_trial": 25, "dateTime": 1664463964341, "trialdata": {"rt": 919, "stimulus": "<p id='stroop-text' class='stroop-green'>WINDOW</p>", "response": "g", "stimulus-type": "unrelated", "word": "WINDOW", "color": "green", "correct_response": "g", "trial_id": "stroop-trial-1-unrelated-12", "trial_type": "html-keyboard-response", "trial_index": 25, "time_elapsed": 62513, "internal_node_id": "0.0-4.0-21.0"}}, {"uniqueid": "w64010420:a86575817", "current_trial": 26, "dateTime": 1664463965477, "trialdata": {"rt": 635, "stimulus": "<p id='stroop-text' class='stroop-red'>RED</p>", "response": "r", "stimulus-type": "congruent", "word": "red", "color": "red", "correct_response": "r", "trial_id": "stroop-trial-1-congruent-11", "trial_type": "html-keyboard-response", "trial_index": 26, "time_elapsed": 63649, "internal_node_id": "0.0-4.0-22.0"}}, {"uniqueid": "w64010420:a86575817", "current_trial": 27, "dateTime": 1664463966315, "trialdata": {"rt": 337, "stimulus": "<p id='stroop-text' class='stroop-green'>CHAIR</p>", "response": "g", "stimulus-type": "unrelated", "word": "CHAIR", "color": "green", "correct_response": "g", "trial_id": "stroop-trial-1-unrelated-1", "trial_type": "html-keyboard-response", "trial_index": 27, "time_elapsed": 64487, "internal_node_id": "0.0-4.0-23.0"}}, {"uniqueid": "w64010420:a86575817", "current_trial": 28, "dateTime": 1664463967148, "trialdata": {"rt": 331, "stimulus": "<p id='stroop-text' class='stroop-green'>RED</p>", "response": "r", "stimulus-type": "incongruent", "word": "red", "color": "green", "correct_response": "g", "trial_id": "stroop-trial-1-incongruent-19", "trial_type": "html-keyboard-response", "trial_index": 28, "time_elapsed": 65320, "internal_node_id": "0.0-4.0-24.0"}}, {"uniqueid": "w64010420:a86575817", "current_trial": 29, "dateTime": 1664463968311, "trialdata": {"rt": 662, "stimulus": "<p id='stroop-text' class='stroop-blue'>BLUE</p>", "response": "b", "stimulus-type": "congruent", "word": "blue", "color": "blue", "correct_response": "b", "trial_id": "stroop-trial-1-congruent-30", "trial_type": "html-keyboard-response", "trial_index": 29, "time_elapsed": 66483, "internal_node_id": "0.0-4.0-25.0"}}, {"uniqueid": "w64010420:a86575817", "current_trial": 30, "dateTime": 1664463969351, "trialdata": {"rt": 537, "stimulus": "<p id='stroop-text' class='stroop-red'>BRAIN</p>", "response": "r", "stimulus-type": "unrelated", "word": "BRAIN", "color": "red", "correct_response": "r", "trial_id": "stroop-trial-1-unrelated-22", "trial_type": "html-keyboard-response", "trial_index": 30, "time_elapsed": 67522, "internal_node_id": "0.0-4.0-26.0"}}, {"uniqueid": "w64010420:a86575817", "current_trial": 31, "dateTime": 1664463970336, "trialdata": {"rt": 484, "stimulus": "<p id='stroop-text' class='stroop-red'>GREEN</p>", "response": "r", "stimulus-type": "incongruent", "word": "green", "color": "red", "correct_response": "r", "trial_id": "stroop-trial-1-incongruent-12", "trial_type": "html-keyboard-response", "trial_index": 31, "time_elapsed": 68508, "internal_node_id": "0.0-4.0-27.0"}}, {"uniqueid": "w64010420:a86575817", "current_trial": 32, "dateTime": 1664463971540, "trialdata": {"rt": 703, "stimulus": "<p id='stroop-text' class='stroop-blue'>RED</p>", "response": "b", "stimulus-type": "incongruent", "word": "red", "color": "blue", "correct_response": "b", "trial_id": "stroop-trial-1-incongruent-3", "trial_type": "html-keyboard-response", "trial_index": 32, "time_elapsed": 69712, "internal_node_id": "0.0-4.0-28.0"}}, {"uniqueid": "w64010420:a86575817", "current_trial": 33, "dateTime": 1664463972390, "trialdata": {"rt": 347, "stimulus": "<p id='stroop-text' class='stroop-yellow'>YELLOW</p>", "response": "y", "stimulus-type": "congruent", "word": "yellow", "color": "yellow", "correct_response": "y", "trial_id": "stroop-trial-1-congruent-25", "trial_type": "html-keyboard-response", "trial_index": 33, "time_elapsed": 70562, "internal_node_id": "0.0-4.0-29.0"}}, {"uniqueid": "w64010420:a86575817", "current_trial": 34, "dateTime": 1664463973268, "trialdata": {"rt": 376, "stimulus": "<p id='stroop-text' class='stroop-red'>RED</p>", "response": "r", "stimulus-type": "congruent", "word": "red", "color": "red", "correct_response": "r", "trial_id": "stroop-trial-1-congruent-19", "trial_type": "html-keyboard-response", "trial_index": 34, "time_elapsed": 71440, "internal_node_id": "0.0-4.0-30.0"}}, {"uniqueid": "w64010420:a86575817", "current_trial": 35, "dateTime": 1664463974295, "trialdata": {"rt": 520, "stimulus": "<p id='stroop-text' class='stroop-blue'>BLUE</p>", "response": "b", "stimulus-type": "congruent", "word": "blue", "color": "blue", "correct_response": "b", "trial_id": "stroop-trial-1-congruent-15", "trial_type": "html-keyboard-response", "trial_index": 35, "time_elapsed": 72467, "internal_node_id": "0.0-4.0-31.0"}}, {"uniqueid": "w64010420:a86575817", "current_trial": 36, "dateTime": 1664463975356, "trialdata": {"rt": 560, "stimulus": "<p id='stroop-text' class='stroop-green'>BLUE</p>", "response": "g", "stimulus-type": "incongruent", "word": "blue", "color": "green", "correct_response": "g", "trial_id": "stroop-trial-1-incongruent-1", "trial_type": "html-keyboard-response", "trial_index": 36, "time_elapsed": 73528, "internal_node_id": "0.0-4.0-32.0"}}, {"uniqueid": "w64010420:a86575817", "current_trial": 37, "dateTime": 1664463976503, "trialdata": {"rt": 646, "stimulus": "<p id='stroop-text' class='stroop-blue'>BLUE</p>", "response": "b", "stimulus-type": "congruent", "word": "blue", "color": "blue", "correct_response": "b", "trial_id": "stroop-trial-1-congruent-24", "trial_type": "html-keyboard-response", "trial_index": 37, "time_elapsed": 74675, "internal_node_id": "0.0-4.0-33.0"}}, {"uniqueid": "w64010420:a86575817", "current_trial": 38, "dateTime": 1664463977546, "trialdata": {"rt": 540, "stimulus": "<p id='stroop-text' class='stroop-blue'>GREEN</p>", "response": "b", "stimulus-type": "incongruent", "word": "green", "color": "blue", "correct_response": "b", "trial_id": "stroop-trial-1-incongruent-22", "trial_type": "html-keyboard-response", "trial_index": 38, "time_elapsed": 75718, "internal_node_id": "0.0-4.0-34.0"}}, {"uniqueid": "w64010420:a86575817", "current_trial": 39, "dateTime": 1664463978624, "trialdata": {"rt": 576, "stimulus": "<p id='stroop-text' class='stroop-green'>GREEN</p>", "response": "g", "stimulus-type": "congruent", "word": "green", "color": "green", "correct_response": "g", "trial_id": "stroop-trial-1-congruent-27", "trial_type": "html-keyboard-response", "trial_index": 39, "time_elapsed": 76796, "internal_node_id": "0.0-4.0-35.0"}}, {"uniqueid": "w64010420:a86575817", "current_trial": 40, "dateTime": 1664463979822, "trialdata": {"rt": 695, "stimulus": "<p id='stroop-text' class='stroop-blue'>RED</p>", "response": "b", "stimulus-type": "incongruent", "word": "red", "color": "blue", "correct_response": "b", "trial_id": "stroop-trial-1-incongruent-11", "trial_type": "html-keyboard-response", "trial_index": 40, "time_elapsed": 77994, "internal_node_id": "0.0-4.0-36.0"}}, {"uniqueid": "w64010420:a86575817", "current_trial": 41, "dateTime": 1664463980798, "trialdata": {"rt": 475, "stimulus": "<p id='stroop-text' class='stroop-green'>BOTTLE</p>", "response": "g", "stimulus-type": "unrelated", "word": "BOTTLE", "color": "green", "correct_response": "g", "trial_id": "stroop-trial-1-unrelated-9", "trial_type": "html-keyboard-response", "trial_index": 41, "time_elapsed": 78970, "internal_node_id": "0.0-4.0-37.0"}}, {"uniqueid": "w64010420:a86575817", "current_trial": 42, "dateTime": 1664463981847, "trialdata": {"rt": 547, "stimulus": "<p id='stroop-text' class='stroop-blue'>BRIDGE</p>", "response": "b", "stimulus-type": "unrelated", "word": "BRIDGE", "color": "blue", "correct_response": "b", "trial_id": "stroop-trial-1-unrelated-10", "trial_type": "html-keyboard-response", "trial_index": 42, "time_elapsed": 80019, "internal_node_id": "0.0-4.0-38.0"}}, {"uniqueid": "w64010420:a86575817", "current_trial": 43, "dateTime": 1664463982760, "trialdata": {"rt": 412, "stimulus": "<p id='stroop-text' class='stroop-blue'>RED</p>", "response": "b", "stimulus-type": "incongruent", "word": "red", "color": "blue", "correct_response": "b", "trial_id": "stroop-trial-1-incongruent-8", "trial_type": "html-keyboard-response", "trial_index": 43, "time_elapsed": 80932, "internal_node_id": "0.0-4.0-39.0"}}, {"uniqueid": "w64010420:a86575817", "current_trial": 44, "dateTime": 1664463983787, "trialdata": {"rt": 525, "stimulus": "<p id='stroop-text' class='stroop-yellow'>STONE</p>", "response": "y", "stimulus-type": "unrelated", "word": "STONE", "color": "yellow", "correct_response": "y", "trial_id": "stroop-trial-1-unrelated-18", "trial_type": "html-keyboard-response", "trial_index": 44, "time_elapsed": 81959, "internal_node_id": "0.0-4.0-40.0"}}, {"uniqueid": "w64010420:a86575817", "current_trial": 45, "dateTime": 1664463984751, "trialdata": {"rt": 463, "stimulus": "<p id='stroop-text' class='stroop-red'>RED</p>", "response": "r", "stimulus-type": "congruent", "word": "red", "color": "red", "correct_response": "r", "trial_id": "stroop-trial-1-congruent-9", "trial_type": "html-keyboard-response", "trial_index": 45, "time_elapsed": 82923, "internal_node_id": "0.0-4.0-41.0"}}, {"uniqueid": "w64010420:a86575817", "current_trial": 46, "dateTime": 1664463985749, "trialdata": {"rt": 497, "stimulus": "<p id='stroop-text' class='stroop-blue'>DOG</p>", "response": "b", "stimulus-type": "unrelated", "word": "DOG", "color": "blue", "correct_response": "b", "trial_id": "stroop-trial-1-unrelated-7", "trial_type": "html-keyboard-response", "trial_index": 46, "time_elapsed": 83921, "internal_node_id": "0.0-4.0-42.0"}}, {"uniqueid": "w64010420:a86575817", "current_trial": 47, "dateTime": 1664463986570, "trialdata": {"rt": 319, "stimulus": "<p id='stroop-text' class='stroop-blue'>BLUE</p>", "response": "b", "stimulus-type": "congruent", "word": "blue", "color": "blue", "correct_response": "b", "trial_id": "stroop-trial-1-congruent-2", "trial_type": "html-keyboard-response", "trial_index": 47, "time_elapsed": 84742, "internal_node_id": "0.0-4.0-43.0"}}, {"uniqueid": "w64010420:a86575817", "current_trial": 48, "dateTime": 1664463987626, "trialdata": {"rt": 555, "stimulus": "<p id='stroop-text' class='stroop-yellow'>GREEN</p>", "response": "y", "stimulus-type": "incongruent", "word": "green", "color": "yellow", "correct_response": "y", "trial_id": "stroop-trial-1-incongruent-6", "trial_type": "html-keyboard-response", "trial_index": 48, "time_elapsed": 85798, "internal_node_id": "0.0-4.0-44.0"}}, {"uniqueid": "w64010420:a86575817", "current_trial": 49, "dateTime": 1664463988652, "trialdata": {"rt": 524, "stimulus": "<p id='stroop-text' class='stroop-blue'>BOTTLE</p>", "response": "b", "stimulus-type": "unrelated", "word": "BOTTLE", "color": "blue", "correct_response": "b", "trial_id": "stroop-trial-1-unrelated-21", "trial_type": "html-keyboard-response", "trial_index": 49, "time_elapsed": 86824, "internal_node_id": "0.0-4.0-45.0"}}, {"uniqueid": "w64010420:a86575817", "current_trial": 50, "dateTime": 1664463989480, "trialdata": {"rt": 326, "stimulus": "<p id='stroop-text' class='stroop-blue'>BLUE</p>", "response": "b", "stimulus-type": "congruent", "word": "blue", "color": "blue", "correct_response": "b", "trial_id": "stroop-trial-1-congruent-23", "trial_type": "html-keyboard-response", "trial_index": 50, "time_elapsed": 87652, "internal_node_id": "0.0-4.0-46.0"}}, {"uniqueid": "w64010420:a86575817", "current_trial": 51, "dateTime": 1664463990444, "trialdata": {"rt": 458, "stimulus": "<p id='stroop-text' class='stroop-yellow'>YELLOW</p>", "response": "y", "stimulus-type": "congruent", "word": "yellow", "color": "yellow", "correct_response": "y", "trial_id": "stroop-trial-1-congruent-22", "trial_type": "html-keyboard-response", "trial_index": 51, "time_elapsed": 88616, "internal_node_id": "0.0-4.0-47.0"}}, {"uniqueid": "w64010420:a86575817", "current_trial": 52, "dateTime": 1664463991659, "trialdata": {"rt": 712, "stimulus": "<p id='stroop-text' class='stroop-green'>SHIP</p>", "response": "g", "stimulus-type": "unrelated", "word": "SHIP", "color": "green", "correct_response": "g", "trial_id": "stroop-trial-1-unrelated-23", "trial_type": "html-keyboard-response", "trial_index": 52, "time_elapsed": 89831, "internal_node_id": "0.0-4.0-48.0"}}, {"uniqueid": "w64010420:a86575817", "current_trial": 53, "dateTime": 1664463992583, "trialdata": {"rt": 423, "stimulus": "<p id='stroop-text' class='stroop-blue'>BLUE</p>", "response": "b", "stimulus-type": "congruent", "word": "blue", "color": "blue", "correct_response": "b", "trial_id": "stroop-trial-1-congruent-26", "trial_type": "html-keyboard-response", "trial_index": 53, "time_elapsed": 90755, "internal_node_id": "0.0-4.0-49.0"}}, {"uniqueid": "w64010420:a86575817", "current_trial": 54, "dateTime": 1664463993490, "trialdata": {"rt": 404, "stimulus": "<p id='stroop-text' class='stroop-red'>RED</p>", "response": "r", "stimulus-type": "congruent", "word": "red", "color": "red", "correct_response": "r", "trial_id": "stroop-trial-1-congruent-20", "trial_type": "html-keyboard-response", "trial_index": 54, "time_elapsed": 91662, "internal_node_id": "0.0-4.0-50.0"}}, {"uniqueid": "w64010420:a86575817", "current_trial": 55, "dateTime": 1664463994675, "trialdata": {"rt": 683, "stimulus": "<p id='stroop-text' class='stroop-blue'>DOG</p>", "response": "b", "stimulus-type": "unrelated", "word": "DOG", "color": "blue", "correct_response": "b", "trial_id": "stroop-trial-1-unrelated-20", "trial_type": "html-keyboard-response", "trial_index": 55, "time_elapsed": 92847, "internal_node_id": "0.0-4.0-51.0"}}, {"uniqueid": "w64010420:a86575817", "current_trial": 56, "dateTime": 1664463995606, "trialdata": {"rt": 429, "stimulus": "<p id='stroop-text' class='stroop-yellow'>YELLOW</p>", "response": "y", "stimulus-type": "congruent", "word": "yellow", "color": "yellow", "correct_response": "y", "trial_id": "stroop-trial-1-congruent-7", "trial_type": "html-keyboard-response", "trial_index": 56, "time_elapsed": 93778, "internal_node_id": "0.0-4.0-52.0"}}, {"uniqueid": "w64010420:a86575817", "current_trial": 57, "dateTime": 1664463996529, "trialdata": {"rt": 422, "stimulus": "<p id='stroop-text' class='stroop-yellow'>GREEN</p>", "response": "y", "stimulus-type": "incongruent", "word": "green", "color": "yellow", "correct_response": "y", "trial_id": "stroop-trial-1-incongruent-29", "trial_type": "html-keyboard-response", "trial_index": 57, "time_elapsed": 94701, "internal_node_id": "0.0-4.0-53.0"}}, {"uniqueid": "w64010420:a86575817", "current_trial": 58, "dateTime": 1664463997522, "trialdata": {"rt": 491, "stimulus": "<p id='stroop-text' class='stroop-red'>GREEN</p>", "response": "r", "stimulus-type": "incongruent", "word": "green", "color": "red", "correct_response": "r", "trial_id": "stroop-trial-1-incongruent-30", "trial_type": "html-keyboard-response", "trial_index": 58, "time_elapsed": 95694, "internal_node_id": "0.0-4.0-54.0"}}, {"uniqueid": "w64010420:a86575817", "current_trial": 59, "dateTime": 1664463999079, "trialdata": {"rt": 1054, "stimulus": "<p id='stroop-text' class='stroop-green'>YELLOW</p>", "response": "g", "stimulus-type": "incongruent", "word": "yellow", "color": "green", "correct_response": "g", "trial_id": "stroop-trial-1-incongruent-5", "trial_type": "html-keyboard-response", "trial_index": 59, "time_elapsed": 97251, "internal_node_id": "0.0-4.0-55.0"}}, {"uniqueid": "w64010420:a86575817", "current_trial": 60, "dateTime": 1664463999981, "trialdata": {"rt": 400, "stimulus": "<p id='stroop-text' class='stroop-green'>GREEN</p>", "response": "g", "stimulus-type": "congruent", "word": "green", "color": "green", "correct_response": "g", "trial_id": "stroop-trial-1-congruent-10", "trial_type": "html-keyboard-response", "trial_index": 60, "time_elapsed": 98153, "internal_node_id": "0.0-4.0-56.0"}}, {"uniqueid": "w64010420:a86575817", "current_trial": 61, "dateTime": 1664464000836, "trialdata": {"rt": 354, "stimulus": "<p id='stroop-text' class='stroop-green'>GREEN</p>", "response": "g", "stimulus-type": "congruent", "word": "green", "color": "green", "correct_response": "g", "trial_id": "stroop-trial-1-congruent-18", "trial_type": "html-keyboard-response", "trial_index": 61, "time_elapsed": 99008, "internal_node_id": "0.0-4.0-57.0"}}, {"uniqueid": "w64010420:a86575817", "current_trial": 62, "dateTime": 1664464001903, "trialdata": {"rt": 565, "stimulus": "<p id='stroop-text' class='stroop-blue'>GREEN</p>", "response": "g", "stimulus-type": "incongruent", "word": "green", "color": "blue", "correct_response": "b", "trial_id": "stroop-trial-1-incongruent-21", "trial_type": "html-keyboard-response", "trial_index": 62, "time_elapsed": 100075, "internal_node_id": "0.0-4.0-58.0"}}, {"uniqueid": "w64010420:a86575817", "current_trial": 63, "dateTime": 1664464002878, "trialdata": {"rt": 473, "stimulus": "<p id='stroop-text' class='stroop-green'>BRIDGE</p>", "response": "g", "stimulus-type": "unrelated", "word": "BRIDGE", "color": "green", "correct_response": "g", "trial_id": "stroop-trial-1-unrelated-15", "trial_type": "html-keyboard-response", "trial_index": 63, "time_elapsed": 101049, "internal_node_id": "0.0-4.0-59.0"}}, {"uniqueid": "w64010420:a86575817", "current_trial": 64, "dateTime": 1664464003905, "trialdata": {"rt": 526, "stimulus": "<p id='stroop-text' class='stroop-yellow'>YELLOW</p>", "response": "y", "stimulus-type": "congruent", "word": "yellow", "color": "yellow", "correct_response": "y", "trial_id": "stroop-trial-1-congruent-8", "trial_type": "html-keyboard-response", "trial_index": 64, "time_elapsed": 102077, "internal_node_id": "0.0-4.0-60.0"}}, {"uniqueid": "w64010420:a86575817", "current_trial": 65, "dateTime": 1664464004726, "trialdata": {"rt": 320, "stimulus": "<p id='stroop-text' class='stroop-blue'>YELLOW</p>", "response": "b", "stimulus-type": "incongruent", "word": "yellow", "color": "blue", "correct_response": "b", "trial_id": "stroop-trial-1-incongruent-2", "trial_type": "html-keyboard-response", "trial_index": 65, "time_elapsed": 102897, "internal_node_id": "0.0-4.0-61.0"}}, {"uniqueid": "w64010420:a86575817", "current_trial": 66, "dateTime": 1664464005690, "trialdata": {"rt": 462, "stimulus": "<p id='stroop-text' class='stroop-blue'>RED</p>", "response": "b", "stimulus-type": "incongruent", "word": "red", "color": "blue", "correct_response": "b", "trial_id": "stroop-trial-1-incongruent-4", "trial_type": "html-keyboard-response", "trial_index": 66, "time_elapsed": 103862, "internal_node_id": "0.0-4.0-62.0"}}, {"uniqueid": "w64010420:a86575817", "current_trial": 67, "dateTime": 1664464006671, "trialdata": {"rt": 478, "stimulus": "<p id='stroop-text' class='stroop-blue'>GREEN</p>", "response": "b", "stimulus-type": "incongruent", "word": "green", "color": "blue", "correct_response": "b", "trial_id": "stroop-trial-1-incongruent-13", "trial_type": "html-keyboard-response", "trial_index": 67, "time_elapsed": 104843, "internal_node_id": "0.0-4.0-63.0"}}, {"uniqueid": "w64010420:a86575817", "current_trial": 68, "dateTime": 1664464007681, "trialdata": {"rt": 500, "stimulus": "<p id='stroop-text' class='stroop-yellow'>YELLOW</p>", "response": "y", "stimulus-type": "congruent", "word": "yellow", "color": "yellow", "correct_response": "y", "trial_id": "stroop-trial-1-congruent-5", "trial_type": "html-keyboard-response", "trial_index": 68, "time_elapsed": 105853, "internal_node_id": "0.0-4.0-64.0"}}, {"uniqueid": "w64010420:a86575817", "current_trial": 69, "dateTime": 1664464008713, "trialdata": {"rt": 530, "stimulus": "<p id='stroop-text' class='stroop-green'>FORK</p>", "response": "g", "stimulus-type": "unrelated", "word": "FORK", "color": "green", "correct_response": "g", "trial_id": "stroop-trial-1-unrelated-8", "trial_type": "html-keyboard-response", "trial_index": 69, "time_elapsed": 106885, "internal_node_id": "0.0-4.0-65.0"}}, {"uniqueid": "w64010420:a86575817", "current_trial": 70, "dateTime": 1664464009729, "trialdata": {"rt": 514, "stimulus": "<p id='stroop-text' class='stroop-blue'>SHIP</p>", "response": "b", "stimulus-type": "unrelated", "word": "SHIP", "color": "blue", "correct_response": "b", "trial_id": "stroop-trial-1-unrelated-30", "trial_type": "html-keyboard-response", "trial_index": 70, "time_elapsed": 107901, "internal_node_id": "0.0-4.0-66.0"}}, {"uniqueid": "w64010420:a86575817", "current_trial": 71, "dateTime": 1664464010664, "trialdata": {"rt": 433, "stimulus": "<p id='stroop-text' class='stroop-red'>RED</p>", "response": "r", "stimulus-type": "congruent", "word": "red", "color": "red", "correct_response": "r", "trial_id": "stroop-trial-1-congruent-16", "trial_type": "html-keyboard-response", "trial_index": 71, "time_elapsed": 108836, "internal_node_id": "0.0-4.0-67.0"}}, {"uniqueid": "w64010420:a86575817", "current_trial": 72, "dateTime": 1664464012073, "trialdata": {"rt": 907, "stimulus": "<p id='stroop-text' class='stroop-green'>YELLOW</p>", "response": "b", "stimulus-type": "incongruent", "word": "yellow", "color": "green", "correct_response": "g", "trial_id": "stroop-trial-1-incongruent-20", "trial_type": "html-keyboard-response", "trial_index": 72, "time_elapsed": 110245, "internal_node_id": "0.0-4.0-68.0"}}, {"uniqueid": "w64010420:a86575817", "current_trial": 73, "dateTime": 1664464013151, "trialdata": {"rt": 577, "stimulus": "<p id='stroop-text' class='stroop-yellow'>YELLOW</p>", "response": "y", "stimulus-type": "congruent", "word": "yellow", "color": "yellow", "correct_response": "y", "trial_id": "stroop-trial-1-congruent-29", "trial_type": "html-keyboard-response", "trial_index": 73, "time_elapsed": 111323, "internal_node_id": "0.0-4.0-69.0"}}, {"uniqueid": "w64010420:a86575817", "current_trial": 74, "dateTime": 1664464014109, "trialdata": {"rt": 456, "stimulus": "<p id='stroop-text' class='stroop-yellow'>BLUE</p>", "response": "y", "stimulus-type": "incongruent", "word": "blue", "color": "yellow", "correct_response": "y", "trial_id": "stroop-trial-1-incongruent-18", "trial_type": "html-keyboard-response", "trial_index": 74, "time_elapsed": 112280, "internal_node_id": "0.0-4.0-70.0"}}, {"uniqueid": "w64010420:a86575817", "current_trial": 75, "dateTime": 1664464015849, "trialdata": {"rt": 1238, "stimulus": "<p id='stroop-text' class='stroop-green'>YELLOW</p>", "response": "g", "stimulus-type": "incongruent", "word": "yellow", "color": "green", "correct_response": "g", "trial_id": "stroop-trial-1-incongruent-10", "trial_type": "html-keyboard-response", "trial_index": 75, "time_elapsed": 114021, "internal_node_id": "0.0-4.0-71.0"}}, {"uniqueid": "w64010420:a86575817", "current_trial": 76, "dateTime": 1664464016893, "trialdata": {"rt": 541, "stimulus": "<p id='stroop-text' class='stroop-blue'>BLUE</p>", "response": "b", "stimulus-type": "congruent", "word": "blue", "color": "blue", "correct_response": "b", "trial_id": "stroop-trial-1-congruent-28", "trial_type": "html-keyboard-response", "trial_index": 76, "time_elapsed": 115065, "internal_node_id": "0.0-4.0-72.0"}}, {"uniqueid": "w64010420:a86575817", "current_trial": 77, "dateTime": 1664464018393, "trialdata": {"rt": 997, "stimulus": "<p id='stroop-text' class='stroop-yellow'>SHIP</p>", "response": "y", "stimulus-type": "unrelated", "word": "SHIP", "color": "yellow", "correct_response": "y", "trial_id": "stroop-trial-1-unrelated-16", "trial_type": "html-keyboard-response", "trial_index": 77, "time_elapsed": 116564, "internal_node_id": "0.0-4.0-73.0"}}, {"uniqueid": "w64010420:a86575817", "current_trial": 78, "dateTime": 1664464019796, "trialdata": {"rt": 902, "stimulus": "<p id='stroop-text' class='stroop-green'>YELLOW</p>", "response": "g", "stimulus-type": "incongruent", "word": "yellow", "color": "green", "correct_response": "g", "trial_id": "stroop-trial-1-incongruent-26", "trial_type": "html-keyboard-response", "trial_index": 78, "time_elapsed": 117968, "internal_node_id": "0.0-4.0-74.0"}}, {"uniqueid": "w64010420:a86575817", "current_trial": 79, "dateTime": 1664464020714, "trialdata": {"rt": 416, "stimulus": "<p id='stroop-text' class='stroop-green'>SHIP</p>", "response": "g", "stimulus-type": "unrelated", "word": "SHIP", "color": "green", "correct_response": "g", "trial_id": "stroop-trial-1-unrelated-4", "trial_type": "html-keyboard-response", "trial_index": 79, "time_elapsed": 118886, "internal_node_id": "0.0-4.0-75.0"}}, {"uniqueid": "w64010420:a86575817", "current_trial": 80, "dateTime": 1664464021946, "trialdata": {"rt": 730, "stimulus": "<p id='stroop-text' class='stroop-yellow'>GREEN</p>", "response": "y", "stimulus-type": "incongruent", "word": "green", "color": "yellow", "correct_response": "y", "trial_id": "stroop-trial-1-incongruent-16", "trial_type": "html-keyboard-response", "trial_index": 80, "time_elapsed": 120117, "internal_node_id": "0.0-4.0-76.0"}}, {"uniqueid": "w64010420:a86575817", "current_trial": 81, "dateTime": 1664464023070, "trialdata": {"rt": 623, "stimulus": "<p id='stroop-text' class='stroop-blue'>BOTTLE</p>", "response": "b", "stimulus-type": "unrelated", "word": "BOTTLE", "color": "blue", "correct_response": "b", "trial_id": "stroop-trial-1-unrelated-26", "trial_type": "html-keyboard-response", "trial_index": 81, "time_elapsed": 121242, "internal_node_id": "0.0-4.0-77.0"}}, {"uniqueid": "w64010420:a86575817", "current_trial": 82, "dateTime": 1664464024119, "trialdata": {"rt": 548, "stimulus": "<p id='stroop-text' class='stroop-red'>CHAIR</p>", "response": "r", "stimulus-type": "unrelated", "word": "CHAIR", "color": "red", "correct_response": "r", "trial_id": "stroop-trial-1-unrelated-13", "trial_type": "html-keyboard-response", "trial_index": 82, "time_elapsed": 122291, "internal_node_id": "0.0-4.0-78.0"}}, {"uniqueid": "w64010420:a86575817", "current_trial": 83, "dateTime": 1664464025083, "trialdata": {"rt": 463, "stimulus": "<p id='stroop-text' class='stroop-red'>BLUE</p>", "response": "r", "stimulus-type": "incongruent", "word": "blue", "color": "red", "correct_response": "r", "trial_id": "stroop-trial-1-incongruent-24", "trial_type": "html-keyboard-response", "trial_index": 83, "time_elapsed": 123255, "internal_node_id": "0.0-4.0-79.0"}}, {"uniqueid": "w64010420:a86575817", "current_trial": 84, "dateTime": 1664464025909, "trialdata": {"rt": 324, "stimulus": "<p id='stroop-text' class='stroop-red'>RED</p>", "response": "r", "stimulus-type": "congruent", "word": "red", "color": "red", "correct_response": "r", "trial_id": "stroop-trial-1-congruent-4", "trial_type": "html-keyboard-response", "trial_index": 84, "time_elapsed": 124081, "internal_node_id": "0.0-4.0-80.0"}}, {"uniqueid": "w64010420:a86575817", "current_trial": 85, "dateTime": 1664464027194, "trialdata": {"rt": 781, "stimulus": "<p id='stroop-text' class='stroop-green'>YELLOW</p>", "response": "g", "stimulus-type": "incongruent", "word": "yellow", "color": "green", "correct_response": "g", "trial_id": "stroop-trial-1-incongruent-25", "trial_type": "html-keyboard-response", "trial_index": 85, "time_elapsed": 125366, "internal_node_id": "0.0-4.0-81.0"}}, {"uniqueid": "w64010420:a86575817", "current_trial": 86, "dateTime": 1664464028323, "trialdata": {"rt": 627, "stimulus": "<p id='stroop-text' class='stroop-yellow'>GREEN</p>", "response": "y", "stimulus-type": "incongruent", "word": "green", "color": "yellow", "correct_response": "y", "trial_id": "stroop-trial-1-incongruent-23", "trial_type": "html-keyboard-response", "trial_index": 86, "time_elapsed": 126495, "internal_node_id": "0.0-4.0-82.0"}}, {"uniqueid": "w64010420:a86575817", "current_trial": 87, "dateTime": 1664464029373, "trialdata": {"rt": 547, "stimulus": "<p id='stroop-text' class='stroop-green'>BRIDGE</p>", "response": "g", "stimulus-type": "unrelated", "word": "BRIDGE", "color": "green", "correct_response": "g", "trial_id": "stroop-trial-1-unrelated-11", "trial_type": "html-keyboard-response", "trial_index": 87, "time_elapsed": 127545, "internal_node_id": "0.0-4.0-83.0"}}, {"uniqueid": "w64010420:a86575817", "current_trial": 88, "dateTime": 1664464030297, "trialdata": {"rt": 423, "stimulus": "<p id='stroop-text' class='stroop-yellow'>MONKEY</p>", "response": "y", "stimulus-type": "unrelated", "word": "MONKEY", "color": "yellow", "correct_response": "y", "trial_id": "stroop-trial-1-unrelated-14", "trial_type": "html-keyboard-response", "trial_index": 88, "time_elapsed": 128469, "internal_node_id": "0.0-4.0-84.0"}}, {"uniqueid": "w64010420:a86575817", "current_trial": 89, "dateTime": 1664464031386, "trialdata": {"rt": 588, "stimulus": "<p id='stroop-text' class='stroop-green'>BLUE</p>", "response": "g", "stimulus-type": "incongruent", "word": "blue", "color": "green", "correct_response": "g", "trial_id": "stroop-trial-1-incongruent-14", "trial_type": "html-keyboard-response", "trial_index": 89, "time_elapsed": 129558, "internal_node_id": "0.0-4.0-85.0"}}, {"uniqueid": "w64010420:a86575817", "current_trial": 90, "dateTime": 1664464032248, "trialdata": {"rt": 361, "stimulus": "<p id='stroop-text' class='stroop-green'>GREEN</p>", "response": "g", "stimulus-type": "congruent", "word": "green", "color": "green", "correct_response": "g", "trial_id": "stroop-trial-1-congruent-21", "trial_type": "html-keyboard-response", "trial_index": 90, "time_elapsed": 130420, "internal_node_id": "0.0-4.0-86.0"}}, {"uniqueid": "w64010420:a86575817", "current_trial": 91, "dateTime": 1664464033063, "trialdata": {"rt": 313, "stimulus": "<p id='stroop-text' class='stroop-blue'>BLUE</p>", "response": "b", "stimulus-type": "congruent", "word": "blue", "color": "blue", "correct_response": "b", "trial_id": "stroop-trial-1-congruent-1", "trial_type": "html-keyboard-response", "trial_index": 91, "time_elapsed": 131234, "internal_node_id": "0.0-4.0-87.0"}}, {"uniqueid": "w64010420:a86575817", "current_trial": 92, "dateTime": 1664464033976, "trialdata": {"rt": 411, "stimulus": "<p id='stroop-text' class='stroop-green'>MONKEY</p>", "response": "g", "stimulus-type": "unrelated", "word": "MONKEY", "color": "green", "correct_response": "g", "trial_id": "stroop-trial-1-unrelated-25", "trial_type": "html-keyboard-response", "trial_index": 92, "time_elapsed": 132148, "internal_node_id": "0.0-4.0-88.0"}}, {"uniqueid": "w64010420:a86575817", "current_trial": 93, "dateTime": 1664464034780, "trialdata": {"rt": 302, "stimulus": "<p id='stroop-text' class='stroop-green'>BOTTLE</p>", "response": "g", "stimulus-type": "unrelated", "word": "BOTTLE", "color": "green", "correct_response": "g", "trial_id": "stroop-trial-1-unrelated-27", "trial_type": "html-keyboard-response", "trial_index": 93, "time_elapsed": 132952, "internal_node_id": "0.0-4.0-89.0"}}, {"uniqueid": "w64010420:a86575817", "current_trial": 94, "dateTime": 1664464037884, "trialdata": {"rt": 2589, "stimulus": "  <h1> End of block! </h1>\n\n  You have reached the end of the block 1/5. If you need a short break, feel free to take one now before moving on.\n\n  <br><br>\n  In the next block, you will complete another 90 rounds of this game.\n\n  <br><br>\n  <div style='text-align: center;'>Press <code>space</code> to begin.</div>\n  <br><br>\n<div style='text-align: center;'>(If the experiment doesn't continue, try clicking on the text and then pressing <code>space</code>.)</div>", "response": " ", "trial_id": "stroop_1_ready_2", "trial_type": "html-keyboard-response", "trial_index": 94, "time_elapsed": 136055, "internal_node_id": "0.0-5.0"}}, {"uniqueid": "w64010420:a86575817", "current_trial": 95, "dateTime": 1664464038808, "trialdata": {"rt": 922, "stimulus": "<p id='stroop-text' class='stroop-red'>WINDOW</p>", "response": "r", "stimulus-type": "unrelated", "word": "WINDOW", "color": "red", "correct_response": "r", "trial_id": "stroop-trial-1-unrelated-19", "trial_type": "html-keyboard-response", "trial_index": 95, "time_elapsed": 136980, "internal_node_id": "0.0-6.0-0.0"}}, {"uniqueid": "w64010420:a86575817", "current_trial": 96, "dateTime": 1664464039652, "trialdata": {"rt": 343, "stimulus": "<p id='stroop-text' class='stroop-red'>BLUE</p>", "response": "r", "stimulus-type": "incongruent", "word": "blue", "color": "red", "correct_response": "r", "trial_id": "stroop-trial-1-incongruent-18", "trial_type": "html-keyboard-response", "trial_index": 96, "time_elapsed": 137824, "internal_node_id": "0.0-6.0-1.0"}}, {"uniqueid": "w64010420:a86575817", "current_trial": 97, "dateTime": 1664464040622, "trialdata": {"rt": 468, "stimulus": "<p id='stroop-text' class='stroop-yellow'>BRAIN</p>", "response": "y", "stimulus-type": "unrelated", "word": "BRAIN", "color": "yellow", "correct_response": "y", "trial_id": "stroop-trial-1-unrelated-10", "trial_type": "html-keyboard-response", "trial_index": 97, "time_elapsed": 138794, "internal_node_id": "0.0-6.0-2.0"}}, {"uniqueid": "w64010420:a86575817", "current_trial": 98, "dateTime": 1664464041620, "trialdata": {"rt": 496, "stimulus": "<p id='stroop-text' class='stroop-red'>BOTTLE</p>", "response": "r", "stimulus-type": "unrelated", "word": "BOTTLE", "color": "red", "correct_response": "r", "trial_id": "stroop-trial-1-unrelated-13", "trial_type": "html-keyboard-response", "trial_index": 98, "time_elapsed": 139792, "internal_node_id": "0.0-6.0-3.0"}}, {"uniqueid": "w64010420:a86575817", "current_trial": 99, "dateTime": 1664464042487, "trialdata": {"rt": 364, "stimulus": "<p id='stroop-text' class='stroop-red'>GREEN</p>", "response": "r", "stimulus-type": "incongruent", "word": "green", "color": "red", "correct_response": "r", "trial_id": "stroop-trial-1-incongruent-6", "trial_type": "html-keyboard-response", "trial_index": 99, "time_elapsed": 140659, "internal_node_id": "0.0-6.0-4.0"}}, {"uniqueid": "w64010420:a86575817", "current_trial": 100, "dateTime": 1664464043491, "trialdata": {"rt": 500, "stimulus": "<p id='stroop-text' class='stroop-yellow'>BLUE</p>", "response": "y", "stimulus-type": "incongruent", "word": "blue", "color": "yellow", "correct_response": "y", "trial_id": "stroop-trial-1-incongruent-22", "trial_type": "html-keyboard-response", "trial_index": 100, "time_elapsed": 141663, "internal_node_id": "0.0-6.0-5.0"}}, {"uniqueid": "w64010420:a86575817", "current_trial": 101, "dateTime": 1664464044460, "trialdata": {"rt": 466, "stimulus": "<p id='stroop-text' class='stroop-yellow'>FORK</p>", "response": "y", "stimulus-type": "unrelated", "word": "FORK", "color": "yellow", "correct_response": "y", "trial_id": "stroop-trial-1-unrelated-15", "trial_type": "html-keyboard-response", "trial_index": 101, "time_elapsed": 142631, "internal_node_id": "0.0-6.0-6.0"}}, {"uniqueid": "w64010420:a86575817", "current_trial": 102, "dateTime": 1664464045492, "trialdata": {"rt": 530, "stimulus": "<p id='stroop-text' class='stroop-blue'>BLUE</p>", "response": "b", "stimulus-type": "congruent", "word": "blue", "color": "blue", "correct_response": "b", "trial_id": "stroop-trial-1-congruent-16", "trial_type": "html-keyboard-response", "trial_index": 102, "time_elapsed": 143664, "internal_node_id": "0.0-6.0-7.0"}}, {"uniqueid": "w64010420:a86575817", "current_trial": 103, "dateTime": 1664464046480, "trialdata": {"rt": 484, "stimulus": "<p id='stroop-text' class='stroop-yellow'>GREEN</p>", "response": "y", "stimulus-type": "incongruent", "word": "green", "color": "yellow", "correct_response": "y", "trial_id": "stroop-trial-1-incongruent-17", "trial_type": "html-keyboard-response", "trial_index": 103, "time_elapsed": 144652, "internal_node_id": "0.0-6.0-8.0"}}, {"uniqueid": "w64010420:a86575817", "current_trial": 104, "dateTime": 1664464047729, "trialdata": {"rt": 748, "stimulus": "<p id='stroop-text' class='stroop-blue'>YELLOW</p>", "response": "g", "stimulus-type": "incongruent", "word": "yellow", "color": "blue", "correct_response": "b", "trial_id": "stroop-trial-1-incongruent-7", "trial_type": "html-keyboard-response", "trial_index": 104, "time_elapsed": 145901, "internal_node_id": "0.0-6.0-9.0"}}, {"uniqueid": "w64010420:a86575817", "current_trial": 105, "dateTime": 1664464048675, "trialdata": {"rt": 443, "stimulus": "<p id='stroop-text' class='stroop-yellow'>YELLOW</p>", "response": "y", "stimulus-type": "congruent", "word": "yellow", "color": "yellow", "correct_response": "y", "trial_id": "stroop-trial-1-congruent-23", "trial_type": "html-keyboard-response", "trial_index": 105, "time_elapsed": 146847, "internal_node_id": "0.0-6.0-10.0"}}, {"uniqueid": "w64010420:a86575817", "current_trial": 106, "dateTime": 1664464050034, "trialdata": {"rt": 857, "stimulus": "<p id='stroop-text' class='stroop-blue'>CHAIR</p>", "response": "g", "stimulus-type": "unrelated", "word": "CHAIR", "color": "blue", "correct_response": "b", "trial_id": "stroop-trial-1-unrelated-26", "trial_type": "html-keyboard-response", "trial_index": 106, "time_elapsed": 148206, "internal_node_id": "0.0-6.0-11.0"}}, {"uniqueid": "w64010420:a86575817", "current_trial": 107, "dateTime": 1664464051157, "trialdata": {"rt": 621, "stimulus": "<p id='stroop-text' class='stroop-yellow'>BRAIN</p>", "response": "y", "stimulus-type": "unrelated", "word": "BRAIN", "color": "yellow", "correct_response": "y", "trial_id": "stroop-trial-1-unrelated-27", "trial_type": "html-keyboard-response", "trial_index": 107, "time_elapsed": 149329, "internal_node_id": "0.0-6.0-12.0"}}, {"uniqueid": "w64010420:a86575817", "current_trial": 108, "dateTime": 1664464052127, "trialdata": {"rt": 467, "stimulus": "<p id='stroop-text' class='stroop-red'>WINDOW</p>", "response": "r", "stimulus-type": "unrelated", "word": "WINDOW", "color": "red", "correct_response": "r", "trial_id": "stroop-trial-1-unrelated-1", "trial_type": "html-keyboard-response", "trial_index": 108, "time_elapsed": 150299, "internal_node_id": "0.0-6.0-13.0"}}, {"uniqueid": "w64010420:a86575817", "current_trial": 109, "dateTime": 1664464053057, "trialdata": {"rt": 429, "stimulus": "<p id='stroop-text' class='stroop-red'>BLUE</p>", "response": "r", "stimulus-type": "incongruent", "word": "blue", "color": "red", "correct_response": "r", "trial_id": "stroop-trial-1-incongruent-11", "trial_type": "html-keyboard-response", "trial_index": 109, "time_elapsed": 151229, "internal_node_id": "0.0-6.0-14.0"}}, {"uniqueid": "w64010420:a86575817", "current_trial": 110, "dateTime": 1664464053952, "trialdata": {"rt": 393, "stimulus": "<p id='stroop-text' class='stroop-red'>MONKEY</p>", "response": "r", "stimulus-type": "unrelated", "word": "MONKEY", "color": "red", "correct_response": "r", "trial_id": "stroop-trial-1-unrelated-9", "trial_type": "html-keyboard-response", "trial_index": 110, "time_elapsed": 152124, "internal_node_id": "0.0-6.0-15.0"}}, {"uniqueid": "w64010420:a86575817", "current_trial": 111, "dateTime": 1664464054928, "trialdata": {"rt": 473, "stimulus": "<p id='stroop-text' class='stroop-green'>MONKEY</p>", "response": "r", "stimulus-type": "unrelated", "word": "MONKEY", "color": "green", "correct_response": "g", "trial_id": "stroop-trial-1-unrelated-22", "trial_type": "html-keyboard-response", "trial_index": 111, "time_elapsed": 153100, "internal_node_id": "0.0-6.0-16.0"}}, {"uniqueid": "w64010420:a86575817", "current_trial": 112, "dateTime": 1664464055966, "trialdata": {"rt": 536, "stimulus": "<p id='stroop-text' class='stroop-red'>RED</p>", "response": "r", "stimulus-type": "congruent", "word": "red", "color": "red", "correct_response": "r", "trial_id": "stroop-trial-1-congruent-25", "trial_type": "html-keyboard-response", "trial_index": 112, "time_elapsed": 154138, "internal_node_id": "0.0-6.0-17.0"}}, {"uniqueid": "w64010420:a86575817", "current_trial": 113, "dateTime": 1664464056970, "trialdata": {"rt": 500, "stimulus": "<p id='stroop-text' class='stroop-yellow'>YELLOW</p>", "response": "y", "stimulus-type": "congruent", "word": "yellow", "color": "yellow", "correct_response": "y", "trial_id": "stroop-trial-1-congruent-12", "trial_type": "html-keyboard-response", "trial_index": 113, "time_elapsed": 155142, "internal_node_id": "0.0-6.0-18.0"}}, {"uniqueid": "w64010420:a86575817", "current_trial": 114, "dateTime": 1664464058202, "trialdata": {"rt": 729, "stimulus": "<p id='stroop-text' class='stroop-green'>CHAIR</p>", "response": "g", "stimulus-type": "unrelated", "word": "CHAIR", "color": "green", "correct_response": "g", "trial_id": "stroop-trial-1-unrelated-23", "trial_type": "html-keyboard-response", "trial_index": 114, "time_elapsed": 156374, "internal_node_id": "0.0-6.0-19.0"}}, {"uniqueid": "w64010420:a86575817", "current_trial": 115, "dateTime": 1664464059177, "trialdata": {"rt": 473, "stimulus": "<p id='stroop-text' class='stroop-blue'>SHIP</p>", "response": "b", "stimulus-type": "unrelated", "word": "SHIP", "color": "blue", "correct_response": "b", "trial_id": "stroop-trial-1-unrelated-6", "trial_type": "html-keyboard-response", "trial_index": 115, "time_elapsed": 157349, "internal_node_id": "0.0-6.0-20.0"}}, {"uniqueid": "w64010420:a86575817", "current_trial": 116, "dateTime": 1664464060284, "trialdata": {"rt": 604, "stimulus": "<p id='stroop-text' class='stroop-red'>BLUE</p>", "response": "r", "stimulus-type": "incongruent", "word": "blue", "color": "red", "correct_response": "r", "trial_id": "stroop-trial-1-incongruent-19", "trial_type": "html-keyboard-response", "trial_index": 116, "time_elapsed": 158456, "internal_node_id": "0.0-6.0-21.0"}}, {"uniqueid": "w64010420:a86575817", "current_trial": 117, "dateTime": 1664464061231, "trialdata": {"rt": 445, "stimulus": "<p id='stroop-text' class='stroop-yellow'>BRIDGE</p>", "response": "y", "stimulus-type": "unrelated", "word": "BRIDGE", "color": "yellow", "correct_response": "y", "trial_id": "stroop-trial-1-unrelated-8", "trial_type": "html-keyboard-response", "trial_index": 117, "time_elapsed": 159403, "internal_node_id": "0.0-6.0-22.0"}}, {"uniqueid": "w64010420:a86575817", "current_trial": 118, "dateTime": 1664464062708, "trialdata": {"rt": 975, "stimulus": "<p id='stroop-text' class='stroop-green'>CHAIR</p>", "response": "g", "stimulus-type": "unrelated", "word": "CHAIR", "color": "green", "correct_response": "g", "trial_id": "stroop-trial-1-unrelated-20", "trial_type": "html-keyboard-response", "trial_index": 118, "time_elapsed": 160880, "internal_node_id": "0.0-6.0-23.0"}}, {"uniqueid": "w64010420:a86575817", "current_trial": 119, "dateTime": 1664464063518, "trialdata": {"rt": 303, "stimulus": "<p id='stroop-text' class='stroop-blue'>FORK</p>", "response": "b", "stimulus-type": "unrelated", "word": "FORK", "color": "blue", "correct_response": "b", "trial_id": "stroop-trial-1-unrelated-17", "trial_type": "html-keyboard-response", "trial_index": 119, "time_elapsed": 161690, "internal_node_id": "0.0-6.0-24.0"}}, {"uniqueid": "w64010420:a86575817", "current_trial": 120, "dateTime": 1664464064659, "trialdata": {"rt": 639, "stimulus": "<p id='stroop-text' class='stroop-green'>BLUE</p>", "response": "g", "stimulus-type": "incongruent", "word": "blue", "color": "green", "correct_response": "g", "trial_id": "stroop-trial-1-incongruent-20", "trial_type": "html-keyboard-response", "trial_index": 120, "time_elapsed": 162831, "internal_node_id": "0.0-6.0-25.0"}}, {"uniqueid": "w64010420:a86575817", "current_trial": 121, "dateTime": 1664464065710, "trialdata": {"rt": 548, "stimulus": "<p id='stroop-text' class='stroop-blue'>BLUE</p>", "response": "b", "stimulus-type": "congruent", "word": "blue", "color": "blue", "correct_response": "b", "trial_id": "stroop-trial-1-congruent-11", "trial_type": "html-keyboard-response", "trial_index": 121, "time_elapsed": 163881, "internal_node_id": "0.0-6.0-26.0"}}, {"uniqueid": "w64010420:a86575817", "current_trial": 122, "dateTime": 1664464066707, "trialdata": {"rt": 494, "stimulus": "<p id='stroop-text' class='stroop-green'>WINDOW</p>", "response": "g", "stimulus-type": "unrelated", "word": "WINDOW", "color": "green", "correct_response": "g", "trial_id": "stroop-trial-1-unrelated-11", "trial_type": "html-keyboard-response", "trial_index": 122, "time_elapsed": 164879, "internal_node_id": "0.0-6.0-27.0"}}, {"uniqueid": "w64010420:a86575817", "current_trial": 123, "dateTime": 1664464067745, "trialdata": {"rt": 535, "stimulus": "<p id='stroop-text' class='stroop-yellow'>YELLOW</p>", "response": "y", "stimulus-type": "congruent", "word": "yellow", "color": "yellow", "correct_response": "y", "trial_id": "stroop-trial-1-congruent-9", "trial_type": "html-keyboard-response", "trial_index": 123, "time_elapsed": 165917, "internal_node_id": "0.0-6.0-28.0"}}, {"uniqueid": "w64010420:a86575817", "current_trial": 124, "dateTime": 1664464068726, "trialdata": {"rt": 479, "stimulus": "<p id='stroop-text' class='stroop-red'>FORK</p>", "response": "r", "stimulus-type": "unrelated", "word": "FORK", "color": "red", "correct_response": "r", "trial_id": "stroop-trial-1-unrelated-29", "trial_type": "html-keyboard-response", "trial_index": 124, "time_elapsed": 166898, "internal_node_id": "0.0-6.0-29.0"}}, {"uniqueid": "w64010420:a86575817", "current_trial": 125, "dateTime": 1664464069890, "trialdata": {"rt": 663, "stimulus": "<p id='stroop-text' class='stroop-red'>RED</p>", "response": "r", "stimulus-type": "congruent", "word": "red", "color": "red", "correct_response": "r", "trial_id": "stroop-trial-1-congruent-28", "trial_type": "html-keyboard-response", "trial_index": 125, "time_elapsed": 168062, "internal_node_id": "0.0-6.0-30.0"}}, {"uniqueid": "w64010420:a86575817", "current_trial": 126, "dateTime": 1664464070763, "trialdata": {"rt": 370, "stimulus": "<p id='stroop-text' class='stroop-red'>RED</p>", "response": "r", "stimulus-type": "congruent", "word": "red", "color": "red", "correct_response": "r", "trial_id": "stroop-trial-1-congruent-19", "trial_type": "html-keyboard-response", "trial_index": 126, "time_elapsed": 168935, "internal_node_id": "0.0-6.0-31.0"}}, {"uniqueid": "w64010420:a86575817", "current_trial": 127, "dateTime": 1664464071830, "trialdata": {"rt": 565, "stimulus": "<p id='stroop-text' class='stroop-yellow'>YELLOW</p>", "response": "y", "stimulus-type": "congruent", "word": "yellow", "color": "yellow", "correct_response": "y", "trial_id": "stroop-trial-1-congruent-8", "trial_type": "html-keyboard-response", "trial_index": 127, "time_elapsed": 170002, "internal_node_id": "0.0-6.0-32.0"}}, {"uniqueid": "w64010420:a86575817", "current_trial": 128, "dateTime": 1664464072896, "trialdata": {"rt": 564, "stimulus": "<p id='stroop-text' class='stroop-red'>GREEN</p>", "response": "r", "stimulus-type": "incongruent", "word": "green", "color": "red", "correct_response": "r", "trial_id": "stroop-trial-1-incongruent-27", "trial_type": "html-keyboard-response", "trial_index": 128, "time_elapsed": 171068, "internal_node_id": "0.0-6.0-33.0"}}, {"uniqueid": "w64010420:a86575817", "current_trial": 129, "dateTime": 1664464074088, "trialdata": {"rt": 690, "stimulus": "<p id='stroop-text' class='stroop-green'>GREEN</p>", "response": "g", "stimulus-type": "congruent", "word": "green", "color": "green", "correct_response": "g", "trial_id": "stroop-trial-1-congruent-1", "trial_type": "html-keyboard-response", "trial_index": 129, "time_elapsed": 172260, "internal_node_id": "0.0-6.0-34.0"}}, {"uniqueid": "w64010420:a86575817", "current_trial": 130, "dateTime": 1664464075064, "trialdata": {"rt": 475, "stimulus": "<p id='stroop-text' class='stroop-green'>RED</p>", "response": "g", "stimulus-type": "incongruent", "word": "red", "color": "green", "correct_response": "g", "trial_id": "stroop-trial-1-incongruent-2", "trial_type": "html-keyboard-response", "trial_index": 130, "time_elapsed": 173236, "internal_node_id": "0.0-6.0-35.0"}}, {"uniqueid": "w64010420:a86575817", "current_trial": 131, "dateTime": 1664464075931, "trialdata": {"rt": 365, "stimulus": "<p id='stroop-text' class='stroop-red'>DOG</p>", "response": "r", "stimulus-type": "unrelated", "word": "DOG", "color": "red", "correct_response": "r", "trial_id": "stroop-trial-1-unrelated-18", "trial_type": "html-keyboard-response", "trial_index": 131, "time_elapsed": 174103, "internal_node_id": "0.0-6.0-36.0"}}, {"uniqueid": "w64010420:a86575817", "current_trial": 132, "dateTime": 1664464076958, "trialdata": {"rt": 523, "stimulus": "<p id='stroop-text' class='stroop-green'>BRIDGE</p>", "response": "g", "stimulus-type": "unrelated", "word": "BRIDGE", "color": "green", "correct_response": "g", "trial_id": "stroop-trial-1-unrelated-16", "trial_type": "html-keyboard-response", "trial_index": 132, "time_elapsed": 175130, "internal_node_id": "0.0-6.0-37.0"}}, {"uniqueid": "w64010420:a86575817", "current_trial": 133, "dateTime": 1664464078258, "trialdata": {"rt": 798, "stimulus": "<p id='stroop-text' class='stroop-red'>BLUE</p>", "response": "r", "stimulus-type": "incongruent", "word": "blue", "color": "red", "correct_response": "r", "trial_id": "stroop-trial-1-incongruent-1", "trial_type": "html-keyboard-response", "trial_index": 133, "time_elapsed": 176430, "internal_node_id": "0.0-6.0-38.0"}}, {"uniqueid": "w64010420:a86575817", "current_trial": 134, "dateTime": 1664464079268, "trialdata": {"rt": 506, "stimulus": "<p id='stroop-text' class='stroop-green'>GREEN</p>", "response": "g", "stimulus-type": "congruent", "word": "green", "color": "green", "correct_response": "g", "trial_id": "stroop-trial-1-congruent-10", "trial_type": "html-keyboard-response", "trial_index": 134, "time_elapsed": 177440, "internal_node_id": "0.0-6.0-39.0"}}, {"uniqueid": "w64010420:a86575817", "current_trial": 135, "dateTime": 1664464080319, "trialdata": {"rt": 548, "stimulus": "<p id='stroop-text' class='stroop-red'>RED</p>", "response": "r", "stimulus-type": "congruent", "word": "red", "color": "red", "correct_response": "r", "trial_id": "stroop-trial-1-congruent-13", "trial_type": "html-keyboard-response", "trial_index": 135, "time_elapsed": 178491, "internal_node_id": "0.0-6.0-40.0"}}, {"uniqueid": "w64010420:a86575817", "current_trial": 136, "dateTime": 1664464081265, "trialdata": {"rt": 445, "stimulus": "<p id='stroop-text' class='stroop-yellow'>YELLOW</p>", "response": "y", "stimulus-type": "congruent", "word": "yellow", "color": "yellow", "correct_response": "y", "trial_id": "stroop-trial-1-congruent-17", "trial_type": "html-keyboard-response", "trial_index": 136, "time_elapsed": 179437, "internal_node_id": "0.0-6.0-41.0"}}, {"uniqueid": "w64010420:a86575817", "current_trial": 137, "dateTime": 1664464082252, "trialdata": {"rt": 486, "stimulus": "<p id='stroop-text' class='stroop-green'>RED</p>", "response": "g", "stimulus-type": "incongruent", "word": "red", "color": "green", "correct_response": "g", "trial_id": "stroop-trial-1-incongruent-8", "trial_type": "html-keyboard-response", "trial_index": 137, "time_elapsed": 180424, "internal_node_id": "0.0-6.0-42.0"}}, {"uniqueid": "w64010420:a86575817", "current_trial": 138, "dateTime": 1664464083170, "trialdata": {"rt": 415, "stimulus": "<p id='stroop-text' class='stroop-green'>YELLOW</p>", "response": "g", "stimulus-type": "incongruent", "word": "yellow", "color": "green", "correct_response": "g", "trial_id": "stroop-trial-1-incongruent-30", "trial_type": "html-keyboard-response", "trial_index": 138, "time_elapsed": 181342, "internal_node_id": "0.0-6.0-43.0"}}, {"uniqueid": "w64010420:a86575817", "current_trial": 139, "dateTime": 1664464084100, "trialdata": {"rt": 427, "stimulus": "<p id='stroop-text' class='stroop-green'>BRAIN</p>", "response": "g", "stimulus-type": "unrelated", "word": "BRAIN", "color": "green", "correct_response": "g", "trial_id": "stroop-trial-1-unrelated-21", "trial_type": "html-keyboard-response", "trial_index": 139, "time_elapsed": 182272, "internal_node_id": "0.0-6.0-44.0"}}, {"uniqueid": "w64010420:a86575817", "current_trial": 140, "dateTime": 1664464085155, "trialdata": {"rt": 552, "stimulus": "<p id='stroop-text' class='stroop-yellow'>YELLOW</p>", "response": "y", "stimulus-type": "congruent", "word": "yellow", "color": "yellow", "correct_response": "y", "trial_id": "stroop-trial-1-congruent-15", "trial_type": "html-keyboard-response", "trial_index": 140, "time_elapsed": 183327, "internal_node_id": "0.0-6.0-45.0"}}, {"uniqueid": "w64010420:a86575817", "current_trial": 141, "dateTime": 1664464086119, "trialdata": {"rt": 461, "stimulus": "<p id='stroop-text' class='stroop-red'>RED</p>", "response": "r", "stimulus-type": "congruent", "word": "red", "color": "red", "correct_response": "r", "trial_id": "stroop-trial-1-congruent-26", "trial_type": "html-keyboard-response", "trial_index": 141, "time_elapsed": 184291, "internal_node_id": "0.0-6.0-46.0"}}, {"uniqueid": "w64010420:a86575817", "current_trial": 142, "dateTime": 1664464087328, "trialdata": {"rt": 707, "stimulus": "<p id='stroop-text' class='stroop-red'>GREEN</p>", "response": "r", "stimulus-type": "incongruent", "word": "green", "color": "red", "correct_response": "r", "trial_id": "stroop-trial-1-incongruent-10", "trial_type": "html-keyboard-response", "trial_index": 142, "time_elapsed": 185500, "internal_node_id": "0.0-6.0-47.0"}}, {"uniqueid": "w64010420:a86575817", "current_trial": 143, "dateTime": 1664464088270, "trialdata": {"rt": 441, "stimulus": "<p id='stroop-text' class='stroop-red'>BLUE</p>", "response": "r", "stimulus-type": "incongruent", "word": "blue", "color": "red", "correct_response": "r", "trial_id": "stroop-trial-1-incongruent-29", "trial_type": "html-keyboard-response", "trial_index": 143, "time_elapsed": 186442, "internal_node_id": "0.0-6.0-48.0"}}, {"uniqueid": "w64010420:a86575817", "current_trial": 144, "dateTime": 1664464089245, "trialdata": {"rt": 472, "stimulus": "<p id='stroop-text' class='stroop-yellow'>YELLOW</p>", "response": "y", "stimulus-type": "congruent", "word": "yellow", "color": "yellow", "correct_response": "y", "trial_id": "stroop-trial-1-congruent-6", "trial_type": "html-keyboard-response", "trial_index": 144, "time_elapsed": 187417, "internal_node_id": "0.0-6.0-49.0"}}, {"uniqueid": "w64010420:a86575817", "current_trial": 145, "dateTime": 1664464090135, "trialdata": {"rt": 388, "stimulus": "<p id='stroop-text' class='stroop-blue'>GREEN</p>", "response": "b", "stimulus-type": "incongruent", "word": "green", "color": "blue", "correct_response": "b", "trial_id": "stroop-trial-1-incongruent-23", "trial_type": "html-keyboard-response", "trial_index": 145, "time_elapsed": 188307, "internal_node_id": "0.0-6.0-50.0"}}, {"uniqueid": "w64010420:a86575817", "current_trial": 146, "dateTime": 1664464090956, "trialdata": {"rt": 318, "stimulus": "<p id='stroop-text' class='stroop-blue'>YELLOW</p>", "response": "b", "stimulus-type": "incongruent", "word": "yellow", "color": "blue", "correct_response": "b", "trial_id": "stroop-trial-1-incongruent-24", "trial_type": "html-keyboard-response", "trial_index": 146, "time_elapsed": 189128, "internal_node_id": "0.0-6.0-51.0"}}, {"uniqueid": "w64010420:a86575817", "current_trial": 147, "dateTime": 1664464091829, "trialdata": {"rt": 370, "stimulus": "<p id='stroop-text' class='stroop-blue'>GREEN</p>", "response": "b", "stimulus-type": "incongruent", "word": "green", "color": "blue", "correct_response": "b", "trial_id": "stroop-trial-1-incongruent-26", "trial_type": "html-keyboard-response", "trial_index": 147, "time_elapsed": 190001, "internal_node_id": "0.0-6.0-52.0"}}, {"uniqueid": "w64010420:a86575817", "current_trial": 148, "dateTime": 1664464092679, "trialdata": {"rt": 348, "stimulus": "<p id='stroop-text' class='stroop-blue'>BLUE</p>", "response": "b", "stimulus-type": "congruent", "word": "blue", "color": "blue", "correct_response": "b", "trial_id": "stroop-trial-1-congruent-27", "trial_type": "html-keyboard-response", "trial_index": 148, "time_elapsed": 190851, "internal_node_id": "0.0-6.0-53.0"}}, {"uniqueid": "w64010420:a86575817", "current_trial": 149, "dateTime": 1664464093831, "trialdata": {"rt": 651, "stimulus": "<p id='stroop-text' class='stroop-red'>BRIDGE</p>", "response": "r", "stimulus-type": "unrelated", "word": "BRIDGE", "color": "red", "correct_response": "r", "trial_id": "stroop-trial-1-unrelated-25", "trial_type": "html-keyboard-response", "trial_index": 149, "time_elapsed": 192003, "internal_node_id": "0.0-6.0-54.0"}}, {"uniqueid": "w64010420:a86575817", "current_trial": 150, "dateTime": 1664464094859, "trialdata": {"rt": 526, "stimulus": "<p id='stroop-text' class='stroop-green'>GREEN</p>", "response": "g", "stimulus-type": "congruent", "word": "green", "color": "green", "correct_response": "g", "trial_id": "stroop-trial-1-congruent-2", "trial_type": "html-keyboard-response", "trial_index": 150, "time_elapsed": 193031, "internal_node_id": "0.0-6.0-55.0"}}, {"uniqueid": "w64010420:a86575817", "current_trial": 151, "dateTime": 1664464095850, "trialdata": {"rt": 488, "stimulus": "<p id='stroop-text' class='stroop-blue'>RED</p>", "response": "b", "stimulus-type": "incongruent", "word": "red", "color": "blue", "correct_response": "b", "trial_id": "stroop-trial-1-incongruent-13", "trial_type": "html-keyboard-response", "trial_index": 151, "time_elapsed": 194022, "internal_node_id": "0.0-6.0-56.0"}}, {"uniqueid": "w64010420:a86575817", "current_trial": 152, "dateTime": 1664464096740, "trialdata": {"rt": 388, "stimulus": "<p id='stroop-text' class='stroop-yellow'>BLUE</p>", "response": "y", "stimulus-type": "incongruent", "word": "blue", "color": "yellow", "correct_response": "y", "trial_id": "stroop-trial-1-incongruent-12", "trial_type": "html-keyboard-response", "trial_index": 152, "time_elapsed": 194912, "internal_node_id": "0.0-6.0-57.0"}}, {"uniqueid": "w64010420:a86575817", "current_trial": 153, "dateTime": 1664464098035, "trialdata": {"rt": 791, "stimulus": "<p id='stroop-text' class='stroop-green'>GREEN</p>", "response": "g", "stimulus-type": "congruent", "word": "green", "color": "green", "correct_response": "g", "trial_id": "stroop-trial-1-congruent-22", "trial_type": "html-keyboard-response", "trial_index": 153, "time_elapsed": 196207, "internal_node_id": "0.0-6.0-58.0"}}, {"uniqueid": "w64010420:a86575817", "current_trial": 154, "dateTime": 1664464099478, "trialdata": {"rt": 941, "stimulus": "<p id='stroop-text' class='stroop-blue'>YELLOW</p>", "response": "b", "stimulus-type": "incongruent", "word": "yellow", "color": "blue", "correct_response": "b", "trial_id": "stroop-trial-1-incongruent-4", "trial_type": "html-keyboard-response", "trial_index": 154, "time_elapsed": 197650, "internal_node_id": "0.0-6.0-59.0"}}, {"uniqueid": "w64010420:a86575817", "current_trial": 155, "dateTime": 1664464100379, "trialdata": {"rt": 398, "stimulus": "<p id='stroop-text' class='stroop-blue'>DOG</p>", "response": "b", "stimulus-type": "unrelated", "word": "DOG", "color": "blue", "correct_response": "b", "trial_id": "stroop-trial-1-unrelated-12", "trial_type": "html-keyboard-response", "trial_index": 155, "time_elapsed": 198551, "internal_node_id": "0.0-6.0-60.0"}}, {"uniqueid": "w64010420:a86575817", "current_trial": 156, "dateTime": 1664464101417, "trialdata": {"rt": 535, "stimulus": "<p id='stroop-text' class='stroop-yellow'>MONKEY</p>", "response": "y", "stimulus-type": "unrelated", "word": "MONKEY", "color": "yellow", "correct_response": "y", "trial_id": "stroop-trial-1-unrelated-4", "trial_type": "html-keyboard-response", "trial_index": 156, "time_elapsed": 199589, "internal_node_id": "0.0-6.0-61.0"}}, {"uniqueid": "w64010420:a86575817", "current_trial": 157, "dateTime": 1664464102542, "trialdata": {"rt": 623, "stimulus": "<p id='stroop-text' class='stroop-blue'>YELLOW</p>", "response": "b", "stimulus-type": "incongruent", "word": "yellow", "color": "blue", "correct_response": "b", "trial_id": "stroop-trial-1-incongruent-14", "trial_type": "html-keyboard-response", "trial_index": 157, "time_elapsed": 200713, "internal_node_id": "0.0-6.0-62.0"}}, {"uniqueid": "w64010420:a86575817", "current_trial": 158, "dateTime": 1664464103693, "trialdata": {"rt": 649, "stimulus": "<p id='stroop-text' class='stroop-green'>BLUE</p>", "response": "g", "stimulus-type": "incongruent", "word": "blue", "color": "green", "correct_response": "g", "trial_id": "stroop-trial-1-incongruent-21", "trial_type": "html-keyboard-response", "trial_index": 158, "time_elapsed": 201865, "internal_node_id": "0.0-6.0-63.0"}}, {"uniqueid": "w64010420:a86575817", "current_trial": 159, "dateTime": 1664464104675, "trialdata": {"rt": 479, "stimulus": "<p id='stroop-text' class='stroop-blue'>RED</p>", "response": "b", "stimulus-type": "incongruent", "word": "red", "color": "blue", "correct_response": "b", "trial_id": "stroop-trial-1-incongruent-15", "trial_type": "html-keyboard-response", "trial_index": 159, "time_elapsed": 202847, "internal_node_id": "0.0-6.0-64.0"}}, {"uniqueid": "w64010420:a86575817", "current_trial": 160, "dateTime": 1664464105696, "trialdata": {"rt": 508, "stimulus": "<p id='stroop-text' class='stroop-red'>RED</p>", "response": "r", "stimulus-type": "congruent", "word": "red", "color": "red", "correct_response": "r", "trial_id": "stroop-trial-1-congruent-3", "trial_type": "html-keyboard-response", "trial_index": 160, "time_elapsed": 203868, "internal_node_id": "0.0-6.0-65.0"}}, {"uniqueid": "w64010420:a86575817", "current_trial": 161, "dateTime": 1664464106950, "trialdata": {"rt": 751, "stimulus": "<p id='stroop-text' class='stroop-green'>SHIP</p>", "response": "g", "stimulus-type": "unrelated", "word": "SHIP", "color": "green", "correct_response": "g", "trial_id": "stroop-trial-1-unrelated-24", "trial_type": "html-keyboard-response", "trial_index": 161, "time_elapsed": 205122, "internal_node_id": "0.0-6.0-66.0"}}, {"uniqueid": "w64010420:a86575817", "current_trial": 162, "dateTime": 1664464107857, "trialdata": {"rt": 404, "stimulus": "<p id='stroop-text' class='stroop-green'>RED</p>", "response": "g", "stimulus-type": "incongruent", "word": "red", "color": "green", "correct_response": "g", "trial_id": "stroop-trial-1-incongruent-25", "trial_type": "html-keyboard-response", "trial_index": 162, "time_elapsed": 206029, "internal_node_id": "0.0-6.0-67.0"}}, {"uniqueid": "w64010420:a86575817", "current_trial": 163, "dateTime": 1664464108673, "trialdata": {"rt": 314, "stimulus": "<p id='stroop-text' class='stroop-green'>RED</p>", "response": "g", "stimulus-type": "incongruent", "word": "red", "color": "green", "correct_response": "g", "trial_id": "stroop-trial-1-incongruent-28", "trial_type": "html-keyboard-response", "trial_index": 163, "time_elapsed": 206845, "internal_node_id": "0.0-6.0-68.0"}}, {"uniqueid": "w64010420:a86575817", "current_trial": 164, "dateTime": 1664464109454, "trialdata": {"rt": 278, "stimulus": "<p id='stroop-text' class='stroop-green'>GREEN</p>", "response": "g", "stimulus-type": "congruent", "word": "green", "color": "green", "correct_response": "g", "trial_id": "stroop-trial-1-congruent-14", "trial_type": "html-keyboard-response", "trial_index": 164, "time_elapsed": 207626, "internal_node_id": "0.0-6.0-69.0"}}, {"uniqueid": "w64010420:a86575817", "current_trial": 165, "dateTime": 1664464110579, "trialdata": {"rt": 621, "stimulus": "<p id='stroop-text' class='stroop-red'>RED</p>", "response": "r", "stimulus-type": "congruent", "word": "red", "color": "red", "correct_response": "r", "trial_id": "stroop-trial-1-congruent-21", "trial_type": "html-keyboard-response", "trial_index": 165, "time_elapsed": 208751, "internal_node_id": "0.0-6.0-70.0"}}, {"uniqueid": "w64010420:a86575817", "current_trial": 166, "dateTime": 1664464111856, "trialdata": {"rt": 776, "stimulus": "<p id='stroop-text' class='stroop-blue'>CHAIR</p>", "response": "b", "stimulus-type": "unrelated", "word": "CHAIR", "color": "blue", "correct_response": "b", "trial_id": "stroop-trial-1-unrelated-14", "trial_type": "html-keyboard-response", "trial_index": 166, "time_elapsed": 210028, "internal_node_id": "0.0-6.0-71.0"}}, {"uniqueid": "w64010420:a86575817", "current_trial": 167, "dateTime": 1664464112729, "trialdata": {"rt": 370, "stimulus": "<p id='stroop-text' class='stroop-yellow'>BOAT</p>", "response": "y", "stimulus-type": "unrelated", "word": "BOAT", "color": "yellow", "correct_response": "y", "trial_id": "stroop-trial-1-unrelated-30", "trial_type": "html-keyboard-response", "trial_index": 167, "time_elapsed": 210901, "internal_node_id": "0.0-6.0-72.0"}}, {"uniqueid": "w64010420:a86575817", "current_trial": 168, "dateTime": 1664464114372, "trialdata": {"rt": 1141, "stimulus": "<p id='stroop-text' class='stroop-blue'>GREEN</p>", "response": "b", "stimulus-type": "incongruent", "word": "green", "color": "blue", "correct_response": "b", "trial_id": "stroop-trial-1-incongruent-5", "trial_type": "html-keyboard-response", "trial_index": 168, "time_elapsed": 212544, "internal_node_id": "0.0-6.0-73.0"}}, {"uniqueid": "w64010420:a86575817", "current_trial": 169, "dateTime": 1664464115261, "trialdata": {"rt": 387, "stimulus": "<p id='stroop-text' class='stroop-blue'>BLUE</p>", "response": "b", "stimulus-type": "congruent", "word": "blue", "color": "blue", "correct_response": "b", "trial_id": "stroop-trial-1-congruent-24", "trial_type": "html-keyboard-response", "trial_index": 169, "time_elapsed": 213433, "internal_node_id": "0.0-6.0-74.0"}}, {"uniqueid": "w64010420:a86575817", "current_trial": 170, "dateTime": 1664464116111, "trialdata": {"rt": 347, "stimulus": "<p id='stroop-text' class='stroop-blue'>BLUE</p>", "response": "b", "stimulus-type": "congruent", "word": "blue", "color": "blue", "correct_response": "b", "trial_id": "stroop-trial-1-congruent-29", "trial_type": "html-keyboard-response", "trial_index": 170, "time_elapsed": 214283, "internal_node_id": "0.0-6.0-75.0"}}, {"uniqueid": "w64010420:a86575817", "current_trial": 171, "dateTime": 1664464117127, "trialdata": {"rt": 511, "stimulus": "<p id='stroop-text' class='stroop-green'>BOAT</p>", "response": "g", "stimulus-type": "unrelated", "word": "BOAT", "color": "green", "correct_response": "g", "trial_id": "stroop-trial-1-unrelated-2", "trial_type": "html-keyboard-response", "trial_index": 171, "time_elapsed": 215299, "internal_node_id": "0.0-6.0-76.0"}}, {"uniqueid": "w64010420:a86575817", "current_trial": 172, "dateTime": 1664464118075, "trialdata": {"rt": 445, "stimulus": "<p id='stroop-text' class='stroop-yellow'>WINDOW</p>", "response": "y", "stimulus-type": "unrelated", "word": "WINDOW", "color": "yellow", "correct_response": "y", "trial_id": "stroop-trial-1-unrelated-7", "trial_type": "html-keyboard-response", "trial_index": 172, "time_elapsed": 216247, "internal_node_id": "0.0-6.0-77.0"}}, {"uniqueid": "w64010420:a86575817", "current_trial": 173, "dateTime": 1664464118958, "trialdata": {"rt": 381, "stimulus": "<p id='stroop-text' class='stroop-yellow'>YELLOW</p>", "response": "y", "stimulus-type": "congruent", "word": "yellow", "color": "yellow", "correct_response": "y", "trial_id": "stroop-trial-1-congruent-4", "trial_type": "html-keyboard-response", "trial_index": 173, "time_elapsed": 217130, "internal_node_id": "0.0-6.0-78.0"}}, {"uniqueid": "w64010420:a86575817", "current_trial": 174, "dateTime": 1664464119979, "trialdata": {"rt": 518, "stimulus": "<p id='stroop-text' class='stroop-red'>YELLOW</p>", "response": "r", "stimulus-type": "incongruent", "word": "yellow", "color": "red", "correct_response": "r", "trial_id": "stroop-trial-1-incongruent-16", "trial_type": "html-keyboard-response", "trial_index": 174, "time_elapsed": 218151, "internal_node_id": "0.0-6.0-79.0"}}, {"uniqueid": "w64010420:a86575817", "current_trial": 175, "dateTime": 1664464121017, "trialdata": {"rt": 536, "stimulus": "<p id='stroop-text' class='stroop-blue'>STONE</p>", "response": "g", "stimulus-type": "unrelated", "word": "STONE", "color": "blue", "correct_response": "b", "trial_id": "stroop-trial-1-unrelated-5", "trial_type": "html-keyboard-response", "trial_index": 175, "time_elapsed": 219189, "internal_node_id": "0.0-6.0-80.0"}}, {"uniqueid": "w64010420:a86575817", "current_trial": 176, "dateTime": 1664464122004, "trialdata": {"rt": 484, "stimulus": "<p id='stroop-text' class='stroop-blue'>BLUE</p>", "response": "b", "stimulus-type": "congruent", "word": "blue", "color": "blue", "correct_response": "b", "trial_id": "stroop-trial-1-congruent-5", "trial_type": "html-keyboard-response", "trial_index": 176, "time_elapsed": 220176, "internal_node_id": "0.0-6.0-81.0"}}, {"uniqueid": "w64010420:a86575817", "current_trial": 177, "dateTime": 1664464123008, "trialdata": {"rt": 502, "stimulus": "<p id='stroop-text' class='stroop-yellow'>YELLOW</p>", "response": "y", "stimulus-type": "congruent", "word": "yellow", "color": "yellow", "correct_response": "y", "trial_id": "stroop-trial-1-congruent-30", "trial_type": "html-keyboard-response", "trial_index": 177, "time_elapsed": 221180, "internal_node_id": "0.0-6.0-82.0"}}, {"uniqueid": "w64010420:a86575817", "current_trial": 178, "dateTime": 1664464123949, "trialdata": {"rt": 439, "stimulus": "<p id='stroop-text' class='stroop-yellow'>YELLOW</p>", "response": "y", "stimulus-type": "congruent", "word": "yellow", "color": "yellow", "correct_response": "y", "trial_id": "stroop-trial-1-congruent-7", "trial_type": "html-keyboard-response", "trial_index": 178, "time_elapsed": 222121, "internal_node_id": "0.0-6.0-83.0"}}, {"uniqueid": "w64010420:a86575817", "current_trial": 179, "dateTime": 1664464124884, "trialdata": {"rt": 434, "stimulus": "<p id='stroop-text' class='stroop-yellow'>RED</p>", "response": "y", "stimulus-type": "incongruent", "word": "red", "color": "yellow", "correct_response": "y", "trial_id": "stroop-trial-1-incongruent-3", "trial_type": "html-keyboard-response", "trial_index": 179, "time_elapsed": 223056, "internal_node_id": "0.0-6.0-84.0"}}, {"uniqueid": "w64010420:a86575817", "current_trial": 180, "dateTime": 1664464126060, "trialdata": {"rt": 673, "stimulus": "<p id='stroop-text' class='stroop-blue'>GREEN</p>", "response": "b", "stimulus-type": "incongruent", "word": "green", "color": "blue", "correct_response": "b", "trial_id": "stroop-trial-1-incongruent-9", "trial_type": "html-keyboard-response", "trial_index": 180, "time_elapsed": 224232, "internal_node_id": "0.0-6.0-85.0"}}, {"uniqueid": "w64010420:a86575817", "current_trial": 181, "dateTime": 1664464127052, "trialdata": {"rt": 490, "stimulus": "<p id='stroop-text' class='stroop-red'>RED</p>", "response": "r", "stimulus-type": "congruent", "word": "red", "color": "red", "correct_response": "r", "trial_id": "stroop-trial-1-congruent-18", "trial_type": "html-keyboard-response", "trial_index": 181, "time_elapsed": 225224, "internal_node_id": "0.0-6.0-86.0"}}, {"uniqueid": "w64010420:a86575817", "current_trial": 182, "dateTime": 1664464127953, "trialdata": {"rt": 399, "stimulus": "<p id='stroop-text' class='stroop-red'>BOTTLE</p>", "response": "r", "stimulus-type": "unrelated", "word": "BOTTLE", "color": "red", "correct_response": "r", "trial_id": "stroop-trial-1-unrelated-3", "trial_type": "html-keyboard-response", "trial_index": 182, "time_elapsed": 226125, "internal_node_id": "0.0-6.0-87.0"}}, {"uniqueid": "w64010420:a86575817", "current_trial": 183, "dateTime": 1664464129277, "trialdata": {"rt": 822, "stimulus": "<p id='stroop-text' class='stroop-yellow'>YELLOW</p>", "response": "y", "stimulus-type": "congruent", "word": "yellow", "color": "yellow", "correct_response": "y", "trial_id": "stroop-trial-1-congruent-20", "trial_type": "html-keyboard-response", "trial_index": 183, "time_elapsed": 227449, "internal_node_id": "0.0-6.0-88.0"}}, {"uniqueid": "w64010420:a86575817", "current_trial": 184, "dateTime": 1664464130127, "trialdata": {"rt": 348, "stimulus": "<p id='stroop-text' class='stroop-yellow'>CHAIR</p>", "response": "y", "stimulus-type": "unrelated", "word": "CHAIR", "color": "yellow", "correct_response": "y", "trial_id": "stroop-trial-1-unrelated-28", "trial_type": "html-keyboard-response", "trial_index": 184, "time_elapsed": 228299, "internal_node_id": "0.0-6.0-89.0"}}, {"uniqueid": "w64010420:a86575817", "current_trial": 185, "dateTime": 1664464135152, "trialdata": {"rt": 4523, "stimulus": "  <h1> End of block! </h1>\n\n  You have reached the end of the block 2/5. If you need a short break, feel free to take one now before moving on.\n\n  <br><br>\n  In the next block, you will complete another 90 rounds of this game.\n\n  <br><br>\n  <div style='text-align: center;'>Press <code>space</code> to begin.</div>\n  <br><br>\n<div style='text-align: center;'>(If the experiment doesn't continue, try clicking on the text and then pressing <code>space</code>.)</div>", "response": " ", "trial_id": "stroop_1_ready_3", "trial_type": "html-keyboard-response", "trial_index": 185, "time_elapsed": 233324, "internal_node_id": "0.0-7.0"}}, {"uniqueid": "w64010420:a86575817", "current_trial": 186, "dateTime": 1664464135745, "trialdata": {"rt": 591, "stimulus": "<p id='stroop-text' class='stroop-blue'>YELLOW</p>", "response": "b", "stimulus-type": "incongruent", "word": "yellow", "color": "blue", "correct_response": "b", "trial_id": "stroop-trial-1-incongruent-22", "trial_type": "html-keyboard-response", "trial_index": 186, "time_elapsed": 233917, "internal_node_id": "0.0-8.0-0.0"}}, {"uniqueid": "w64010420:a86575817", "current_trial": 187, "dateTime": 1664464136989, "trialdata": {"rt": 741, "stimulus": "<p id='stroop-text' class='stroop-red'>WINDOW</p>", "response": "r", "stimulus-type": "unrelated", "word": "WINDOW", "color": "red", "correct_response": "r", "trial_id": "stroop-trial-1-unrelated-8", "trial_type": "html-keyboard-response", "trial_index": 187, "time_elapsed": 235161, "internal_node_id": "0.0-8.0-1.0"}}, {"uniqueid": "w64010420:a86575817", "current_trial": 188, "dateTime": 1664464138015, "trialdata": {"rt": 523, "stimulus": "<p id='stroop-text' class='stroop-green'>BLUE</p>", "response": "g", "stimulus-type": "incongruent", "word": "blue", "color": "green", "correct_response": "g", "trial_id": "stroop-trial-1-incongruent-24", "trial_type": "html-keyboard-response", "trial_index": 188, "time_elapsed": 236187, "internal_node_id": "0.0-8.0-2.0"}}, {"uniqueid": "w64010420:a86575817", "current_trial": 189, "dateTime": 1664464138882, "trialdata": {"rt": 365, "stimulus": "<p id='stroop-text' class='stroop-yellow'>BLUE</p>", "response": "y", "stimulus-type": "incongruent", "word": "blue", "color": "yellow", "correct_response": "y", "trial_id": "stroop-trial-1-incongruent-1", "trial_type": "html-keyboard-response", "trial_index": 189, "time_elapsed": 237054, "internal_node_id": "0.0-8.0-3.0"}}, {"uniqueid": "w64010420:a86575817", "current_trial": 190, "dateTime": 1664464140120, "trialdata": {"rt": 736, "stimulus": "<p id='stroop-text' class='stroop-blue'>CHAIR</p>", "response": "b", "stimulus-type": "unrelated", "word": "CHAIR", "color": "blue", "correct_response": "b", "trial_id": "stroop-trial-1-unrelated-28", "trial_type": "html-keyboard-response", "trial_index": 190, "time_elapsed": 238292, "internal_node_id": "0.0-8.0-4.0"}}, {"uniqueid": "w64010420:a86575817", "current_trial": 191, "dateTime": 1664464141044, "trialdata": {"rt": 422, "stimulus": "<p id='stroop-text' class='stroop-blue'>STONE</p>", "response": "g", "stimulus-type": "unrelated", "word": "STONE", "color": "blue", "correct_response": "b", "trial_id": "stroop-trial-1-unrelated-13", "trial_type": "html-keyboard-response", "trial_index": 191, "time_elapsed": 239216, "internal_node_id": "0.0-8.0-5.0"}}, {"uniqueid": "w64010420:a86575817", "current_trial": 192, "dateTime": 1664464141974, "trialdata": {"rt": 427, "stimulus": "<p id='stroop-text' class='stroop-green'>RED</p>", "response": "g", "stimulus-type": "incongruent", "word": "red", "color": "green", "correct_response": "g", "trial_id": "stroop-trial-1-incongruent-16", "trial_type": "html-keyboard-response", "trial_index": 192, "time_elapsed": 240146, "internal_node_id": "0.0-8.0-6.0"}}, {"uniqueid": "w64010420:a86575817", "current_trial": 193, "dateTime": 1664464142944, "trialdata": {"rt": 468, "stimulus": "<p id='stroop-text' class='stroop-yellow'>CHAIR</p>", "response": "y", "stimulus-type": "unrelated", "word": "CHAIR", "color": "yellow", "correct_response": "y", "trial_id": "stroop-trial-1-unrelated-7", "trial_type": "html-keyboard-response", "trial_index": 193, "time_elapsed": 241116, "internal_node_id": "0.0-8.0-7.0"}}, {"uniqueid": "w64010420:a86575817", "current_trial": 194, "dateTime": 1664464143891, "trialdata": {"rt": 444, "stimulus": "<p id='stroop-text' class='stroop-blue'>GREEN</p>", "response": "b", "stimulus-type": "incongruent", "word": "green", "color": "blue", "correct_response": "b", "trial_id": "stroop-trial-1-incongruent-7", "trial_type": "html-keyboard-response", "trial_index": 194, "time_elapsed": 242063, "internal_node_id": "0.0-8.0-8.0"}}, {"uniqueid": "w64010420:a86575817", "current_trial": 195, "dateTime": 1664464144889, "trialdata": {"rt": 486, "stimulus": "<p id='stroop-text' class='stroop-red'>RED</p>", "response": "r", "stimulus-type": "congruent", "word": "red", "color": "red", "correct_response": "r", "trial_id": "stroop-trial-1-congruent-7", "trial_type": "html-keyboard-response", "trial_index": 195, "time_elapsed": 243061, "internal_node_id": "0.0-8.0-9.0"}}, {"uniqueid": "w64010420:a86575817", "current_trial": 196, "dateTime": 1664464145944, "trialdata": {"rt": 552, "stimulus": "<p id='stroop-text' class='stroop-green'>GREEN</p>", "response": "g", "stimulus-type": "congruent", "word": "green", "color": "green", "correct_response": "g", "trial_id": "stroop-trial-1-congruent-13", "trial_type": "html-keyboard-response", "trial_index": 196, "time_elapsed": 244116, "internal_node_id": "0.0-8.0-10.0"}}, {"uniqueid": "w64010420:a86575817", "current_trial": 197, "dateTime": 1664464147051, "trialdata": {"rt": 604, "stimulus": "<p id='stroop-text' class='stroop-red'>RED</p>", "response": "r", "stimulus-type": "congruent", "word": "red", "color": "red", "correct_response": "r", "trial_id": "stroop-trial-1-congruent-5", "trial_type": "html-keyboard-response", "trial_index": 197, "time_elapsed": 245223, "internal_node_id": "0.0-8.0-11.0"}}, {"uniqueid": "w64010420:a86575817", "current_trial": 198, "dateTime": 1664464147925, "trialdata": {"rt": 371, "stimulus": "<p id='stroop-text' class='stroop-yellow'>BLUE</p>", "response": "y", "stimulus-type": "incongruent", "word": "blue", "color": "yellow", "correct_response": "y", "trial_id": "stroop-trial-1-incongruent-11", "trial_type": "html-keyboard-response", "trial_index": 198, "time_elapsed": 246097, "internal_node_id": "0.0-8.0-12.0"}}, {"uniqueid": "w64010420:a86575817", "current_trial": 199, "dateTime": 1664464149549, "trialdata": {"rt": 1121, "stimulus": "<p id='stroop-text' class='stroop-red'>STONE</p>", "response": "r", "stimulus-type": "unrelated", "word": "STONE", "color": "red", "correct_response": "r", "trial_id": "stroop-trial-1-unrelated-15", "trial_type": "html-keyboard-response", "trial_index": 199, "time_elapsed": 247721, "internal_node_id": "0.0-8.0-13.0"}}, {"uniqueid": "w64010420:a86575817", "current_trial": 200, "dateTime": 1664464150542, "trialdata": {"rt": 490, "stimulus": "<p id='stroop-text' class='stroop-red'>RED</p>", "response": "r", "stimulus-type": "congruent", "word": "red", "color": "red", "correct_response": "r", "trial_id": "stroop-trial-1-congruent-17", "trial_type": "html-keyboard-response", "trial_index": 200, "time_elapsed": 248714, "internal_node_id": "0.0-8.0-14.0"}}, {"uniqueid": "w64010420:a86575817", "current_trial": 201, "dateTime": 1664464151352, "trialdata": {"rt": 300, "stimulus": "<p id='stroop-text' class='stroop-red'>RED</p>", "response": "r", "stimulus-type": "congruent", "word": "red", "color": "red", "correct_response": "r", "trial_id": "stroop-trial-1-congruent-19", "trial_type": "html-keyboard-response", "trial_index": 201, "time_elapsed": 249524, "internal_node_id": "0.0-8.0-15.0"}}, {"uniqueid": "w64010420:a86575817", "current_trial": 202, "dateTime": 1664464152458, "trialdata": {"rt": 603, "stimulus": "<p id='stroop-text' class='stroop-blue'>YELLOW</p>", "response": "b", "stimulus-type": "incongruent", "word": "yellow", "color": "blue", "correct_response": "b", "trial_id": "stroop-trial-1-incongruent-21", "trial_type": "html-keyboard-response", "trial_index": 202, "time_elapsed": 250630, "internal_node_id": "0.0-8.0-16.0"}}, {"uniqueid": "w64010420:a86575817", "current_trial": 203, "dateTime": 1664464153445, "trialdata": {"rt": 484, "stimulus": "<p id='stroop-text' class='stroop-red'>RED</p>", "response": "g", "stimulus-type": "congruent", "word": "red", "color": "red", "correct_response": "r", "trial_id": "stroop-trial-1-congruent-27", "trial_type": "html-keyboard-response", "trial_index": 203, "time_elapsed": 251617, "internal_node_id": "0.0-8.0-17.0"}}, {"uniqueid": "w64010420:a86575817", "current_trial": 204, "dateTime": 1664464155071, "trialdata": {"rt": 1124, "stimulus": "<p id='stroop-text' class='stroop-blue'>BLUE</p>", "response": "b", "stimulus-type": "congruent", "word": "blue", "color": "blue", "correct_response": "b", "trial_id": "stroop-trial-1-congruent-23", "trial_type": "html-keyboard-response", "trial_index": 204, "time_elapsed": 253243, "internal_node_id": "0.0-8.0-18.0"}}, {"uniqueid": "w64010420:a86575817", "current_trial": 205, "dateTime": 1664464156548, "trialdata": {"rt": 975, "stimulus": "<p id='stroop-text' class='stroop-green'>BLUE</p>", "response": "g", "stimulus-type": "incongruent", "word": "blue", "color": "green", "correct_response": "g", "trial_id": "stroop-trial-1-incongruent-20", "trial_type": "html-keyboard-response", "trial_index": 205, "time_elapsed": 254720, "internal_node_id": "0.0-8.0-19.0"}}, {"uniqueid": "w64010420:a86575817", "current_trial": 206, "dateTime": 1664464157484, "trialdata": {"rt": 434, "stimulus": "<p id='stroop-text' class='stroop-red'>RED</p>", "response": "r", "stimulus-type": "congruent", "word": "red", "color": "red", "correct_response": "r", "trial_id": "stroop-trial-1-congruent-24", "trial_type": "html-keyboard-response", "trial_index": 206, "time_elapsed": 255656, "internal_node_id": "0.0-8.0-20.0"}}, {"uniqueid": "w64010420:a86575817", "current_trial": 207, "dateTime": 1664464159030, "trialdata": {"rt": 1044, "stimulus": "<p id='stroop-text' class='stroop-green'>WINDOW</p>", "response": "g", "stimulus-type": "unrelated", "word": "WINDOW", "color": "green", "correct_response": "g", "trial_id": "stroop-trial-1-unrelated-26", "trial_type": "html-keyboard-response", "trial_index": 207, "time_elapsed": 257202, "internal_node_id": "0.0-8.0-21.0"}}, {"uniqueid": "w64010420:a86575817", "current_trial": 208, "dateTime": 1664464160398, "trialdata": {"rt": 866, "stimulus": "<p id='stroop-text' class='stroop-red'>CHAIR</p>", "response": "r", "stimulus-type": "unrelated", "word": "CHAIR", "color": "red", "correct_response": "r", "trial_id": "stroop-trial-1-unrelated-16", "trial_type": "html-keyboard-response", "trial_index": 208, "time_elapsed": 258570, "internal_node_id": "0.0-8.0-22.0"}}, {"uniqueid": "w64010420:a86575817", "current_trial": 209, "dateTime": 1664464161767, "trialdata": {"rt": 866, "stimulus": "<p id='stroop-text' class='stroop-blue'>BLUE</p>", "response": "b", "stimulus-type": "congruent", "word": "blue", "color": "blue", "correct_response": "b", "trial_id": "stroop-trial-1-congruent-11", "trial_type": "html-keyboard-response", "trial_index": 209, "time_elapsed": 259939, "internal_node_id": "0.0-8.0-23.0"}}, {"uniqueid": "w64010420:a86575817", "current_trial": 210, "dateTime": 1664464162600, "trialdata": {"rt": 331, "stimulus": "<p id='stroop-text' class='stroop-yellow'>WINDOW</p>", "response": "y", "stimulus-type": "unrelated", "word": "WINDOW", "color": "yellow", "correct_response": "y", "trial_id": "stroop-trial-1-unrelated-12", "trial_type": "html-keyboard-response", "trial_index": 210, "time_elapsed": 260772, "internal_node_id": "0.0-8.0-24.0"}}, {"uniqueid": "w64010420:a86575817", "current_trial": 211, "dateTime": 1664464163507, "trialdata": {"rt": 403, "stimulus": "<p id='stroop-text' class='stroop-yellow'>RED</p>", "response": "y", "stimulus-type": "incongruent", "word": "red", "color": "yellow", "correct_response": "y", "trial_id": "stroop-trial-1-incongruent-29", "trial_type": "html-keyboard-response", "trial_index": 211, "time_elapsed": 261679, "internal_node_id": "0.0-8.0-25.0"}}, {"uniqueid": "w64010420:a86575817", "current_trial": 212, "dateTime": 1664464164655, "trialdata": {"rt": 645, "stimulus": "<p id='stroop-text' class='stroop-green'>GREEN</p>", "response": "g", "stimulus-type": "congruent", "word": "green", "color": "green", "correct_response": "g", "trial_id": "stroop-trial-1-congruent-6", "trial_type": "html-keyboard-response", "trial_index": 212, "time_elapsed": 262826, "internal_node_id": "0.0-8.0-26.0"}}, {"uniqueid": "w64010420:a86575817", "current_trial": 213, "dateTime": 1664464165612, "trialdata": {"rt": 455, "stimulus": "<p id='stroop-text' class='stroop-yellow'>WINDOW</p>", "response": "y", "stimulus-type": "unrelated", "word": "WINDOW", "color": "yellow", "correct_response": "y", "trial_id": "stroop-trial-1-unrelated-6", "trial_type": "html-keyboard-response", "trial_index": 213, "time_elapsed": 263784, "internal_node_id": "0.0-8.0-27.0"}}, {"uniqueid": "w64010420:a86575817", "current_trial": 214, "dateTime": 1664464166519, "trialdata": {"rt": 405, "stimulus": "<p id='stroop-text' class='stroop-yellow'>BLUE</p>", "response": "y", "stimulus-type": "incongruent", "word": "blue", "color": "yellow", "correct_response": "y", "trial_id": "stroop-trial-1-incongruent-8", "trial_type": "html-keyboard-response", "trial_index": 214, "time_elapsed": 264691, "internal_node_id": "0.0-8.0-28.0"}}, {"uniqueid": "w64010420:a86575817", "current_trial": 215, "dateTime": 1664464167357, "trialdata": {"rt": 336, "stimulus": "<p id='stroop-text' class='stroop-yellow'>YELLOW</p>", "response": "y", "stimulus-type": "congruent", "word": "yellow", "color": "yellow", "correct_response": "y", "trial_id": "stroop-trial-1-congruent-10", "trial_type": "html-keyboard-response", "trial_index": 215, "time_elapsed": 265529, "internal_node_id": "0.0-8.0-29.0"}}, {"uniqueid": "w64010420:a86575817", "current_trial": 216, "dateTime": 1664464168424, "trialdata": {"rt": 564, "stimulus": "<p id='stroop-text' class='stroop-blue'>GREEN</p>", "response": "b", "stimulus-type": "incongruent", "word": "green", "color": "blue", "correct_response": "b", "trial_id": "stroop-trial-1-incongruent-25", "trial_type": "html-keyboard-response", "trial_index": 216, "time_elapsed": 266596, "internal_node_id": "0.0-8.0-30.0"}}, {"uniqueid": "w64010420:a86575817", "current_trial": 217, "dateTime": 1664464169279, "trialdata": {"rt": 351, "stimulus": "<p id='stroop-text' class='stroop-blue'>BRAIN</p>", "response": "b", "stimulus-type": "unrelated", "word": "BRAIN", "color": "blue", "correct_response": "b", "trial_id": "stroop-trial-1-unrelated-29", "trial_type": "html-keyboard-response", "trial_index": 217, "time_elapsed": 267451, "internal_node_id": "0.0-8.0-31.0"}}, {"uniqueid": "w64010420:a86575817", "current_trial": 218, "dateTime": 1664464170255, "trialdata": {"rt": 474, "stimulus": "<p id='stroop-text' class='stroop-red'>RED</p>", "response": "r", "stimulus-type": "congruent", "word": "red", "color": "red", "correct_response": "r", "trial_id": "stroop-trial-1-congruent-28", "trial_type": "html-keyboard-response", "trial_index": 218, "time_elapsed": 268427, "internal_node_id": "0.0-8.0-32.0"}}, {"uniqueid": "w64010420:a86575817", "current_trial": 219, "dateTime": 1664464171345, "trialdata": {"rt": 586, "stimulus": "<p id='stroop-text' class='stroop-green'>GREEN</p>", "response": "g", "stimulus-type": "congruent", "word": "green", "color": "green", "correct_response": "g", "trial_id": "stroop-trial-1-congruent-21", "trial_type": "html-keyboard-response", "trial_index": 219, "time_elapsed": 269517, "internal_node_id": "0.0-8.0-33.0"}}, {"uniqueid": "w64010420:a86575817", "current_trial": 220, "dateTime": 1664464172257, "trialdata": {"rt": 410, "stimulus": "<p id='stroop-text' class='stroop-yellow'>GREEN</p>", "response": "g", "stimulus-type": "incongruent", "word": "green", "color": "yellow", "correct_response": "y", "trial_id": "stroop-trial-1-incongruent-2", "trial_type": "html-keyboard-response", "trial_index": 220, "time_elapsed": 270429, "internal_node_id": "0.0-8.0-34.0"}}, {"uniqueid": "w64010420:a86575817", "current_trial": 221, "dateTime": 1664464174612, "trialdata": {"rt": 1844, "stimulus": "<p id='stroop-text' class='stroop-blue'>YELLOW</p>", "response": "b", "stimulus-type": "incongruent", "word": "yellow", "color": "blue", "correct_response": "b", "trial_id": "stroop-trial-1-incongruent-18", "trial_type": "html-keyboard-response", "trial_index": 221, "time_elapsed": 272784, "internal_node_id": "0.0-8.0-35.0"}}, {"uniqueid": "w64010420:a86575817", "current_trial": 222, "dateTime": 1664464175947, "trialdata": {"rt": 833, "stimulus": "<p id='stroop-text' class='stroop-blue'>BLUE</p>", "response": "b", "stimulus-type": "congruent", "word": "blue", "color": "blue", "correct_response": "b", "trial_id": "stroop-trial-1-congruent-15", "trial_type": "html-keyboard-response", "trial_index": 222, "time_elapsed": 274119, "internal_node_id": "0.0-8.0-36.0"}}, {"uniqueid": "w64010420: