{"condition": 1, "counterbalance": 0, "assignmentId": "a69030824", "workerId": "w85082659", "hitId": "h92372921", "currenttrial": 137, "bonus": 0, "data": [{"uniqueid": "w85082659:a69030824", "current_trial": 0, "dateTime": 1664465400272, "trialdata": {"success": true, "trial_type": "fullscreen", "trial_index": 0, "time_elapsed": 6673, "internal_node_id": "0.0-0.0"}}, {"uniqueid": "w85082659:a69030824", "current_trial": 1, "dateTime": 1664465410900, "trialdata": {"view_history": [{"page_index": 0, "viewing_time": 10623}], "rt": 10624, "trial_id": "exp_instructions_no_distractor", "trial_type": "instructions", "trial_index": 1, "time_elapsed": 17302, "internal_node_id": "0.0-1.0"}}, {"uniqueid": "w85082659:a69030824", "current_trial": 2, "dateTime": 1664465413961, "trialdata": {"success": true, "trial_type": "fullscreen", "trial_index": 2, "time_elapsed": 20363, "internal_node_id": "0.0-2.0-0.0"}}, {"uniqueid": "w85082659:a69030824", "current_trial": 3, "dateTime": 1664465487640, "trialdata": {"view_history": [{"page_index": 0, "viewing_time": 25073}, {"page_index": 1, "viewing_time": 20323}, {"page_index": 2, "viewing_time": 5837}, {"page_index": 3, "viewing_time": 5478}, {"page_index": 4, "viewing_time": 16967}], "rt": 73678, "trial_id": "mouselab_instructions_1", "trial_type": "instructions", "trial_index": 3, "time_elapsed": 94042, "internal_node_id": "0.0-2.0-1.0"}}, {"uniqueid": "w85082659:a69030824", "current_trial": 4, "dateTime": 1664465524849, "trialdata": {"revealed_states": [], "num_clicks_accrued": [0, 0, 0, 0, 0, 0, 0, 0, 0, 0, 0, 0, 0], "stateRewards": ["", 10, 10, 10, 10, -10, -10, 10, -10, -10, 10, -10, 10], "withholdReward": false, "trial_id": "practice_1", "block": "test", "trialIndex": 0, "score": 31.75, "costs": -0.25, "simulationMode": [null, null, null], "rewards": [10, 10, 10], "path": ["0", "0", "1", "2", "3"], "rt": [17601, 1158, 156], "actions": ["up", "up", "right"], "actionTimes": [20068, 21715, 22363], "queries": {"click": {"state": {"target": ["3"], "time": [15091]}, "edge": {"target": [], "time": []}}, "mouseover": {"state": {"target": ["6", "1", "2", "3", "1"], "time": [8356, 11222, 12223, 14456, 16839]}, "edge": {"target": [], "time": []}}, "mouseout": {"state": {"target": ["6", "1", "2", "3", "1", "5"], "time": [10739, 12156, 14423, 15340, 17456, 35457]}, "edge": {"target": [], "time": []}}}, "displayed_time": "22.86", "trialTime": 36962, "trial_type": "mouselab-mdp", "trial_index": 4, "time_elapsed": 131251, "internal_node_id": "0.0-2.0-2.0-0.0"}}, {"uniqueid": "w85082659:a69030824", "current_trial": 5, "dateTime": 1664465532200, "trialdata": {"revealed_states": [], "num_clicks_accrued": [0, 0, 0, 0, 0, 0, 0, 0, 0, 0, 0, 0, 0], "stateRewards": ["", 10, 10, 10, 10, -10, -10, -10, 10, 10, 10, -10, -10], "withholdReward": false, "trial_id": "practice_2", "block": "test", "trialIndex": 1, "score": 32, "costs": 0, "simulationMode": [null, null, null], "rewards": [10, 10, 10], "path": ["0", "0", "1", "2", "4"], "rt": [2005, 58, 56], "actions": ["up", "up", "left"], "actionTimes": [3979, 4538, 5086], "queries": {"click": {"state": {"target": [], "time": []}, "edge": {"target": [], "time": []}}, "mouseover": {"state": {"target": ["5"], "time": [2279]}, "edge": {"target": [], "time": []}}, "mouseout": {"state": {"target": ["8", "0", "5", "5", "8"], "time": [962, 1469, 2563, 7163, 7213]}, "edge": {"target": [], "time": []}}}, "displayed_time": "5.60", "trialTime": 7286, "trial_type": "mouselab-mdp", "trial_index": 5, "time_elapsed": 138602, "internal_node_id": "0.0-2.0-2.0-1.0"}}, {"uniqueid": "w85082659:a69030824", "current_trial": 6, "dateTime": 1664465569464, "trialdata": {"view_history": [{"page_index": 0, "viewing_time": 22148}, {"page_index": 1, "viewing_time": 12179}, {"page_index": 2, "viewing_time": 2934}], "rt": 37262, "trial_id": "mouselab_instructions_2_scarce", "trial_type": "instructions", "trial_index": 6, "time_elapsed": 175866, "internal_node_id": "0.0-2.0-3.0"}}, {"uniqueid": "w85082659:a69030824", "current_trial": 7, "dateTime": 1664465604981, "trialdata": {"rt": 35512, "response": {"Q0": "$-48 to $48", "Q1": "The cost is always $0.25.", "Q2": "The better I perform the higher my bonus will be.", "Q3": "No, the amount of cash at each node of the web may be different each time.", "Q4": "The values of the nodes walked through from start to finish.", "Q5": "No, the spider might forget to count the money on some rounds."}, "question_order": [0, 1, 2, 3, 4, 5], "correct": {"Q0": "$-48 to $48", "Q1": "The cost is always $0.25.", "Q2": "The better I perform the higher my bonus will be.", "Q3": "No, the amount of cash at each node of the web may be different each time.", "Q4": "The values of the nodes walked through from start to finish.", "Q5": "No, the spider might forget to count the money on some rounds."}, "trial_id": "mouselab_quiz_scarce", "trial_type": "survey-multi-choice", "trial_index": 7, "time_elapsed": 211383, "internal_node_id": "0.0-2.0-4.0"}}, {"uniqueid": "w85082659:a69030824", "current_trial": 8, "dateTime": 1664465609846, "trialdata": {"rt": 4856, "stimulus": "\n<h1> Get ready to start the game! </h1>\n\nThank you for reading the instructions. Get ready start with the first of 4 block(s) of this game.\n<br><br>\nIn this first block, you will complete 30 rounds of this game before moving on.\n<br><br>\nRemember, the more money the spider gets, the bigger your bonus will be!\n<br><br>\n<div style='text-align: center;'>Press <code>space</code> to begin.</div>\n\n<br><br>\n(If, at any point, the <code>space</code> key does not take you to the next page, click once on the text and try again.)", "response": " ", "trial_id": "mdp_ready_1", "trial_type": "html-keyboard-response", "trial_index": 8, "time_elapsed": 216248, "internal_node_id": "0.0-4.0-0.0"}}, {"uniqueid": "w85082659:a69030824", "current_trial": 9, "dateTime": 1664465623117, "trialdata": {"revealed_states": [], "num_clicks_accrued": [0, 0, 0, 0, 0, 0, 0, 0, 0, 0, 0, 0, 0], "stateRewards": ["", -2, 8, -24, 48, -4, 4, -48, 24, 4, -8, 48, -24], "withholdReward": false, "trial_id": "mdp_425320427962", "block": "test1", "trialIndex": 2, "score": 58.75, "costs": -0.25, "simulationMode": [null, null, null], "rewards": [-2, 8, 48], "path": ["0", "0", "1", "2", "4"], "rt": [7820, 66, 1215], "actions": ["up", "up", "left"], "actionTimes": [9223, 9779, 11511], "queries": {"click": {"state": {"target": ["4"], "time": [7641]}, "edge": {"target": [], "time": []}}, "mouseover": {"state": {"target": ["1", "4", "4", "2", "3"], "time": [3962, 4245, 6279, 7912, 7962]}, "edge": {"target": [], "time": []}}, "mouseout": {"state": {"target": ["6", "5", "1", "4", "4", "2", "3"], "time": [545, 628, 3979, 5346, 7895, 7946, 7979]}, "edge": {"target": [], "time": []}}}, "displayed_time": "12.01", "trialTime": 13215, "trial_type": "mouselab-mdp", "trial_index": 9, "time_elapsed": 229519, "internal_node_id": "0.0-4.0-1.0-0.0"}}, {"uniqueid": "w85082659:a69030824", "current_trial": 10, "dateTime": 1664465634376, "trialdata": {"revealed_states": [], "num_clicks_accrued": [0, 0, 0, 0, 0, 0, 0, 0, 0, 0, 0, 0, 0], "stateRewards": ["", -2, 4, -24, -24, -2, 4, 48, 24, -4, -8, 24, -48], "withholdReward": true, "trial_id": "mdp_191839460481", "block": "test1", "trialIndex": 3, "score": -17, "costs": 0, "simulationMode": [null, null, null], "rewards": [-2, 4, -24], "path": ["0", "0", "1", "2", "3"], "rt": [4869, 71, 89], "actions": ["up", "up", "right"], "actionTimes": [7075, 7634, 8218], "queries": {"click": {"state": {"target": [], "time": []}, "edge": {"target": [], "time": []}}, "mouseover": {"state": {"target": ["0", "5", "6", "3"], "time": [2496, 2562, 2612, 4412]}, "edge": {"target": [], "time": []}}, "mouseout": {"state": {"target": ["0", "5", "6", "3"], "time": [2529, 2595, 2629, 5512]}, "edge": {"target": [], "time": []}}}, "displayed_time": "10.21", "trialTime": 11207, "trial_type": "mouselab-mdp", "trial_index": 10, "time_elapsed": 240778, "internal_node_id": "0.0-4.0-1.0-1.0"}}, {"uniqueid": "w85082659:a69030824", "current_trial": 11, "dateTime": 1664465646408, "trialdata": {"revealed_states": [], "num_clicks_accrued": [0, 0, 0, 0, 0, 0, 0, 0, 0, 0, 0, 0, 0], "stateRewards": ["", 2, -8, 48, -24, 2, 8, 24, -24, 4, -4, -48, -48], "withholdReward": true, "trial_id": "mdp_130946197263", "block": "test1", "trialIndex": 4, "score": -9, "costs": 0, "simulationMode": [null, null, null], "rewards": [2, 8, -24], "path": ["0", "0", "5", "6", "8"], "rt": [1438, 55, 60], "actions": ["right", "right", "down"], "actionTimes": [3626, 4174, 4730], "queries": {"click": {"state": {"target": [], "time": []}, "edge": {"target": [], "time": []}}, "mouseover": {"state": {"target": ["5", "6"], "time": [2369, 2419]}, "edge": {"target": [], "time": []}}, "mouseout": {"state": {"target": ["5", "5", "6"], "time": [1769, 2402, 2436]}, "edge": {"target": [], "time": []}}}, "displayed_time": "11.19", "trialTime": 11979, "trial_type": "mouselab-mdp", "trial_index": 11, "time_elapsed": 252810, "internal_node_id": "0.0-4.0-1.0-2.0"}}, {"uniqueid": "w85082659:a69030824", "current_trial": 12, "dateTime": 1664465657727, "trialdata": {"revealed_states": [], "num_clicks_accrued": [0, 0, 0, 0, 0, 0, 0, 0, 0, 0, 0, 0, 0], "stateRewards": ["", 2, -4, -24, -48, -2, 8, -24, 48, -2, 8, 24, -48], "withholdReward": false, "trial_id": "mdp_566582551557", "block": "test1", "trialIndex": 5, "score": -13, "costs": 0, "simulationMode": [null, null, null], "rewards": [-2, 8, -24], "path": ["0", "0", "5", "6", "7"], "rt": [5420, 497, 50], "actions": ["right", "right", "up"], "actionTimes": [7274, 8266, 8802], "queries": {"click": {"state": {"target": [], "time": []}, "edge": {"target": [], "time": []}}, "mouseover": {"state": {"target": ["5", "8", "8", "6", "5", "6"], "time": [2234, 4784, 5018, 5835, 6001, 6184]}, "edge": {"target": [], "time": []}}, "mouseout": {"state": {"target": ["6", "5", "5", "8", "8", "6", "5", "6"], "time": [1534, 1634, 2251, 4851, 5752, 5951, 6168, 6201]}, "edge": {"target": [], "time": []}}}, "displayed_time": "9.86", "trialTime": 11262, "trial_type": "mouselab-mdp", "trial_index": 12, "time_elapsed": 264129, "internal_node_id": "0.0-4.0-1.0-3.0"}}, {"uniqueid": "w85082659:a69030824", "current_trial": 13, "dateTime": 1664465668643, "trialdata": {"revealed_states": [], "num_clicks_accrued": [0, 0, 0, 0, 0, 0, 0, 0, 0, 0, 0, 0, 0], "stateRewards": ["", 2, -8, 48, -24, 2, -4, 24, 48, 4, -4, 48, -24], "withholdReward": true, "trial_id": "mdp_656500928756", "block": "test1", "trialIndex": 6, "score": -19, "costs": 0, "simulationMode": [null, null, null], "rewards": [4, -4, -24], "path": ["0", "0", "9", "10", "12"], "rt": [1180, 142, 53], "actions": ["left", "left", "down"], "actionTimes": [3215, 3858, 4402], "queries": {"click": {"state": {"target": [], "time": []}, "edge": {"target": [], "time": []}}, "mouseover": {"state": {"target": ["5", "6"], "time": [2166, 2183]}, "edge": {"target": [], "time": []}}, "mouseout": {"state": {"target": ["0", "5", "6"], "time": [2149, 2182, 2199]}, "edge": {"target": [], "time": []}}}, "displayed_time": "10.04", "trialTime": 10859, "trial_type": "mouselab-mdp", "trial_index": 13, "time_elapsed": 275045, "internal_node_id": "0.0-4.0-1.0-4.0"}}, {"uniqueid": "w85082659:a69030824", "current_trial": 14, "dateTime": 1664465679966, "trialdata": {"revealed_states": [], "num_clicks_accrued": [0, 0, 0, 0, 0, 0, 0, 0, 0, 0, 0, 0, 0], "stateRewards": ["", 2, -4, -24, -24, -2, -8, -48, 24, -4, -8, 24, 24], "withholdReward": true, "trial_id": "mdp_521351546461", "block": "test1", "trialIndex": 7, "score": -21, "costs": 0, "simulationMode": [null, null, null], "rewards": [2, -4, -24], "path": ["0", "0", "1", "2", "4"], "rt": [904, 11, 34], "actions": ["up", "up", "left"], "actionTimes": [2562, 3061, 3617], "queries": {"click": {"state": {"target": [], "time": []}, "edge": {"target": [], "time": []}}, "mouseover": {"state": {"target": ["5"], "time": [1782]}, "edge": {"target": [], "time": []}}, "mouseout": {"state": {"target": ["6", "5", "0", "5"], "time": [1366, 1483, 1766, 1799]}, "edge": {"target": [], "time": []}}}, "displayed_time": "10.66", "trialTime": 11265, "trial_type": "mouselab-mdp", "trial_index": 14, "time_elapsed": 286368, "internal_node_id": "0.0-4.0-1.0-5.0"}}, {"uniqueid": "w85082659:a69030824", "current_trial": 15, "dateTime": 1664465692575, "trialdata": {"revealed_states": [], "num_clicks_accrued": [0, 0, 0, 0, 0, 0, 0, 0, 0, 0, 0, 0, 0], "stateRewards": ["", -2, -8, 24, -48, -4, 8, -48, -24, 4, 8, -24, 24], "withholdReward": true, "trial_id": "mdp_940444641142", "block": "test1", "trialIndex": 8, "score": 41, "costs": 0, "simulationMode": [null, null, null], "rewards": [4, 8, 24], "path": ["0", "0", "9", "10", "12"], "rt": [1741, 61, 34], "actions": ["left", "left", "down"], "actionTimes": [3081, 3637, 4161], "queries": {"click": {"state": {"target": [], "time": []}, "edge": {"target": [], "time": []}}, "mouseover": {"state": {"target": ["5"], "time": [1509]}, "edge": {"target": [], "time": []}}, "mouseout": {"state": {"target": ["6", "5", "0", "5"], "time": [1042, 1175, 1442, 1526]}, "edge": {"target": [], "time": []}}}, "displayed_time": "10.34", "trialTime": 12549, "trial_type": "mouselab-mdp", "trial_index": 15, "time_elapsed": 298976, "internal_node_id": "0.0-4.0-1.0-6.0"}}, {"uniqueid": "w85082659:a69030824", "current_trial": 16, "dateTime": 1664465708057, "trialdata": {"revealed_states": [], "num_clicks_accrued": [0, 0, 0, 0, 0, 0, 0, 0, 0, 0, 0, 0, 0], "stateRewards": ["", 2, 4, -48, -48, 2, 4, 48, -24, -2, 8, 48, -48], "withholdReward": true, "trial_id": "mdp_258528916140", "block": "test1", "trialIndex": 9, "score": -37, "costs": 0, "simulationMode": [null, null, null], "rewards": [2, 4, -48], "path": ["0", "0", "1", "2", "3"], "rt": [1236, 504, 48], "actions": ["up", "up", "right"], "actionTimes": [2659, 3659, 4203], "queries": {"click": {"state": {"target": [], "time": []}, "edge": {"target": [], "time": []}}, "mouseover": {"state": {"target": ["5"], "time": [1537]}, "edge": {"target": [], "time": []}}, "mouseout": {"state": {"target": ["8", "0", "5"], "time": [987, 1520, 1554]}, "edge": {"target": [], "time": []}}}, "displayed_time": "9.42", "trialTime": 15426, "trial_type": "mouselab-mdp", "trial_index": 16, "time_elapsed": 314459, "internal_node_id": "0.0-4.0-1.0-7.0"}}, {"uniqueid": "w85082659:a69030824", "current_trial": 17, "dateTime": 1664465718241, "trialdata": {"revealed_states": [], "num_clicks_accrued": [0, 0, 0, 0, 0, 0, 0, 0, 0, 0, 0, 0, 0], "stateRewards": ["", 4, 4, -48, -24, -2, -4, 48, 24, -4, 4, 24, -48], "withholdReward": true, "trial_id": "mdp_617383046444", "block": "test1", "trialIndex": 10, "score": 23, "costs": 0, "simulationMode": [null, null, null], "rewards": [-2, -4, 24], "path": ["0", "0", "5", "6", "8"], "rt": [1451, 154, 78], "actions": ["right", "right", "down"], "actionTimes": [2253, 2896, 3468], "queries": {"click": {"state": {"target": [], "time": []}, "edge": {"target": [], "time": []}}, "mouseover": {"state": {"target": ["5", "6"], "time": [1207, 1357]}, "edge": {"target": [], "time": []}}, "mouseout": {"state": {"target": ["6", "5", "5", "6"], "time": [540, 640, 1274, 1457]}, "edge": {"target": [], "time": []}}}, "displayed_time": "8.80", "trialTime": 10129, "trial_type": "mouselab-mdp", "trial_index": 17, "time_elapsed": 324643, "internal_node_id": "0.0-4.0-1.0-8.0"}}, {"uniqueid": "w85082659:a69030824", "current_trial": 18, "dateTime": 1664465729836, "trialdata": {"revealed_states": [], "num_clicks_accrued": [0, 0, 0, 0, 0, 0, 0, 0, 0, 0, 0, 0, 0], "stateRewards": ["", -4, -4, -24, 48, 2, 4, -24, -48, -2, 4, 24, 24], "withholdReward": false, "trial_id": "mdp_360934723192", "block": "test1", "trialIndex": 11, "score": 31, "costs": 0, "simulationMode": [null, null, null], "rewards": [-2, 4, 24], "path": ["0", "0", "9", "10", "12"], "rt": [1627, 206, 142], "actions": ["left", "left", "down"], "actionTimes": [3497, 4197, 4833], "queries": {"click": {"state": {"target": [], "time": []}, "edge": {"target": [], "time": []}}, "mouseover": {"state": {"target": ["5", "6"], "time": [2107, 2141]}, "edge": {"target": [], "time": []}}, "mouseout": {"state": {"target": ["6", "5", "5", "6", "5", "0", "5", "6"], "time": [757, 790, 1307, 1340, 1574, 2090, 2124, 2157]}, "edge": {"target": [], "time": []}}}, "displayed_time": "10.87", "trialTime": 11540, "trial_type": "mouselab-mdp", "trial_index": 18, "time_elapsed": 336238, "internal_node_id": "0.0-4.0-1.0-9.0"}}, {"uniqueid": "w85082659:a69030824", "current_trial": 19, "dateTime": 1664465739752, "trialdata": {"revealed_states": [], "num_clicks_accrued": [0, 0, 0, 0, 0, 0, 0, 0, 0, 0, 0, 0, 0], "stateRewards": ["", -4, 8, -48, -48, -2, -8, -24, -48, 2, -4, -48, 24], "withholdReward": false, "trial_id": "mdp_743906784415", "block": "test1", "trialIndex": 12, "score": -45, "costs": 0, "simulationMode": [null, null, null], "rewards": [2, -4, -48], "path": ["0", "0", "9", "10", "11"], "rt": [1045, 527, 15], "actions": ["left", "left", "up"], "actionTimes": [1907, 2930, 3435], "queries": {"click": {"state": {"target": [], "time": []}, "edge": {"target": [], "time": []}}, "mouseover": {"state": {"target": ["5", "6"], "time": [952, 970]}, "edge": {"target": [], "time": []}}, "mouseout": {"state": {"target": ["5", "6"], "time": [969, 986]}, "edge": {"target": [], "time": []}}}, "displayed_time": "8.86", "trialTime": 9851, "trial_type": "mouselab-mdp", "trial_index": 19, "time_elapsed": 346154, "internal_node_id": "0.0-4.0-1.0-10.0"}}, {"uniqueid": "w85082659:a69030824", "current_trial": 20, "dateTime": 1664465749340, "trialdata": {"revealed_states": [], "num_clicks_accrued": [0, 0, 0, 0, 0, 0, 0, 0, 0, 0, 0, 0, 0], "stateRewards": ["", -4, 4, -24, 48, -2, 8, -48, 24, 2, 4, 48, -48], "withholdReward": true, "trial_id": "mdp_366632183904", "block": "test1", "trialIndex": 13, "score": 53, "costs": 0, "simulationMode": [null, null, null], "rewards": [-4, 4, 48], "path": ["0", "0", "1", "2", "4"], "rt": [765, 15, 470], "actions": ["up", "up", "left"], "actionTimes": [1395, 1908, 2896], "queries": {"click": {"state": {"target": [], "time": []}, "edge": {"target": [], "time": []}}, "mouseover": {"state": {"target": ["5"], "time": [826]}, "edge": {"target": [], "time": []}}, "mouseout": {"state": {"target": ["5", "0", "5"], "time": [458, 775, 875]}, "edge": {"target": [], "time": []}}}, "displayed_time": "8.63", "trialTime": 9528, "trial_type": "mouselab-mdp", "trial_index": 20, "time_elapsed": 355742, "internal_node_id": "0.0-4.0-1.0-11.0"}}, {"uniqueid": "w85082659:a69030824", "current_trial": 21, "dateTime": 1664465761183, "trialdata": {"revealed_states": [], "num_clicks_accrued": [0, 0, 0, 0, 0, 0, 0, 0, 0, 0, 0, 0, 0], "stateRewards": ["", -4, -8, -24, -48, -2, -8, 24, -48, -4, -8, 24, -48], "withholdReward": true, "trial_id": "mdp_621812384092", "block": "test1", "trialIndex": 14, "score": -53, "costs": 0, "simulationMode": [null, null, null], "rewards": [-2, -8, -48], "path": ["0", "0", "5", "6", "8"], "rt": [720, 352, 70], "actions": ["right", "right", "down"], "actionTimes": [2750, 3599, 4167], "queries": {"click": {"state": {"target": [], "time": []}, "edge": {"target": [], "time": []}}, "mouseover": {"state": {"target": ["5", "6"], "time": [2146, 2163]}, "edge": {"target": [], "time": []}}, "mouseout": {"state": {"target": ["6", "5", "5", "6", "6", "5", "5", "6"], "time": [1062, 1145, 1496, 1529, 1762, 1779, 2162, 2179]}, "edge": {"target": [], "time": []}}}, "displayed_time": "11.03", "trialTime": 11791, "trial_type": "mouselab-mdp", "trial_index": 21, "time_elapsed": 367585, "internal_node_id": "0.0-4.0-1.0-12.0"}}, {"uniqueid": "w85082659:a69030824", "current_trial": 22, "dateTime": 1664465771291, "trialdata": {"revealed_states": [], "num_clicks_accrued": [0, 0, 0, 0, 0, 0, 0, 0, 0, 0, 0, 0, 0], "stateRewards": ["", -2, -4, -48, 48, -2, -4, 24, 48, -4, -8, -24, 24], "withholdReward": true, "trial_id": "mdp_917590390609", "block": "test1", "trialIndex": 15, "score": -49, "costs": 0, "simulationMode": [null, null, null], "rewards": [-2, -4, -48], "path": ["0", "0", "1", "2", "3"], "rt": [627, 107, 171], "actions": ["up", "up", "right"], "actionTimes": [1123, 1727, 2391], "queries": {"click": {"state": {"target": [], "time": []}, "edge": {"target": [], "time": []}}, "mouseover": {"state": {"target": ["5"], "time": [586]}, "edge": {"target": [], "time": []}}, "mouseout": {"state": {"target": ["5", "5", "7", "7", "3", "3"], "time": [219, 603, 6337, 6437, 6570, 6687]}, "edge": {"target": [], "time": []}}}, "displayed_time": "9.50", "trialTime": 10038, "trial_type": "mouselab-mdp", "trial_index": 22, "time_elapsed": 377693, "internal_node_id": "0.0-4.0-1.0-13.0"}}, {"uniqueid": "w85082659:a69030824", "current_trial": 23, "dateTime": 1664465780642, "trialdata": {"revealed_states": [], "num_clicks_accrued": [0, 0, 0, 0, 0, 0, 0, 0, 0, 0, 0, 0, 0], "stateRewards": ["", 4, -4, 24, 48, 4, 8, -24, -24, -2, 4, 48, 48], "withholdReward": true, "trial_id": "mdp_624998450453", "block": "test1", "trialIndex": 16, "score": 29, "costs": 0, "simulationMode": [null, null, null], "rewards": [4, -4, 24], "path": ["0", "0", "1", "2", "3"], "rt": [852, 88, 77], "actions": ["up", "up", "right"], "actionTimes": [1477, 2061, 2633], "queries": {"click": {"state": {"target": [], "time": []}, "edge": {"target": [], "time": []}}, "mouseover": {"state": {"target": ["5"], "time": [722]}, "edge": {"target": [], "time": []}}, "mouseout": {"state": {"target": ["0", "5"], "time": [706, 739]}, "edge": {"target": [], "time": []}}}, "displayed_time": "8.63", "trialTime": 9292, "trial_type": "mouselab-mdp", "trial_index": 23, "time_elapsed": 387044, "internal_node_id": "0.0-4.0-1.0-14.0"}}, {"uniqueid": "w85082659:a69030824", "current_trial": 24, "dateTime": 1664465791338, "trialdata": {"revealed_states": [], "num_clicks_accrued": [0, 0, 0, 0, 0, 0, 0, 0, 0, 0, 0, 0, 0], "stateRewards": ["", -2, -8, 48, 24, 4, -8, 24, 48, 4, -4, 24, -48], "withholdReward": false, "trial_id": "mdp_871576155740", "block": "test1", "trialIndex": 17, "score": 19, "costs": 0, "simulationMode": [null, null, null], "rewards": [-2, -8, 24], "path": ["0", "0", "1", "2", "4"], "rt": [923, 91, 112], "actions": ["up", "up", "left"], "actionTimes": [1500, 2087, 2692], "queries": {"click": {"state": {"target": [], "time": []}, "edge": {"target": [], "time": []}}, "mouseover": {"state": {"target": ["5"], "time": [679]}, "edge": {"target": [], "time": []}}, "mouseout": {"state": {"target": ["0", "5", "8", "0"], "time": [663, 696, 8146, 9914]}, "edge": {"target": [], "time": []}}}, "displayed_time": "9.58", "trialTime": 10628, "trial_type": "mouselab-mdp", "trial_index": 24, "time_elapsed": 397740, "internal_node_id": "0.0-4.0-1.0-15.0"}}, {"uniqueid": "w85082659:a69030824", "current_trial": 25, "dateTime": 1664465800414, "trialdata": {"revealed_states": [], "num_clicks_accrued": [0, 0, 0, 0, 0, 0, 0, 0, 0, 0, 0, 0, 0], "stateRewards": ["", 4, 8, -48, -48, 2, 4, -24, -48, 2, 8, 48, -48], "withholdReward": true, "trial_id": "mdp_902172716465", "block": "test1", "trialIndex": 18, "score": -33, "costs": 0, "simulationMode": [null, null, null], "rewards": [2, 8, -48], "path": ["0", "0", "9", "10", "12"], "rt": [812, 121, 85], "actions": ["left", "left", "down"], "actionTimes": [1327, 1942, 2522], "queries": {"click": {"state": {"target": [], "time": []}, "edge": {"target": [], "time": []}}, "mouseover": {"state": {"target": ["5"], "time": [621]}, "edge": {"target": [], "time": []}}, "mouseout": {"state": {"target": ["8", "0", "5"], "time": [37, 620, 637]}, "edge": {"target": [], "time": []}}}, "displayed_time": "8.52", "trialTime": 9010, "trial_type": "mouselab-mdp", "trial_index": 25, "time_elapsed": 406816, "internal_node_id": "0.0-4.0-1.0-16.0"}}, {"uniqueid": "w85082659:a69030824", "current_trial": 26, "dateTime": 1664465810813, "trialdata": {"revealed_states": [], "num_clicks_accrued": [0, 0, 0, 0, 0, 0, 0, 0, 0, 0, 0, 0, 0], "stateRewards": ["", -2, 8, -48, -24, -2, 8, 48, -48, -4, 8, 24, 48], "withholdReward": true, "trial_id": "mdp_160707003673", "block": "test1", "trialIndex": 19, "score": 33, "costs": 0, "simulationMode": [null, null, null], "rewards": [-4, 8, 24], "path": ["0", "0", "9", "10", "11"], "rt": [824, 256, 118], "actions": ["left", "left", "up"], "actionTimes": [1364, 2120, 2732], "queries": {"click": {"state": {"target": [], "time": []}, "edge": {"target": [], "time": []}}, "mouseover": {"state": {"target": ["5", "6"], "time": [647, 681]}, "edge": {"target": [], "time": []}}, "mouseout": {"state": {"target": ["0", "5", "6", "8"], "time": [630, 680, 697, 9164]}, "edge": {"target": [], "time": []}}}, "displayed_time": "9.54", "trialTime": 10336, "trial_type": "mouselab-mdp", "trial_index": 26, "time_elapsed": 417215, "internal_node_id": "0.0-4.0-1.0-17.0"}}, {"uniqueid": "w85082659:a69030824", "current_trial": 27, "dateTime": 1664465819938, "trialdata": {"revealed_states": [], "num_clicks_accrued": [0, 0, 0, 0, 0, 0, 0, 0, 0, 0, 0, 0, 0], "stateRewards": ["", -4, 8, 24, -24, 4, 8, -24, -48, 2, 4, 24, -24], "withholdReward": true, "trial_id": "mdp_782187007008", "block": "test1", "trialIndex": 20, "score": -7, "costs": 0, "simulationMode": [null, null, null], "rewards": [4, 8, -24], "path": ["0", "0", "5", "6", "7"], "rt": [802, 140, 99], "actions": ["right", "right", "up"], "actionTimes": [1258, 1907, 2499], "queries": {"click": {"state": {"target": [], "time": []}, "edge": {"target": [], "time": []}}, "mouseover": {"state": {"target": ["5", "6"], "time": [550, 567]}, "edge": {"target": [], "time": []}}, "mouseout": {"state": {"target": ["6", "5", "5", "6", "8", "0"], "time": [183, 283, 566, 583, 7767, 8708]}, "edge": {"target": [], "time": []}}}, "displayed_time": "8.46", "trialTime": 9062, "trial_type": "mouselab-mdp", "trial_index": 27, "time_elapsed": 426340, "internal_node_id": "0.0-4.0-1.0-18.0"}}, {"uniqueid": "w85082659:a69030824", "current_trial": 28, "dateTime": 1664465829905, "trialdata": {"revealed_states": [], "num_clicks_accrued": [0, 0, 0, 0, 0, 0, 0, 0, 0, 0, 0, 0, 0], "stateRewards": ["", -4, -4, -24, -24, -2, 4, 48, -24, -2, -4, -24, 48], "withholdReward": true, "trial_id": "mdp_855903341564", "block": "test1", "trialIndex": 21, "score": -17, "costs": 0, "simulationMode": [null, null, null], "rewards": [-2, 4, -24], "path": ["0", "0", "5", "6", "8"], "rt": [833, 182, 211], "actions": ["right", "right", "down"], "actionTimes": [1247, 1931, 2660], "queries": {"click": {"state": {"target": [], "time": []}, "edge": {"target": [], "time": []}}, "mouseover": {"state": {"target": ["5", "6"], "time": [500, 517]}, "edge": {"target": [], "time": []}}, "mouseout": {"state": {"target": ["8", "0", "5", "6"], "time": [115, 315, 516, 532]}, "edge": {"target": [], "time": []}}}, "displayed_time": "9.41", "trialTime": 9894, "trial_type": "mouselab-mdp", "trial_index": 28, "time_elapsed": 436306, "internal_node_id": "0.0-4.0-1.0-19.0"}}, {"uniqueid": "w85082659:a69030824", "current_trial": 29, "dateTime": 1664465838853, "trialdata": {"revealed_states": [], "num_clicks_accrued": [0, 0, 0, 0, 0, 0, 0, 0, 0, 0, 0, 0, 0], "stateRewards": ["", 2, 8, 24, -48, 4, 8, 24, 48, 2, -8, -24, 24], "withholdReward": true, "trial_id": "mdp_939899431582", "block": "test1", "trialIndex": 22, "score": -25, "costs": 0, "simulationMode": [null, null, null], "rewards": [2, -8, -24], "path": ["0", "0", "9", "10", "11"], "rt": [1107, 95, 40], "actions": ["left", "left", "up"], "actionTimes": [1544, 2128, 2656], "queries": {"click": {"state": {"target": [], "time": []}, "edge": {"target": [], "time": []}}, "mouseover": {"state": {"target": [], "time": []}, "edge": {"target": [], "time": []}}, "mouseout": {"state": {"target": ["0"], "time": [533]}, "edge": {"target": [], "time": []}}}, "displayed_time": "8.44", "trialTime": 8892, "trial_type": "mouselab-mdp", "trial_index": 29, "time_elapsed": 445255, "internal_node_id": "0.0-4.0-1.0-20.0"}}, {"uniqueid": "w85082659:a69030824", "current_trial": 30, "dateTime": 1664465847800, "trialdata": {"revealed_states": [], "num_clicks_accrued": [0, 0, 0, 0, 0, 0, 0, 0, 0, 0, 0, 0, 0], "stateRewards": ["", 2, 8, 48, 24, 2, 8, 48, 48, -2, -4, -24, -48], "withholdReward": true, "trial_id": "mdp_717636349175", "block": "test1", "trialIndex": 23, "score": -49, "costs": 0, "simulationMode": [null, null, null], "rewards": [-2, -4, -48], "path": ["0", "0", "9", "10", "12"], "rt": [897, 57, 59], "actions": ["left", "left", "down"], "actionTimes": [1322, 1866, 2434], "queries": {"click": {"state": {"target": [], "time": []}, "edge": {"target": [], "time": []}}, "mouseover": {"state": {"target": [], "time": []}, "edge": {"target": [], "time": []}}, "mouseout": {"state": {"target": ["0"], "time": [542]}, "edge": {"target": [], "time": []}}}, "displayed_time": "8.43", "trialTime": 8882, "trial_type": "mouselab-mdp", "trial_index": 30, "time_elapsed": 454202, "internal_node_id": "0.0-4.0-1.0-21.0"}}, {"uniqueid": "w85082659:a69030824", "current_trial": 31, "dateTime": 1664465858739, "trialdata": {"revealed_states": [], "num_clicks_accrued": [0, 0, 0, 0, 0, 0, 0, 0, 0, 0, 0, 0, 0], "stateRewards": ["", -4, 4, -48, -48, -2, -8, -48, -24, 4, 8, -24, 24], "withholdReward": true, "trial_id": "mdp_449260894259", "block": "test1", "trialIndex": 24, "score": -43, "costs": 0, "simulationMode": [null, null, null], "rewards": [-4, 4, -48], "path": ["0", "0", "1", "2", "4"], "rt": [823, 266, 112], "actions": ["up", "up", "left"], "actionTimes": [2438, 3202, 3814], "queries": {"click": {"state": {"target": [], "time": []}, "edge": {"target": [], "time": []}}, "mouseover": {"state": {"target": ["5", "6"], "time": [1752, 1770]}, "edge": {"target": [], "time": []}}, "mouseout": {"state": {"target": ["5", "0", "0", "5", "5", "6", "8"], "time": [319, 419, 719, 936, 1769, 1786, 9786]}, "edge": {"target": [], "time": []}}}, "displayed_time": "10.62", "trialTime": 10881, "trial_type": "mouselab-mdp", "trial_index": 31, "time_elapsed": 465141, "internal_node_id": "0.0-4.0-1.0-22.0"}}, {"uniqueid": "w85082659:a69030824", "current_trial": 32, "dateTime": 1664465867526, "trialdata": {"revealed_states": [], "num_clicks_accrued": [0, 0, 0, 0, 0, 0, 0, 0, 0, 0, 0, 0, 0], "stateRewards": ["", -4, -8, -48, 48, -2, -8, -48, -24, 4, 8, 24, -48], "withholdReward": true, "trial_id": "mdp_509977295685", "block": "test1", "trialIndex": 25, "score": -55, "costs": 0, "simulationMode": [null, null, null], "rewards": [-4, -8, -48], "path": ["0", "0", "1", "2", "3"], "rt": [852, 108, 91], "actions": ["up", "up", "right"], "actionTimes": [1235, 1835, 2419], "queries": {"click": {"state": {"target": [], "time": []}, "edge": {"target": [], "time": []}}, "mouseover": {"state": {"target": ["0", "5"], "time": [428, 478]}, "edge": {"target": [], "time": []}}, "mouseout": {"state": {"target": ["0", "0", "5"], "time": [348, 461, 510]}, "edge": {"target": [], "time": []}}}, "displayed_time": "8.38", "trialTime": 8726, "trial_type": "mouselab-mdp", "trial_index": 32, "time_elapsed": 473928, "internal_node_id": "0.0-4.0-1.0-23.0"}}, {"uniqueid": "w85082659:a69030824", "current_trial": 33, "dateTime": 1664465877070, "trialdata": {"revealed_states": [], "num_clicks_accrued": [0, 0, 0, 0, 0, 0, 0, 0, 0, 0, 0, 0, 0], "stateRewards": ["", 2, 4, 24, 48, -2, 8, 24, -24, -4, -4, 48, 48], "withholdReward": true, "trial_id": "mdp_753439303214", "block": "test1", "trialIndex": 26, "score": 45, "costs": 0, "simulationMode": [null, null, null], "rewards": [-4, -4, 48], "path": ["0", "0", "9", "10", "12"], "rt": [864, 103, 58], "actions": ["left", "left", "down"], "actionTimes": [1362, 1958, 2514], "queries": {"click": {"state": {"target": [], "time": []}, "edge": {"target": [], "time": []}}, "mouseover": {"state": {"target": [], "time": []}, "edge": {"target": [], "time": []}}, "mouseout": {"state": {"target": ["0"], "time": [622]}, "edge": {"target": [], "time": []}}}, "displayed_time": "8.50", "trialTime": 9482, "trial_type": "mouselab-mdp", "trial_index": 33, "time_elapsed": 483472, "internal_node_id": "0.0-4.0-1.0-24.0"}}, {"uniqueid": "w85082659:a69030824", "current_trial": 34, "dateTime": 1664465887375, "trialdata": {"revealed_states": [], "num_clicks_accrued": [0, 0, 0, 0, 0, 0, 0, 0, 0, 0, 0, 0, 0], "stateRewards": ["", -2, -8, 48, 24, 2, 8, -48, 24, -4, 8, 48, 48], "withholdReward": false, "trial_id": "mdp_875436109858", "block": "test1", "trialIndex": 27, "score": 57, "costs": 0, "simulationMode": [null, null, null], "rewards": [-4, 8, 48], "path": ["0", "0", "9", "10", "11"], "rt": [1061, 91, 52], "actions": ["left", "left", "up"], "actionTimes": [2345, 2925, 3469], "queries": {"click": {"state": {"target": [], "time": []}, "edge": {"target": [], "time": []}}, "mouseover": {"state": {"target": [], "time": []}, "edge": {"target": [], "time": []}}, "mouseout": {"state": {"target": ["0", "8"], "time": [9567, 10246]}, "edge": {"target": [], "time": []}}}, "displayed_time": "9.29", "trialTime": 10247, "trial_type": "mouselab-mdp", "trial_index": 34, "time_elapsed": 493777, "internal_node_id": "0.0-4.0-1.0-25.0"}}, {"uniqueid": "w85082659:a69030824", "current_trial": 35, "dateTime": 1664465897450, "trialdata": {"revealed_states": [], "num_clicks_accrued": [0, 0, 0, 0, 0, 0, 0, 0, 0, 0, 0, 0, 0], "stateRewards": ["", -2, 4, -24, 48, 4, -8, 48, -48, 2, -8, 48, 24], "withholdReward": true, "trial_id": "mdp_501111216502", "block": "test1", "trialIndex": 28, "score": -17, "costs": 0, "simulationMode": [null, null, null], "rewards": [-2, 4, -24], "path": ["0", "0", "1", "2", "3"], "rt": [643, 405, 65], "actions": ["up", "up", "right"], "actionTimes": [1279, 2183, 2743], "queries": {"click": {"state": {"target": [], "time": []}, "edge": {"target": [], "time": []}}, "mouseover": {"state": {"target": ["5", "6"], "time": [794, 827]}, "edge": {"target": [], "time": []}}, "mouseout": {"state": {"target": ["5", "5", "6", "6", "5"], "time": [444, 810, 844, 9294, 9378]}, "edge": {"target": [], "time": []}}}, "displayed_time": "9.64", "trialTime": 10016, "trial_type": "mouselab-mdp", "trial_index": 35, "time_elapsed": 503852, "internal_node_id": "0.0-4.0-1.0-26.0"}}, {"uniqueid": "w85082659:a69030824", "current_trial": 36, "dateTime": 1664465907105, "trialdata": {"revealed_states": [], "num_clicks_accrued": [0, 0, 0, 0, 0, 0, 0, 0, 0, 0, 0, 0, 0], "stateRewards": ["", 2, 8, -48, -24, 2, -4, -48, 24, 2, -4, -24, -24], "withholdReward": false, "trial_id": "mdp_954659099093", "block": "test1", "trialIndex": 29, "score": 27, "costs": 0, "simulationMode": [null, null, null], "rewards": [2, -4, 24], "path": ["0", "0", "5", "6", "8"], "rt": [761, 93, 99], "actions": ["right", "right", "down"], "actionTimes": [1100, 1680, 2268], "queries": {"click": {"state": {"target": [], "time": []}, "edge": {"target": [], "time": []}}, "mouseover": {"state": {"target": ["5"], "time": [469]}, "edge": {"target": [], "time": []}}, "mouseout": {"state": {"target": ["0", "5"], "time": [269, 486]}, "edge": {"target": [], "time": []}}}, "displayed_time": "9.34", "trialTime": 9595, "trial_type": "mouselab-mdp", "trial_index": 36, "time_elapsed": 513506, "internal_node_id": "0.0-4.0-1.0-27.0"}}, {"uniqueid": "w85082659:a69030824", "current_trial": 37, "dateTime": 1664465915816, "trialdata": {"revealed_states": [], "num_clicks_accrued": [0, 0, 0, 0, 0, 0, 0, 0, 0, 0, 0, 0, 0], "stateRewards": ["", 4, -8, 48, 24, 4, -4, 48, 48, -4, 8, -48, 24], "withholdReward": false, "trial_id": "mdp_303828806348", "block": "test1", "trialIndex": 30, "score": 25, "costs": 0, "simulationMode": [null, null, null], "rewards": [4, -8, 24], "path": ["0", "0", "1", "2", "4"], "rt": [879, 31, 310], "actions": ["up", "up", "left"], "actionTimes": [1257, 1776, 2588], "queries": {"click": {"state": {"target": [], "time": []}, "edge": {"target": [], "time": []}}, "mouseover": {"state": {"target": ["5", "6"], "time": [527, 578]}, "edge": {"target": [], "time": []}}, "mouseout": {"state": {"target": ["0", "5", "6"], "time": [511, 561, 611]}, "edge": {"target": [], "time": []}}}, "displayed_time": "8.38", "trialTime": 8648, "trial_type": "mouselab-mdp", "trial_index": 37, "time_elapsed": 522218, "internal_node_id": "0.0-4.0-1.0-28.0"}}, {"uniqueid": "w85082659:a69030824", "current_trial": 38, "dateTime": 1664465927743, "trialdata": {"revealed_states": [], "num_clicks_accrued": [0, 0, 0, 0, 0, 0, 0, 0, 0, 0, 0, 0, 0], "stateRewards": ["", -4, 8, 48, -48, 2, -4, 24, -24, -2, 4, -24, -24], "withholdReward": true, "trial_id": "mdp_804988042722", "block": "test1", "trialIndex": 31, "score": -21, "costs": 0, "simulationMode": [null, null, null], "rewards": [2, -4, -24], "path": ["0", "0", "5", "6", "8"], "rt": [791, 131, 53], "actions": ["right", "right", "down"], "actionTimes": [3328, 3959, 4515], "queries": {"click": {"state": {"target": [], "time": []}, "edge": {"target": [], "time": []}}, "mouseover": {"state": {"target": ["0", "5", "6"], "time": [2661, 2695, 2728]}, "edge": {"target": [], "time": []}}, "mouseout": {"state": {"target": ["6", "0", "0", "6", "5", "0", "0", "5", "6"], "time": [277, 1361, 1494, 2194, 2361, 2478, 2678, 2711, 2744]}, "edge": {"target": [], "time": []}}}, "displayed_time": "11.54", "trialTime": 11858, "trial_type": "mouselab-mdp", "trial_index": 38, "time_elapsed": 534145, "internal_node_id": "0.0-4.0-1.0-29.0"}}, {"uniqueid": "w85082659:a69030824", "current_trial": 39, "dateTime": 1664465931592, "trialdata": {"rt": 3845, "stimulus": "<h1> End of block! </h1>\n\nYou have reached the end of the block 1/4. If you need a short break, feel free to take one now before moving on.\n\n<br><br>\nIn the next block, you will complete another 30 rounds of this game.\n\n<br><br>\n<div style='text-align: center;'>Press <code>space</code> to begin.</div>\n<br><br>\n<div style='text-align: center;'>(If the experiment doesn't continue, try clicking on the text and then pressing <code>space</code>.)</div>", "response": " ", "trial_id": "mdp_ready_2", "trial_type": "html-keyboard-response", "trial_index": 39, "time_elapsed": 537994, "internal_node_id": "0.0-4.0-2.0"}}, {"uniqueid": "w85082659:a69030824", "current_trial": 40, "dateTime": 1664465942068, "trialdata": {"revealed_states": [], "num_clicks_accrued": [0, 0, 0, 0, 0, 0, 0, 0, 0, 0, 0, 0, 0], "stateRewards": ["", -2, -8, 48, 24, 4, -8, 24, 48, 4, -4, 24, -48], "withholdReward": true, "trial_id": "mdp_871576155740", "block": "test2", "trialIndex": 32, "score": -43, "costs": 0, "simulationMode": [null, null, null], "rewards": [4, -4, -48], "path": ["0", "0", "9", "10", "12"], "rt": [979, 182, 91], "actions": ["left", "left", "down"], "actionTimes": [1938, 2607, 3198], "queries": {"click": {"state": {"target": [], "time": []}, "edge": {"target": [], "time": []}}, "mouseover": {"state": {"target": ["5", "6"], "time": [1223, 1240]}, "edge": {"target": [], "time": []}}, "mouseout": {"state": {"target": ["5", "5", "6"], "time": [706, 1240, 1257]}, "edge": {"target": [], "time": []}}}, "displayed_time": "9.96", "trialTime": 10411, "trial_type": "mouselab-mdp", "trial_index": 40, "time_elapsed": 548470, "internal_node_id": "0.0-4.0-3.0-0.0"}}, {"uniqueid": "w85082659:a69030824", "current_trial": 41, "dateTime": 1664465953783, "trialdata": {"revealed_states": [], "num_clicks_accrued": [0, 0, 0, 0, 0, 0, 0, 0, 0, 0, 0, 0, 0], "stateRewards": ["", -2, 8, -48, 48, 4, -8, -48, 48, 4, -4, -24, 48], "withholdReward": true, "trial_id": "mdp_144739116828", "block": "test2", "trialIndex": 33, "score": -37, "costs": 0, "simulationMode": [null, null, null], "rewards": [-2, 8, -48], "path": ["0", "0", "1", "2", "3"], "rt": [710, 67, 124], "actions": ["up", "up", "right"], "actionTimes": [2643, 3203, 3827], "queries": {"click": {"state": {"target": [], "time": []}, "edge": {"target": [], "time": []}}, "mouseover": {"state": {"target": ["5", "6"], "time": [2070, 2087]}, "edge": {"target": [], "time": []}}, "mouseout": {"state": {"target": ["1", "5", "6", "8"], "time": [1353, 2086, 2103, 10887]}, "edge": {"target": [], "time": []}}}, "displayed_time": "10.93", "trialTime": 11654, "trial_type": "mouselab-mdp", "trial_index": 41, "time_elapsed": 560184, "internal_node_id": "0.0-4.0-3.0-1.0"}}, {"uniqueid": "w85082659:a69030824", "current_trial": 42, "dateTime": 1664465962951, "trialdata": {"revealed_states": [], "num_clicks_accrued": [0, 0, 0, 0, 0, 0, 0, 0, 0, 0, 0, 0, 0], "stateRewards": ["", -2, -4, -24, -48, -2, 8, -48, 24, 4, -4, -24, -24], "withholdReward": true, "trial_id": "mdp_915304165774", "block": "test2", "trialIndex": 34, "score": 35, "costs": 0, "simulationMode": [null, null, null], "rewards": [-2, 8, 24], "path": ["0", "0", "5", "6", "8"], "rt": [892, 66, 79], "actions": ["right", "right", "down"], "actionTimes": [1392, 1960, 2540], "queries": {"click": {"state": {"target": [], "time": []}, "edge": {"target": [], "time": []}}, "mouseover": {"state": {"target": ["5"], "time": [693]}, "edge": {"target": [], "time": []}}, "mouseout": {"state": {"target": ["8", "5", "5"], "time": [143, 260, 710]}, "edge": {"target": [], "time": []}}}, "displayed_time": "8.50", "trialTime": 9112, "trial_type": "mouselab-mdp", "trial_index": 42, "time_elapsed": 569353, "internal_node_id": "0.0-4.0-3.0-2.0"}}, {"uniqueid": "w85082659:a69030824", "current_trial": 43, "dateTime": 1664465973190, "trialdata": {"revealed_states": [], "num_clicks_accrued": [0, 0, 0, 0, 0, 0, 0, 0, 0, 0, 0, 0, 0], "stateRewards": ["", -4, -4, -24, 48, -4, -8, -24, 48, 2, 4, 48, 48], "withholdReward": false, "trial_id": "mdp_810954007398", "block": "test2", "trialIndex": 35, "score": -27, "costs": 0, "simulationMode": [null, null, null], "rewards": [-4, -4, -24], "path": ["0", "0", "1", "2", "3"], "rt": [664, 485, 105], "actions": ["up", "up", "right"], "actionTimes": [1271, 2250, 2854], "queries": {"click": {"state": {"target": [], "time": []}, "edge": {"target": [], "time": []}}, "mouseover": {"state": {"target": ["5", "6"], "time": [749, 766]}, "edge": {"target": [], "time": []}}, "mouseout": {"state": {"target": ["5", "0", "5", "6"], "time": [382, 415, 765, 782]}, "edge": {"target": [], "time": []}}}, "displayed_time": "9.61", "trialTime": 10190, "trial_type": "mouselab-mdp", "trial_index": 43, "time_elapsed": 579592, "internal_node_id": "0.0-4.0-3.0-3.0"}}, {"uniqueid": "w85082659:a69030824", "current_trial": 44, "dateTime": 1664465983922, "trialdata": {"revealed_states": [], "num_clicks_accrued": [0, 0, 0, 0, 0, 0, 0, 0, 0, 0, 0, 0, 0], "stateRewards": ["", -4, 4, -24, -24, -4, -8, 24, 48, 4, -4, 24, 48], "withholdReward": true, "trial_id": "mdp_175395325183", "block": "test2", "trialIndex": 36, "score": -19, "costs": 0, "simulationMode": [null, null, null], "rewards": [-4, 4, -24], "path": ["0", "0", "1", "2", "4"], "rt": [916, 319, 97], "actions": ["up", "up", "left"], "actionTimes": [2238, 3066, 3662], "queries": {"click": {"state": {"target": [], "time": []}, "edge": {"target": [], "time": []}}, "mouseover": {"state": {"target": [], "time": []}, "edge": {"target": [], "time": []}}, "mouseout": {"state": {"target": ["0"], "time": [964]}, "edge": {"target": [], "time": []}}}, "displayed_time": "10.32", "trialTime": 10669, "trial_type": "mouselab-mdp", "trial_index": 44, "time_elapsed": 590324, "internal_node_id": "0.0-4.0-3.0-4.0"}}, {"uniqueid": "w85082659:a69030824", "current_trial": 45, "dateTime": 1664465993689, "trialdata": {"revealed_states": [], "num_clicks_accrued": [0, 0, 0, 0, 0, 0, 0, 0, 0, 0, 0, 0, 0], "stateRewards": ["", 2, -4, 48, -48, -4, -8, -48, 24, -4, 4, 48, 48], "withholdReward": true, "trial_id": "mdp_544803968425", "block": "test2", "trialIndex": 37, "score": 17, "costs": 0, "simulationMode": [null, null, null], "rewards": [-4, -8, 24], "path": ["0", "0", "5", "6", "8"], "rt": [729, 57, 387], "actions": ["right", "right", "down"], "actionTimes": [1410, 1966, 2846], "queries": {"click": {"state": {"target": [], "time": []}, "edge": {"target": [], "time": []}}, "mouseover": {"state": {"target": ["5"], "time": [809]}, "edge": {"target": [], "time": []}}, "mouseout": {"state": {"target": ["8", "5", "5", "8"], "time": [208, 492, 825, 8442]}, "edge": {"target": [], "time": []}}}, "displayed_time": "8.68", "trialTime": 9698, "trial_type": "mouselab-mdp", "trial_index": 45, "time_elapsed": 600091, "internal_node_id": "0.0-4.0-3.0-5.0"}}, {"uniqueid": "w85082659:a69030824", "current_trial": 46, "dateTime": 1664466003421, "trialdata": {"revealed_states": [], "num_clicks_accrued": [0, 0, 0, 0, 0, 0, 0, 0, 0, 0, 0, 0, 0], "stateRewards": ["", 4, -8, 48, -24, -4, 4, 24, 24, -2, -4, 24, 24], "withholdReward": true, "trial_id": "mdp_542168715839", "block": "test2", "trialIndex": 38, "score": 23, "costs": 0, "simulationMode": [null, null, null], "rewards": [-2, -4, 24], "path": ["0", "0", "9", "10", "11"], "rt": [739, 114, 64], "actions": ["left", "left", "up"], "actionTimes": [1127, 1734, 2302], "queries": {"click": {"state": {"target": [], "time": []}, "edge": {"target": [], "time": []}}, "mouseover": {"state": {"target": ["5"], "time": [488]}, "edge": {"target": [], "time": []}}, "mouseout": {"state": {"target": ["0", "5", "8"], "time": [487, 504, 8921]}, "edge": {"target": [], "time": []}}}, "displayed_time": "9.39", "trialTime": 9658, "trial_type": "mouselab-mdp", "trial_index": 46, "time_elapsed": 609823, "internal_node_id": "0.0-4.0-3.0-6.0"}}, {"uniqueid": "w85082659:a69030824", "current_trial": 47, "dateTime": 1664466013313, "trialdata": {"revealed_states": [], "num_clicks_accrued": [0, 0, 0, 0, 0, 0, 0, 0, 0, 0, 0, 0, 0], "stateRewards": ["", 2, 4, 48, 24, -2, -8, 24, 24, -2, 4, -48, 24], "withholdReward": true, "trial_id": "mdp_130849500124", "block": "test2", "trialIndex": 39, "score": 31, "costs": 0, "simulationMode": [null, null, null], "rewards": [-2, 4, 24], "path": ["0", "0", "9", "10", "12"], "rt": [574, 27, 67], "actions": ["left", "left", "down"], "actionTimes": [1012, 1551, 2108], "queries": {"click": {"state": {"target": [], "time": []}, "edge": {"target": [], "time": []}}, "mouseover": {"state": {"target": [], "time": []}, "edge": {"target": [], "time": []}}, "mouseout": {"state": {"target": ["0", "8"], "time": [540, 9474]}, "edge": {"target": [], "time": []}}}, "displayed_time": "9.44", "trialTime": 9836, "trial_type": "mouselab-mdp", "trial_index": 47, "time_elapsed": 619715, "internal_node_id": "0.0-4.0-3.0-7.0"}}, {"uniqueid": "w85082659:a69030824", "current_trial": 48, "dateTime": 1664466023085, "trialdata": {"revealed_states": [], "num_clicks_accrued": [0, 0, 0, 0, 0, 0, 0, 0, 0, 0, 0, 0, 0], "stateRewards": ["", 4, -8, 48, -24, 4, -4, -48, -48, 4, -4, 24, 24], "withholdReward": true, "trial_id": "mdp_221562928904", "block": "test2", "trialIndex": 40, "score": -23, "costs": 0, "simulationMode": [null, null, null], "rewards": [4, -8, -24], "path": ["0", "0", "1", "2", "4"], "rt": [621, 66, 40], "actions": ["up", "up", "left"], "actionTimes": [991, 1559, 2099], "queries": {"click": {"state": {"target": [], "time": []}, "edge": {"target": [], "time": []}}, "mouseover": {"state": {"target": ["5", "6"], "time": [458, 476]}, "edge": {"target": [], "time": []}}, "mouseout": {"state": {"target": ["0", "5", "6"], "time": [308, 475, 492]}, "edge": {"target": [], "time": []}}}, "displayed_time": "9.37", "trialTime": 9692, "trial_type": "mouselab-mdp", "trial_index": 48, "time_elapsed": 629487, "internal_node_id": "0.0-4.0-3.0-8.0"}}, {"uniqueid": "w85082659:a69030824", "current_trial": 49, "dateTime": 1664466032719, "trialdata": {"revealed_states": [], "num_clicks_accrued": [0, 0, 0, 0, 0, 0, 0, 0, 0, 0, 0, 0, 0], "stateRewards": ["", 2, 4, 48, -24, 2, -8, -24, -24, 2, -8, -24, -48], "withholdReward": false, "trial_id": "mdp_274832552938", "block": "test2", "trialIndex": 41, "score": 59, "costs": 0, "simulationMode": [null, null, null], "rewards": [2, 4, 48], "path": ["0", "0", "1", "2", "3"], "rt": [602, 414, 74], "actions": ["up", "up", "right"], "actionTimes": [933, 1861, 2420], "queries": {"click": {"state": {"target": [], "time": []}, "edge": {"target": [], "time": []}}, "mouseover": {"state": {"target": ["5"], "time": [430]}, "edge": {"target": [], "time": []}}, "mouseout": {"state": {"target": ["0", "5", "8"], "time": [429, 446, 8830]}, "edge": {"target": [], "time": []}}}, "displayed_time": "9.33", "trialTime": 9563, "trial_type": "mouselab-mdp", "trial_index": 49, "time_elapsed": 639121, "internal_node_id": "0.0-4.0-3.0-9.0"}}, {"uniqueid": "w85082659:a69030824", "current_trial": 50, "dateTime": 1664466042708, "trialdata": {"revealed_states": [], "num_clicks_accrued": [0, 0, 0, 0, 0, 0, 0, 0, 0, 0, 0, 0, 0], "stateRewards": ["", -2, -8, -24, -48, -2, -4, 48, -48, 4, 4, -48, 48], "withholdReward": true, "trial_id": "mdp_156977432949", "block": "test2", "trialIndex": 42, "score": -49, "costs": 0, "simulationMode": [null, null, null], "rewards": [-2, -4, -48], "path": ["0", "0", "5", "6", "8"], "rt": [560, 277, 90], "actions": ["right", "right", "down"], "actionTimes": [1009, 1798, 2377], "queries": {"click": {"state": {"target": [], "time": []}, "edge": {"target": [], "time": []}}, "mouseover": {"state": {"target": ["0"], "time": [504]}, "edge": {"target": [], "time": []}}, "mouseout": {"state": {"target": ["0", "0"], "time": [403, 520]}, "edge": {"target": [], "time": []}}}, "displayed_time": "9.45", "trialTime": 9926, "trial_type": "mouselab-mdp", "trial_index": 50, "time_elapsed": 649110, "internal_node_id": "0.0-4.0-3.0-10.0"}}, {"uniqueid": "w85082659:a69030824", "current_trial": 51, "dateTime": 1664466051923, "trialdata": {"revealed_states": [], "num_clicks_accrued": [0, 0, 0, 0, 0, 0, 0, 0, 0, 0, 0, 0, 0], "stateRewards": ["", -2, -4, -24, 48, -2, -8, -48, -24, 4, 8, 48, 24], "withholdReward": true, "trial_id": "mdp_625355871626", "block": "test2", "trialIndex": 43, "score": -25, "costs": 0, "simulationMode": [null, null, null], "rewards": [-2, -4, -24], "path": ["0", "0", "1", "2", "3"], "rt": [1002, 160, 106], "actions": ["up", "up", "right"], "actionTimes": [1733, 2394, 2989], "queries": {"click": {"state": {"target": [], "time": []}, "edge": {"target": [], "time": []}}, "mouseover": {"state": {"target": ["5"], "time": [866]}, "edge": {"target": [], "time": []}}, "mouseout": {"state": {"target": ["6", "5", "5"], "time": [416, 432, 883]}, "edge": {"target": [], "time": []}}}, "displayed_time": "8.73", "trialTime": 9153, "trial_type": "mouselab-mdp", "trial_index": 51, "time_elapsed": 658325, "internal_node_id": "0.0-4.0-3.0-11.0"}}, {"uniqueid": "w85082659:a69030824", "current_trial": 52, "dateTime": 1664466062538, "trialdata": {"revealed_states": [], "num_clicks_accrued": [0, 0, 0, 0, 0, 0, 0, 0, 0, 0, 0, 0, 0], "stateRewards": ["", 4, -8, 24, 48, -2, -4, -48, 24, 2, 4, -48, -24], "withholdReward": true, "trial_id": "mdp_749974461966", "block": "test2", "trialIndex": 44, "score": -13, "costs": 0, "simulationMode": [null, null, null], "rewards": [2, 4, -24], "path": ["0", "0", "9", "10", "12"], "rt": [2238, 107, 152], "actions": ["left", "left", "down"], "actionTimes": [3096, 3696, 4340], "queries": {"click": {"state": {"target": [], "time": []}, "edge": {"target": [], "time": []}}, "mouseover": {"state": {"target": ["5", "6"], "time": [1171, 1189]}, "edge": {"target": [], "time": []}}, "mouseout": {"state": {"target": ["5", "9", "5", "6"], "time": [204, 471, 1188, 1204]}, "edge": {"target": [], "time": []}}}, "displayed_time": "8.86", "trialTime": 10556, "trial_type": "mouselab-mdp", "trial_index": 52, "time_elapsed": 668940, "internal_node_id": "0.0-4.0-3.0-12.0"}}, {"uniqueid": "w85082659:a69030824", "current_trial": 53, "dateTime": 1664466073351, "trialdata": {"revealed_states": [], "num_clicks_accrued": [0, 0, 0, 0, 0, 0, 0, 0, 0, 0, 0, 0, 0], "stateRewards": ["", 4, -8, -48, 48, -2, 8, -48, 48, -2, -4, 24, -48], "withholdReward": false, "trial_id": "mdp_400558136089", "block": "test2", "trialIndex": 45, "score": 49, "costs": 0, "simulationMode": [null, null, null], "rewards": [4, -8, 48], "path": ["0", "0", "1", "2", "4"], "rt": [827, 2, 33], "actions": ["up", "up", "left"], "actionTimes": [2264, 2771, 3336], "queries": {"click": {"state": {"target": [], "time": []}, "edge": {"target": [], "time": []}}, "mouseover": {"state": {"target": ["5", "6"], "time": [1535, 1552]}, "edge": {"target": [], "time": []}}, "mouseout": {"state": {"target": ["1", "0", "0", "5", "6", "6", "5", "5", "6"], "time": [368, 518, 752, 801, 818, 968, 1035, 1552, 1568]}, "edge": {"target": [], "time": []}}}, "displayed_time": "10.44", "trialTime": 10748, "trial_type": "mouselab-mdp", "trial_index": 53, "time_elapsed": 679753, "internal_node_id": "0.0-4.0-3.0-13.0"}}, {"uniqueid": "w85082659:a69030824", "current_trial": 54, "dateTime": 1664466082554, "trialdata": {"revealed_states": [], "num_clicks_accrued": [0, 0, 0, 0, 0, 0, 0, 0, 0, 0, 0, 0, 0], "stateRewards": ["", -2, -8, -48, 24, 2, -4, -48, 48, 2, 4, 24, -24], "withholdReward": true, "trial_id": "mdp_849341543762", "block": "test2", "trialIndex": 46, "score": 51, "costs": 0, "simulationMode": [null, null, null], "rewards": [2, -4, 48], "path": ["0", "0", "5", "6", "8"], "rt": [833, 69, 163], "actions": ["right", "right", "down"], "actionTimes": [1670, 2242, 2902], "queries": {"click": {"state": {"target": [], "time": []}, "edge": {"target": [], "time": []}}, "mouseover": {"state": {"target": ["5", "6"], "time": [956, 973]}, "edge": {"target": [], "time": []}}, "mouseout": {"state": {"target": ["0", "5", "6", "5", "0", "9", "10", "12"], "time": [755, 972, 989, 7139, 7156, 7423, 7473, 8122]}, "edge": {"target": [], "time": []}}}, "displayed_time": "8.84", "trialTime": 9122, "trial_type": "mouselab-mdp", "trial_index": 54, "time_elapsed": 688956, "internal_node_id": "0.0-4.0-3.0-14.0"}}, {"uniqueid": "w85082659:a69030824", "current_trial": 55, "dateTime": 1664466093529, "trialdata": {"revealed_states": [], "num_clicks_accrued": [0, 0, 0, 0, 0, 0, 0, 0, 0, 0, 0, 0, 0], "stateRewards": ["", -4, 8, 24, -24, 4, -8, -24, -24, -2, 8, -48, 24], "withholdReward": false, "trial_id": "mdp_240302100183", "block": "test2", "trialIndex": 47, "score": -15, "costs": 0, "simulationMode": [null, null, null], "rewards": [-4, 8, -24], "path": ["0", "0", "1", "2", "4"], "rt": [624, 83, 31], "actions": ["up", "up", "left"], "actionTimes": [1936, 2508, 3056], "queries": {"click": {"state": {"target": [], "time": []}, "edge": {"target": [], "time": []}}, "mouseover": {"state": {"target": ["5"], "time": [1408]}, "edge": {"target": [], "time": []}}, "mouseout": {"state": {"target": ["8", "0", "5"], "time": [958, 1008, 1425]}, "edge": {"target": [], "time": []}}}, "displayed_time": "10.31", "trialTime": 10916, "trial_type": "mouselab-mdp", "trial_index": 55, "time_elapsed": 699931, "internal_node_id": "0.0-4.0-3.0-15.0"}}, {"uniqueid": "w85082659:a69030824", "current_trial": 56, "dateTime": 1664466104285, "trialdata": {"revealed_states": [], "num_clicks_accrued": [0, 0, 0, 0, 0, 0, 0, 0, 0, 0, 0, 0, 0], "stateRewards": ["", -2, 8, 48, -48, 4, -8, 24, 24, 4, 4, -48, -24], "withholdReward": true, "trial_id": "mdp_746937869927", "block": "test2", "trialIndex": 48, "score": 25, "costs": 0, "simulationMode": [null, null, null], "rewards": [4, -8, 24], "path": ["0", "0", "5", "6", "8"], "rt": [559, 65, 9], "actions": ["right", "right", "down"], "actionTimes": [1976, 2533, 3060], "queries": {"click": {"state": {"target": [], "time": []}, "edge": {"target": [], "time": []}}, "mouseover": {"state": {"target": ["5"], "time": [1550]}, "edge": {"target": [], "time": []}}, "mouseout": {"state": {"target": ["5"], "time": [1567]}, "edge": {"target": [], "time": []}}}, "displayed_time": "10.42", "trialTime": 10679, "trial_type": "mouselab-mdp", "trial_index": 56, "time_elapsed": 710687, "internal_node_id": "0.0-4.0-3.0-16.0"}}, {"uniqueid": "w85082659:a69030824", "current_trial": 57, "dateTime": 1664466114145, "trialdata": {"revealed_states": [], "num_clicks_accrued": [0, 0, 0, 0, 0, 0, 0, 0, 0, 0, 0, 0, 0], "stateRewards": ["", 4, 8, 48, -48, -4, 8, -24, -24, -4, 8, 48, 48], "withholdReward": true, "trial_id": "mdp_377640328420", "block": "test2", "trialIndex": 49, "score": 57, "costs": 0, "simulationMode": [null, null, null], "rewards": [-4, 8, 48], "path": ["0", "0", "9", "10", "11"], "rt": [680, 33, 63], "actions": ["left", "left", "up"], "actionTimes": [1080, 1615, 2196], "queries": {"click": {"state": {"target": [], "time": []}, "edge": {"target": [], "time": []}}, "mouseover": {"state": {"target": ["5", "6"], "time": [499, 532]}, "edge": {"target": [], "time": []}}, "mouseout": {"state": {"target": ["0", "5", "6", "6", "5"], "time": [498, 531, 548, 9116, 9199]}, "edge": {"target": [], "time": []}}}, "displayed_time": "9.40", "trialTime": 9804, "trial_type": "mouselab-mdp", "trial_index": 57, "time_elapsed": 720547, "internal_node_id": "0.0-4.0-3.0-17.0"}}, {"uniqueid": "w85082659:a69030824", "current_trial": 58, "dateTime": 1664466123933, "trialdata": {"revealed_states": [], "num_clicks_accrued": [0, 0, 0, 0, 0, 0, 0, 0, 0, 0, 0, 0, 0], "stateRewards": ["", 4, 8, -24, 48, 4, -8, -48, 48, -4, 8, -24, -48], "withholdReward": false, "trial_id": "mdp_376126356841", "block": "test2", "trialIndex": 50, "score": -7, "costs": 0, "simulationMode": [null, null, null], "rewards": [4, 8, -24], "path": ["0", "0", "1", "2", "3"], "rt": [619, 4, 11], "actions": ["up", "up", "right"], "actionTimes": [1034, 1530, 2054], "queries": {"click": {"state": {"target": [], "time": []}, "edge": {"target": [], "time": []}}, "mouseover": {"state": {"target": ["5"], "time": [542]}, "edge": {"target": [], "time": []}}, "mouseout": {"state": {"target": ["0", "5"], "time": [376, 559]}, "edge": {"target": [], "time": []}}}, "displayed_time": "9.42", "trialTime": 9718, "trial_type": "mouselab-mdp", "trial_index": 58, "time_elapsed": 730335, "internal_node_id": "0.0-4.0-3.0-18.0"}}, {"uniqueid": "w85082659:a69030824", "current_trial": 59, "dateTime": 1664466133700, "trialdata": {"revealed_states": [], "num_clicks_accrued": [0, 0, 0, 0, 0, 0, 0, 0, 0, 0, 0, 0, 0], "stateRewards": ["", -4, -8, 48, 24, 4, -8, 24, -48, -2, -8, 24, -48], "withholdReward": true, "trial_id": "mdp_952038635544", "block": "test2", "trialIndex": 51, "score": -53, "costs": 0, "simulationMode": [null, null, null], "rewards": [-2, -8, -48], "path": ["0", "0", "9", "10", "12"], "rt": [545, 108, 66], "actions": ["left", "left", "down"], "actionTimes": [1023, 1619, 2176], "queries": {"click": {"state": {"target": [], "time": []}, "edge": {"target": [], "time": []}}, "mouseover": {"state": {"target": ["5"], "time": [593]}, "edge": {"target": [], "time": []}}, "mouseout": {"state": {"target": ["0", "5", "8"], "time": [577, 610, 9310]}, "edge": {"target": [], "time": []}}}, "displayed_time": "9.48", "trialTime": 9702, "trial_type": "mouselab-mdp", "trial_index": 59, "time_elapsed": 740102, "internal_node_id": "0.0-4.0-3.0-19.0"}}, {"uniqueid": "w85082659:a69030824", "current_trial": 60, "dateTime": 1664466143401, "trialdata": {"revealed_states": [], "num_clicks_accrued": [0, 0, 0, 0, 0, 0, 0, 0, 0, 0, 0, 0, 0], "stateRewards": ["", 2, 8, -48, 24, -2, 4, 48, 48, -2, -8, 48, 24], "withholdReward": true, "trial_id": "mdp_157355418411", "block": "test2", "trialIndex": 52, "score": 55, "costs": 0, "simulationMode": [null, null, null], "rewards": [-2, 4, 48], "path": ["0", "0", "5", "6", "8"], "rt": [806, 398, 47], "actions": ["right", "right", "down"], "actionTimes": [1342, 2242, 2790], "queries": {"click": {"state": {"target": [], "time": []}, "edge": {"target": [], "time": []}}, "mouseover": {"state": {"target": ["5"], "time": [659]}, "edge": {"target": [], "time": []}}, "mouseout": {"state": {"target": ["0", "5"], "time": [576, 676]}, "edge": {"target": [], "time": []}}}, "displayed_time": "9.54", "trialTime": 9618, "trial_type": "mouselab-mdp", "trial_index": 60, "time_elapsed": 749802, "internal_node_id": "0.0-4.0-3.0-20.0"}}, {"uniqueid": "w85082659:a69030824", "current_trial": 61, "dateTime": 1664466153509, "trialdata": {"revealed_states": [], "num_clicks_accrued": [0, 0, 0, 0, 0, 0, 0, 0, 0, 0, 0, 0, 0], "stateRewards": ["", -4, -8, -48, -48, 4, -8, 48, 48, 2, 8, 48, 24], "withholdReward": true, "trial_id": "mdp_880437222492", "block": "test2", "trialIndex": 53, "score": -55, "costs": 0, "simulationMode": [null, null, null], "rewards": [-4, -8, -48], "path": ["0", "0", "1", "2", "4"], "rt": [626, 68, 53], "actions": ["up", "up", "left"], "actionTimes": [1403, 1971, 2523], "queries": {"click": {"state": {"target": [], "time": []}, "edge": {"target": [], "time": []}}, "mouseover": {"state": {"target": ["5"], "time": [902]}, "edge": {"target": [], "time": []}}, "mouseout": {"state": {"target": ["8", "5", "6", "5", "5"], "time": [253, 569, 636, 685, 919]}, "edge": {"target": [], "time": []}}}, "displayed_time": "9.78", "trialTime": 10035, "trial_type": "mouselab-mdp", "trial_index": 61, "time_elapsed": 759911, "internal_node_id": "0.0-4.0-3.0-21.0"}}, {"uniqueid": "w85082659:a69030824", "current_trial": 62, "dateTime": 1664466162475, "trialdata": {"revealed_states": [], "num_clicks_accrued": [0, 0, 0, 0, 0, 0, 0, 0, 0, 0, 0, 0, 0], "stateRewards": ["", 4, -8, -48, 24, 4, 4, -24, -24, 2, 4, -48, 24], "withholdReward": true, "trial_id": "mdp_626971397185", "block": "test2", "trialIndex": 54, "score": -47, "costs": 0, "simulationMode": [null, null, null], "rewards": [4, -8, -48], "path": ["0", "0", "1", "2", "3"], "rt": [635, 357, 383], "actions": ["up", "up", "right"], "actionTimes": [1051, 1899, 2775], "queries": {"click": {"state": {"target": [], "time": []}, "edge": {"target": [], "time": []}}, "mouseover": {"state": {"target": ["5"], "time": [508]}, "edge": {"target": [], "time": []}}, "mouseout": {"state": {"target": ["0", "5"], "time": [358, 524]}, "edge": {"target": [], "time": []}}}, "displayed_time": "8.42", "trialTime": 8907, "trial_type": "mouselab-mdp", "trial_index": 62, "time_elapsed": 768877, "internal_node_id": "0.0-4.0-3.0-22.0"}}, {"uniqueid": "w85082659:a69030824", "current_trial": 63, "dateTime": 1664466172684, "trialdata": {"revealed_states": [], "num_clicks_accrued": [0, 0, 0, 0, 0, 0, 0, 0, 0, 0, 0, 0, 0], "stateRewards": ["", 2, -8, 48, -24, 2, 8, 24, -24, 4, -4, -48, -48], "withholdReward": true, "trial_id": "mdp_130946197263", "block": "test2", "trialIndex": 55, "score": -9, "costs": 0, "simulationMode": [null, null, null], "rewards": [2, 8, -24], "path": ["0", "0", "5", "6", "8"], "rt": [510, 15, 127], "actions": ["right", "right", "down"], "actionTimes": [1307, 1819, 2447], "queries": {"click": {"state": {"target": [], "time": []}, "edge": {"target": [], "time": []}}, "mouseover": {"state": {"target": ["5"], "time": [886]}, "edge": {"target": [], "time": []}}, "mouseout": {"state": {"target": ["5", "0", "5"], "time": [186, 719, 903]}, "edge": {"target": [], "time": []}}}, "displayed_time": "9.80", "trialTime": 10144, "trial_type": "mouselab-mdp", "trial_index": 63, "time_elapsed": 779086, "internal_node_id": "0.0-4.0-3.0-23.0"}}, {"uniqueid": "w85082659:a69030824", "current_trial": 64, "dateTime": 1664466182751, "trialdata": {"revealed_states": [], "num_clicks_accrued": [0, 0, 0, 0, 0, 0, 0, 0, 0, 0, 0, 0, 0], "stateRewards": ["", -2, 4, 24, 48, 2, 4, -48, -48, 2, 8, 48, -48], "withholdReward": true, "trial_id": "mdp_409609775558", "block": "test2", "trialIndex": 56, "score": 63, "costs": 0, "simulationMode": [null, null, null], "rewards": [2, 8, 48], "path": ["0", "0", "9", "10", "11"], "rt": [676, 75, 88], "actions": ["left", "left", "up"], "actionTimes": [1300, 1867, 2447], "queries": {"click": {"state": {"target": [], "time": []}, "edge": {"target": [], "time": []}}, "mouseover": {"state": {"target": ["5", "6"], "time": [858, 876]}, "edge": {"target": [], "time": []}}, "mouseout": {"state": {"target": ["0", "5", "6"], "time": [508, 875, 892]}, "edge": {"target": [], "time": []}}}, "displayed_time": "9.62", "trialTime": 9999, "trial_type": "mouselab-mdp", "trial_index": 64, "time_elapsed": 789153, "internal_node_id": "0.0-4.0-3.0-24.0"}}, {"uniqueid": "w85082659:a69030824", "current_trial": 65, "dateTime": 1664466193519, "trialdata": {"revealed_states": [], "num_clicks_accrued": [0, 0, 0, 0, 0, 0, 0, 0, 0, 0, 0, 0, 0], "stateRewards": ["", -4, -8, -48, 24, -4, -4, -24, -48, 2, -8, -24, -48], "withholdReward": true, "trial_id": "mdp_628181832088", "block": "test2", "trialIndex": 57, "score": -49, "costs": 0, "simulationMode": [null, null, null], "rewards": [2, -8, -48], "path": ["0", "0", "9", "10", "12"], "rt": [532, 84, 88], "actions": ["left", "left", "down"], "actionTimes": [1966, 2541, 3146], "queries": {"click": {"state": {"target": [], "time": []}, "edge": {"target": [], "time": []}}, "mouseover": {"state": {"target": ["5", "6"], "time": [1557, 1574]}, "edge": {"target": [], "time": []}}, "mouseout": {"state": {"target": ["5", "6", "8"], "time": [1573, 1590, 10290]}, "edge": {"target": [], "time": []}}}, "displayed_time": "10.43", "trialTime": 10698, "trial_type": "mouselab-mdp", "trial_index": 65, "time_elapsed": 799921, "internal_node_id": "0.0-4.0-3.0-25.0"}}, {"uniqueid": "w85082659:a69030824", "current_trial": 66, "dateTime": 1664466203223, "trialdata": {"revealed_states": [], "num_clicks_accrued": [0, 0, 0, 0, 0, 0, 0, 0, 0, 0, 0, 0, 0], "stateRewards": ["", -4, -8, 24, -48, 2, 4, -48, -48, 2, -8, 24, 48], "withholdReward": false, "trial_id": "mdp_111262146724", "block": "test2", "trialIndex": 58, "score": -37, "costs": 0, "simulationMode": [null, null, null], "rewards": [2, 4, -48], "path": ["0", "0", "5", "6", "8"], "rt": [762, 45, 163], "actions": ["right", "right", "down"], "actionTimes": [1156, 1699, 2367], "queries": {"click": {"state": {"target": [], "time": []}, "edge": {"target": [], "time": []}}, "mouseover": {"state": {"target": ["5", "6"], "time": [554, 571]}, "edge": {"target": [], "time": []}}, "mouseout": {"state": {"target": ["0", "5", "6"], "time": [537, 570, 587]}, "edge": {"target": [], "time": []}}}, "displayed_time": "9.39", "trialTime": 9632, "trial_type": "mouselab-mdp", "trial_index": 66, "time_elapsed": 809625, "internal_node_id": "0.0-4.0-3.0-26.0"}}, {"uniqueid": "w85082659:a69030824", "current_trial": 67, "dateTime": 1664466213446, "trialdata": {"revealed_states": [], "num_clicks_accrued": [0, 0, 0, 0, 0, 0, 0, 0, 0, 0, 0, 0, 0], "stateRewards": ["", -2, -4, -48, 48, -2, -4, 24, 48, -4, -8, -24, 24], "withholdReward": true, "trial_id": "mdp_917590390609", "block": "test2", "trialIndex": 59, "score": -49, "costs": 0, "simulationMode": [null, null, null], "rewards": [-2, -4, -48], "path": ["0", "0", "1", "2", "3"], "rt": [555, 27, 17], "actions": ["up", "up", "right"], "actionTimes": [1193, 1718, 2225], "queries": {"click": {"state": {"target": [], "time": []}, "edge": {"target": [], "time": []}}, "mouseover": {"state": {"target": ["5", "6"], "time": [774, 792]}, "edge": {"target": [], "time": []}}, "mouseout": {"state": {"target": ["5", "0", "5", "6"], "time": [441, 758, 791, 807]}, "edge": {"target": [], "time": []}}}, "displayed_time": "9.64", "trialTime": 10157, "trial_type": "mouselab-mdp", "trial_index": 67, "time_elapsed": 819847, "internal_node_id": "0.0-4.0-3.0-27.0"}}, {"uniqueid": "w85082659:a69030824", "current_trial": 68, "dateTime": 1664466223606, "trialdata": {"revealed_states": [], "num_clicks_accrued": [0, 0, 0, 0, 0, 0, 0, 0, 0, 0, 0, 0, 0], "stateRewards": ["", -2, 8, -48, 48, -4, -8, 24, 24, -2, -4, 48, -48], "withholdReward": false, "trial_id": "mdp_867247318592", "block": "test2", "trialIndex": 60, "score": 59, "costs": 0, "simulationMode": [null, null, null], "rewards": [-2, 8, 48], "path": ["0", "0", "1", "2", "4"], "rt": [641, 389, 85], "actions": ["up", "up", "left"], "actionTimes": [1576, 2479, 3059], "queries": {"click": {"state": {"target": [], "time": []}, "edge": {"target": [], "time": []}}, "mouseover": {"state": {"target": [], "time": []}, "edge": {"target": [], "time": []}}, "mouseout": {"state": {"target": ["9"], "time": [723]}, "edge": {"target": [], "time": []}}}, "displayed_time": "9.94", "trialTime": 10099, "trial_type": "mouselab-mdp", "trial_index": 68, "time_elapsed": 830008, "internal_node_id": "0.0-4.0-3.0-28.0"}}, {"uniqueid": "w85082659:a69030824", "current_trial": 69, "dateTime": 1664466233800, "trialdata": {"revealed_states": [], "num_clicks_accrued": [0, 0, 0, 0, 0, 0, 0, 0, 0, 0, 0, 0, 0], "stateRewards": ["", 2, 4, 48, -48, 2, -4, 48, 24, -2, -8, -24, 48], "withholdReward": false, "trial_id": "mdp_962424406744", "block": "test2", "trialIndex": 61, "score": 27, "costs": 0, "simulationMode": [null, null, null], "rewards": [2, -4, 24], "path": ["0", "0", "5", "6", "8"], "rt": [673, 91, 108], "actions": ["right", "right", "down"], "actionTimes": [1458, 2061, 2661], "queries": {"click": {"state": {"target": [], "time": []}, "edge": {"target": [], "time": []}}, "mouseover": {"state": {"target": ["5", "6"], "time": [986, 1004]}, "edge": {"target": [], "time": []}}, "mouseout": {"state": {"target": ["0", "5", "6", "6"], "time": [669, 1003, 1020, 9836]}, "edge": {"target": [], "time": []}}}, "displayed_time": "9.78", "trialTime": 10140, "trial_type": "mouselab-mdp", "trial_index": 69, "time_elapsed": 840202, "internal_node_id": "0.0-4.0-3.0-29.0"}}, {"uniqueid": "w85082659:a69030824", "current_trial": 70, "dateTime": 1664466235905, "trialdata": {"rt": 2101, "stimulus": "<h1> End of block! </h1>\n\nYou have reached the end of the block 2/4. If you need a short break, feel free to take one now before moving on.\n\n<br><br>\nIn the next block, you will complete another 30 rounds of this game.\n\n<br><br>\n<div style='text-align: center;'>Press <code>space</code> to begin.</div>\n<br><br>\n<div style='text-align: center;'>(If the experiment doesn't continue, try clicking on the text and then pressing <code>space</code>.)</div>", "response": " ", "trial_id": "mdp_ready_3", "trial_type": "html-keyboard-response", "trial_index": 70, "time_elapsed": 842307, "internal_node_id": "0.0-4.0-4.0"}}, {"uniqueid": "w85082659:a69030824", "current_trial": 71, "dateTime": 1664466244916, "trialdata": {"revealed_states": [], "num_clicks_accrued": [0, 0, 0, 0, 0, 0, 0, 0, 0, 0, 0, 0, 0], "stateRewards": ["", 2, 8, 24, -48, 4, 8, 24, 48, 2, -8, -24, 24], "withholdReward": true, "trial_id": "mdp_939899431582", "block": "test3", "trialIndex": 62, "score": -25, "costs": 0, "simulationMode": [null, null, null], "rewards": [2, -8, -24], "path": ["0", "0", "9", "10", "11"], "rt": [844, 65, 159], "actions": ["left", "left", "up"], "actionTimes": [1364, 1916, 2576], "queries": {"click": {"state": {"target": [], "time": []}, "edge": {"target": [], "time": []}}, "mouseover": {"state": {"target": ["5", "6"], "time": [866, 901]}, "edge": {"target": [], "time": []}}, "mouseout": {"state": {"target": ["5", "0", "5", "6"], "time": [316, 755, 900, 917]}, "edge": {"target": [], "time": []}}}, "displayed_time": "8.52", "trialTime": 8936, "trial_type": "mouselab-mdp", "trial_index": 71, "time_elapsed": 851318, "internal_node_id": "0.0-4.0-5.0-0.0"}}, {"uniqueid": "w85082659:a69030824", "current_trial": 72, "dateTime": 1664466255411, "trialdata": {"revealed_states": [], "num_clicks_accrued": [0, 0, 0, 0, 0, 0, 0, 0, 0, 0, 0, 0, 0], "stateRewards": ["", 2, -4, 24, -24, 2, -8, 48, 48, 4, -4, 24, 48], "withholdReward": true, "trial_id": "mdp_947836623875", "block": "test3", "trialIndex": 63, "score": 47, "costs": 0, "simulationMode": [null, null, null], "rewards": [2, -8, 48], "path": ["0", "0", "5", "6", "8"], "rt": [611, 61, 54], "actions": ["right", "right", "down"], "actionTimes": [1630, 2191, 2734], "queries": {"click": {"state": {"target": [], "time": []}, "edge": {"target": [], "time": []}}, "mouseover": {"state": {"target": ["5", "6"], "time": [1162, 1179]}, "edge": {"target": [], "time": []}}, "mouseout": {"state": {"target": ["5", "5", "6"], "time": [628, 1178, 1195]}, "edge": {"target": [], "time": []}}}, "displayed_time": "10.02", "trialTime": 10426, "trial_type": "mouselab-mdp", "trial_index": 72, "time_elapsed": 861813, "internal_node_id": "0.0-4.0-5.0-1.0"}}, {"uniqueid": "w85082659:a69030824", "current_trial": 73, "dateTime": 1664466266159, "trialdata": {"revealed_states": [], "num_clicks_accrued": [0, 0, 0, 0, 0, 0, 0, 0, 0, 0, 0, 0, 0], "stateRewards": ["", 4, -8, 48, 24, 4, -4, 48, 48, -4, 8, -48, 24], "withholdReward": true, "trial_id": "mdp_303828806348", "block": "test3", "trialIndex": 64, "score": 49, "costs": 0, "simulationMode": [null, null, null], "rewards": [4, -8, 48], "path": ["0", "0", "1", "2", "3"], "rt": [571, 123, 90], "actions": ["up", "up", "right"], "actionTimes": [1864, 2484, 3084], "queries": {"click": {"state": {"target": [], "time": []}, "edge": {"target": [], "time": []}}, "mouseover": {"state": {"target": ["5", "6"], "time": [1393, 1410]}, "edge": {"target": [], "time": []}}, "mouseout": {"state": {"target": ["6", "5", "5", "6", "6", "5", "0", "5", "6", "6"], "time": [476, 593, 860, 926, 1076, 1093, 1226, 1410, 1426, 10444]}, "edge": {"target": [], "time": []}}}, "displayed_time": "10.29", "trialTime": 10688, "trial_type": "mouselab-mdp", "trial_index": 73, "time_elapsed": 872561, "internal_node_id": "0.0-4.0-5.0-2.0"}}, {"uniqueid": "w85082659:a69030824", "current_trial": 74, "dateTime": 1664466276032, "trialdata": {"revealed_states": [], "num_clicks_accrued": [0, 0, 0, 0, 0, 0, 0, 0, 0, 0, 0, 0, 0], "stateRewards": ["", -4, -4, -24, 24, -4, 4, -24, 48, -2, 4, 48, -48], "withholdReward": true, "trial_id": "mdp_774757609669", "block": "test3", "trialIndex": 65, "score": -41, "costs": 0, "simulationMode": [null, null, null], "rewards": [-2, 4, -48], "path": ["0", "0", "9", "10", "12"], "rt": [529, 135, 193], "actions": ["left", "left", "down"], "actionTimes": [1005, 1630, 2337], "queries": {"click": {"state": {"target": [], "time": []}, "edge": {"target": [], "time": []}}, "mouseover": {"state": {"target": ["0", "5"], "time": [577, 610]}, "edge": {"target": [], "time": []}}, "mouseout": {"state": {"target": ["5", "0", "5", "8"], "time": [127, 594, 627, 9211]}, "edge": {"target": [], "time": []}}}, "displayed_time": "9.48", "trialTime": 9811, "trial_type": "mouselab-mdp", "trial_index": 74, "time_elapsed": 882434, "internal_node_id": "0.0-4.0-5.0-3.0"}}, {"uniqueid": "w85082659:a69030824", "current_trial": 75, "dateTime": 1664466284862, "trialdata": {"revealed_states": [], "num_clicks_accrued": [0, 0, 0, 0, 0, 0, 0, 0, 0, 0, 0, 0, 0], "stateRewards": ["", -2, -4, -24, -48, -2, 8, -48, 24, 4, -4, -24, -24], "withholdReward": true, "trial_id": "mdp_915304165774", "block": "test3", "trialIndex": 66, "score": -49, "costs": 0, "simulationMode": [null, null, null], "rewards": [-2, -4, -48], "path": ["0", "0", "1", "2", "4"], "rt": [518, 66, 435], "actions": ["up", "up", "left"], "actionTimes": [949, 1509, 2445], "queries": {"click": {"state": {"target": [], "time": []}, "edge": {"target": [], "time": []}}, "mouseover": {"state": {"target": ["5", "6"], "time": [542, 559]}, "edge": {"target": [], "time": []}}, "mouseout": {"state": {"target": ["0", "5", "6", "8"], "time": [525, 559, 576, 8392]}, "edge": {"target": [], "time": []}}}, "displayed_time": "8.43", "trialTime": 8772, "trial_type": "mouselab-mdp", "trial_index": 75, "time_elapsed": 891264, "internal_node_id": "0.0-4.0-5.0-4.0"}}, {"uniqueid": "w85082659:a69030824", "current_trial": 76, "dateTime": 1664466294571, "trialdata": {"revealed_states": [], "num_clicks_accrued": [0, 0, 0, 0, 0, 0, 0, 0, 0, 0, 0, 0, 0], "stateRewards": ["", -2, 4, -24, -48, -4, 8, -24, 48, 4, 4, -48, 24], "withholdReward": false, "trial_id": "mdp_341117665701", "block": "test3", "trialIndex": 67, "score": 57, "costs": 0, "simulationMode": [null, null, null], "rewards": [-4, 8, 48], "path": ["0", "0", "5", "6", "8"], "rt": [584, 95, 23], "actions": ["right", "right", "down"], "actionTimes": [951, 1543, 2055], "queries": {"click": {"state": {"target": [], "time": []}, "edge": {"target": [], "time": []}}, "mouseover": {"state": {"target": ["6"], "time": [597]}, "edge": {"target": [], "time": []}}, "mouseout": {"state": {"target": ["9", "6", "6", "5"], "time": [264, 614, 8198, 8465]}, "edge": {"target": [], "time": []}}}, "displayed_time": "9.37", "trialTime": 9635, "trial_type": "mouselab-mdp", "trial_index": 76, "time_elapsed": 900972, "internal_node_id": "0.0-4.0-5.0-5.0"}}, {"uniqueid": "w85082659:a69030824", "current_trial": 77, "dateTime": 1664466303239, "trialdata": {"revealed_states": [], "num_clicks_accrued": [0, 0, 0, 0, 0, 0, 0, 0, 0, 0, 0, 0, 0], "stateRewards": ["", 2, -8, 48, -24, 2, -4, 24, 48, 4, -4, 48, -24], "withholdReward": false, "trial_id": "mdp_656500928756", "block": "test3", "trialIndex": 68, "score": 27, "costs": 0, "simulationMode": [null, null, null], "rewards": [2, -4, 24], "path": ["0", "0", "5", "6", "7"], "rt": [604, 366, 39], "actions": ["right", "right", "up"], "actionTimes": [960, 1836, 2376], "queries": {"click": {"state": {"target": [], "time": []}, "edge": {"target": [], "time": []}}, "mouseover": {"state": {"target": ["5", "6"], "time": [503, 521]}, "edge": {"target": [], "time": []}}, "mouseout": {"state": {"target": ["0", "5", "6", "8"], "time": [487, 520, 537, 8403]}, "edge": {"target": [], "time": []}}}, "displayed_time": "8.36", "trialTime": 8609, "trial_type": "mouselab-mdp", "trial_index": 77, "time_elapsed": 909641, "internal_node_id": "0.0-4.0-5.0-6.0"}}, {"uniqueid": "w85082659:a69030824", "current_trial": 78, "dateTime": 1664466312933, "trialdata": {"revealed_states": [], "num_clicks_accrued": [0, 0, 0, 0, 0, 0, 0, 0, 0, 0, 0, 0, 0], "stateRewards": ["", 2, -4, 48, -48, -4, -8, -48, 24, -4, 4, 48, 48], "withholdReward": true, "trial_id": "mdp_544803968425", "block": "test3", "trialIndex": 69, "score": -45, "costs": 0, "simulationMode": [null, null, null], "rewards": [2, -4, -48], "path": ["0", "0", "1", "2", "4"], "rt": [596, 61, 74], "actions": ["up", "up", "left"], "actionTimes": [891, 1463, 2028], "queries": {"click": {"state": {"target": [], "time": []}, "edge": {"target": [], "time": []}}, "mouseover": {"state": {"target": ["6"], "time": [373]}, "edge": {"target": [], "time": []}}, "mouseout": {"state": {"target": ["0", "6"], "time": [218, 386]}, "edge": {"target": [], "time": []}}}, "displayed_time": "9.30", "trialTime": 9618, "trial_type": "mouselab-mdp", "trial_index": 78, "time_elapsed": 919335, "internal_node_id": "0.0-4.0-5.0-7.0"}}, {"uniqueid": "w85082659:a69030824", "current_trial": 79, "dateTime": 1664466321569, "trialdata": {"revealed_states": [], "num_clicks_accrued": [0, 0, 0, 0, 0, 0, 0, 0, 0, 0, 0, 0, 0], "stateRewards": ["", 2, -8, 24, -48, 2, 4, 48, -48, -2, -8, -48, 48], "withholdReward": true, "trial_id": "mdp_629420544881", "block": "test3", "trialIndex": 70, "score": 23, "costs": 0, "simulationMode": [null, null, null], "rewards": [2, -8, 24], "path": ["0", "0", "1", "2", "3"], "rt": [506, 76, 37], "actions": ["up", "up", "right"], "actionTimes": [937, 1502, 2029], "queries": {"click": {"state": {"target": [], "time": []}, "edge": {"target": [], "time": []}}, "mouseover": {"state": {"target": ["5", "6"], "time": [526, 543]}, "edge": {"target": [], "time": []}}, "mouseout": {"state": {"target": ["5", "6"], "time": [542, 559]}, "edge": {"target": [], "time": []}}}, "displayed_time": "8.43", "trialTime": 8577, "trial_type": "mouselab-mdp", "trial_index": 79, "time_elapsed": 927971, "internal_node_id": "0.0-4.0-5.0-8.0"}}, {"uniqueid": "w85082659:a69030824", "current_trial": 80, "dateTime": 1664466331300, "trialdata": {"revealed_states": [], "num_clicks_accrued": [0, 0, 0, 0, 0, 0, 0, 0, 0, 0, 0, 0, 0], "stateRewards": ["", -2, 4, -24, -24, -2, 4, 48, 24, -4, -8, 24, -48], "withholdReward": true, "trial_id": "mdp_191839460481", "block": "test3", "trialIndex": 71, "score": -55, "costs": 0, "simulationMode": [null, null, null], "rewards": [-4, -8, -48], "path": ["0", "0", "9", "10", "12"], "rt": [535, 45, 59], "actions": ["left", "left", "down"], "actionTimes": [902, 1457, 2021], "queries": {"click": {"state": {"target": [], "time": []}, "edge": {"target": [], "time": []}}, "mouseover": {"state": {"target": ["5", "6"], "time": [445, 463]}, "edge": {"target": [], "time": []}}, "mouseout": {"state": {"target": ["0", "5", "6"], "time": [312, 462, 478]}, "edge": {"target": [], "time": []}}}, "displayed_time": "9.37", "trialTime": 9644, "trial_type": "mouselab-mdp", "trial_index": 80, "time_elapsed": 937702, "internal_node_id": "0.0-4.0-5.0-9.0"}}, {"uniqueid": "w85082659:a69030824", "current_trial": 81, "dateTime": 1664466340817, "trialdata": {"revealed_states": [], "num_clicks_accrued": [0, 0, 0, 0, 0, 0, 0, 0, 0, 0, 0, 0, 0], "stateRewards": ["", -2, 8, 48, 48, 4, -8, -48, 48, 2, -4, -48, 48], "withholdReward": false, "trial_id": "mdp_132958048709", "block": "test3", "trialIndex": 72, "score": -45, "costs": 0, "simulationMode": [null, null, null], "rewards": [2, -4, -48], "path": ["0", "0", "9", "10", "11"], "rt": [607, 21, 28], "actions": ["left", "left", "up"], "actionTimes": [843, 1351, 1891], "queries": {"click": {"state": {"target": [], "time": []}, "edge": {"target": [], "time": []}}, "mouseover": {"state": {"target": ["5", "6"], "time": [328, 362]}, "edge": {"target": [], "time": []}}, "mouseout": {"state": {"target": ["0", "5", "6", "8"], "time": [62, 345, 379, 9046]}, "edge": {"target": [], "time": []}}}, "displayed_time": "9.24", "trialTime": 9444, "trial_type": "mouselab-mdp", "trial_index": 81, "time_elapsed": 947219, "internal_node_id": "0.0-4.0-5.0-10.0"}}, {"uniqueid": "w85082659:a69030824", "current_trial": 82, "dateTime": 1664466348613, "trialdata": {"revealed_states": [], "num_clicks_accrued": [0, 0, 0, 0, 0, 0, 0, 0, 0, 0, 0, 0, 0], "stateRewards": ["", -2, -4, -48, 48, -4, 4, -48, 24, -4, -8, 24, 48], "withholdReward": false, "trial_id": "mdp_264482284450", "block": "test3", "trialIndex": 73, "score": 47, "costs": 0, "simulationMode": [null, null, null], "rewards": [-2, -4, 48], "path": ["0", "0", "1", "2", "4"], "rt": [491, 440, 351], "actions": ["up", "up", "left"], "actionTimes": [945, 1881, 2725], "queries": {"click": {"state": {"target": [], "time": []}, "edge": {"target": [], "time": []}}, "mouseover": {"state": {"target": ["5", "6"], "time": [540, 557]}, "edge": {"target": [], "time": []}}, "mouseout": {"state": {"target": ["0", "5", "6"], "time": [356, 556, 573]}, "edge": {"target": [], "time": []}}}, "displayed_time": "7.46", "trialTime": 7733, "trial_type": "mouselab-mdp", "trial_index": 82, "time_elapsed": 955014, "internal_node_id": "0.0-4.0-5.0-11.0"}}, {"uniqueid": "w85082659:a69030824", "current_trial": 83, "dateTime": 1664466358744, "trialdata": {"revealed_states": [], "num_clicks_accrued": [0, 0, 0, 0, 0, 0, 0, 0, 0, 0, 0, 0, 0], "stateRewards": ["", -4, -4, -24, 48, -4, -8, -24, 48, 2, 4, 48, 48], "withholdReward": true, "trial_id": "mdp_810954007398", "block": "test3", "trialIndex": 74, "score": -27, "costs": 0, "simulationMode": [null, null, null], "rewards": [-4, -4, -24], "path": ["0", "0", "1", "2", "3"], "rt": [585, 43, 61], "actions": ["up", "up", "right"], "actionTimes": [1455, 1995, 2563], "queries": {"click": {"state": {"target": [], "time": []}, "edge": {"target": [], "time": []}}, "mouseover": {"state": {"target": ["5", "6"], "time": [968, 985]}, "edge": {"target": [], "time": []}}, "mouseout": {"state": {"target": ["6", "5", "5", "6", "8"], "time": [151, 351, 985, 1001, 9668]}, "edge": {"target": [], "time": []}}}, "displayed_time": "9.87", "trialTime": 10059, "trial_type": "mouselab-mdp", "trial_index": 83, "time_elapsed": 965146, "internal_node_id": "0.0-4.0-5.0-12.0"}}, {"uniqueid": "w85082659:a69030824", "current_trial": 84, "dateTime": 1664466368316, "trialdata": {"revealed_states": [], "num_clicks_accrued": [0, 0, 0, 0, 0, 0, 0, 0, 0, 0, 0, 0, 0], "stateRewards": ["", -2, -8, 24, -24, 4, -8, 48, 48, -4, -8, -24, -48], "withholdReward": true, "trial_id": "mdp_286767261523", "block": "test3", "trialIndex": 75, "score": 49, "costs": 0, "simulationMode": [null, null, null], "rewards": [4, -8, 48], "path": ["0", "0", "5", "6", "8"], "rt": [801, 7, 372], "actions": ["right", "right", "down"], "actionTimes": [1076, 1584, 2464], "queries": {"click": {"state": {"target": [], "time": []}, "edge": {"target": [], "time": []}}, "mouseover": {"state": {"target": ["5", "6"], "time": [376, 393]}, "edge": {"target": [], "time": []}}, "mouseout": {"state": {"target": ["0", "5", "6", "8"], "time": [192, 392, 409, 8293]}, "edge": {"target": [], "time": []}}}, "displayed_time": "8.28", "trialTime": 9505, "trial_type": "mouselab-mdp", "trial_index": 84, "time_elapsed": 974718, "internal_node_id": "0.0-4.0-5.0-13.0"}}, {"uniqueid": "w85082659:a69030824", "current_trial": 85, "dateTime": 1664466379155, "trialdata": {"revealed_states": [], "num_clicks_accrued": [0, 0, 0, 0, 0, 0, 0, 0, 0, 0, 0, 0, 0], "stateRewards": ["", -2, -4, -24, -24, 4, 8, 24, 24, -2, 8, 48, 48], "withholdReward": true, "trial_id": "mdp_620787912291", "block": "test3", "trialIndex": 76, "score": -25, "costs": 0, "simulationMode": [null, null, null], "rewards": [-2, -4, -24], "path": ["0", "0", "1", "2", "3"], "rt": [646, 42, 108], "actions": ["up", "up", "right"], "actionTimes": [2045, 2581, 3197], "queries": {"click": {"state": {"target": [], "time": []}, "edge": {"target": [], "time": []}}, "mouseover": {"state": {"target": ["5"], "time": [1589]}, "edge": {"target": [], "time": []}}, "mouseout": {"state": {"target": ["5", "0", "0"], "time": [972, 1005, 1238]}, "edge": {"target": [], "time": []}}}, "displayed_time": "10.40", "trialTime": 10773, "trial_type": "mouselab-mdp", "trial_index": 85, "time_elapsed": 985557, "internal_node_id": "0.0-4.0-5.0-14.0"}}, {"uniqueid": "w85082659:a69030824", "current_trial": 86, "dateTime": 1664466388827, "trialdata": {"revealed_states": [], "num_clicks_accrued": [0, 0, 0, 0, 0, 0, 0, 0, 0, 0, 0, 0, 0], "stateRewards": ["", -2, -8, 24, -48, -4, 8, -48, -24, 4, 8, -24, 24], "withholdReward": true, "trial_id": "mdp_940444641142", "block": "test3", "trialIndex": 77, "score": -15, "costs": 0, "simulationMode": [null, null, null], "rewards": [-4, 8, -24], "path": ["0", "0", "5", "6", "8"], "rt": [576, 72, 69], "actions": ["right", "right", "down"], "actionTimes": [1000, 1563, 2127], "queries": {"click": {"state": {"target": [], "time": []}, "edge": {"target": [], "time": []}}, "mouseover": {"state": {"target": ["5"], "time": [507]}, "edge": {"target": [], "time": []}}, "mouseout": {"state": {"target": ["5", "1", "5", "6"], "time": [57, 307, 524, 9475]}, "edge": {"target": [], "time": []}}}, "displayed_time": "9.43", "trialTime": 9580, "trial_type": "mouselab-mdp", "trial_index": 86, "time_elapsed": 995229, "internal_node_id": "0.0-4.0-5.0-15.0"}}, {"uniqueid": "w85082659:a69030824", "current_trial": 87, "dateTime": 1664466398455, "trialdata": {"revealed_states": [], "num_clicks_accrued": [0, 0, 0, 0, 0, 0, 0, 0, 0, 0, 0, 0, 0], "stateRewards": ["", -4, 8, 48, -48, 2, -4, 24, -24, -2, 4, -24, -24], "withholdReward": false, "trial_id": "mdp_804988042722", "block": "test3", "trialIndex": 78, "score": -17, "costs": 0, "simulationMode": [null, null, null], "rewards": [-2, 4, -24], "path": ["0", "0", "9", "10", "11"], "rt": [595, 35, 21], "actions": ["left", "left", "up"], "actionTimes": [952, 1484, 2020], "queries": {"click": {"state": {"target": [], "time": []}, "edge": {"target": [], "time": []}}, "mouseover": {"state": {"target": ["5", "6"], "time": [433, 449]}, "edge": {"target": [], "time": []}}, "mouseout": {"state": {"target": ["5", "6"], "time": [449, 466]}, "edge": {"target": [], "time": []}}}, "displayed_time": "9.36", "trialTime": 9548, "trial_type": "mouselab-mdp", "trial_index": 87, "time_elapsed": 1004856, "internal_node_id": "0.0-4.0-5.0-16.0"}}, {"uniqueid": "w85082659:a69030824", "current_trial": 88, "dateTime": 1664466407198, "trialdata": {"revealed_states": [], "num_clicks_accrued": [0, 0, 0, 0, 0, 0, 0, 0, 0, 0, 0, 0, 0], "stateRewards": ["", 4, 4, 48, -24, 2, -4, 48, 24, -4, -4, -48, 24], "withholdReward": true, "trial_id": "mdp_496003763005", "block": "test3", "trialIndex": 79, "score": 21, "costs": 0, "simulationMode": [null, null, null], "rewards": [-4, -4, 24], "path": ["0", "0", "9", "10", "12"], "rt": [585, 392, 70], "actions": ["left", "left", "down"], "actionTimes": [989, 1869, 2430], "queries": {"click": {"state": {"target": [], "time": []}, "edge": {"target": [], "time": []}}, "mouseover": {"state": {"target": ["5", "6"], "time": [477, 510]}, "edge": {"target": [], "time": []}}, "mouseout": {"state": {"target": ["0", "5", "6", "8"], "time": [360, 493, 526, 8443]}, "edge": {"target": [], "time": []}}}, "displayed_time": "8.40", "trialTime": 8669, "trial_type": "mouselab-mdp", "trial_index": 88, "time_elapsed": 1013600, "internal_node_id": "0.0-4.0-5.0-17.0"}}, {"uniqueid": "w85082659:a69030824", "current_trial": 89, "dateTime": 1664466416926, "trialdata": {"revealed_states": [], "num_clicks_accrued": [0, 0, 0, 0, 0, 0, 0, 0, 0, 0, 0, 0, 0], "stateRewards": ["", 2, 8, 48, 24, -4, 4, -48, 24, 2, 8, 48, 48], "withholdReward": true, "trial_id": "mdp_367344599162", "block": "test3", "trialIndex": 80, "score": 39, "costs": 0, "simulationMode": [null, null, null], "rewards": [2, 8, 24], "path": ["0", "0", "1", "2", "4"], "rt": [511, 363, 90], "actions": ["up", "up", "left"], "actionTimes": [932, 1796, 2373], "queries": {"click": {"state": {"target": [], "time": []}, "edge": {"target": [], "time": []}}, "mouseover": {"state": {"target": [], "time": []}, "edge": {"target": [], "time": []}}, "mouseout": {"state": {"target": ["0", "6", "5"], "time": [348, 9166, 9482]}, "edge": {"target": [], "time": []}}}, "displayed_time": "9.42", "trialTime": 9669, "trial_type": "mouselab-mdp", "trial_index": 89, "time_elapsed": 1023328, "internal_node_id": "0.0-4.0-5.0-18.0"}}, {"uniqueid": "w85082659:a69030824", "current_trial": 90, "dateTime": 1664466425466, "trialdata": {"revealed_states": [], "num_clicks_accrued": [0, 0, 0, 0, 0, 0, 0, 0, 0, 0, 0, 0, 0], "stateRewards": ["", -4, -4, -24, -48, -4, 8, -24, -48, 4, -8, 24, -24], "withholdReward": true, "trial_id": "mdp_924927483179", "block": "test3", "trialIndex": 81, "score": -39, "costs": 0, "simulationMode": [null, null, null], "rewards": [-4, 8, -48], "path": ["0", "0", "5", "6", "8"], "rt": [511, 115, 743], "actions": ["right", "right", "down"], "actionTimes": [964, 1596, 2840], "queries": {"click": {"state": {"target": [], "time": []}, "edge": {"target": [], "time": []}}, "mouseover": {"state": {"target": ["5"], "time": [547]}, "edge": {"target": [], "time": []}}, "mouseout": {"state": {"target": ["1", "5"], "time": [313, 563]}, "edge": {"target": [], "time": []}}}, "displayed_time": "8.45", "trialTime": 8473, "trial_type": "mouselab-mdp", "trial_index": 90, "time_elapsed": 1031868, "internal_node_id": "0.0-4.0-5.0-19.0"}}, {"uniqueid": "w85082659:a69030824", "current_trial": 91, "dateTime": 1664466435241, "trialdata": {"revealed_states": [], "num_clicks_accrued": [0, 0, 0, 0, 0, 0, 0, 0, 0, 0, 0, 0, 0], "stateRewards": ["", 4, -4, 48, 24, 2, 4, 24, -24, 2, 4, 24, 48], "withholdReward": true, "trial_id": "mdp_736351885282", "block": "test3", "trialIndex": 82, "score": 53, "costs": 0, "simulationMode": [null, null, null], "rewards": [4, -4, 48], "path": ["0", "0", "1", "2", "3"], "rt": [524, 65, 10], "actions": ["up", "up", "right"], "actionTimes": [964, 1548, 2076], "queries": {"click": {"state": {"target": [], "time": []}, "edge": {"target": [], "time": []}}, "mouseover": {"state": {"target": ["5"], "time": [532]}, "edge": {"target": [], "time": []}}, "mouseout": {"state": {"target": ["0", "5"], "time": [516, 549]}, "edge": {"target": [], "time": []}}}, "displayed_time": "9.44", "trialTime": 9700, "trial_type": "mouselab-mdp", "trial_index": 91, "time_elapsed": 1041643, "internal_node_id": "0.0-4.0-5.0-20.0"}}, {"uniqueid": "w85082659:a69030824", "current_trial": 92, "dateTime": 1664466444884, "trialdata": {"revealed_states": [], "num_clicks_accrued": [0, 0, 0, 0, 0, 0, 0, 0, 0, 0, 0, 0, 0], "stateRewards": ["", 4, -8, 48, -24, -4, 4, 24, 24, -2, -4, 24, 24], "withholdReward": true, "trial_id": "mdp_542168715839", "block": "test3", "trialIndex": 83, "score": 23, "costs": 0, "simulationMode": [null, null, null], "rewards": [-2, -4, 24], "path": ["0", "0", "9", "10", "12"], "rt": [615, 285, 42], "actions": ["left", "left", "down"], "actionTimes": [962, 1746, 2286], "queries": {"click": {"state": {"target": [], "time": []}, "edge": {"target": [], "time": []}}, "mouseover": {"state": {"target": ["5", "6"], "time": [427, 444]}, "edge": {"target": [], "time": []}}, "mouseout": {"state": {"target": ["0", "5", "6", "8"], "time": [410, 443, 460, 8994]}, "edge": {"target": [], "time": []}}}, "displayed_time": "9.35", "trialTime": 9570, "trial_type": "mouselab-mdp", "trial_index": 92, "time_elapsed": 1051286, "internal_node_id": "0.0-4.0-5.0-21.0"}}, {"uniqueid": "w85082659:a69030824", "current_trial": 93, "dateTime": 1664466453577, "trialdata": {"revealed_states": [], "num_clicks_accrued": [0, 0, 0, 0, 0, 0, 0, 0, 0, 0, 0, 0, 0], "stateRewards": ["", 4, 8, -48, -48, 2, 4, -24, -48, 2, 8, 48, -48], "withholdReward": true, "trial_id": "mdp_902172716465", "block": "test3", "trialIndex": 84, "score": 63, "costs": 0, "simulationMode": [null, null, null], "rewards": [2, 8, 48], "path": ["0", "0", "9", "10", "11"], "rt": [630, 44, 346], "actions": ["left", "left", "up"], "actionTimes": [941, 1477, 2329], "queries": {"click": {"state": {"target": [], "time": []}, "edge": {"target": [], "time": []}}, "mouseover": {"state": {"target": ["5", "6"], "time": [383, 416]}, "edge": {"target": [], "time": []}}, "mouseout": {"state": {"target": ["0", "5", "6"], "time": [266, 399, 433]}, "edge": {"target": [], "time": []}}}, "displayed_time": "8.31", "trialTime": 8602, "trial_type": "mouselab-mdp", "trial_index": 93, "time_elapsed": 1059979, "internal_node_id": "0.0-4.0-5.0-22.0"}}, {"uniqueid": "w85082659:a69030824", "current_trial": 94, "dateTime": 1664466463228, "trialdata": {"revealed_states": [], "num_clicks_accrued": [0, 0, 0, 0, 0, 0, 0, 0, 0, 0, 0, 0, 0], "stateRewards": ["", 2, -8, -24, 48, -4, -8, 24, -48, 4, -8, -24, -24], "withholdReward": false, "trial_id": "mdp_928911266656", "block": "test3", "trialIndex": 85, "score": -55, "costs": 0, "simulationMode": [null, null, null], "rewards": [-4, -8, -48], "path": ["0", "0", "5", "6", "8"], "rt": [593, 43, 13], "actions": ["right", "right", "down"], "actionTimes": [885, 1421, 1941], "queries": {"click": {"state": {"target": [], "time": []}, "edge": {"target": [], "time": []}}, "mouseover": {"state": {"target": ["5", "6"], "time": [394, 412]}, "edge": {"target": [], "time": []}}, "mouseout": {"state": {"target": ["0", "5", "6", "8"], "time": [234, 411, 428, 9428]}, "edge": {"target": [], "time": []}}}, "displayed_time": "9.29", "trialTime": 9580, "trial_type": "mouselab-mdp", "trial_index": 94, "time_elapsed": 1069629, "internal_node_id": "0.0-4.0-5.0-23.0"}}, {"uniqueid": "w85082659:a69030824", "current_trial": 95, "dateTime": 1664466472955, "trialdata": {"revealed_states": [], "num_clicks_accrued": [0, 0, 0, 0, 0, 0, 0, 0, 0, 0, 0, 0, 0], "stateRewards": ["", -2, 8, 48, 48, 2, 4, -48, 24, -4, -8, 48, 24], "withholdReward": true, "trial_id": "mdp_572910394648", "block": "test3", "trialIndex": 86, "score": -37, "costs": 0, "simulationMode": [null, null, null], "rewards": [2, 4, -48], "path": ["0", "0", "5", "6", "7"], "rt": [601, 410, 18], "actions": ["right", "right", "up"], "actionTimes": [982, 1910, 2418], "queries": {"click": {"state": {"target": [], "time": []}, "edge": {"target": [], "time": []}}, "mouseover": {"state": {"target": ["0", "5"], "time": [433, 466]}, "edge": {"target": [], "time": []}}, "mouseout": {"state": {"target": ["0", "0", "5", "6", "5", "0", "9"], "time": [332, 449, 482, 8915, 8932, 8949, 9115]}, "edge": {"target": [], "time": []}}}, "displayed_time": "9.38", "trialTime": 9661, "trial_type": "mouselab-mdp", "trial_index": 95, "time_elapsed": 1079357, "internal_node_id": "0.0-4.0-5.0-24.0"}}, {"uniqueid": "w85082659:a69030824", "current_trial": 96, "dateTime": 1664466482723, "trialdata": {"revealed_states": [], "num_clicks_accrued": [0, 0, 0, 0, 0, 0, 0, 0, 0, 0, 0, 0, 0], "stateRewards": ["", 2, 4, 48, -24, 2, -8, -24, -24, 2, -8, -24, -48], "withholdReward": false, "trial_id": "mdp_274832552938", "block": "test3", "trialIndex": 87, "score": -13, "costs": 0, "simulationMode": [null, null, null], "rewards": [2, 4, -24], "path": ["0", "0", "1", "2", "4"], "rt": [651, 39, 144], "actions": ["up", "up", "left"], "actionTimes": [1057, 1596, 2252], "queries": {"click": {"state": {"target": [], "time": []}, "edge": {"target": [], "time": []}}, "mouseover": {"state": {"target": ["5"], "time": [507]}, "edge": {"target": [], "time": []}}, "mouseout": {"state": {"target": ["0", "5", "6", "5", "0", "9", "10", "9", "0", "5", "6"], "time": [291, 524, 4741, 4807, 4863, 4907, 5141, 6007, 6041, 6057, 9704]}, "edge": {"target": [], "time": []}}}, "displayed_time": "9.41", "trialTime": 9705, "trial_type": "mouselab-mdp", "trial_index": 96, "time_elapsed": 1089125, "internal_node_id": "0.0-4.0-5.0-25.0"}}, {"uniqueid": "w85082659:a69030824", "current_trial": 97, "dateTime": 1664466492454, "trialdata": {"revealed_states": [], "num_clicks_accrued": [0, 0, 0, 0, 0, 0, 0, 0, 0, 0, 0, 0, 0], "stateRewards": ["", 2, 8, -48, 48, -4, -8, 24, 24, -2, -8, 24, -24], "withholdReward": true, "trial_id": "mdp_910248289075", "block": "test3", "trialIndex": 88, "score": 17, "costs": 0, "simulationMode": [null, null, null], "rewards": [-4, -8, 24], "path": ["0", "0", "5", "6", "8"], "rt": [589, 8, 22], "actions": ["right", "right", "down"], "actionTimes": [1004, 1515, 2047], "queries": {"click": {"state": {"target": [], "time": []}, "edge": {"target": [], "time": []}}, "mouseover": {"state": {"target": ["5", "6"], "time": [507, 540]}, "edge": {"target": [], "time": []}}, "mouseout": {"state": {"target": ["5", "0", "5", "6"], "time": [157, 490, 524, 557]}, "edge": {"target": [], "time": []}}}, "displayed_time": "9.42", "trialTime": 9651, "trial_type": "mouselab-mdp", "trial_index": 97, "time_elapsed": 1098856, "internal_node_id": "0.0-4.0-5.0-26.0"}}, {"uniqueid": "w85082659:a69030824", "current_trial": 98, "dateTime": 1664466502182, "trialdata": {"revealed_states": [], "num_clicks_accrued": [0, 0, 0, 0, 0, 0, 0, 0, 0, 0, 0, 0, 0], "stateRewards": ["", 2, 8, -48, -24, 4, 4, 24, 48, 4, -4, -48, 48], "withholdReward": true, "trial_id": "mdp_665096999232", "block": "test3", "trialIndex": 89, "score": -43, "costs": 0, "simulationMode": [null, null, null], "rewards": [4, -4, -48], "path": ["0", "0", "9", "10", "11"], "rt": [586, 31, 58], "actions": ["left", "left", "up"], "actionTimes": [1105, 1633, 2178], "queries": {"click": {"state": {"target": [], "time": []}, "edge": {"target": [], "time": []}}, "mouseover": {"state": {"target": ["5"], "time": [602]}, "edge": {"target": [], "time": []}}, "mouseout": {"state": {"target": ["5", "0", "5"], "time": [369, 435, 619]}, "edge": {"target": [], "time": []}}}, "displayed_time": "9.52", "trialTime": 9658, "trial_type": "mouselab-mdp", "trial_index": 98, "time_elapsed": 1108584, "internal_node_id": "0.0-4.0-5.0-27.0"}}, {"uniqueid": "w85082659:a69030824", "current_trial": 99, "dateTime": 1664466512613, "trialdata": {"revealed_states": [], "num_clicks_accrued": [0, 0, 0, 0, 0, 0, 0, 0, 0, 0, 0, 0, 0], "stateRewards": ["", 2, -8, 24, 24, 4, -4, -24, -48, 4, 8, 24, 24], "withholdReward": true, "trial_id": "mdp_249803813713", "block": "test3", "trialIndex": 90, "score": 41, "costs": 0, "simulationMode": [null, null, null], "rewards": [4, 8, 24], "path": ["0", "0", "9", "10", "12"], "rt": [556, 53, 51], "actions": ["left", "left", "down"], "actionTimes": [888, 1432, 1996], "queries": {"click": {"state": {"target": [], "time": []}, "edge": {"target": [], "time": []}}, "mouseover": {"state": {"target": ["5"], "time": [413]}, "edge": {"target": [], "time": []}}, "mouseout": {"state": {"target": ["6", "5", "5"], "time": [40, 161, 428]}, "edge": {"target": [], "