{"condition": 1, "counterbalance": 0, "assignmentId": "a68885061", "workerId": "w46013075", "hitId": "h20025348", "currenttrial": 137, "bonus": 0, "data": [{"uniqueid": "w46013075:a68885061", "current_trial": 0, "dateTime": 1664873454307, "trialdata": {"success": true, "trial_type": "fullscreen", "trial_index": 0, "time_elapsed": 96362, "internal_node_id": "0.0-0.0"}}, {"uniqueid": "w46013075:a68885061", "current_trial": 1, "dateTime": 1664873479161, "trialdata": {"view_history": [{"page_index": 0, "viewing_time": 24851}], "rt": 24852, "trial_id": "exp_instructions_no_distractor", "trial_type": "instructions", "trial_index": 1, "time_elapsed": 121216, "internal_node_id": "0.0-1.0"}}, {"uniqueid": "w46013075:a68885061", "current_trial": 2, "dateTime": 1664873486524, "trialdata": {"success": true, "trial_type": "fullscreen", "trial_index": 2, "time_elapsed": 128579, "internal_node_id": "0.0-2.0-0.0"}}, {"uniqueid": "w46013075:a68885061", "current_trial": 3, "dateTime": 1664873671761, "trialdata": {"view_history": [{"page_index": 0, "viewing_time": 75295}, {"page_index": 1, "viewing_time": 45192}, {"page_index": 2, "viewing_time": 19485}, {"page_index": 3, "viewing_time": 8349}, {"page_index": 4, "viewing_time": 36913}], "rt": 185235, "trial_id": "mouselab_instructions_1", "trial_type": "instructions", "trial_index": 3, "time_elapsed": 313816, "internal_node_id": "0.0-2.0-1.0"}}, {"uniqueid": "w46013075:a68885061", "current_trial": 4, "dateTime": 1664873707848, "trialdata": {"revealed_states": [], "num_clicks_accrued": [0, 0, 0, 0, 0, 0, 0, 0, 0, 0, 0, 0, 0], "stateRewards": ["", -10, -10, -10, 10, 10, -10, -10, -10, -10, 10, 10, -10], "withholdReward": false, "trial_id": "practice_1", "block": "test", "trialIndex": 0, "score": 9.25, "costs": -2.75, "simulationMode": [null, null, null], "rewards": [-10, 10, 10], "path": ["0", "0", "9", "10", "11"], "rt": [25480, 315, 285], "actions": ["left", "left", "up"], "actionTimes": [28762, 29599, 30386], "queries": {"click": {"state": {"target": ["1", "2", "3", "5", "6", "7", "9", "10", "11", "12", "8"], "time": [6474, 8799, 10189, 13619, 14453, 15227, 16726, 17220, 17688, 18568, 19363]}, "edge": {"target": [], "time": []}}, "mouseover": {"state": {"target": ["1", "2", "3", "5", "6", "7", "9", "10", "11", "12", "8"], "time": [6051, 8267, 9284, 13384, 14235, 15050, 16467, 17017, 17533, 18401, 19033]}, "edge": {"target": [], "time": []}}, "mouseout": {"state": {"target": ["1", "2", "3", "5", "6", "7", "9", "10", "11", "10", "12", "8"], "time": [8102, 9250, 12550, 14151, 14967, 16183, 16967, 17483, 18134, 18300, 18801, 19883]}, "edge": {"target": [], "time": []}}}, "displayed_time": "30.92", "trialTime": 35955, "trial_type": "mouselab-mdp", "trial_index": 4, "time_elapsed": 349903, "internal_node_id": "0.0-2.0-2.0-0.0"}}, {"uniqueid": "w46013075:a68885061", "current_trial": 5, "dateTime": 1664873716241, "trialdata": {"revealed_states": [], "num_clicks_accrued": [0, 0, 0, 0, 0, 0, 0, 0, 0, 0, 0, 0, 0], "stateRewards": ["", -10, 10, 10, -10, 10, 10, -10, 10, -10, -10, -10, -10], "withholdReward": false, "trial_id": "practice_2", "block": "test", "trialIndex": 1, "score": 12, "costs": 0, "simulationMode": [null, null, null], "rewards": [10, 10, -10], "path": ["0", "0", "5", "6", "7"], "rt": [1303, 898, 213], "actions": ["right", "right", "up"], "actionTimes": [2725, 4152, 4868], "queries": {"click": {"state": {"target": [], "time": []}, "edge": {"target": [], "time": []}}, "mouseover": {"state": {"target": [], "time": []}, "edge": {"target": [], "time": []}}, "mouseout": {"state": {"target": ["0"], "time": [1721]}, "edge": {"target": [], "time": []}}}, "displayed_time": "5.39", "trialTime": 8351, "trial_type": "mouselab-mdp", "trial_index": 5, "time_elapsed": 358295, "internal_node_id": "0.0-2.0-2.0-1.0"}}, {"uniqueid": "w46013075:a68885061", "current_trial": 6, "dateTime": 1664873826301, "trialdata": {"view_history": [{"page_index": 0, "viewing_time": 49057}, {"page_index": 1, "viewing_time": 12104}, {"page_index": 2, "viewing_time": 6502}, {"page_index": 1, "viewing_time": 24625}, {"page_index": 2, "viewing_time": 17769}], "rt": 110057, "trial_id": "mouselab_instructions_2_scarce", "trial_type": "instructions", "trial_index": 6, "time_elapsed": 468356, "internal_node_id": "0.0-2.0-3.0"}}, {"uniqueid": "w46013075:a68885061", "current_trial": 7, "dateTime": 1664873919408, "trialdata": {"rt": 93102, "response": {"Q0": "$-48 to $48", "Q1": "The cost is always $0.25.", "Q2": "The better I perform the higher my bonus will be.", "Q3": "No, the amount of cash at each node of the web may be different each time.", "Q4": "The values of the nodes walked through from start to finish.", "Q5": "No, the spider might forget to count the money on some rounds."}, "question_order": [0, 1, 2, 3, 4, 5], "correct": {"Q0": "$-48 to $48", "Q1": "The cost is always $0.25.", "Q2": "The better I perform the higher my bonus will be.", "Q3": "No, the amount of cash at each node of the web may be different each time.", "Q4": "The values of the nodes walked through from start to finish.", "Q5": "No, the spider might forget to count the money on some rounds."}, "trial_id": "mouselab_quiz_scarce", "trial_type": "survey-multi-choice", "trial_index": 7, "time_elapsed": 561463, "internal_node_id": "0.0-2.0-4.0"}}, {"uniqueid": "w46013075:a68885061", "current_trial": 8, "dateTime": 1664873939467, "trialdata": {"rt": 20053, "stimulus": "\n<h1> Get ready to start the game! </h1>\n\nThank you for reading the instructions. Get ready start with the first of 4 block(s) of this game.\n<br><br>\nIn this first block, you will complete 30 rounds of this game before moving on.\n<br><br>\nRemember, the more money the spider gets, the bigger your bonus will be!\n<br><br>\n<div style='text-align: center;'>Press <code>space</code> to begin.</div>\n\n<br><br>\n(If, at any point, the <code>space</code> key does not take you to the next page, click once on the text and try again.)", "response": " ", "trial_id": "mdp_ready_1", "trial_type": "html-keyboard-response", "trial_index": 8, "time_elapsed": 581522, "internal_node_id": "0.0-4.0-0.0"}}, {"uniqueid": "w46013075:a68885061", "current_trial": 9, "dateTime": 1664873950989, "trialdata": {"revealed_states": [], "num_clicks_accrued": [0, 0, 0, 0, 0, 0, 0, 0, 0, 0, 0, 0, 0], "stateRewards": ["", 2, 8, -24, -48, 2, 4, -24, 48, 2, -8, 48, -24], "withholdReward": false, "trial_id": "mdp_791659307216", "block": "test1", "trialIndex": 2, "score": -33, "costs": 0, "simulationMode": [null, null, null], "rewards": [2, 8, -48], "path": ["0", "0", "1", "2", "4"], "rt": [1688, 172, 108], "actions": ["up", "up", "left"], "actionTimes": [3133, 3838, 4474], "queries": {"click": {"state": {"target": [], "time": []}, "edge": {"target": [], "time": []}}, "mouseover": {"state": {"target": [], "time": []}, "edge": {"target": [], "time": []}}, "mouseout": {"state": {"target": ["6", "5"], "time": [715, 798]}, "edge": {"target": [], "time": []}}}, "displayed_time": "9.45", "trialTime": 11480, "trial_type": "mouselab-mdp", "trial_index": 9, "time_elapsed": 593044, "internal_node_id": "0.0-4.0-1.0-0.0"}}, {"uniqueid": "w46013075:a68885061", "current_trial": 10, "dateTime": 1664873965945, "trialdata": {"revealed_states": [], "num_clicks_accrued": [0, 0, 0, 0, 0, 0, 0, 0, 0, 0, 0, 0, 0], "stateRewards": ["", 2, 8, 48, -48, -2, -4, -24, 24, 4, -4, 48, -48], "withholdReward": true, "trial_id": "mdp_105734044587", "block": "test1", "trialIndex": 3, "score": 62.25, "costs": -0.75, "simulationMode": [null, null, null], "rewards": [2, 8, 48], "path": ["0", "0", "1", "2", "3"], "rt": [4588, 135, 130], "actions": ["up", "up", "right"], "actionTimes": [7182, 7820, 8481], "queries": {"click": {"state": {"target": ["10", "6", "2"], "time": [3737, 5727, 6462]}, "edge": {"target": [], "time": []}}, "mouseover": {"state": {"target": ["9", "10", "5", "6", "5", "2", "1"], "time": [3367, 3551, 5251, 5384, 6067, 6284, 6684]}, "edge": {"target": [], "time": []}}, "mouseout": {"state": {"target": ["0", "0", "9", "10", "5", "6", "5", "2", "1"], "time": [967, 3284, 3434, 3967, 5267, 6017, 6084, 6651, 6751]}, "edge": {"target": [], "time": []}}}, "displayed_time": "11.60", "trialTime": 14922, "trial_type": "mouselab-mdp", "trial_index": 10, "time_elapsed": 608000, "internal_node_id": "0.0-4.0-1.0-1.0"}}, {"uniqueid": "w46013075:a68885061", "current_trial": 11, "dateTime": 1664873978011, "trialdata": {"revealed_states": [], "num_clicks_accrued": [0, 0, 0, 0, 0, 0, 0, 0, 0, 0, 0, 0, 0], "stateRewards": ["", 2, -8, 48, -24, -4, -8, -24, 48, -2, 4, 24, -48], "withholdReward": true, "trial_id": "mdp_186932504904", "block": "test1", "trialIndex": 4, "score": -25, "costs": 0, "simulationMode": [null, null, null], "rewards": [2, -8, -24], "path": ["0", "0", "1", "2", "4"], "rt": [1685, 75, 38], "actions": ["up", "up", "left"], "actionTimes": [2817, 3418, 3965], "queries": {"click": {"state": {"target": [], "time": []}, "edge": {"target": [], "time": []}}, "mouseover": {"state": {"target": [], "time": []}, "edge": {"target": [], "time": []}}, "mouseout": {"state": {"target": ["0", "0", "0"], "time": [826, 10876, 11242]}, "edge": {"target": [], "time": []}}}, "displayed_time": "10.14", "trialTime": 12030, "trial_type": "mouselab-mdp", "trial_index": 11, "time_elapsed": 620066, "internal_node_id": "0.0-4.0-1.0-2.0"}}, {"uniqueid": "w46013075:a68885061", "current_trial": 12, "dateTime": 1664873990040, "trialdata": {"revealed_states": [], "num_clicks_accrued": [0, 0, 0, 0, 0, 0, 0, 0, 0, 0, 0, 0, 0], "stateRewards": ["", 2, 8, -48, 24, -2, 4, 48, 48, -2, -8, 48, 24], "withholdReward": true, "trial_id": "mdp_157355418411", "block": "test1", "trialIndex": 5, "score": 38.25, "costs": -0.75, "simulationMode": [null, null, null], "rewards": [2, 8, 24], "path": ["0", "0", "1", "2", "4"], "rt": [3126, 92, 186], "actions": ["up", "up", "left"], "actionTimes": [4634, 5238, 5933], "queries": {"click": {"state": {"target": ["10", "6", "2"], "time": [2653, 3215, 3730]}, "edge": {"target": [], "time": []}}, "mouseover": {"state": {"target": ["9", "10", "9", "0", "5", "6", "2", "1", "0"], "time": [2012, 2178, 2795, 2830, 2862, 3079, 3528, 3945, 3995]}, "edge": {"target": [], "time": []}}, "mouseout": {"state": {"target": ["0", "9", "10", "9", "0", "5", "6", "2", "1", "0"], "time": [1378, 2095, 2779, 2813, 2846, 2895, 3362, 3912, 3962, 4012]}, "edge": {"target": [], "time": []}}}, "displayed_time": "9.51", "trialTime": 11995, "trial_type": "mouselab-mdp", "trial_index": 12, "time_elapsed": 632095, "internal_node_id": "0.0-4.0-1.0-3.0"}}, {"uniqueid": "w46013075:a68885061", "current_trial": 13, "dateTime": 1664874001717, "trialdata": {"revealed_states": [], "num_clicks_accrued": [0, 0, 0, 0, 0, 0, 0, 0, 0, 0, 0, 0, 0], "stateRewards": ["", -4, 8, -24, 24, -2, -8, 24, -24, 4, -4, -48, 48], "withholdReward": true, "trial_id": "mdp_297684722007", "block": "test1", "trialIndex": 6, "score": 31.75, "costs": -1.25, "simulationMode": [null, null, null], "rewards": [-4, 8, 24], "path": ["0", "0", "1", "2", "4"], "rt": [3190, 64, 43], "actions": ["up", "up", "left"], "actionTimes": [3963, 4558, 5104], "queries": {"click": {"state": {"target": ["10", "6", "2", "4", "3"], "time": [1546, 2055, 2517, 3190, 3609]}, "edge": {"target": [], "time": []}}, "mouseover": {"state": {"target": ["9", "10", "9", "5", "6", "2", "1", "4", "3"], "time": [1210, 1444, 1677, 1743, 1927, 2393, 2727, 3027, 3443]}, "edge": {"target": [], "time": []}}, "mouseout": {"state": {"target": ["0", "9", "10", "9", "5", "6", "2", "1", "4", "2", "3", "5"], "time": [610, 1277, 1660, 1694, 1777, 2210, 2693, 2960, 3343, 3393, 3760, 5844]}, "edge": {"target": [], "time": []}}}, "displayed_time": "8.77", "trialTime": 11637, "trial_type": "mouselab-mdp", "trial_index": 13, "time_elapsed": 643772, "internal_node_id": "0.0-4.0-1.0-4.0"}}, {"uniqueid": "w46013075:a68885061", "current_trial": 14, "dateTime": 1664874017143, "trialdata": {"revealed_states": [], "num_clicks_accrued": [0, 0, 0, 0, 0, 0, 0, 0, 0, 0, 0, 0, 0], "stateRewards": ["", -4, 4, -24, -24, -4, -8, 24, 48, 4, -4, 24, 48], "withholdReward": false, "trial_id": "mdp_175395325183", "block": "test1", "trialIndex": 7, "score": 27.75, "costs": -1.25, "simulationMode": [null, null, null], "rewards": [4, -4, 24], "path": ["0", "0", "9", "10", "11"], "rt": [7377, 58, 56], "actions": ["left", "left", "up"], "actionTimes": [10512, 11096, 11662], "queries": {"click": {"state": {"target": ["10", "6", "2", "4", "3"], "time": [4073, 4573, 5405, 6136, 6814]}, "edge": {"target": [], "time": []}}, "mouseover": {"state": {"target": ["0", "9", "10", "9", "5", "6", "2", "2", "2", "4", "3", "5"], "time": [3338, 3754, 3956, 4205, 4271, 4355, 4871, 5171, 5305, 6038, 6721, 8071]}, "edge": {"target": [], "time": []}}, "mouseout": {"state": {"target": ["0", "0", "0", "9", "10", "9", "5", "6", "2", "2", "2", "4", "2", "3", "5"], "time": [2105, 2688, 3738, 3771, 4171, 4221, 4305, 4705, 4955, 5288, 5588, 6238, 6305, 6955, 14771]}, "edge": {"target": [], "time": []}}}, "displayed_time": "12.17", "trialTime": 15391, "trial_type": "mouselab-mdp", "trial_index": 14, "time_elapsed": 659198, "internal_node_id": "0.0-4.0-1.0-5.0"}}, {"uniqueid": "w46013075:a68885061", "current_trial": 15, "dateTime": 1664874027476, "trialdata": {"revealed_states": [], "num_clicks_accrued": [0, 0, 0, 0, 0, 0, 0, 0, 0, 0, 0, 0, 0], "stateRewards": ["", -2, -8, 48, -24, 2, -4, -48, -24, -2, -4, -48, 48], "withholdReward": true, "trial_id": "mdp_143798438087", "block": "test1", "trialIndex": 8, "score": -49.75, "costs": -0.75, "simulationMode": [null, null, null], "rewards": [-2, -4, -48], "path": ["0", "0", "9", "10", "11"], "rt": [5115, 46, 63], "actions": ["left", "left", "up"], "actionTimes": [6212, 6759, 7344], "queries": {"click": {"state": {"target": ["10", "6", "2"], "time": [1820, 2393, 2884]}, "edge": {"target": [], "time": []}}, "mouseover": {"state": {"target": ["9", "10", "9", "0", "6", "5", "2", "1", "11"], "time": [1329, 1663, 1963, 2013, 2229, 2546, 2763, 3079, 5630]}, "edge": {"target": [], "time": []}}, "mouseout": {"state": {"target": ["0", "9", "10", "9", "0", "6", "5", "2", "1", "11", "9"], "time": [1279, 1530, 1930, 1996, 2030, 2512, 2563, 3063, 3730, 5879, 7813]}, "edge": {"target": [], "time": []}}}, "displayed_time": "9.10", "trialTime": 10299, "trial_type": "mouselab-mdp", "trial_index": 15, "time_elapsed": 669531, "internal_node_id": "0.0-4.0-1.0-6.0"}}, {"uniqueid": "w46013075:a68885061", "current_trial": 16, "dateTime": 1664874038432, "trialdata": {"revealed_states": [], "num_clicks_accrued": [0, 0, 0, 0, 0, 0, 0, 0, 0, 0, 0, 0, 0], "stateRewards": ["", -4, 8, -48, -48, -2, -8, -24, -48, 2, -4, -48, 24], "withholdReward": true, "trial_id": "mdp_743906784415", "block": "test1", "trialIndex": 9, "score": 25.25, "costs": -1.75, "simulationMode": [null, null, null], "rewards": [2, -4, 24], "path": ["0", "0", "9", "10", "12"], "rt": [6145, 23, 26], "actions": ["left", "left", "down"], "actionTimes": [7065, 7607, 8160], "queries": {"click": {"state": {"target": ["10", "6", "2", "4", "3", "11", "12"], "time": [1707, 2248, 2703, 3526, 3873, 5861, 6682]}, "edge": {"target": [], "time": []}}, "mouseover": {"state": {"target": ["9", "10", "9", "0", "5", "6", "2", "1", "4", "3", "9", "11", "12"], "time": [1450, 1518, 1817, 1850, 1900, 2134, 2617, 2917, 3400, 3751, 5484, 5717, 6551]}, "edge": {"target": [], "time": []}}, "mouseout": {"state": {"target": ["0", "9", "10", "9", "0", "5", "6", "2", "1", "4", "2", "3", "9", "11", "10", "12"], "time": [1417, 1484, 1800, 1834, 1867, 2067, 2400, 2884, 3334, 3650, 3734, 4067, 5550, 6117, 6184, 7817]}, "edge": {"target": [], "time": []}}}, "displayed_time": "8.92", "trialTime": 10926, "trial_type": "mouselab-mdp", "trial_index": 16, "time_elapsed": 680487, "internal_node_id": "0.0-4.0-1.0-7.0"}}, {"uniqueid": "w46013075:a68885061", "current_trial": 17, "dateTime": 1664874049211, "trialdata": {"revealed_states": [], "num_clicks_accrued": [0, 0, 0, 0, 0, 0, 0, 0, 0, 0, 0, 0, 0], "stateRewards": ["", -2, 8, 48, 48, 4, -8, -48, 48, 2, -4, -48, 48], "withholdReward": true, "trial_id": "mdp_132958048709", "block": "test1", "trialIndex": 10, "score": 57.75, "costs": -1.25, "simulationMode": [null, null, null], "rewards": [-2, 8, 48], "path": ["0", "0", "1", "2", "4"], "rt": [4027, 40, 18], "actions": ["up", "up", "left"], "actionTimes": [5257, 5813, 6357], "queries": {"click": {"state": {"target": ["6", "2", "10", "4", "3"], "time": [1874, 2434, 2876, 3477, 3779]}, "edge": {"target": [], "time": []}}, "mouseover": {"state": {"target": ["5", "6", "2", "10", "9", "4", "3"], "time": [1539, 1706, 2323, 2756, 3123, 3373, 3673]}, "edge": {"target": [], "time": []}}, "mouseout": {"state": {"target": ["0", "5", "6", "2", "10", "9", "4", "2", "3"], "time": [739, 1589, 2006, 2556, 3056, 3206, 3573, 3656, 3956]}, "edge": {"target": [], "time": []}}}, "displayed_time": "9.23", "trialTime": 10744, "trial_type": "mouselab-mdp", "trial_index": 17, "time_elapsed": 691266, "internal_node_id": "0.0-4.0-1.0-8.0"}}, {"uniqueid": "w46013075:a68885061", "current_trial": 18, "dateTime": 1664874059607, "trialdata": {"revealed_states": [], "num_clicks_accrued": [0, 0, 0, 0, 0, 0, 0, 0, 0, 0, 0, 0, 0], "stateRewards": ["", -2, 8, -48, 48, -4, -8, 24, 24, -2, -4, 48, -48], "withholdReward": false, "trial_id": "mdp_867247318592", "block": "test1", "trialIndex": 11, "score": 57.75, "costs": -1.25, "simulationMode": [null, null, null], "rewards": [-2, 8, 48], "path": ["0", "0", "1", "2", "4"], "rt": [4098, 580, 155], "actions": ["up", "up", "left"], "actionTimes": [4750, 5837, 6496], "queries": {"click": {"state": {"target": ["10", "2", "6", "4", "3"], "time": [1412, 2512, 2992, 3717, 4065]}, "edge": {"target": [], "time": []}}, "mouseover": {"state": {"target": ["9", "10", "4", "2", "2", "7", "6", "4", "3"], "time": [1174, 1274, 1757, 2107, 2373, 2757, 2923, 3640, 3957]}, "edge": {"target": [], "time": []}}, "mouseout": {"state": {"target": ["0", "9", "10", "4", "2", "2", "7", "6", "2", "4", "2", "3", "5"], "time": [490, 1207, 1524, 1790, 2157, 2640, 2790, 3323, 3557, 3857, 3940, 4357, 9657]}, "edge": {"target": [], "time": []}}}, "displayed_time": "8.65", "trialTime": 10358, "trial_type": "mouselab-mdp", "trial_index": 18, "time_elapsed": 701662, "internal_node_id": "0.0-4.0-1.0-9.0"}}, {"uniqueid": "w46013075:a68885061", "current_trial": 19, "dateTime": 1664874070150, "trialdata": {"revealed_states": [], "num_clicks_accrued": [0, 0, 0, 0, 0, 0, 0, 0, 0, 0, 0, 0, 0], "stateRewards": ["", 4, 8, -24, 48, 4, -8, -48, 48, -4, 8, -24, -48], "withholdReward": true, "trial_id": "mdp_376126356841", "block": "test1", "trialIndex": 12, "score": 63.75, "costs": -1.25, "simulationMode": [null, null, null], "rewards": [4, 8, 48], "path": ["0", "0", "1", "2", "4"], "rt": [4214, 30, 30], "actions": ["up", "up", "left"], "actionTimes": [5743, 6276, 6809], "queries": {"click": {"state": {"target": ["10", "2", "6", "11", "4"], "time": [2117, 2586, 3337, 4125, 4680]}, "edge": {"target": [], "time": []}}, "mouseover": {"state": {"target": ["9", "10", "1", "2", "6", "5", "9", "11", "4", "3"], "time": [1881, 2012, 2363, 2446, 3096, 3629, 3796, 3996, 4546, 5046]}, "edge": {"target": [], "time": []}}, "mouseout": {"state": {"target": ["5", "9", "10", "1", "2", "6", "5", "9", "11", "4", "2", "3"], "time": [1196, 1946, 2246, 2380, 2712, 3563, 3712, 3846, 4329, 4862, 4996, 6079]}, "edge": {"target": [], "time": []}}}, "displayed_time": "9.53", "trialTime": 10507, "trial_type": "mouselab-mdp", "trial_index": 19, "time_elapsed": 712205, "internal_node_id": "0.0-4.0-1.0-10.0"}}, {"uniqueid": "w46013075:a68885061", "current_trial": 20, "dateTime": 1664874080530, "trialdata": {"revealed_states": [], "num_clicks_accrued": [0, 0, 0, 0, 0, 0, 0, 0, 0, 0, 0, 0, 0], "stateRewards": ["", 4, -8, 48, 48, 2, 4, 48, -48, 4, -4, -48, 48], "withholdReward": true, "trial_id": "mdp_519605841135", "block": "test1", "trialIndex": 13, "score": 58, "costs": -1, "simulationMode": [null, null, null], "rewards": [2, 4, 48], "path": ["0", "0", "5", "6", "7"], "rt": [3029, 527, 50], "actions": ["right", "right", "up"], "actionTimes": [4141, 5195, 5768], "queries": {"click": {"state": {"target": ["2", "10", "6", "7"], "time": [1821, 2255, 2711, 3554]}, "edge": {"target": [], "time": []}}, "mouseover": {"state": {"target": ["1", "2", "10", "9", "5", "6", "5", "7", "8"], "time": [1567, 1667, 2118, 2367, 2434, 2684, 3267, 3468, 3984]}, "edge": {"target": [], "time": []}}, "mouseout": {"state": {"target": ["5", "1", "2", "10", "9", "5", "6", "5", "7", "6", "8"], "time": [901, 1634, 1950, 2351, 2384, 2518, 2884, 3334, 3784, 3901, 4801]}, "edge": {"target": [], "time": []}}}, "displayed_time": "9.11", "trialTime": 10341, "trial_type": "mouselab-mdp", "trial_index": 20, "time_elapsed": 722585, "internal_node_id": "0.0-4.0-1.0-11.0"}}, {"uniqueid": "w46013075:a68885061", "current_trial": 21, "dateTime": 1664874099174, "trialdata": {"revealed_states": [], "num_clicks_accrued": [0, 0, 0, 0, 0, 0, 0, 0, 0, 0, 0, 0, 0], "stateRewards": ["", -4, -8, -24, -48, -2, -8, 24, -48, -4, -8, 24, -48], "withholdReward": true, "trial_id": "mdp_621812384092", "block": "test1", "trialIndex": 14, "score": 14.75, "costs": -2.25, "simulationMode": [null, null, null], "rewards": [-4, -8, 24], "path": ["0", "0", "9", "10", "11"], "rt": [12589, 518, 78], "actions": ["left", "left", "up"], "actionTimes": [14299, 15328, 15938], "queries": {"click": {"state": {"target": ["10", "2", "6", "11", "12", "7", "8", "4", "3"], "time": [2741, 3494, 3963, 7938, 9177, 10360, 11201, 12911, 13615]}, "edge": {"target": [], "time": []}}, "mouseover": {"state": {"target": ["9", "10", "10", "10", "2", "2", "6", "8", "11", "12", "7", "8", "4", "3"], "time": [2092, 2126, 2409, 2609, 2942, 3359, 3859, 4242, 7642, 8776, 10126, 11009, 12775, 13526]}, "edge": {"target": [], "time": []}}, "mouseout": {"state": {"target": ["0", "0", "9", "10", "10", "10", "2", "2", "6", "8", "11", "10", "12", "6", "7", "6", "8", "2", "4", "2", "3", "1"], "time": [526, 2059, 2109, 2243, 2442, 2842, 3126, 3609, 4192, 4476, 8259, 8593, 9509, 10026, 10909, 10975, 12442, 12625, 13059, 13159, 14292, 14759]}, "edge": {"target": [], "time": []}}}, "displayed_time": "16.44", "trialTime": 18611, "trial_type": "mouselab-mdp", "trial_index": 21, "time_elapsed": 741229, "internal_node_id": "0.0-4.0-1.0-12.0"}}, {"uniqueid": "w46013075:a68885061", "current_trial": 22, "dateTime": 1664874109936, "trialdata": {"revealed_states": [], "num_clicks_accrued": [0, 0, 0, 0, 0, 0, 0, 0, 0, 0, 0, 0, 0], "stateRewards": ["", -4, 8, -48, -48, -4, 4, -24, -48, 2, -4, -24, 24], "withholdReward": true, "trial_id": "mdp_183773275291", "block": "test1", "trialIndex": 15, "score": -22.75, "costs": -1.75, "simulationMode": [null, null, null], "rewards": [2, -4, -24], "path": ["0", "0", "9", "10", "11"], "rt": [5348, 32, 22], "actions": ["left", "left", "up"], "actionTimes": [6591, 7143, 7666], "queries": {"click": {"state": {"target": ["10", "2", "6", "4", "3", "7", "8"], "time": [1875, 2284, 2717, 3534, 4024, 4737, 5493]}, "edge": {"target": [], "time": []}}, "mouseover": {"state": {"target": ["9", "10", "2", "6", "5", "1", "4", "3", "7", "8", "9"], "time": [1610, 1676, 2093, 2643, 3043, 3243, 3426, 3943, 4643, 5394, 6311]}, "edge": {"target": [], "time": []}}, "mouseout": {"state": {"target": ["0", "0", "9", "10", "2", "6", "5", "1", "2", "4", "2", "3", "7", "6", "8", "9"], "time": [527, 1576, 1643, 1976, 2411, 2927, 3076, 3276, 3377, 3760, 3893, 4176, 4876, 5327, 5694, 7094]}, "edge": {"target": [], "time": []}}}, "displayed_time": "9.24", "trialTime": 10723, "trial_type": "mouselab-mdp", "trial_index": 22, "time_elapsed": 751991, "internal_node_id": "0.0-4.0-1.0-13.0"}}, {"uniqueid": "w46013075:a68885061", "current_trial": 23, "dateTime": 1664874120463, "trialdata": {"revealed_states": [], "num_clicks_accrued": [0, 0, 0, 0, 0, 0, 0, 0, 0, 0, 0, 0, 0], "stateRewards": ["", -2, -4, 48, 48, 2, 4, -48, 24, 4, -8, 24, -24], "withholdReward": true, "trial_id": "mdp_628613319495", "block": "test1", "trialIndex": 16, "score": 33.75, "costs": -1.25, "simulationMode": [null, null, null], "rewards": [2, 4, 24], "path": ["0", "0", "5", "6", "8"], "rt": [3642, 58, 10], "actions": ["right", "right", "down"], "actionTimes": [4371, 4961, 5496], "queries": {"click": {"state": {"target": ["10", "2", "6", "7", "8"], "time": [1695, 2126, 2631, 3294, 3784]}, "edge": {"target": [], "time": []}}, "mouseover": {"state": {"target": ["9", "10", "2", "6", "8", "7", "8"], "time": [1120, 1569, 1953, 2502, 2902, 3186, 3669]}, "edge": {"target": [], "time": []}}, "mouseout": {"state": {"target": ["0", "9", "10", "2", "6", "8", "6", "7", "6", "8"], "time": [436, 1219, 1819, 2269, 2836, 3086, 3152, 3436, 3553, 3986]}, "edge": {"target": [], "time": []}}}, "displayed_time": "9.73", "trialTime": 10493, "trial_type": "mouselab-mdp", "trial_index": 23, "time_elapsed": 762518, "internal_node_id": "0.0-4.0-1.0-14.0"}}, {"uniqueid": "w46013075:a68885061", "current_trial": 24, "dateTime": 1664874130722, "trialdata": {"revealed_states": [], "num_clicks_accrued": [0, 0, 0, 0, 0, 0, 0, 0, 0, 0, 0, 0, 0], "stateRewards": ["", 2, -4, 48, -48, -4, -8, -48, 24, -4, 4, 48, 48], "withholdReward": false, "trial_id": "mdp_544803968425", "block": "test1", "trialIndex": 17, "score": 52, "costs": -1, "simulationMode": [null, null, null], "rewards": [-4, 4, 48], "path": ["0", "0", "9", "10", "11"], "rt": [4492, 453, 149], "actions": ["left", "left", "up"], "actionTimes": [5639, 6608, 7270], "queries": {"click": {"state": {"target": ["10", "2", "6", "11"], "time": [2375, 3389, 3889, 4740]}, "edge": {"target": [], "time": []}}, "mouseover": {"state": {"target": ["9", "10", "10", "10", "2", "2", "3", "7", "6", "5", "11", "12"], "time": [1470, 1587, 1837, 2320, 2637, 2921, 3570, 3670, 3754, 4271, 4654, 5087]}, "edge": {"target": [], "time": []}}, "mouseout": {"state": {"target": ["8", "0", "9", "10", "10", "10", "2", "2", "3", "7", "6", "5", "11", "10", "12"], "time": [738, 1104, 1554, 1704, 1920, 2504, 2737, 3538, 3587, 3687, 4253, 4287, 4937, 5020, 6937]}, "edge": {"target": [], "time": []}}}, "displayed_time": "9.15", "trialTime": 10219, "trial_type": "mouselab-mdp", "trial_index": 24, "time_elapsed": 772777, "internal_node_id": "0.0-4.0-1.0-15.0"}}, {"uniqueid": "w46013075:a68885061", "current_trial": 25, "dateTime": 1664874141737, "trialdata": {"revealed_states": [], "num_clicks_accrued": [0, 0, 0, 0, 0, 0, 0, 0, 0, 0, 0, 0, 0], "stateRewards": ["", -2, -8, -24, -48, -2, -4, 48, -48, 4, 4, -48, 48], "withholdReward": true, "trial_id": "mdp_156977432949", "block": "test1", "trialIndex": 18, "score": 60.5, "costs": -0.5, "simulationMode": [null, null, null], "rewards": [4, 4, 48], "path": ["0", "0", "9", "10", "12"], "rt": [3562, 263, 901], "actions": ["left", "left", "down"], "actionTimes": [4662, 5427, 6848], "queries": {"click": {"state": {"target": ["11", "12"], "time": [1681, 3786]}, "edge": {"target": [], "time": []}}, "mouseover": {"state": {"target": ["11", "10", "12"], "time": [1447, 3397, 3497]}, "edge": {"target": [], "time": []}}, "mouseout": {"state": {"target": ["0", "11", "10", "12"], "time": [963, 1980, 3430, 4280]}, "edge": {"target": [], "time": []}}}, "displayed_time": "10.10", "trialTime": 10978, "trial_type": "mouselab-mdp", "trial_index": 25, "time_elapsed": 783792, "internal_node_id": "0.0-4.0-1.0-16.0"}}, {"uniqueid": "w46013075:a68885061", "current_trial": 26, "dateTime": 1664874152777, "trialdata": {"revealed_states": [], "num_clicks_accrued": [0, 0, 0, 0, 0, 0, 0, 0, 0, 0, 0, 0, 0], "stateRewards": ["", -2, -4, -24, 48, -4, 8, 48, 48, 2, 8, -48, -24], "withholdReward": true, "trial_id": "mdp_136376573354", "block": "test1", "trialIndex": 19, "score": 56.5, "costs": -0.5, "simulationMode": [null, null, null], "rewards": [-4, 8, 48], "path": ["0", "0", "5", "6", "8"], "rt": [2697, 101, 94], "actions": ["right", "right", "down"], "actionTimes": [3423, 4049, 4674], "queries": {"click": {"state": {"target": ["12", "8"], "time": [1233, 1881]}, "edge": {"target": [], "time": []}}, "mouseover": {"state": {"target": ["9", "12", "8"], "time": [946, 1046, 1729]}, "edge": {"target": [], "time": []}}, "mouseout": {"state": {"target": ["0", "9", "12", "8", "8", "8", "8", "8", "8", "8", "8", "8", "8", "8", "8", "5", "5", "6", "8", "8", "8"], "time": [880, 980, 1496, 2330, 6246, 6563, 6829, 7063, 7313, 7397, 7646, 7880, 8063, 8313, 8696, 8829, 9029, 9330, 9713, 10080, 10313]}, "edge": {"target": [], "time": []}}}, "displayed_time": "9.73", "trialTime": 11001, "trial_type": "mouselab-mdp", "trial_index": 26, "time_elapsed": 794832, "internal_node_id": "0.0-4.0-1.0-17.0"}}, {"uniqueid": "w46013075:a68885061", "current_trial": 27, "dateTime": 1664874162906, "trialdata": {"revealed_states": [], "num_clicks_accrued": [0, 0, 0, 0, 0, 0, 0, 0, 0, 0, 0, 0, 0], "stateRewards": ["", 2, 8, 48, 24, -4, 4, -48, 24, 2, 8, 48, 48], "withholdReward": false, "trial_id": "mdp_367344599162", "block": "test1", "trialIndex": 20, "score": 62.75, "costs": -0.25, "simulationMode": [null, null, null], "rewards": [2, 8, 48], "path": ["0", "0", "9", "10", "11"], "rt": [1850, 61, 31], "actions": ["left", "left", "up"], "actionTimes": [2526, 3118, 3706], "queries": {"click": {"state": {"target": ["11"], "time": [1655]}, "edge": {"target": [], "time": []}}, "mouseover": {"state": {"target": ["9", "10", "11"], "time": [1123, 1422, 1573]}, "edge": {"target": [], "time": []}}, "mouseout": {"state": {"target": ["8", "5", "0", "9", "10", "11", "0"], "time": [222, 439, 1073, 1206, 1456, 1873, 4223]}, "edge": {"target": [], "time": []}}}, "displayed_time": "8.68", "trialTime": 10090, "trial_type": "mouselab-mdp", "trial_index": 27, "time_elapsed": 804961, "internal_node_id": "0.0-4.0-1.0-18.0"}}, {"uniqueid": "w46013075:a68885061", "current_trial": 28, "dateTime": 1664874174538, "trialdata": {"revealed_states": [], "num_clicks_accrued": [0, 0, 0, 0, 0, 0, 0, 0, 0, 0, 0, 0, 0], "stateRewards": ["", 2, -8, 24, -24, -2, 8, -48, -48, 2, -8, -24, -48], "withholdReward": false, "trial_id": "mdp_744278669205", "block": "test1", "trialIndex": 21, "score": 21.5, "costs": -1.5, "simulationMode": [null, null, null], "rewards": [2, -8, 24], "path": ["0", "0", "1", "2", "3"], "rt": [4195, 501, 191], "actions": ["up", "up", "right"], "actionTimes": [4952, 5977, 6701], "queries": {"click": {"state": {"target": ["11", "3", "7", "8", "12", "4"], "time": [1228, 1889, 2514, 3044, 3662, 4146]}, "edge": {"target": [], "time": []}}, "mouseover": {"state": {"target": ["11", "2", "3", "7", "6", "8", "12", "4"], "time": [1143, 1692, 1792, 2376, 2842, 2943, 3659, 4059]}, "edge": {"target": [], "time": []}}, "mouseout": {"state": {"target": ["0", "11", "2", "3", "7", "6", "8", "12", "4"], "time": [709, 1526, 1742, 2326, 2793, 2893, 3409, 3909, 6359]}, "edge": {"target": [], "time": []}}}, "displayed_time": "8.76", "trialTime": 11592, "trial_type": "mouselab-mdp", "trial_index": 28, "time_elapsed": 816593, "internal_node_id": "0.0-4.0-1.0-19.0"}}, {"uniqueid": "w46013075:a68885061", "current_trial": 29, "dateTime": 1664874185167, "trialdata": {"revealed_states": [], "num_clicks_accrued": [0, 0, 0, 0, 0, 0, 0, 0, 0, 0, 0, 0, 0], "stateRewards": ["", -2, 8, -48, 48, 4, -8, -48, 48, 4, -4, -24, 48], "withholdReward": true, "trial_id": "mdp_144739116828", "block": "test1", "trialIndex": 22, "score": 58.5, "costs": -0.5, "simulationMode": [null, null, null], "rewards": [-2, 8, 48], "path": ["0", "0", "1", "2", "4"], "rt": [2018, 145, 77], "actions": ["up", "up", "left"], "actionTimes": [3144, 3792, 4374], "queries": {"click": {"state": {"target": ["11", "4"], "time": [1930, 2387]}, "edge": {"target": [], "time": []}}, "mouseover": {"state": {"target": ["9", "10", "11", "4", "2", "3"], "time": [1296, 1379, 1729, 2279, 2562, 2662]}, "edge": {"target": [], "time": []}}, "mouseout": {"state": {"target": ["0", "9", "10", "11", "4", "2", "3", "5"], "time": [1262, 1346, 1679, 2129, 2529, 2629, 3596, 4196]}, "edge": {"target": [], "time": []}}}, "displayed_time": "9.13", "trialTime": 10591, "trial_type": "mouselab-mdp", "trial_index": 29, "time_elapsed": 827222, "internal_node_id": "0.0-4.0-1.0-20.0"}}, {"uniqueid": "w46013075:a68885061", "current_trial": 30, "dateTime": 1664874194942, "trialdata": {"revealed_states": [], "num_clicks_accrued": [0, 0, 0, 0, 0, 0, 0, 0, 0, 0, 0, 0, 0], "stateRewards": ["", 4, -4, 48, 24, 2, 4, 24, -24, 2, 4, 24, 48], "withholdReward": true, "trial_id": "mdp_736351885282", "block": "test1", "trialIndex": 23, "score": 58.75, "costs": -0.25, "simulationMode": [null, null, null], "rewards": [2, 4, 48], "path": ["0", "0", "9", "10", "12"], "rt": [1099, 109, 121], "actions": ["left", "left", "down"], "actionTimes": [1750, 2389, 3017], "queries": {"click": {"state": {"target": ["12"], "time": [1148]}, "edge": {"target": [], "time": []}}, "mouseover": {"state": {"target": ["9", "10", "12", "10"], "time": [846, 963, 1079, 1329]}, "edge": {"target": [], "time": []}}, "mouseout": {"state": {"target": ["0", "9", "10", "12", "10", "9"], "time": [496, 879, 996, 1279, 1429, 2012]}, "edge": {"target": [], "time": []}}}, "displayed_time": "8.65", "trialTime": 9733, "trial_type": "mouselab-mdp", "trial_index": 30, "time_elapsed": 836997, "internal_node_id": "0.0-4.0-1.0-21.0"}}, {"uniqueid": "w46013075:a68885061", "current_trial": 31, "dateTime": 1664874205562, "trialdata": {"revealed_states": [], "num_clicks_accrued": [0, 0, 0, 0, 0, 0, 0, 0, 0, 0, 0, 0, 0], "stateRewards": ["", 4, -8, 24, 48, 2, 4, 48, 48, 2, 8, -48, -48], "withholdReward": true, "trial_id": "mdp_783704746330", "block": "test1", "trialIndex": 24, "score": 58, "costs": -1, "simulationMode": [null, null, null], "rewards": [2, 4, 48], "path": ["0", "0", "5", "6", "8"], "rt": [3575, 98, 189], "actions": ["right", "right", "down"], "actionTimes": [4099, 4723, 5413], "queries": {"click": {"state": {"target": ["12", "11", "3", "8"], "time": [1164, 1850, 2456, 3415]}, "edge": {"target": [], "time": []}}, "mouseover": {"state": {"target": ["9", "12", "11", "2", "3", "7", "6", "8"], "time": [924, 1074, 1774, 2241, 2324, 2991, 3207, 3307]}, "edge": {"target": [], "time": []}}, "mouseout": {"state": {"target": ["0", "9", "12", "11", "2", "3", "7", "6", "8"], "time": [857, 974, 1507, 2057, 2274, 2907, 3141, 3274, 7124]}, "edge": {"target": [], "time": []}}}, "displayed_time": "9.52", "trialTime": 10581, "trial_type": "mouselab-mdp", "trial_index": 31, "time_elapsed": 847617, "internal_node_id": "0.0-4.0-1.0-22.0"}}, {"uniqueid": "w46013075:a68885061", "current_trial": 32, "dateTime": 1664874216500, "trialdata": {"revealed_states": [], "num_clicks_accrued": [0, 0, 0, 0, 0, 0, 0, 0, 0, 0, 0, 0, 0], "stateRewards": ["", -4, 8, -24, -24, 2, 4, 48, 48, -2, 4, 24, -48], "withholdReward": false, "trial_id": "mdp_397308196941", "block": "test1", "trialIndex": 25, "score": 58.5, "costs": -0.5, "simulationMode": [null, null, null], "rewards": [2, 4, 48], "path": ["0", "0", "5", "6", "7"], "rt": [2294, 139, 69], "actions": ["right", "right", "up"], "actionTimes": [2887, 3557, 4154], "queries": {"click": {"state": {"target": ["12", "7"], "time": [1284, 2028]}, "edge": {"target": [], "time": []}}, "mouseover": {"state": {"target": ["9", "12", "0", "5", "7"], "time": [751, 1151, 1751, 1801, 1951]}, "edge": {"target": [], "time": []}}, "mouseout": {"state": {"target": ["0", "9", "12", "0", "5", "7", "5", "12", "0", "7", "7", "5"], "time": [717, 784, 1534, 1767, 1817, 4417, 4684, 6501, 6567, 6701, 10017, 10267]}, "edge": {"target": [], "time": []}}}, "displayed_time": "9.59", "trialTime": 10896, "trial_type": "mouselab-mdp", "trial_index": 32, "time_elapsed": 858555, "internal_node_id": "0.0-4.0-1.0-23.0"}}, {"uniqueid": "w46013075:a68885061", "current_trial": 33, "dateTime": 1664874226375, "trialdata": {"revealed_states": [], "num_clicks_accrued": [0, 0, 0, 0, 0, 0, 0, 0, 0, 0, 0, 0, 0], "stateRewards": ["", 4, 8, -48, 24, -2, 8, -48, -48, -4, 4, 48, -48], "withholdReward": false, "trial_id": "mdp_693807815190", "block": "test1", "trialIndex": 26, "score": 52, "costs": -1, "simulationMode": [null, null, null], "rewards": [-4, 4, 48], "path": ["0", "0", "9", "10", "11"], "rt": [3814, 60, 163], "actions": ["left", "left", "up"], "actionTimes": [4489, 5074, 5744], "queries": {"click": {"state": {"target": ["12", "3", "7", "11"], "time": [1342, 1950, 3059, 3688]}, "edge": {"target": [], "time": []}}, "mouseover": {"state": {"target": ["9", "12", "9", "1", "3", "2", "2", "7", "1", "11"], "time": [1130, 1214, 1697, 1747, 1847, 2363, 2864, 3030, 3497, 3630]}, "edge": {"target": [], "time": []}}, "mouseout": {"state": {"target": ["0", "9", "12", "9", "1", "3", "2", "2", "7", "1", "11", "9"], "time": [1080, 1164, 1680, 1730, 1780, 2331, 2430, 2880, 3414, 3530, 4197, 6264]}, "edge": {"target": [], "time": []}}}, "displayed_time": "8.68", "trialTime": 9834, "trial_type": "mouselab-mdp", "trial_index": 33, "time_elapsed": 868430, "internal_node_id": "0.0-4.0-1.0-24.0"}}, {"uniqueid": "w46013075:a68885061", "current_trial": 34, "dateTime": 1664874236780, "trialdata": {"revealed_states": [], "num_clicks_accrued": [0, 0, 0, 0, 0, 0, 0, 0, 0, 0, 0, 0, 0], "stateRewards": ["", 2, 4, 48, 24, -4, 8, 48, 48, 2, -4, -48, -24], "withholdReward": true, "trial_id": "mdp_822099887466", "block": "test1", "trialIndex": 27, "score": 58.25, "costs": -0.75, "simulationMode": [null, null, null], "rewards": [2, 4, 48], "path": ["0", "0", "1", "2", "3"], "rt": [2317, 335, 65], "actions": ["up", "up", "right"], "actionTimes": [3059, 3909, 4506], "queries": {"click": {"state": {"target": ["12", "11", "3"], "time": [1351, 1892, 2418]}, "edge": {"target": [], "time": []}}, "mouseover": {"state": {"target": ["9", "12", "11", "1", "3", "7"], "time": [1140, 1240, 1773, 2173, 2323, 2774]}, "edge": {"target": [], "time": []}}, "mouseout": {"state": {"target": ["0", "9", "12", "11", "1", "3", "7"], "time": [690, 1173, 1590, 2040, 2223, 2640, 3507]}, "edge": {"target": [], "time": []}}}, "displayed_time": "8.74", "trialTime": 10366, "trial_type": "mouselab-mdp", "trial_index": 34, "time_elapsed": 878835, "internal_node_id": "0.0-4.0-1.0-25.0"}}, {"uniqueid": "w46013075:a68885061", "current_trial": 35, "dateTime": 1664874247719, "trialdata": {"revealed_states": [], "num_clicks_accrued": [0, 0, 0, 0, 0, 0, 0, 0, 0, 0, 0, 0, 0], "stateRewards": ["", -2, 4, -24, 48, 4, -8, 48, -48, 2, -8, 48, 24], "withholdReward": true, "trial_id": "mdp_501111216502", "block": "test1", "trialIndex": 28, "score": 46.5, "costs": -0.5, "simulationMode": [null, null, null], "rewards": [2, -8, 48], "path": ["0", "0", "9", "10", "11"], "rt": [1572, 133, 135], "actions": ["left", "left", "up"], "actionTimes": [2147, 2814, 3481], "queries": {"click": {"state": {"target": ["12", "11"], "time": [1021, 1568]}, "edge": {"target": [], "time": []}}, "mouseover": {"state": {"target": ["9", "12", "11"], "time": [796, 879, 1479]}, "edge": {"target": [], "time": []}}, "mouseout": {"state": {"target": ["0", "9", "12", "11", "0", "10", "11", "11", "11"], "time": [762, 813, 1329, 1745, 4046, 4845, 6095, 6395, 6712]}, "edge": {"target": [], "time": []}}}, "displayed_time": "9.58", "trialTime": 10893, "trial_type": "mouselab-mdp", "trial_index": 35, "time_elapsed": 889774, "internal_node_id": "0.0-4.0-1.0-26.0"}}, {"uniqueid": "w46013075:a68885061", "current_trial": 36, "dateTime": 1664874258450, "trialdata": {"revealed_states": [], "num_clicks_accrued": [0, 0, 0, 0, 0, 0, 0, 0, 0, 0, 0, 0, 0], "stateRewards": ["", -2, 4, 24, 48, 2, 4, -48, -48, 2, 8, 48, -48], "withholdReward": true, "trial_id": "mdp_409609775558", "block": "test1", "trialIndex": 29, "score": 62.5, "costs": -0.5, "simulationMode": [null, null, null], "rewards": [2, 8, 48], "path": ["0", "0", "9", "10", "11"], "rt": [2145, 214, 156], "actions": ["left", "left", "up"], "actionTimes": [2803, 3545, 4203], "queries": {"click": {"state": {"target": ["12", "11"], "time": [1702, 2184]}, "edge": {"target": [], "time": []}}, "mouseover": {"state": {"target": ["12", "10", "11", "1"], "time": [1629, 1896, 2046, 2462]}, "edge": {"target": [], "time": []}}, "mouseout": {"state": {"target": ["11", "0", "12", "10", "11", "1", "1", "0"], "time": [229, 1029, 1863, 1996, 2362, 2479, 4945, 5029]}, "edge": {"target": [], "time": []}}}, "displayed_time": "9.66", "trialTime": 10692, "trial_type": "mouselab-mdp", "trial_index": 36, "time_elapsed": 900505, "internal_node_id": "0.0-4.0-1.0-27.0"}}, {"uniqueid": "w46013075:a68885061", "current_trial": 37, "dateTime": 1664874269384, "trialdata": {"revealed_states": [], "num_clicks_accrued": [0, 0, 0, 0, 0, 0, 0, 0, 0, 0, 0, 0, 0], "stateRewards": ["", -4, 8, 24, -24, 4, -8, -24, -24, -2, 8, -48, 24], "withholdReward": true, "trial_id": "mdp_240302100183", "block": "test1", "trialIndex": 30, "score": 33.5, "costs": -1.5, "simulationMode": [null, null, null], "rewards": [-2, 8, 24], "path": ["0", "0", "9", "10", "12"], "rt": [4264, 209, 152], "actions": ["left", "left", "down"], "actionTimes": [4889, 5603, 6279], "queries": {"click": {"state": {"target": ["12", "11", "3", "4", "7", "8"], "time": [1310, 1877, 2430, 2953, 3464, 4288]}, "edge": {"target": [], "time": []}}, "mouseover": {"state": {"target": ["9", "12", "12", "10", "11", "2", "3", "2", "4", "2", "7", "6", "8", "8"], "time": [911, 977, 1211, 1710, 1777, 2277, 2361, 2744, 2877, 3194, 3394, 3677, 3744, 4194]}, "edge": {"target": [], "time": []}}, "mouseout": {"state": {"target": ["0", "9", "12", "12", "10", "11", "2", "3", "2", "4", "2", "7", "6", "8", "8"], "time": [544, 927, 1011, 1694, 1744, 2128, 2294, 2694, 2794, 3161, 3211, 3644, 3711, 3844, 4494]}, "edge": {"target": [], "time": []}}}, "displayed_time": "9.63", "trialTime": 10890, "trial_type": "mouselab-mdp", "trial_index": 37, "time_elapsed": 911438, "internal_node_id": "0.0-4.0-1.0-28.0"}}, {"uniqueid": "w46013075:a68885061", "current_trial": 38, "dateTime": 1664874280190, "trialdata": {"revealed_states": [], "num_clicks_accrued": [0, 0, 0, 0, 0, 0, 0, 0, 0, 0, 0, 0, 0], "stateRewards": ["", -2, 4, -24, -48, -4, 8, -24, 48, 4, 4, -48, 24], "withholdReward": true, "trial_id": "mdp_341117665701", "block": "test1", "trialIndex": 31, "score": 55.5, "costs": -1.5, "simulationMode": [null, null, null], "rewards": [-4, 8, 48], "path": ["0", "0", "5", "6", "8"], "rt": [2901, 117, 36], "actions": ["right", "right", "down"], "actionTimes": [3569, 4211, 4779], "queries": {"click": {"state": {"target": ["12", "11", "4", "3", "7", "8"], "time": [1120, 1606, 2016, 2372, 2697, 3019]}, "edge": {"target": [], "time": []}}, "mouseover": {"state": {"target": ["9", "12", "10", "11", "4", "2", "3", "7", "6", "8"], "time": [876, 1060, 1310, 1493, 1943, 2193, 2293, 2627, 2876, 2943]}, "edge": {"target": [], "time": []}}, "mouseout": {"state": {"target": ["9", "12", "10", "11", "4", "2", "3", "7", "6", "8", "5", "6", "6", "8", "8", "8", "8", "8"], "time": [910, 1277, 1393, 1826, 2160, 2243, 2543, 2843, 2910, 3160, 7993, 8260, 8443, 8493, 8843, 9060, 9260, 10110]}, "edge": {"target": [], "time": []}}}, "displayed_time": "9.67", "trialTime": 10763, "trial_type": "mouselab-mdp", "trial_index": 38, "time_elapsed": 922245, "internal_node_id": "0.0-4.0-1.0-29.0"}}, {"uniqueid": "w46013075:a68885061", "current_trial": 39, "dateTime": 1664874283716, "trialdata": {"rt": 3523, "stimulus": "<h1> End of block! </h1>\n\nYou have reached the end of the block 1/4. If you need a short break, feel free to take one now before moving on.\n\n<br><br>\nIn the next block, you will complete another 30 rounds of this game.\n\n<br><br>\n<div style='text-align: center;'>Press <code>space</code> to begin.</div>\n<br><br>\n<div style='text-align: center;'>(If the experiment doesn't continue, try clicking on the text and then pressing <code>space</code>.)</div>", "response": " ", "trial_id": "mdp_ready_2", "trial_type": "html-keyboard-response", "trial_index": 39, "time_elapsed": 925771, "internal_node_id": "0.0-4.0-2.0"}}, {"uniqueid": "w46013075:a68885061", "current_trial": 40, "dateTime": 1664874293527, "trialdata": {"revealed_states": [], "num_clicks_accrued": [0, 0, 0, 0, 0, 0, 0, 0, 0, 0, 0, 0, 0], "stateRewards": ["", 2, -4, 24, -24, 2, -8, 48, 48, 4, -4, 24, 48], "withholdReward": true, "trial_id": "mdp_947836623875", "block": "test2", "trialIndex": 32, "score": 52.5, "costs": -0.5, "simulationMode": [null, null, null], "rewards": [4, -4, 48], "path": ["0", "0", "9", "10", "12"], "rt": [1396, 157, 110], "actions": ["left", "left", "down"], "actionTimes": [2073, 2737, 3357], "queries": {"click": {"state": {"target": ["12", "11"], "time": [1218, 1650]}, "edge": {"target": [], "time": []}}, "mouseover": {"state": {"target": ["0", "12", "10", "11", "9"], "time": [929, 1162, 1395, 1462, 2046]}, "edge": {"target": [], "time": []}}, "mouseout": {"state": {"target": ["3", "0", "12", "10", "11", "9"], "time": [329, 945, 1379, 1429, 1895, 2129]}, "edge": {"target": [], "time": []}}}, "displayed_time": "8.68", "trialTime": 9769, "trial_type": "mouselab-mdp", "trial_index": 40, "time_elapsed": 935582, "internal_node_id": "0.0-4.0-3.0-0.0"}}, {"uniqueid": "w46013075:a68885061", "current_trial": 41, "dateTime": 1664874303135, "trialdata": {"revealed_states": [], "num_clicks_accrued": [0, 0, 0, 0, 0, 0, 0, 0, 0, 0, 0, 0, 0], "stateRewards": ["", -4, -4, -24, 24, 4, 4, -24, -24, -4, 4, 24, 24], "withholdReward": true, "trial_id": "mdp_787781487383", "block": "test2", "trialIndex": 33, "score": 27.5, "costs": -1.5, "simulationMode": [null, null, null], "rewards": [-4, 4, 24], "path": ["0", "0", "9", "10", "12"], "rt": [3236, 111, 96], "actions": ["left", "left", "down"], "actionTimes": [3608, 4228, 4830], "queries": {"click": {"state": {"target": ["12", "11", "4", "3", "7", "8"], "time": [804, 1210, 2051, 2467, 2845, 3193]}, "edge": {"target": [], "time": []}}, "mouseover": {"state": {"target": ["9", "12", "10", "11", "4", "4", "2", "3", "7", "6", "8"], "time": [583, 684, 950, 1050, 1650, 1984, 2250, 2350, 2750, 3017, 3133]}, "edge": {"target": [], "time": []}}, "mouseout": {"state": {"target": ["0", "9", "12", "10", "11", "4", "4", "2", "3", "7", "6", "8", "8"], "time": [150, 617, 934, 1000, 1383, 1767, 2200, 2300, 2651, 2983, 3083, 3384, 8850]}, "edge": {"target": [], "time": []}}}, "displayed_time": "8.37", "trialTime": 9565, "trial_type": "mouselab-mdp", "trial_index": 41, "time_elapsed": 945190, "internal_node_id": "0.0-4.0-3.0-1.0"}}, {"uniqueid": "w46013075:a68885061", "current_trial": 42, "dateTime": 1664874313858, "trialdata": {"revealed_states": [], "num_clicks_accrued": [0, 0, 0, 0, 0, 0, 0, 0, 0, 0, 0, 0, 0], "stateRewards": ["", 4, 4, 48, -48, -2, 4, 48, -48, -4, 4, -24, -24], "withholdReward": true, "trial_id": "mdp_753324812898", "block": "test2", "trialIndex": 34, "score": 60, "costs": -1, "simulationMode": [null, null, null], "rewards": [4, 4, 48], "path": ["0", "0", "1", "2", "3"], "rt": [2766, 49, 110], "actions": ["up", "up", "right"], "actionTimes": [3715, 4295, 4907], "queries": {"click": {"state": {"target": ["12", "11", "4", "3"], "time": [1664, 2103, 2534, 3189]}, "edge": {"target": [], "time": []}}, "mouseover": {"state": {"target": ["12", "10", "11", "4", "2", "3", "3", "7"], "time": [1446, 1979, 2046, 2429, 2729, 2796, 3079, 3463]}, "edge": {"target": [], "time": []}}, "mouseout": {"state": {"target": ["8", "5", "0", "12", "10", "11", "4", "2", "3", "3", "7"], "time": [212, 312, 1329, 1963, 2012, 2362, 2646, 2779, 2862, 3363, 3979]}, "edge": {"target": [], "time": []}}}, "displayed_time": "9.95", "trialTime": 10684, "trial_type": "mouselab-mdp", "trial_index": 42, "time_elapsed": 955913, "internal_node_id": "0.0-4.0-3.0-2.0"}}, {"uniqueid": "w46013075:a68885061", "current_trial": 43, "dateTime": 1664874324525, "trialdata": {"revealed_states": [], "num_clicks_accrued": [0, 0, 0, 0, 0, 0, 0, 0, 0, 0, 0, 0, 0], "stateRewards": ["", 4, -8, 48, -24, 4, -4, -48, -48, 4, -4, 24, 24], "withholdReward": true, "trial_id": "mdp_221562928904", "block": "test2", "trialIndex": 35, "score": 48, "costs": -1, "simulationMode": [null, null, null], "rewards": [4, -8, 48], "path": ["0", "0", "1", "2", "3"], "rt": [2925, 36, 46], "actions": ["up", "up", "right"], "actionTimes": [3578, 4144, 4721], "queries": {"click": {"state": {"target": ["12", "11", "4", "3"], "time": [1087, 1674, 2568, 3021]}, "edge": {"target": [], "time": []}}, "mouseover": {"state": {"target": ["12", "10", "11", "4", "3", "7"], "time": [940, 1357, 1574, 2441, 2857, 3357]}, "edge": {"target": [], "time": []}}, "mouseout": {"state": {"target": ["0", "12", "10", "11", "4", "3", "7", "6", "12", "10", "11", "2", "3", "7", "8", "5", "0", "9", "10", "10", "11", "4", "2", "7", "6", "8", "5", "10", "10", "11", "4", "7", "6", "8", "5", "11", "10", "10", "11", "4", "3", "6", "8", "0", "9", "12", "10", "4", "2", "3"], "time": [857, 1307, 1374, 1857, 2724, 3190, 3807, 3874, 5540, 5575, 5657, 5724, 5757, 5824, 6107, 6140, 6157, 6190, 6240, 6440, 6490, 6540, 6574, 6740, 6757, 6924, 6974, 7124, 7257, 7291, 7357, 7524, 7540, 7707, 7724, 7824, 7874, 8024, 8074, 8157, 8274, 8357, 8524, 8590, 8640, 8824, 8874, 8957, 9024, 9090]}, "edge": {"target": [], "time": []}}}, "displayed_time": "9.65", "trialTime": 10629, "trial_type": "mouselab-mdp", "trial_index": 43, "time_elapsed": 966580, "internal_node_id": "0.0-4.0-3.0-3.0"}}, {"uniqueid": "w46013075:a68885061", "current_trial": 44, "dateTime": 1664874337006, "trialdata": {"revealed_states": [], "num_clicks_accrued": [0, 0, 0, 0, 0, 0, 0, 0, 0, 0, 0, 0, 0], "stateRewards": ["", -2, 8, -48, 48, -4, 8, -24, 24, 4, -4, 24, -48], "withholdReward": false, "trial_id": "mdp_904238083902", "block": "test2", "trialIndex": 36, "score": 28.25, "costs": -0.75, "simulationMode": [null, null, null], "rewards": [4, -4, 24], "path": ["0", "0", "9", "10", "11"], "rt": [2398, 912, 157], "actions": ["left", "left", "up"], "actionTimes": [2965, 4401, 5079], "queries": {"click": {"state": {"target": ["12", "11", "4"], "time": [1270, 1674, 2424]}, "edge": {"target": [], "time": []}}, "mouseover": {"state": {"target": ["9", "12", "10", "11", "4", "2"], "time": [1021, 1171, 1521, 1638, 2188, 2688]}, "edge": {"target": [], "time": []}}, "mouseout": {"state": {"target": ["0", "9", "12", "10", "11", "4", "2", "1", "0", "9", "0"], "time": [488, 1071, 1488, 1571, 1955, 2638, 2721, 4888, 4938, 10121, 11105]}, "edge": {"target": [], "time": []}}}, "displayed_time": "9.57", "trialTime": 12440, "trial_type": "mouselab-mdp", "trial_index": 44, "time_elapsed": 979061, "internal_node_id": "0.0-4.0-3.0-4.0"}}, {"uniqueid": "w46013075:a68885061", "current_trial": 45, "dateTime": 1664874347401, "trialdata": {"revealed_states": [], "num_clicks_accrued": [0, 0, 0, 0, 0, 0, 0, 0, 0, 0, 0, 0, 0], "stateRewards": ["", -2, -4, -48, -48, 4, 8, 24, -48, 4, -8, 24, 24], "withholdReward": true, "trial_id": "mdp_749799219195", "block": "test2", "trialIndex": 37, "score": 23.25, "costs": -1.75, "simulationMode": [null, null, null], "rewards": [4, -8, 24], "path": ["0", "0", "9", "10", "11"], "rt": [6370, 149, 127], "actions": ["left", "left", "up"], "actionTimes": [6990, 7673, 8300], "queries": {"click": {"state": {"target": ["12", "11", "4", "3", "7", "8", "10"], "time": [1067, 1534, 1974, 2437, 3272, 3682, 6169]}, "edge": {"target": [], "time": []}}, "mouseover": {"state": {"target": ["0", "12", "10", "11", "4", "2", "3", "7", "7", "6", "8", "10", "10"], "time": [789, 989, 1290, 1489, 1889, 2239, 2339, 2940, 3189, 3456, 3606, 5739, 6056]}, "edge": {"target": [], "time": []}}, "mouseout": {"state": {"target": ["0", "0", "12", "10", "11", "4", "2", "3", "7", "7", "6", "8", "10", "10"], "time": [439, 839, 1272, 1373, 1789, 2189, 2289, 2623, 3056, 3439, 3506, 3906, 5773, 6389]}, "edge": {"target": [], "time": []}}}, "displayed_time": "8.82", "trialTime": 10353, "trial_type": "mouselab-mdp", "trial_index": 45, "time_elapsed": 989456, "internal_node_id": "0.0-4.0-3.0-5.0"}}, {"uniqueid": "w46013075:a68885061", "current_trial": 46, "dateTime": 1664874357545, "trialdata": {"revealed_states": [], "num_clicks_accrued": [0, 0, 0, 0, 0, 0, 0, 0, 0, 0, 0, 0, 0], "stateRewards": ["", -4, 4, -48, -48, -4, 8, -24, 24, 2, -4, 48, 48], "withholdReward": false, "trial_id": "mdp_821566905048", "block": "test2", "trialIndex": 38, "score": 50.75, "costs": -0.25, "simulationMode": [null, null, null], "rewards": [2, -4, 48], "path": ["0", "0", "9", "10", "12"], "rt": [953, 80, 44], "actions": ["left", "left", "down"], "actionTimes": [1651, 2260, 2807], "queries": {"click": {"state": {"target": ["12"], "time": [1139]}, "edge": {"target": [], "time": []}}, "mouseover": {"state": {"target": ["9", "12"], "time": [930, 1097]}, "edge": {"target": [], "time": []}}, "mouseout": {"state": {"target": ["0", "9", "12", "9"], "time": [913, 963, 1363, 1830]}, "edge": {"target": [], "time": []}}}, "displayed_time": "9.70", "trialTime": 10105, "trial_type": "mouselab-mdp", "trial_index": 46, "time_elapsed": 999600, "internal_node_id": "0.0-4.0-3.0-6.0"}}, {"uniqueid": "w46013075:a68885061", "current_trial": 47, "dateTime": 1664874367128, "trialdata": {"revealed_states": [], "num_clicks_accrued": [0, 0, 0, 0, 0, 0, 0, 0, 0, 0, 0, 0, 0], "stateRewards": ["", 2, 8, -48, -24, 4, 4, 24, 48, 4, -4, -48, 48], "withholdReward": true, "trial_id": "mdp_665096999232", "block": "test2", "trialIndex": 39, "score": 52.75, "costs": -0.25, "simulationMode": [null, null, null], "rewards": [4, -4, 48], "path": ["0", "0", "9", "10", "12"], "rt": [1816, 131, 307], "actions": ["left", "left", "down"], "actionTimes": [2711, 3348, 4158], "queries": {"click": {"state": {"target": ["12"], "time": [1743]}, "edge": {"target": [], "time": []}}, "mouseover": {"state": {"target": ["9", "10", "12"], "time": [1283, 1566, 1649]}, "edge": {"target": [], "time": []}}, "mouseout": {"state": {"target": ["0", "9", "10", "12", "9"], "time": [1250, 1316, 1583, 1966, 3916]}, "edge": {"target": [], "time": []}}}, "displayed_time": "8.90", "trialTime": 9541, "trial_type": "mouselab-mdp", "trial_index": 47, "time_elapsed": 1009183, "internal_node_id": "0.0-4.0-3.0-7.0"}}, {"uniqueid": "w46013075:a68885061", "current_trial": 48, "dateTime": 1664874377434, "trialdata": {"revealed_states": [], "num_clicks_accrued": [0, 0, 0, 0, 0, 0, 0, 0, 0, 0, 0, 0, 0], "stateRewards": ["", 2, 8, 48, 24, -4, 4, -48, 24, 2, 8, 48, 48], "withholdReward": true, "trial_id": "mdp_367344599162", "block": "test2", "trialIndex": 40, "score": 62.75, "costs": -0.25, "simulationMode": [null, null, null], "rewards": [2, 8, 48], "path": ["0", "0", "9", "10", "12"], "rt": [1302, 134, 131], "actions": ["left", "left", "down"], "actionTimes": [1799, 2437, 3084], "queries": {"click": {"state": {"target": ["12"], "time": [1284]}, "edge": {"target": [], "time": []}}, "mouseover": {"state": {"target": ["9", "12"], "time": [752, 852]}, "edge": {"target": [], "time": []}}, "mouseout": {"state": {"target": ["0", "9", "12"], "time": [719, 802, 1602]}, "edge": {"target": [], "time": []}}}, "displayed_time": "9.50", "trialTime": 10266, "trial_type": "mouselab-mdp", "trial_index": 48, "time_elapsed": 1019489, "internal_node_id": "0.0-4.0-3.0-8.0"}}, {"uniqueid": "w46013075:a68885061", "current_trial": 49, "dateTime": 1664874387183, "trialdata": {"revealed_states": [], "num_clicks_accrued": [0, 0, 0, 0, 0, 0, 0, 0, 0, 0, 0, 0, 0], "stateRewards": ["", -2, -8, 48, 24, 2, 4, 24, -24, -2, -4, 48, -48], "withholdReward": false, "trial_id": "mdp_411152402386", "block": "test2", "trialIndex": 41, "score": 46.5, "costs": -0.5, "simulationMode": [null, null, null], "rewards": [-2, -4, 48], "path": ["0", "0", "9", "10", "11"], "rt": [1470, 84, 141], "actions": ["left", "left", "up"], "actionTimes": [2233, 2846, 3503], "queries": {"click": {"state": {"target": ["12", "11"], "time": [1245, 1723]}, "edge": {"target": [], "time": []}}, "mouseover": {"state": {"target": ["12", "11"], "time": [1178, 1661]}, "edge": {"target": [], "time": []}}, "mouseout": {"state": {"target": ["0", "12", "12", "11"], "time": [928, 1428, 1561, 1912]}, "edge": {"target": [], "time": []}}}, "displayed_time": "8.76", "trialTime": 9708, "trial_type": "mouselab-mdp", "trial_index": 49, "time_elapsed": 1029238, "internal_node_id": "0.0-4.0-3.0-9.0"}}, {"uniqueid": "w46013075:a68885061", "current_trial": 50, "dateTime": 1664874397095, "trialdata": {"revealed_states": [], "num_clicks_accrued": [0, 0, 0, 0, 0, 0, 0, 0, 0, 0, 0, 0, 0], "stateRewards": ["", -2, 8, 24, -48, -4, -8, -24, -48, -4, 8, -24, 48], "withholdReward": true, "trial_id": "mdp_464339499860", "block": "test2", "trialIndex": 42, "score": 56.75, "costs": -0.25, "simulationMode": [null, null, null], "rewards": [-4, 8, 48], "path": ["0", "0", "9", "10", "12"], "rt": [947, 99, 76], "actions": ["left", "left", "down"], "actionTimes": [1331, 1940, 2518], "queries": {"click": {"state": {"target": ["12"], "time": [817]}, "edge": {"target": [], "time": []}}, "mouseover": {"state": {"target": ["0", "12"], "time": [541, 740]}, "edge": {"target": [], "time": []}}, "mouseout": {"state": {"target": ["0", "0", "12"], "time": [307, 574, 1058]}, "edge": {"target": [], "time": []}}}, "displayed_time": "9.38", "trialTime": 9865, "trial_type": "mouselab-mdp", "trial_index": 50, "time_elapsed": 1039149, "internal_node_id": "0.0-4.0-3.0-10.0"}}, {"uniqueid": "w46013075:a68885061", "current_trial": 51, "dateTime": 1664874407758, "trialdata": {"revealed_states": [], "num_clicks_accrued": [0, 0, 0, 0, 0, 0, 0, 0, 0, 0, 0, 0, 0], "stateRewards": ["", -2, 4, -48, -48, -4, -8, 48, -48, 2, 4, 48, -48], "withholdReward": false, "trial_id": "mdp_258647270500", "block": "test2", "trialIndex": 43, "score": 58.5, "costs": -0.5, "simulationMode": [null, null, null], "rewards": [2, 4, 48], "path": ["0", "0", "9", "10", "11"], "rt": [1729, 70, 34], "actions": ["left", "left", "up"], "actionTimes": [2310, 2901, 3464], "queries": {"click": {"state": {"target": ["12", "11"], "time": [1304, 1863]}, "edge": {"target": [], "time": []}}, "mouseover": {"state": {"target": ["9", "12", "12", "10", "11"], "time": [713, 813, 1147, 1663, 1796]}, "edge": {"target": [], "time": []}}, "mouseout": {"state": {"target": ["0", "9", "12", "12", "10", "11", "9"], "time": [696, 729, 863, 1646, 1696, 2129, 2697]}, "edge": {"target": [], "time": []}}}, "displayed_time": "9.58", "trialTime": 10618, "trial_type": "mouselab-mdp", "trial_index": 51, "time_elapsed": 1049813, "internal_node_id": "0.0-4.0-3.0-11.0"}}, {"uniqueid": "w46013075:a68885061", "current_trial": 52, "dateTime": 1664874417857, "trialdata": {"revealed_states": [], "num_clicks_accrued": [0, 0, 0, 0, 0, 0, 0, 0, 0, 0, 0, 0, 0], "stateRewards": ["", 2, 8, 48, 24, 2, 8, 48, 48, -2, -4, -24, -48], "withholdReward": true, "trial_id": "mdp_717636349175", "block": "test2", "trialIndex": 44, "score": 62, "costs": -1, "simulationMode": [null, null, null], "rewards": [2, 8, 48], "path": ["0", "0", "1", "2", "3"], "rt": [3057, 19, 463], "actions": ["up", "up", "right"], "actionTimes": [3581, 4108, 5101], "queries": {"click": {"state": {"target": ["12", "11", "4", "3"], "time": [936, 1374, 2138, 2978]}, "edge": {"target": [], "time": []}}, "mouseover": {"state": {"target": ["0", "12", "11", "4", "2", "3", "3", "7"], "time": [688, 887, 1337, 1954, 2354, 2404, 2870, 3220]}, "edge": {"target": [], "time": []}}, "mouseout": {"state": {"target": ["0", "12", "11", "4", "2", "3", "3", "7", "6"], "time": [720, 1204, 1604, 2337, 2387, 2437, 3137, 3821, 3937]}, "edge": {"target": [], "time": []}}}, "displayed_time": "9.53", "trialTime": 10058, "trial_type": "mouselab-mdp", "trial_index": 52, "time_elapsed": 1059912, "internal_node_id": "0.0-4.0-3.0-12.0"}}, {"uniqueid": "w46013075:a68885061", "current_trial": 53, "dateTime": 1664874427115, "trialdata": {"revealed_states": [], "num_clicks_accrued": [0, 0, 0, 0, 0, 0, 0, 0, 0, 0, 0, 0, 0], "stateRewards": ["", 4, 4, -24, -48, -4, 4, -48, 24, 4, -8, -48, 48], "withholdReward": true, "trial_id": "mdp_566768794366", "block": "test2", "trialIndex": 45, "score": 48.75, "costs": -0.25, "simulationMode": [null, null, null], "rewards": [4, -8, 48], "path": ["0", "0", "9", "10", "12"], "rt": [1453, 597, 192], "actions": ["left", "left", "down"], "actionTimes": [2062, 3191, 3913], "queries": {"click": {"state": {"target": ["12"], "time": [1047]}, "edge": {"target": [], "time": []}}, "mouseover": {"state": {"target": ["0", "9", "12", "10"], "time": [754, 837, 920, 1304]}, "edge": {"target": [], "time": []}}, "mouseout": {"state": {"target": ["0", "0", "9", "12", "10"], "time": [554, 804, 854, 1254, 1320]}, "edge": {"target": [], "time": []}}}, "displayed_time": "8.61", "trialTime": 9216, "trial_type": "mouselab-mdp", "trial_index": 53, "time_elapsed": 1069170, "internal_node_id": "0.0-4.0-3.0-13.0"}}, {"uniqueid": "w46013075:a68885061", "current_trial": 54, "dateTime": 1664874437283, "trialdata": {"revealed_states": [], "num_clicks_accrued": [0, 0, 0, 0, 0, 0, 0, 0, 0, 0, 0, 0, 0], "stateRewards": ["", -2, -4, -24, 48, -2, -8, -48, -24, 4, 8, 48, 24], "withholdReward": true, "trial_id": "mdp_625355871626", "block": "test2", "trialIndex": 46, "score": 64.5, "costs": -0.5, "simulationMode": [null, null, null], "rewards": [4, 8, 48], "path": ["0", "0", "9", "10", "11"], "rt": [1686, 99, 126], "actions": ["left", "left", "up"], "actionTimes": [2303, 2927, 3586], "queries": {"click": {"state": {"target": ["12", "11"], "time": [1267, 1808]}, "edge": {"target": [], "time": []}}, "mouseover": {"state": {"target": ["0", "12", "11"], "time": [860, 1127, 1727]}, "edge": {"target": [], "time": []}}, "mouseout": {"state": {"target": ["0", "0", "12", "11"], "time": [477, 893, 1494, 1977]}, "edge": {"target": [], "time": []}}}, "displayed_time": "9.62", "trialTime": 10124, "trial_type": "mouselab-mdp", "trial_index": 54, "time_elapsed": 1079338, "internal_node_id": "0.0-4.0-3.0-14.0"}}, {"uniqueid": "w46013075:a68885061", "current_trial": 55, "dateTime": 1664874446103, "trialdata": {"revealed_states": [], "num_clicks_accrued": [0, 0, 0, 0, 0, 0, 0, 0, 0, 0, 0, 0, 0], "stateRewards": ["", 4, 8, 48, 48, 4, 4, -24, -48, 4, 8, -48, -48], "withholdReward": true, "trial_id": "mdp_984548726931", "block": "test2", "trialIndex": 47, "score": 64.25, "costs": -0.75, "simulationMode": [null, null, null], "rewards": [4, 8, 48], "path": ["0", "0", "1", "2", "4"], "rt": [1857, 61, 59], "actions": ["up", "up", "left"], "actionTimes": [2245, 2833, 3415], "queries": {"click": {"state": {"target": ["12", "11", "4"], "time": [893, 1339, 1709]}, "edge": {"target": [], "time": []}}, "mouseover": {"state": {"target": ["12", "11", "4", "2", "3"], "time": [788, 1238, 1588, 1871, 2005]}, "edge": {"target": [], "time": []}}, "mouseout": {"state": {"target": ["0", "12", "11", "4", "2", "3"], "time": [655, 1055, 1488, 1838, 1955, 3138]}, "edge": {"target": [], "time": []}}}, "displayed_time": "8.39", "trialTime": 8772, "trial_type": "mouselab-mdp", "trial_index": 55, "time_elapsed": 1088158, "internal_node_id": "0.0-4.0-3.0-15.0"}}, {"uniqueid": "w46013075:a68885061", "current_trial": 56, "dateTime": 1664874456560, "trialdata": {"revealed_states": [], "num_clicks_accrued": [0, 0, 0, 0, 0, 0, 0, 0, 0, 0, 0, 0, 0], "stateRewards": ["", -4, -4, 24, -48, -2, 8, -24, -48, -4, 4, 24, -48], "withholdReward": true, "trial_id": "mdp_934626330092", "block": "test2", "trialIndex": 48, "score": 27.5, "costs": -1.5, "simulationMode": [null, null, null], "rewards": [-4, 4, 24], "path": ["0", "0", "9", "10", "11"], "rt": [4117, 67, 149], "actions": ["left", "left", "up"], "actionTimes": [4610, 5189, 5855], "queries": {"click": {"state": {"target": ["12", "11", "4", "3", "7", "8"], "time": [919, 1369, 1797, 2199, 2654, 3066]}, "edge": {"target": [], "time": []}}, "mouseover": {"state": {"target": ["12", "11", "4", "2", "3", "7", "6", "8"], "time": [821, 1304, 1705, 2004, 2104, 2588, 2888, 3005]}, "edge": {"target": [], "time": []}}, "mouseout": {"state": {"target": ["0", "12", "11", "4", "2", "3", "7", "6", "8"], "time": [705, 1171, 1555, 1971, 2054, 2438, 2854, 2938, 3271]}, "edge": {"target": [], "time": []}}}, "displayed_time": "8.49", "trialTime": 10412, "trial_type": "mouselab-mdp", "trial_index": 56, "time_elapsed": 1098615, "internal_node_id": "0.0-4.0-3.0-16.0"}}, {"uniqueid": "w46013075:a68885061", "current_trial": 57, "dateTime": 1664874467078, "trialdata": {"revealed_states": [], "num_clicks_accrued": [0, 0, 0, 0, 0, 0, 0, 0, 0, 0, 0, 0, 0], "stateRewards": ["", -4, 4, -24, 48, 2, 4, -48, 24, 4, -8, -24, 24], "withholdReward": true, "trial_id": "mdp_740130150937", "block": "test2", "trialIndex": 49, "score": 52.25, "costs": -0.75, "simulationMode": [null, null, null], "rewards": [-4, 4, 48], "path": ["0", "0", "1", "2", "4"], "rt": [2992, 555, 61], "actions": ["up", "up", "left"], "actionTimes": [3631, 4705, 5355], "queries": {"click": {"state": {"target": ["11", "12", "4"], "time": [1907, 2288, 2922]}, "edge": {"target": [], "time": []}}, "mouseover": {"state": {"target": ["9", "10", "10", "11", "10", "12", "9", "4", "2", "3"], "time": [1049, 1116, 1516, 1716, 2066, 2133, 2666, 2866, 3183, 3316]}, "edge": {"target": [], "time": []}}, "mouseout": {"state": {"target": ["0", "9", "10", "10", "11", "10", "12", "12", "9", "4", "2", "3", "5", "0", "1", "2", "4", "1", "4", "1", "2", "4", "1", "5", "0", "0", "4", "4", "4", "4"], "time": [1016, 1099, 1249, 1682, 2033, 2099, 2416, 2583, 2699, 3116, 3266, 3799, 3932, 5399, 5449, 5516, 5766, 6133, 6332, 6416, 6499, 6882, 6916, 7032, 7283, 7366, 7432, 7566, 7882, 8082]}, "edge": {"target": [], "time": []}}}, "displayed_time": "9.64", "trialTime": 10475, "trial_type": "mouselab-mdp", "trial_index": 57, "time_elapsed": 1109133, "internal_node_id": "0.0-4.0-3.0-17.0"}}, {"uniqueid": "w46013075:a68885061", "current_trial": 58, "dateTime": 1664874477587, "trialdata": {"revealed_states": [], "num_clicks_accrued": [0, 0, 0, 0, 0, 0, 0, 0, 0, 0, 0, 0, 0], "stateRewards": ["", -4, -4, -24, 48, -4, -8, -24, 48, 2, 4, 48, 48], "withholdReward": true, "trial_id": "mdp_810954007398", "block": "test2", "trialIndex": 50, "score": 58.75, "costs": -0.25, "simulationMode": [null, null, null], "rewards": [2, 4, 48], "path": ["0", "0", "9", "10", "12"], "rt": [1289, 146, 130], "actions": ["left", "left", "down"], "actionTimes": [1783, 2462, 3096], "queries": {"click": {"state": {"target": ["12"], "time": [929]}, "edge": {"target": [], "time": []}}, "mouseover": {"state": {"target": ["12", "10", "11", "10"], "time": [849, 1182, 1349, 1648]}, "edge": {"target": [], "time": []}}, "mouseout": {"state": {"target": ["0", "12", "10", "11", "10"], "time": [715, 1165, 1199, 1582, 1848]}, "edge": {"target": [], "time": []}}}, "displayed_time": "9.49", "trialTime": 10467, "trial_type": "mouselab-mdp", "trial_index": 58, "time_elapsed": 1119642, "internal_node_id": "0.0-4.0-3.0-18.0"}}, {"uniqueid": "w46013075:a68885061", "current_trial": 59, "dateTime": 1664874486794, "trialdata": {"revealed_states": [], "num_clicks_accrued": [0, 0, 0, 0, 0, 0, 0, 0, 0, 0, 0, 0, 0], "stateRewards": ["", 2, 8, 24, -48, 4, 8, 24, 48, 2, -8, -24, 24], "withholdReward": true, "trial_id": "mdp_939899431582", "block": "test2", "trialIndex": 51, "score": 63.5, "costs": -1.5, "simulationMode": [null, null, null], "rewards": [4, 8, 48], "path": ["0", "0", "5", "6", "8"], "rt": [3819, 101, 31], "actions": ["right", "right", "down"], "actionTimes": [4334, 4951, 5538], "queries": {"click": {"state": {"target": ["12", "11", "4", "3", "7", "8"], "time": [1401, 1953, 2390, 2864, 3309, 3731]}, "edge": {"target": [], "time": []}}, "mouseover": {"state": {"target": ["12", "11", "4", "2", "3", "7", "6", "8"], "time": [1301, 1850, 2317, 2617, 2667, 3150, 3533, 3617]}, "edge": {"target": [], "time": []}}, "mouseout": {"state": {"target": ["0", "12", "11", "4", "2", "3", "7", "6", "8"], "time": [800, 1716, 2200, 2584, 2650, 3067, 3500, 3567, 3900]}, "edge": {"target": [], "time": []}}}, "displayed_time": "8.52", "trialTime": 9158, "trial_type": "mouselab-mdp", "trial_index": 59, "time_elapsed": 1128849, "internal_node_id": "0.0-4.0-3.0-19.0"}}, {"uniqueid": "w46013075:a68885061", "current_trial": 60, "dateTime": 1664874496997, "trialdata": {"revealed_states": [], "num_clicks_accrued": [0, 0, 0, 0, 0, 0, 0, 0, 0, 0, 0, 0, 0], "stateRewards": ["", -2, -8, 48, -24, 2, -4, -48, -24, -2, -4, -48, 48], "withholdReward": true, "trial_id": "mdp_143798438087", "block": "test2", "trialIndex": 52, "score": 46.75, "costs": -0.25, "simulationMode": [null, null, null], "rewards": [-2, -4, 48], "path": ["0", "0", "9", "10", "12"], "rt": [990, 18, 63], "actions": ["left", "left", "down"], "actionTimes": [1468, 1997, 2574], "queries": {"click": {"state": {"target": ["12"], "time": [883]}, "edge": {"target": [], "time": []}}, "mouseover": {"state": {"target": ["12", "10"], "time": [744, 1227]}, "edge": {"target": [], "time": []}}, "mouseout": {"state": {"target": ["0", "12", "10"], "time": [660, 1177, 1310]}, "edge": {"target": [], "time": []}}}, "displayed_time": "9.48", "trialTime": 10155, "trial_type": "mouselab-mdp", "trial_index": 60, "time_elapsed": 1139052, "internal_node_id": "0.0-4.0-3.0-20.0"}}, {"uniqueid": "w46013075:a68885061", "current_trial": 61, "dateTime": 1664874506720, "trialdata": {"revealed_states": [], "num_clicks_accrued": [0, 0, 0, 0, 0, 0, 0, 0, 0, 0, 0, 0, 0], "stateRewards": ["", 2, -8, 24, -48, 2, 4, 48, -48, -2, -8, -48, 48], "withholdReward": true, "trial_id": "mdp_629420544881", "block": "test2", "trialIndex": 53, "score": 42.75, "costs": -0.25, "simulationMode": [null, null, null], "rewards": [-2, -8, 48], "path": ["0", "0", "9", "10", "12"], "rt": [1362, 75, 47], "actions": ["left", "left", "down"], "actionTimes": [1742, 2324, 2896], "queries": {"click": {"state": {"target": ["12"], "time": [1188]}, "edge": {"target": [], "time": []}}, "mouseover": {"state": {"target": ["0", "12", "10"], "time": [582, 1115, 1465]}, "edge": {"target": [], "time": []}}, "mouseout": {"state": {"target": ["0", "0", "12", "10", "10"], "time": [99, 598, 1432, 1532, 1932]}, "edge": {"target": [], "time": []}}}, "displayed_time": "9.38", "trialTime": 9667, "trial_type": "mouselab-mdp", "trial_index": 61, "time_elapsed": 1148775, "internal_node_id": "0.0-4.0-3.0-21.0"}}, {"uniqueid": "w46013075:a68885061", "current_trial": 62, "dateTime": 1664874519163, "trialdata": {"revealed_states": [], "num_clicks_accrued": [0, 0, 0, 0, 0, 0, 0, 0, 0, 0, 0, 0, 0], "stateRewards": ["", -2, -4, -24, 24, -2, 4, -24, -24, -4, 4, 24, -24], "withholdReward": true, "trial_id": "mdp_999419261719", "block": "test2", "trialIndex": 54, "score": 26.5, "costs": -2.5, "simulationMode": [null, null, null], "rewards": [-4, 4, 24], "path": ["0", "0", "9", "10", "11"], "rt": [7414, 174, 115], "actions": ["left", "left", "up"], "actionTimes": [7977, 8679, 9321], "queries": {"click": {"state": {"target": ["12", "11", "4", "3", "7", "8", "2", "1", "10", "9"], "time": [931, 1532, 1983, 2463, 2888, 3306, 4605, 4921, 5517, 6164]}, "edge": {"target": [], "time": []}}, "mouseover": {"state": {"target": ["9", "12", "10", "11", "4", "3", "7", "6", "8", "0", "1", "2", "1", "9", "10", "9"], "time": [687, 821, 1355, 1421, 1904, 2321, 2854, 3104, 3187, 4171, 4371, 4521, 4837, 5187, 5421, 6088]}, "edge": {"target": [], "time": []}}, "mouseout": {"state": {"target": ["0", "9", "12", "10", "11", "4", "3", "7", "6", "8", "0", "1", "2", "1", "9", "10", "9"], "time": [470, 737, 1354, 1404, 1787, 2204, 2621, 3071, 3154, 3487, 4204, 4454, 4771, 5087, 5337, 5654, 6354]}, "edge": {"target": [], "time": []}}}, "displayed_time": "9.86", "trialTime": 12399, "trial_type": "mouselab-mdp", "trial_index": 62, "time_elapsed": 1161218, "internal_node_id": "0.0-4.0-3.0-22.0"}}, {"uniqueid": "w46013075:a68885061", "current_trial": 63, "dateTime": 1664874530459, "trialdata": {"revealed_states": [], "num_clicks_accrued": [0, 0, 0, 0, 0, 0, 0, 0, 0, 0, 0, 0, 0], "stateRewards": ["", -2, 8, 48, 24, 2, -4, 48, -48, 2, 8, 24, -24], "withholdReward": true, "trial_id": "mdp_176207245985", "block": "test2", "trialIndex": 55, "score": 56.75, "costs": -2.25, "simulationMode": [null, null, null], "rewards": [-2, 8, 48], "path": ["0", "0", "1", "2", "3"], "rt": [6073, 77, 34], "actions": ["up", "up", "right"], "actionTimes": [6749, 7336, 7893], "queries": {"click": {"state": {"target": ["12", "11", "4", "3", "7", "8", "6", "2", "1"], "time": [1060, 1509, 1943, 2357, 2798, 4592, 5277, 5879, 6253]}, "edge": {"target": [], "time": []}}, "mouseover": {"state": {"target": ["12", "10", "11", "4", "2", "3", "7", "6", "8", "6", "5", "2", "1"], "time": [1026, 1359, 1459, 1842, 2159, 2242, 2609, 4175, 4459, 5175, 5508, 5775, 6092]}, "edge": {"target": [], "time": []}}, "mouseout": {"state": {"target": ["0", "12", "10", "11", "4", "2", "3", "7", "6", "8", "6", "5", "2", "1"], "time": [842, 1326, 1409, 1709, 2109, 2209, 2526, 4142, 4259, 5142, 5442, 5525, 6042, 6408]}, "edge": {"target": [], "time": []}}}, "displayed_time": "8.68", "trialTime": 11250, "trial_type": "mouselab-mdp", "trial_index": 63, "time_elapsed": 1172514, "internal_node_id": "0.0-4.0-3.0-23.0"}}, {"uniqueid": "w46013075:a68885061", "current_trial": 64, "dateTime": 1664874543418, "trialdata": {"revealed_states": [], "num_clicks_accrued": [0, 0, 0, 0, 0, 0, 0, 0, 0, 0, 0, 0, 0], "stateRewards": ["", -4, 8, -24, 24, -2, -8, 24, -24, 4, -4, -48, 48], "withholdReward": false, "trial_id": "mdp_297684722007", "block": "test2", "trialIndex": 56, "score": 52.75, "costs": -0.25, "simulationMode": [null, null, null], "rewards": [4, -4, 48], "path": ["0", "0", "9", "10", "12"], "rt": [1570, 56, 37], "actions": ["left", "left", "down"], "actionTimes": [2780, 3349, 3896], "queries": {"click": {"state": {"target": ["12"], "time": [2085]}, "edge": {"target": [], "time": []}}, "mouseover": {"state": {"target": ["12", "10", "11"], "time": [1559, 2376, 2559]}, "edge": {"target": [], "time": []}}, "mouseout": {"state": {"target": ["5", "0", "0", "12", "10", "11", "9"], "time": [542, 960, 1426, 2343, 2426, 2777, 2926]}, "edge": {"target": [], "time": []}}}, "displayed_time": "10.21", "trialTime": 12910, "trial_type": "mouselab-mdp", "trial_index": 64, "time_elapsed": 1185473, "internal_node_id": "0.0-4.0-3.0-24.0"}}, {"uniqueid": "w46013075:a68885061", "current_trial": 65, "dateTime": 1664874552630, "trialdata": {"revealed_states": [], "num_clicks_accrued": [0, 0, 0, 0, 0, 0, 0, 0, 0, 0, 0, 0, 0], "stateRewards": ["", 2, -4, 24, 48, -2, 4, -48, -48, -4, 4, 24, -24], "withholdReward": true, "trial_id": "mdp_900363662757", "block": "test2", "trialIndex": 57, "score": 50.25, "costs": -0.75, "simulationMode": [null, null, null], "rewards": [2, -4, 48], "path": ["0", "0", "1", "2", "4"], "rt": [2398, 894, 56], "actions": ["up", "up", "left"], "actionTimes": [3121, 4545, 5124], "queries": {"click": {"state": {"target": ["12", "11", "4"], "time": [1615, 2066, 2485]}, "edge": {"target": [], "time": []}}, "mouseover": {"state": {"target": ["12", "10", "11", "4", "2", "3"], "time": [1534, 1934, 1983, 2367, 2684, 2783]}, "edge": {"target": [], "time": []}}, "mouseout": {"state": {"target": ["0", "12", "10", "11", "4", "2", "3", "2", "1", "0"], "time": [1067, 1917, 1967, 2300, 2633, 2700, 3400, 4817, 4933, 8634]}, "edge": {"target": [], "time": []}}}, "displayed_time": "8.72", "trialTime": 9162, "trial_type": "mouselab-mdp", "trial_index": 65, "time_elapsed": 1194684, "internal_node_id": "0.0-4.0-3.0-25.0"}}, {"uniqueid": "w46013075:a68885061", "current_trial": 66, "dateTime": 1664874564747, "trialdata": {"revealed_states": [], "num_clicks_accrued": [0, 0, 0, 0, 0, 0, 0, 0, 0, 0, 0, 0, 0], "stateRewards": ["", -4, 4, 24, 24, 4, -8, 48, -48, -2, -8, 24, 24], "withholdReward": false, "trial_id": "mdp_395264223239", "block": "test2", "trialIndex": 58, "score": 47, "costs": -2, "simulationMode": [null, null, null], "rewards": [4, -8, 48], "path": ["0", "0", "5", "6", "7"], "rt": [5535, 180, 115], "actions": ["right", "right", "up"], "actionTimes": [6053, 6754, 7389], "queries": {"click": {"state": {"target": ["12", "11", "4", "3", "7", "8", "6", "5"], "time": [871, 1420, 1862, 2382, 2795, 3858, 4365, 4952]}, "edge": {"target": [], "time": []}}, "mouseover": {"state": {"target": ["12", "10", "11", "4", "2", "3", "7", "6", "8", "6", "5"], "time": [723, 1257, 1357, 1790, 2157, 2273, 2740, 3073, 3240, 4273, 4640]}, "edge": {"target": [], "time": []}}, "mouseout": {"state": {"target": ["0", "12", "10", "11", "4", "2", "3", "7", "6", "8", "8", "6", "5"], "time": [657, 1240, 1307, 1724, 2123, 2223, 2607, 3024, 3140, 4040, 4240, 4523, 5173]}, "edge": {"target": [], "time": []}}}, "displayed_time": "9.52", "trialTime": 12070, "trial_type": "mouselab-mdp", "trial_index": 66, "time_elapsed": 1206802, "internal_node_id": "0.0-4.0-3.0-26.0"}}, {"uniqueid": "w46013075:a68885061", "current_trial": 67, "dateTime": 1664874575129, "trialdata": {"revealed_states": [], "num_clicks_accrued": [0, 0, 0, 0, 0, 0, 0, 0, 0, 0, 0, 0, 0], "stateRewards": ["", 2, 8, -48, -24, 2, -4, -48, 24, 2, -4, -24, -24], "withholdReward": false, "trial_id": "mdp_954659099093", "block": "test2", "trialIndex": 59, "score": 25, "costs": -2, "simulationMode": [null, null, null], "rewards": [2, -4, 24], "path": ["0", "0", "5", "6", "8"], "rt": [6149, 86, 103], "actions": ["right", "right", "down"], "actionTimes": [7067, 7678, 8312], "queries": {"click": {"state": {"target": ["12", "11", "4", "3", "7", "8", "6", "5"], "time": [1327, 1816, 2242, 2806, 3248, 3863, 5219, 6040]}, "edge": {"target": [], "time": []}}, "mouseover": {"state": {"target": ["12", "10", "11", "4", "3", "7", "6", "8", "6", "5"], "time": [1225, 1641, 1725, 2141, 2541, 3041, 3508, 3708, 5091, 5958]}, "edge": {"target": [], "time": []}}, "mouseout": {"state": {"target": ["0", "12", "10", "11", "4", "3", "7", "6", "8", "8", "6", "5"], "time": [1092, 1608, 1691, 2042, 2408, 2991, 3458, 3575, 4075, 5042, 5542, 6292]}, "edge": {"target": [], "time": []}}}, "displayed_time": "8.92", "trialTime": 10337, "trial_type": "mouselab-mdp", "trial_index": 67, "time_elapsed": 1217184, "internal_node_id": "0.0-4.0-3.0-27.0"}}, {"uniqueid": "w46013075:a68885061", "current_trial": 68, "dateTime": 1664874586195, "trialdata": {"revealed_states": [], "num_clicks_accrued": [0, 0, 0, 0, 0, 0, 0, 0, 0, 0, 0, 0, 0], "stateRewards": ["", -2, -4, -48, 48, -4, 4, -48, 24, -4, -8, 24, 48], "withholdReward": false, "trial_id": "mdp_264482284450", "block": "test2", "trialIndex": 60, "score": 40.75, "costs": -0.25, "simulationMode": [null, null, null], "rewards": [-4, -8, 48], "path": ["0", "0", "9", "10", "12"], "rt": [1337, 65, 120], "actions": ["left", "left", "down"], "actionTimes": [1969, 2543, 3198], "queries": {"click": {"state": {"target": ["12"], "time": [1162]}, "edge": {"target": [], "time": []}}, "mouseover": {"state": {"target": ["9", "12", "11", "10"], "time": [894, 1060, 1594, 1927]}, "edge": {"target": [], "time": []}}, "mouseout": {"state": {"target": ["0", "9", "12", "11", "10"], "time": [860, 944, 1444, 1894, 1960]}, "edge": {"target": [], "time": []}}}, "displayed_time": "9.63", "trialTime": 11022, "trial_type": "mouselab-mdp", "trial_index": 68, "time_elapsed": 1228250, "internal_node_id": "0.0-4.0-3.0-28.0"}}, {"uniqueid": "w46013075:a68885061", "current_trial": 69, "dateTime": 1664874608290, "trialdata": {"revealed_states": [], "num_clicks_accrued": [0, 0, 0, 0, 0, 0, 0, 0, 0, 0, 0, 0, 0], "stateRewards": ["", 4, -8, -24, 48, -4, 8, -24, -48, -4, -4, 24, 48], "withholdReward": true, "trial_id": "mdp_282352776624", "block": "test2", "trialIndex": 61, "score": 46.5, "costs": -2.5, "simulationMode": [null, null, null], "rewards": [4, -8, 48], "path": ["0", "0", "1", "2", "4"], "rt": [17022, 112, 687], "actions": ["up", "up", "left"], "actionTimes": [17702, 18340, 19531], "queries": {"click": {"state": {"target": ["12", "10", "4", "2", "7", "8", "3", "11", "1", "9"], "time": [1507, 2794, 3602, 4301, 5838, 6265, 6849, 8610, 12143, 12521]}, "edge": {"target": [], "time": []}}, "mouseover": {"state": {"target": ["0", "12", "10", "9", "10", "9", "4", "2", "3", "2", "7", "6", "8", "6", "3", "1", "1", "1", "11", "1", "9", "0"], "time": [1027, 1260, 1810, 2260, 2693, 3110, 3493, 3777, 3827, 4177, 5693, 6060, 6160, 6560, 6793, 7060, 7910, 8227, 8477, 11894, 12393, 17294]}, "edge": {"target": [], "time": []}}, "mouseout": {"state": {"target": ["0", "0", "12", "10", "9", "10", "9", "4", "2", "3", "2", "7", "6", "8", "6", "3", "1", "1", "1", "11", "1", "9", "0", "1"], "time": [510, 1060, 1777, 1910, 2593, 3044, 3143, 3743, 3810, 4110, 4527, 6027, 6099, 6543, 6577, 6977, 7077, 7960, 8393, 8777, 12327, 12777, 17327, 17910]}, "edge": {"target": [], "time": []}}}, "displayed_time": "20.04", "trialTime": 22050, "trial_type": "mouselab-mdp", "trial_index": 69, "time_elapsed": 1250345, "internal_node_id": "0.0-4.0-3.0-29.0"}}, {"uniqueid": "w46013075:a68885061", "current_trial": 70, "dateTime": 1664874609857, "trialdata": {"rt": 1564, "stimulus": "<h1> End of block! </h1>\n\nYou have reached the end of the block 2/4. If you need a short break, feel free to take one now before moving on.\n\n<br><br>\nIn the next block, you will complete another 30 rounds of this game.\n\n<br><br>\n<div style='text-align: center;'>Press <code>space</code> to begin.</div>\n<br><br>\n<div style='text-align: center;'>(If the experiment doesn't continue, try clicking on the text and then pressing <code>space</code>.)</div>", "response": " ", "trial_id": "mdp_ready_3", "trial_type": "html-keyboard-response", "trial_index": 70, "time_elapsed": 1251912, "internal_node_id": "0.0-4.0-4.0"}}, {"uniqueid": "w46013075:a68885061", "current_trial": 71, "dateTime": 1664874620822, "trialdata": {"revealed_states": [], "num_clicks_accrued": [0, 0, 0, 0, 0, 0, 0, 0, 0, 0, 0, 0, 0], "stateRewards": ["", 4, -4, 48, -48, -4, -4, 48, -48, 4, 4, -48, -24], "withholdReward": true, "trial_id": "mdp_490058671112", "block": "test3", "trialIndex": 62, "score": 50.5, "costs": -2.5, "simulationMode": [null, null, null], "rewards": [4, -4, 48], "path": ["0", "0", "1", "2", "3"], "rt": [6600, 56, 63], "actions": ["up", "up", "right"], "actionTimes": [7294, 7869, 8459], "queries": {"click": {"state": {"target": ["12", "11", "4", "3", "7", "8", "2", "6", "1", "5"], "time": [2025, 2423, 2807, 3151, 4045, 4683, 5306, 5715, 6530, 6827]}, "edge": {"target": [], "time": []}}, "mouseover": {"state": {"target": ["0", "12", "12", "12", "10", "11", "4", "2", "3", "7", "6", "8", "5", "2", "6", "5", "1", "5"], "time": [846, 1379, 1612, 1913, 2196, 2329, 2713, 2946, 3029, 3429, 4262, 4363, 5062, 5213, 5596, 6196, 6396, 6746]}, "edge": {"target": [], "time": []}}, "mouseout": {"state": {"target": ["0", "0", "12", "12", "12", "10", "11", "4", "2", "3", "7", "6", "8", "5", "2", "6", "5", "1", "5"], "time": [562, 896, 1463, 1679, 2179, 2213, 2646, 2931, 2979, 3313, 4230, 4312, 5029, 5079, 5446, 5913, 6246, 6679, 6979]}, "edge": {"target": [], "time": []}}}, "displayed_time": "9.70", "trialTime": 10918, "trial_type": "mouselab-mdp", "trial_index": 71, "time_elapsed": 1262877, "internal_node_id": "0.0-4.0-5.0-0.0"}}, {"uniqueid": "w46013075:a68885061", "current_trial": 72, "dateTime": 1664874632213, "trialdata": {"revealed_states": [], "num_clicks_accrued": [0, 0, 0, 0, 0, 0, 0, 0, 0, 0, 0, 0, 0], "stateRewards": ["", 2, -4, 48, -48, -4, -8, -48, 24, -4, 4, 48, 48], "withholdReward": true, "trial_id": "mdp_544803968425", "block": "test3", "trialIndex": 63, "score": 50.5, "costs": -2.5, "simulationMode": [null, null, null], "rewards": [-4, 4, 48], "path": ["0", "0", "9", "10", "11"], "rt": [6963, 1175, 183], "actions": ["left", "left", "up"], "actionTimes": [7471, 9159, 9852], "queries": {"click": {"state": {"target": ["12", "11", "4", "3", "7", "8", "2", "10", "9", "1"], "time": [876, 1816, 2174, 2723, 3352, 4008, 4702, 5109, 5713, 6606]}, "edge": {"target": [], "time": []}}, "mouseover": {"state": {"target": ["12", "10", "11", "4", "2", "3", "7", "6", "8", "8", "1", "2", "10", "9", "1"], "time": [800, 1217, 1734, 2067, 2367, 2517, 3267, 3517, 3567, 3901, 4517, 4634, 5034, 5634, 6500]}, "edge": {"target": [], "time": []}}, "mouseout": {"state": {"target": ["0", "12", "10", "11", "4", "2", "3", "7", "6", "8", "8", "1", "2", "10", "9", "9", "1", "9"], "time": [667, 1183, 1250, 1967, 2351, 2450, 2968, 3483, 3550, 3634, 4167, 4550, 4817, 5350, 5884, 6400, 6784, 6900]}, "edge": {"target": [], "time": []}}}, "displayed_time": "10.38", "trialTime": 11347, "trial_type": "mouselab-mdp", "trial_index": 72, "time_elapsed": 1274268, "internal_node_id": "0.0-4.0-5.0-1.0"}}, {"uniqueid": "w46013075:a68885061", "current_trial": 73, "dateTime": 1664874641833, "trialdata": {"revealed_states": [], "num_clicks_accrued": [0, 0, 0, 0, 0, 0, 0, 0, 0, 0, 0, 0, 0], "stateRewards": ["", -2, -8, 24, -24, 4, -8, 48, 48, -4, -8, -24, -48], "withholdReward": false, "trial_id": "mdp_286767261523", "block": "test3", "trialIndex": 64, "score": 47, "costs": -2, "simulationMode": [null, null, null], "rewards": [4, -8, 48], "path": ["0", "0", "5", "6", "7"], "rt": [4864, 83, 83], "actions": ["right", "right", "up"], "actionTimes": [5379, 5979, 6578], "queries": {"click": {"state": {"target": ["12", "11", "4", "3", "7", "8", "6", "5"], "time": [1088, 1654, 2423, 2784, 3302, 3646, 4356, 4795]}, "edge": {"target": [], "time": []}}, "mouseover": {"state": {"target": ["12", "10", "11", "4", "2", "3", "7", "7", "6", "8", "6", "5"], "time": [945, 1495, 1545, 2295, 2578, 2678, 3028, 3211, 3462, 3545, 4261, 4711]}, "edge": {"target": [], "time": []}}, "mouseout": {"state": {"target": ["0", "12", "10", "11", "4", "2", "3", "7", "7", "6", "8", "8", "6", "5"], "time": [711, 1478, 1511, 1878, 2545, 2628, 2961, 3061, 3428, 3511, 3845, 4228, 4678, 4978]}, "edge": {"target": [], "time": []}}}, "displayed_time": "8.52", "trialTime": 9577, "trial_type": "mouselab-mdp", "trial_index": 73, "time_elapsed": 1283887, "internal_node_id": "0.0-4.0-5.0-2.0"}}, {"uniqueid": "w46013075:a68885061", "current_trial": 74, "dateTime": 1664874652637, "trialdata": {"revealed_states": [], "num_clicks_accrued": [0, 0, 0, 0, 0, 0, 0, 0, 0, 0, 0, 0, 0], "stateRewards": ["", 4, -4, 48, -48, 2, 8, -48, 24, -2, -4, -24, 48], "withholdReward": true, "trial_id": "mdp_937564992306", "block": "test3", "trialIndex": 65, "score": 51.25, "costs": -1.75, "simulationMode": [null, null, null], "rewards": [4, -4, 48], "path": ["0", "0", "1", "2", "3"], "rt": [7379, 116, 66], "actions": ["up", "up", "right"], "actionTimes": [8144, 8763, 9346], "queries": {"click": {"state": {"target": ["12", "4", "3", "10", "2", "1", "9"], "time": [1444, 2451, 3309, 4469, 4893, 5375, 5675]}, "edge": {"target": [], "time": []}}, "mouseover": {"state": {"target": ["12", "10", "11", "4", "2", "3", "7", "1", "9", "10", "2", "1", "9"], "time": [1395, 1711, 2145, 2378, 2645, 2795, 3629, 4129, 4229, 4379, 4829, 5296, 5579]}, "edge": {"target": [], "time": []}}, "mouseout": {"state": {"target": ["0", "12", "10", "11", "4", "2", "3", "7", "1", "9", "10", "2", "1", "9"], "time": [911, 1678, 1762, 2212, 2612, 2728, 3546, 4062, 4162, 4278, 4646, 5096, 5546, 5862]}, "edge": {"target": [], "time": []}}}, "displayed_time": "9.88", "trialTime": 10749, "trial_type": "mouselab-mdp", "trial_index": 74, "time_elapsed": 1294692, "internal_node_id": "0.0-4.0-5.0-3.0"}}, {"uniqueid": "w46013075:a68885061", "current_trial": 75, "dateTime": 1664874663356, "trialdata": {"revealed_states": [], "num_clicks_accrued": [0, 0, 0, 0, 0, 0, 0, 0, 0, 0, 0, 0, 0], "stateRewards": ["", 2, 8, 48, -48, -2, -4, -24, 24, 4, -4, 48, -48], "withholdReward": false, "trial_id": "mdp_105734044587", "block": "test3", "trialIndex": 66, "score": 61.25, "costs": -1.75, "simulationMode": [null, null, null], "rewards": [2, 8, 48], "path": ["0", "0", "1", "2", "3"], "rt": [4719, 12, 15], "actions": ["up", "up", "right"], "actionTimes": [5127, 5647, 6166], "queries": {"click": {"state": {"target": ["12", "11", "3", "2", "10", "1", "9"], "time": [798, 1269, 2457, 3358, 3776, 4412, 4671]}, "edge": {"target": [], "time": []}}, "mouseover": {"state": {"target": ["0", "12", "11", "4", "4", "2", "3", "2", "1", "2", "10", "9", "1", "9"], "time": [534, 751, 1234, 1601, 2184, 2267, 2334, 2883, 3067, 3267, 3751, 4234, 4334, 4584]}, "edge": {"target": [], "time": []}}, "mouseout": {"state": {"target": ["0", "0", "12", "11", "4", "4", "2", "3", "2", "1", "2", "10", "9", "1", "9"], "time": [317, 584, 1083, 1484, 2001, 2217, 2317, 2750, 2951, 3251, 3484, 4034, 4267, 4534, 4851]}, "edge": {"target": [], "time": []}}}, "displayed_time": "9.41", "trialTime": 10673, "trial_type": "mouselab-mdp", "trial_index": 75, "time_elapsed": 1305411, "internal_node_id": "0.0-4.0-5.0-4.0"}}, {"uniqueid": "w46013075:a68885061", "current_trial": 76, "dateTime": 1664874673097, "trialdata": {"revealed_states": [], "num_clicks_accrued": [0, 0, 0, 0, 0, 0, 0, 0, 0, 0, 0, 0, 0], "stateRewards": ["", -2, 8, -48, -24, -2, 8, 48, -48, -4, 8, 24, 48], "withholdReward": true, "trial_id": "mdp_160707003673", "block": "test3", "trialIndex": 67, "score": 56.5, "costs": -2.5, "simulationMode": [null, null, null], "rewards": [-2, 8, 48], "path": ["0", "0", "5", "6", "7"], "rt": [6264, 74, 125], "actions": ["right", "right", "up"], "actionTimes": [6664, 7241, 7875], "queries": {"click": {"state": {"target": ["12", "11", "4", "3", "7", "8", "6", "10", "5", "9"], "time": [1334, 1886, 2355, 2629, 2881, 3552, 3833, 4384, 5230, 5688]}, "edge": {"target": [], "time": []}}, "mouseover": {"state": {"target": ["0", "9", "0", "0", "12", "10", "11", "4", "2", "3", "7", "6", "8", "6", "5", "0", "9", "10", "5", "0", "9"], "time": [516, 616, 866, 1116, 1266, 1749, 1815, 2282, 2499, 2549, 2832, 3049, 3232, 3749, 3958, 4032, 4116, 4249, 5166, 5532, 5649]}, "edge": {"target": [], "time": []}}, "mouseout": {"state": {"target": ["0", "0", "9", "0", "0", "12", "10", "11", "4", "2", "3", "7", "6", "8", "6", "5", "0", "9", "10", "5", "0", "9"], "time": [366, 566, 632, 882, 1132, 1717, 1782, 2116, 2482, 2532, 2766, 3015, 3099, 3716, 3932, 3999, 4082, 4216, 4649, 5499, 5599, 5882]}, "edge": {"target": [], "time": []}}}, "displayed_time": "8.40", "trialTime": 9696, "trial_type": "mouselab-mdp", "trial_index": 76, "time_elapsed": 1315152, "internal_node_id": "0.0-4.0-5.0-5.0"}}, {"uniqueid": "w46013075:a68885061", "current_trial": 77, "dateTime": 1664874686738, "trialdata": {"revealed_states": [], "num_clicks_accrued": [0, 0, 0, 0, 0, 0, 0, 0, 0, 0, 0, 0, 0], "stateRewards": ["", 2, 4, 48, -48, 2, 8, -24, 48, 4, 8, 48, -48], "withholdReward": false, "trial_id": "mdp_110142964375", "block": "test3", "trialIndex": 68, "score": 62, "costs": -3, "simulationMode": [null, null, null], "rewards": [4, 8, 48], "path": ["0", "0", "9", "10", "11"], "rt": [8799, 87, 1353], "actions": ["left", "left", "up"], "actionTimes": [9229, 9824, 11689], "queries": {"click": {"state": {"target": ["12", "11", "4", "3", "7", "8", "6", "2", "10", "5", "1", "9"], "time": [818, 1217, 1640, 2067, 2337, 2631, 3874, 4203, 5291, 6316, 6655, 6931]}, "edge": {"target": [], "time": []}}, "mouseover": {"state": {"target": ["12", "10", "11", "4", "2", "3", "7", "6", "8", "5", "6", "2", "10", "10", "5", "1", "9"], "time": [703, 1070, 1153, 1436, 1853, 1986, 2303, 2503, 2570, 2936, 3737, 4153, 4870, 5236, 6136, 6570, 6836]}, "edge": {"target": [], "time": []}}, "mouseout": {"state": {"target": ["0", "12", "10", "11", "4", "2", "3", "7", "6", "8", "5", "6", "2", "10", "10", "5", "1", "9"], "time": [619, 1036, 1119, 1386, 1803, 1953, 2203, 2469, 2536, 2903, 2953, 3970, 4369, 4936, 5470, 6470, 6786, 7103]}, "edge": {"target": [], "time": []}}}, "displayed_time": "12.22", "trialTime": 13591, "trial_type": "mouselab-mdp", "trial_index": 77, "time_elapsed": 1328793, "internal_node_id": "0.0-4.0-5.0-6.0"}}, {"uniqueid": "w46013075:a68885061", "current_trial": 78, "dateTime": 1664874697435, "trialdata": {"revealed_states": [], "num_clicks_accrued": [0, 0, 0, 0, 0, 0, 0, 0, 0, 0, 0, 0, 0], "stateRewards": ["", -2, -4, -24, 24, -2, 4, -24, -24, -4, 4, 24, -24], "withholdReward": true, "trial_id": "mdp_999419261719", "block": "test3", "trialIndex": 69, "score": 26.5, "costs": -2.5, "simulationMode": [null, null, null], "rewards": [-4, 4, 24], "path": ["0", "0", "9", "10", "11"], "rt": [6112, 811, 247], "actions": ["left", "left", "up"], "actionTimes": [6797, 8134, 8885], "queries": {"click": {"state": {"target": ["12", "11", "4", "3", "7", "8", "2", "10", "9", "1"], "time": [1642, 1998, 2310, 2654, 3467, 3802, 4954, 5397, 5742, 6008]}, "edge": {"target": [], "time": []}}, "mouseover": {"state": {"target": ["9", "12", "12", "10", "11", "4", "2", "3", "7", "7", "6", "8", "5", "2", "10", "9", "1", "0"], "time": [971, 1087, 1488, 1804, 1938, 2238, 2471, 2521, 3171, 3404, 3638, 3721, 4670, 4921, 5270, 5671, 5921, 6288]}, "edge": {"target": [], "time": []}}, "mouseout": {"state": {"target": ["0", "9", "12", "12", "10", "11", "4", "2", "3", "7", "7", "6", "8", "5", "2", "10", "9", "1", "0"], "time": [538, 1004, 1137, 1787, 1854, 2138, 2454, 2504, 2871, 3338, 3588, 3671, 4088, 4721, 5137, 5604, 5854, 6187, 7271]}, "edge": {"target": [], "time": []}}}, "displayed_time": "9.39", "trialTime": 10655, "trial_type": "mouselab-mdp", "trial_index": 78, "time_elapsed": 1339489, "internal_node_id": "0.0-4.0-5.0-7.0"}}, {"uniqueid": "w46013075:a68885061", "current_trial": 79, "dateTime": 1664874707604, "trialdata": {"revealed_states": [], "num_clicks_accrued": [0, 0, 0, 0, 0, 0, 0, 0, 0, 0, 0, 0, 0], "stateRewards": ["", -2, 4, 24, 48, 2, 4, -48, -48, -2, 8, 48, -24], "withholdReward": true, "trial_id": "mdp_305701202606", "block": "test3", "trialIndex": 70, "score": 57, "costs": -2, "simulationMode": [null, null, null], "rewards": [-2, 8, 48], "path": ["0", "0", "9", "10", "11"], "rt": [7301, 106, 88], "actions": ["left", "left", "up"], "actionTimes": [7726, 8343, 8941], "queries": {"click": {"state": {"target": ["12", "11", "4", "3", "7", "8", "2", "10"], "time": [785, 1194, 1915, 2184, 2490, 2777, 3410, 4060]}, "edge": {"target": [], "time": []}}, "mouseover": {"state": {"target": ["12", "11", "4", "2", "3", "7", "6", "8", "6", "2", "10", "9", "0"], "time": [653, 1153, 1420, 2020, 2053, 2403, 2637, 2720, 3003, 3320, 3741, 4287, 4337]}, "edge": {"target": [], "time": []}}, "mouseout": {"state": {"target": ["0", "12", "11", "4", "2", "3", "7", "6", "8", "6", "2", "10", "9", "0"], "time": [553, 1003, 1353, 2003, 2036, 2303, 2603, 2669, 2970, 3036, 3520, 4236, 4319, 4353]}, "edge": {"target": [], "time": []}}}, "displayed_time": "9.45", "trialTime": 10124, "trial_type": "mouselab-mdp", "trial_index": 79, "time_elapsed": 1349659, "internal_node_id": "0.0-4.0-5.0-8.0"}}, {"uniqueid": "w46013075:a68885061", "current_trial": 80, "dateTime": 1664874717016, "trialdata": {"revealed_states": [], "num_clicks_accrued": [0, 0, 0, 0, 0, 0, 0, 0, 0, 0, 0, 0, 0], "stateRewards": ["", -4, -4, -24, 24, 4, 4, -24, -24, -4, 4, 24, 24], "withholdReward": true, "trial_id": "mdp_787781487383", "block": "test3", "trialIndex": 71, "score": 26.5, "costs": -2.5, "simulationMode": [null, null, null], "rewards": [-4, 4, 24], "path": ["0", "0", "9", "10", "11"], "rt": [5729, 46, 374], "actions": ["left", "left", "up"], "actionTimes": [6082, 6661, 7555], "queries": {"click": {"state": {"target": ["12", "11", "4", "3", "7", "8", "10", "2", "1", "9"], "time": [829, 1207, 1521, 2178, 2475, 2821, 4247, 4682, 5254, 5532]}, "edge": {"target": [], "time": []}}, "mouseover": {"state": {"target": ["0", "12", "10", "11", "4", "2", "3", "3", "7", "6", "8", "9", "10", "2", "1", "9"], "time": [497, 747, 997, 1097, 1430, 1665, 1714, 2080, 2414, 2631, 2714, 3664, 3814, 4580, 4964, 5447]}, "edge": {"target": [], "time": []}}, "mouseout": {"state": {"target": ["0", "0", "12", "10", "11", "4", "2", "3", "3", "7", "6", "8", "9", "10", "2", "1", "9"], "time": [280, 514, 964, 1047, 1364, 1647, 1697, 1747, 2314, 2597, 2680, 3047, 3747, 4380, 4897, 5397, 5714]}, "edge": {"target": [], "time": []}}}, "displayed_time": "8.35", "trialTime": 9363, "trial_type": "mouselab-mdp", "trial_index": 80, "time_elapsed": 1359071, "internal_node_id": "0.0-4.0-5.0-9.0"}}, {"uniqueid": "w46013075:a68885061", "current_trial": 81, "dateTime": 1664874728140, "trialdata": {"revealed_states": [], "num_clicks_accrued": [0, 0, 0, 0, 0, 0, 0, 0, 0, 0, 0, 0, 0], "stateRewards": ["", 2, 4, 24, 48, -2, 8, 24, -24, -4, -4, 48, 48], "withholdReward": true, "trial_id": "mdp_753439303214", "block": "test3", "trialIndex": 72, "score": 56.5, "costs": -2.5, "simulationMode": [null, null, null], "rewards": [2, 4, 48], "path": ["0", "0", "1", "2", "4"], "rt": [5150, 300, 85], "actions": ["up", "up", "left"], "actionTimes": [5617, 6419, 7038], "queries": {"click": {"state": {"target": ["12", "11", "4", "3", "7", "8", "2", "10", "9", "1"], "time": [919, 1427, 1888, 2586, 2960, 3276, 3955, 4454, 4752, 5024]}, "edge": {"target": [], "time": []}}, "mouseover": {"state": {"target": ["9", "12", "10", "11", "4", "2", "3", "3", "3", "7", "6", "8", "5", "2", "10", "9", "1", "0"], "time": [685, 785, 1218, 1302, 1768, 2035, 2102, 2369, 2518, 2835, 3118, 3235, 3635, 3868, 4352, 4668, 4935, 5252]}, "edge": {"target": [], "time": []}}, "mouseout": {"state": {"target": ["0", "9", "12", "10", "11", "4", "2", "3", "3", "3", "7", "6", "8", "5", "2", "10", "9", "1", "0"], "time": [652, 702, 1118, 1268, 1652, 2002, 2085, 2152, 2402, 2735, 3068, 3168, 3602, 3668, 4168, 4602, 4885, 5185, 6785]}, "edge": {"target": [], "time": []}}}, "displayed_time": "9.47", "trialTime": 11076, "trial_type": "mouselab-mdp", "trial_index": 81, "time_elapsed": 1370195, "internal_node_id": "0.0-4.0-5.0-10.0"}}, {"uniqueid": "w46013075:a68885061", "current_trial": 82, "dateTime": 1664874745507, "trialdata": {"revealed_states": [], "num_clicks_accrued": [0, 0, 0, 0, 0, 0, 0, 0, 0, 0, 0, 0, 0], "stateRewards": ["", -2, -8, -24, 24, -2, -8, -48, 24, -2, -8, 24, 24], "withholdReward": false, "trial_id": "mdp_336617436097", "block": "test3", "trialIndex": 73, "score": 16, "costs": -3, "simulationMode": [null, null, null], "rewards": [-2, -8, 24], "path": ["0", "0", "9", "10", "11"], "rt": [14114, 42, 50], "actions": ["left", "left", "up"], "actionTimes": [14783, 15341, 15915], "queries": {"click": {"state": {"target": ["12", "11", "4", "3", "7", "8", "10", "2", "1", "9", "6", "5"], "time": [1377, 3652, 4148, 4548, 4867, 5250, 6609, 7608, 7936, 8236, 9546, 9808]}, "edge": {"target": [], "time": []}}, "mouseover": {"state": {"target": ["12", "10", "11", "4", "2", "3", "7", "6", "8", "10", "9", "1", "2", "1", "9", "6", "5", "0"], "time": [1082, 2248, 3115, 4031, 4365, 4415, 4765, 5065, 5165, 6432, 6848, 7215, 7348, 7831, 8198, 9431, 9715, 13381]}, "edge": {"target": [], "time": []}}, "mouseout": {"state": {"target": ["0", "12", "10", "11", "4", "2", "3", "7", "6", "8", "10", "9", "1", "2", "1", "9", "6", "5", "5", "2", "1", "0", "5"], "time": [948, 2182, 3048, 3932, 4332, 4398, 4698, 5031, 5115, 5465, 6816, 6948, 7298, 7781, 8065, 8515, 9682, 9965, 12798, 13065, 13315, 13398, 13415]}, "edge": {"target": [], "time": []}}}, "displayed_time": "16.43", "trialTime": 17323, "trial_type": "mouselab-mdp", "trial_index": 82, "time_elapsed": 1387562, "internal_node_id": "0.0-4.0-5.0-11.0"}}, {"uniqueid": "w46013075:a68885061", "current_trial": 83, "dateTime": 1664874755485, "trialdata": {"revealed_states": [], "num_clicks_accrued": [0, 0, 0, 0, 0, 0, 0, 0, 0, 0, 0, 0, 0], "stateRewards": ["", 4, 4, -48, -48, 4, 4, -24, -24, -4, 8, -48, 24], "withholdReward": true, "trial_id": "mdp_669785455541", "block": "test3", "trialIndex": 74, "score": 31.5, "costs": -1.5, "simulationMode": [null, null, null], "rewards": [-4, 8, 24], "path": ["0", "0", "9", "10", "12"], "rt": [6696, 172, 93], "actions": ["left", "left", "down"], "actionTimes": [7138, 7823, 8426], "queries": {"click": {"state": {"target": ["12", "11", "3", "4", "7", "8"], "time": [872, 1176, 2762, 3140, 3638, 4348]}, "edge": {