{"condition": 1, "counterbalance": 0, "assignmentId": "a21304504", "workerId": "w12685848", "hitId": "h50823530", "currenttrial": 137, "bonus": 0, "data": [{"uniqueid": "w12685848:a21304504", "current_trial": 0, "dateTime": 1664555155321, "trialdata": {"success": true, "trial_type": "fullscreen", "trial_index": 0, "time_elapsed": 20995, "internal_node_id": "0.0-0.0"}}, {"uniqueid": "w12685848:a21304504", "current_trial": 1, "dateTime": 1664555166795, "trialdata": {"view_history": [{"page_index": 0, "viewing_time": 11471}], "rt": 11472, "trial_id": "exp_instructions_no_distractor", "trial_type": "instructions", "trial_index": 1, "time_elapsed": 32470, "internal_node_id": "0.0-1.0"}}, {"uniqueid": "w12685848:a21304504", "current_trial": 2, "dateTime": 1664555170556, "trialdata": {"success": true, "trial_type": "fullscreen", "trial_index": 2, "time_elapsed": 36231, "internal_node_id": "0.0-2.0-0.0"}}, {"uniqueid": "w12685848:a21304504", "current_trial": 3, "dateTime": 1664555259609, "trialdata": {"view_history": [{"page_index": 0, "viewing_time": 47711}, {"page_index": 1, "viewing_time": 21186}, {"page_index": 2, "viewing_time": 6890}, {"page_index": 3, "viewing_time": 4008}, {"page_index": 4, "viewing_time": 9256}], "rt": 89052, "trial_id": "mouselab_instructions_1", "trial_type": "instructions", "trial_index": 3, "time_elapsed": 125284, "internal_node_id": "0.0-2.0-1.0"}}, {"uniqueid": "w12685848:a21304504", "current_trial": 4, "dateTime": 1664555277630, "trialdata": {"revealed_states": [], "num_clicks_accrued": [0, 0, 0, 0, 0, 0, 0, 0, 0, 0, 0, 0, 0], "stateRewards": ["", 10, -10, 10, 10, 10, 10, -10, 10, -10, 10, -10, -10], "withholdReward": false, "trial_id": "practice_1", "block": "test", "trialIndex": 0, "score": -8.25, "costs": -0.25, "simulationMode": [null, null, null], "rewards": [-10, 10, -10], "path": ["0", "0", "9", "10", "12"], "rt": [6102, 790, 1109], "actions": ["left", "left", "down"], "actionTimes": [8549, 9837, 11440], "queries": {"click": {"state": {"target": ["10"], "time": [6028]}, "edge": {"target": [], "time": []}}, "mouseover": {"state": {"target": ["9", "10", "9"], "time": [5564, 5879, 7914]}, "edge": {"target": [], "time": []}}, "mouseout": {"state": {"target": ["6", "8", "0", "9", "10", "9"], "time": [530, 1814, 2230, 5730, 7881, 7931]}, "edge": {"target": [], "time": []}}}, "displayed_time": "11.93", "trialTime": 17903, "trial_type": "mouselab-mdp", "trial_index": 4, "time_elapsed": 143305, "internal_node_id": "0.0-2.0-2.0-0.0"}}, {"uniqueid": "w12685848:a21304504", "current_trial": 5, "dateTime": 1664555288202, "trialdata": {"revealed_states": [], "num_clicks_accrued": [0, 0, 0, 0, 0, 0, 0, 0, 0, 0, 0, 0, 0], "stateRewards": ["", -10, 10, -10, 10, 10, 10, -10, -10, -10, 10, -10, -10], "withholdReward": false, "trial_id": "practice_2", "block": "test", "trialIndex": 1, "score": -8, "costs": 0, "simulationMode": [null, null, null], "rewards": [-10, 10, -10], "path": ["0", "0", "1", "2", "3"], "rt": [1300, 234, 256], "actions": ["up", "up", "right"], "actionTimes": [2943, 3672, 4426], "queries": {"click": {"state": {"target": [], "time": []}, "edge": {"target": [], "time": []}}, "mouseover": {"state": {"target": ["8"], "time": [2187]}, "edge": {"target": [], "time": []}}, "mouseout": {"state": {"target": ["8", "0", "8", "8", "8"], "time": [936, 1903, 2220, 7036, 9437]}, "edge": {"target": [], "time": []}}}, "displayed_time": "4.92", "trialTime": 10547, "trial_type": "mouselab-mdp", "trial_index": 5, "time_elapsed": 153877, "internal_node_id": "0.0-2.0-2.0-1.0"}}, {"uniqueid": "w12685848:a21304504", "current_trial": 6, "dateTime": 1664555329512, "trialdata": {"view_history": [{"page_index": 0, "viewing_time": 22423}, {"page_index": 1, "viewing_time": 11247}, {"page_index": 2, "viewing_time": 7637}], "rt": 41308, "trial_id": "mouselab_instructions_2_scarce", "trial_type": "instructions", "trial_index": 6, "time_elapsed": 195186, "internal_node_id": "0.0-2.0-3.0"}}, {"uniqueid": "w12685848:a21304504", "current_trial": 7, "dateTime": 1664555360353, "trialdata": {"rt": 30838, "response": {"Q0": "$-48 to $48", "Q1": "The cost is always $0.25.", "Q2": "The better I perform the higher my bonus will be.", "Q3": "No, the amount of cash at each node of the web may be different each time.", "Q4": "The values of the nodes walked through from start to finish.", "Q5": "No, the spider might forget to count the money on some rounds."}, "question_order": [0, 1, 2, 3, 4, 5], "correct": {"Q0": "$-48 to $48", "Q1": "The cost is always $0.25.", "Q2": "The better I perform the higher my bonus will be.", "Q3": "No, the amount of cash at each node of the web may be different each time.", "Q4": "The values of the nodes walked through from start to finish.", "Q5": "No, the spider might forget to count the money on some rounds."}, "trial_id": "mouselab_quiz_scarce", "trial_type": "survey-multi-choice", "trial_index": 7, "time_elapsed": 226028, "internal_node_id": "0.0-2.0-4.0"}}, {"uniqueid": "w12685848:a21304504", "current_trial": 8, "dateTime": 1664555367818, "trialdata": {"rt": 7461, "stimulus": "\n<h1> Get ready to start the game! </h1>\n\nThank you for reading the instructions. Get ready start with the first of 4 block(s) of this game.\n<br><br>\nIn this first block, you will complete 30 rounds of this game before moving on.\n<br><br>\nRemember, the more money the spider gets, the bigger your bonus will be!\n<br><br>\n<div style='text-align: center;'>Press <code>space</code> to begin.</div>\n\n<br><br>\n(If, at any point, the <code>space</code> key does not take you to the next page, click once on the text and try again.)", "response": " ", "trial_id": "mdp_ready_1", "trial_type": "html-keyboard-response", "trial_index": 8, "time_elapsed": 233493, "internal_node_id": "0.0-4.0-0.0"}}, {"uniqueid": "w12685848:a21304504", "current_trial": 9, "dateTime": 1664555381315, "trialdata": {"revealed_states": [], "num_clicks_accrued": [0, 0, 0, 0, 0, 0, 0, 0, 0, 0, 0, 0, 0], "stateRewards": ["", -2, -8, 24, -48, -4, 8, -48, -24, 4, 8, -24, 24], "withholdReward": true, "trial_id": "mdp_940444641142", "block": "test1", "trialIndex": 2, "score": 40.75, "costs": -0.25, "simulationMode": [null, null, null], "rewards": [4, 8, 24], "path": ["0", "0", "9", "10", "12"], "rt": [6129, 570, 209], "actions": ["left", "left", "down"], "actionTimes": [8109, 9172, 9878], "queries": {"click": {"state": {"target": ["12"], "time": [5686]}, "edge": {"target": [], "time": []}}, "mouseover": {"state": {"target": ["8", "8", "10", "12", "8"], "time": [2302, 4352, 5002, 5569, 7002]}, "edge": {"target": [], "time": []}}, "mouseout": {"state": {"target": ["0", "8", "8", "10", "12", "8", "8"], "time": [2252, 2318, 4368, 5518, 6018, 7019, 12952]}, "edge": {"target": [], "time": []}}}, "displayed_time": "10.37", "trialTime": 13472, "trial_type": "mouselab-mdp", "trial_index": 9, "time_elapsed": 246990, "internal_node_id": "0.0-4.0-1.0-0.0"}}, {"uniqueid": "w12685848:a21304504", "current_trial": 10, "dateTime": 1664555396017, "trialdata": {"revealed_states": [], "num_clicks_accrued": [0, 0, 0, 0, 0, 0, 0, 0, 0, 0, 0, 0, 0], "stateRewards": ["", 4, 8, 24, 24, 2, -4, 48, -24, -4, 8, -24, 24], "withholdReward": true, "trial_id": "mdp_932292142091", "block": "test1", "trialIndex": 3, "score": 40.5, "costs": -0.5, "simulationMode": [null, null, null], "rewards": [4, 8, 24], "path": ["0", "0", "1", "2", "4"], "rt": [4621, 98, 276], "actions": ["up", "up", "left"], "actionTimes": [5400, 5984, 6762], "queries": {"click": {"state": {"target": ["3", "4"], "time": [2104, 4315]}, "edge": {"target": [], "time": []}}, "mouseover": {"state": {"target": ["3", "2", "4", "1", "5"], "time": [1701, 3065, 4152, 4652, 4686]}, "edge": {"target": [], "time": []}}, "mouseout": {"state": {"target": ["0", "3", "2", "4", "1", "5"], "time": [1168, 2886, 3136, 4618, 4668, 4702]}, "edge": {"target": [], "time": []}}}, "displayed_time": "9.78", "trialTime": 14675, "trial_type": "mouselab-mdp", "trial_index": 10, "time_elapsed": 261692, "internal_node_id": "0.0-4.0-1.0-1.0"}}, {"uniqueid": "w12685848:a21304504", "current_trial": 11, "dateTime": 1664555409549, "trialdata": {"revealed_states": [], "num_clicks_accrued": [0, 0, 0, 0, 0, 0, 0, 0, 0, 0, 0, 0, 0], "stateRewards": ["", -4, -8, -24, 24, 4, 4, -48, -48, -4, -4, 24, -48], "withholdReward": true, "trial_id": "mdp_431592223624", "block": "test1", "trialIndex": 4, "score": -35, "costs": 0, "simulationMode": [null, null, null], "rewards": [4, 4, -48], "path": ["0", "0", "5", "6", "7"], "rt": [2236, 884, 381], "actions": ["right", "right", "up"], "actionTimes": [5901, 7283, 8164], "queries": {"click": {"state": {"target": [], "time": []}, "edge": {"target": [], "time": []}}, "mouseover": {"state": {"target": [], "time": []}, "edge": {"target": [], "time": []}}, "mouseout": {"state": {"target": ["2", "1", "0", "8"], "time": [2399, 2432, 4215, 12931]}, "edge": {"target": [], "time": []}}}, "displayed_time": "11.66", "trialTime": 13504, "trial_type": "mouselab-mdp", "trial_index": 11, "time_elapsed": 275224, "internal_node_id": "0.0-4.0-1.0-2.0"}}, {"uniqueid": "w12685848:a21304504", "current_trial": 12, "dateTime": 1664555420863, "trialdata": {"revealed_states": [], "num_clicks_accrued": [0, 0, 0, 0, 0, 0, 0, 0, 0, 0, 0, 0, 0], "stateRewards": ["", 4, 4, -48, -24, -2, -4, 48, 24, -4, 4, 24, -48], "withholdReward": true, "trial_id": "mdp_617383046444", "block": "test1", "trialIndex": 5, "score": 28.25, "costs": -0.75, "simulationMode": [null, null, null], "rewards": [-4, 4, 24], "path": ["0", "0", "9", "10", "11"], "rt": [8001, 105, 109], "actions": ["left", "left", "up"], "actionTimes": [8833, 9440, 10043], "queries": {"click": {"state": {"target": ["11", "10", "9"], "time": [2584, 5563, 7900]}, "edge": {"target": [], "time": []}}, "mouseover": {"state": {"target": ["9", "11", "9", "10", "0", "9"], "time": [2317, 2484, 3751, 5334, 7417, 7785]}, "edge": {"target": [], "time": []}}, "mouseout": {"state": {"target": ["0", "9", "11", "9", "10", "0", "9"], "time": [2301, 2351, 3717, 3768, 5801, 7517, 8101]}, "edge": {"target": [], "time": []}}}, "displayed_time": "10.54", "trialTime": 11287, "trial_type": "mouselab-mdp", "trial_index": 12, "time_elapsed": 286538, "internal_node_id": "0.0-4.0-1.0-3.0"}}, {"uniqueid": "w12685848:a21304504", "current_trial": 13, "dateTime": 1664555432333, "trialdata": {"revealed_states": [], "num_clicks_accrued": [0, 0, 0, 0, 0, 0, 0, 0, 0, 0, 0, 0, 0], "stateRewards": ["", -4, -4, 24, 48, 4, -4, -24, 24, -4, -4, 24, 24], "withholdReward": true, "trial_id": "mdp_357725458160", "block": "test1", "trialIndex": 6, "score": 20.75, "costs": -0.25, "simulationMode": [null, null, null], "rewards": [-4, -4, 24], "path": ["0", "0", "1", "2", "3"], "rt": [2000, 65, 54], "actions": ["up", "up", "right"], "actionTimes": [2917, 3469, 4024], "queries": {"click": {"state": {"target": ["3"], "time": [2121]}, "edge": {"target": [], "time": []}}, "mouseover": {"state": {"target": ["5", "3", "7"], "time": [1420, 1953, 2386]}, "edge": {"target": [], "time": []}}, "mouseout": {"state": {"target": ["0", "5", "3", "7", "8", "8"], "time": [1286, 1653, 2353, 2402, 4986, 7736]}, "edge": {"target": [], "time": []}}}, "displayed_time": "9.92", "trialTime": 11442, "trial_type": "mouselab-mdp", "trial_index": 13, "time_elapsed": 298008, "internal_node_id": "0.0-4.0-1.0-4.0"}}, {"uniqueid": "w12685848:a21304504", "current_trial": 14, "dateTime": 1664555444593, "trialdata": {"revealed_states": [], "num_clicks_accrued": [0, 0, 0, 0, 0, 0, 0, 0, 0, 0, 0, 0, 0], "stateRewards": ["", -2, 4, -24, -48, -4, 8, -24, 48, 4, 4, -48, 24], "withholdReward": true, "trial_id": "mdp_341117665701", "block": "test1", "trialIndex": 7, "score": 56.5, "costs": -0.5, "simulationMode": [null, null, null], "rewards": [-4, 8, 48], "path": ["0", "0", "5", "6", "8"], "rt": [2812, 603, 521], "actions": ["right", "right", "down"], "actionTimes": [4054, 5154, 6172], "queries": {"click": {"state": {"target": ["5", "8"], "time": [1613, 3124]}, "edge": {"target": [], "time": []}}, "mouseover": {"state": {"target": ["5", "8"], "time": [1434, 2917]}, "edge": {"target": [], "time": []}}, "mouseout": {"state": {"target": ["8", "0", "5", "8"], "time": [817, 1400, 2802, 3335]}, "edge": {"target": [], "time": []}}}, "displayed_time": "11.24", "trialTime": 12233, "trial_type": "mouselab-mdp", "trial_index": 14, "time_elapsed": 310268, "internal_node_id": "0.0-4.0-1.0-5.0"}}, {"uniqueid": "w12685848:a21304504", "current_trial": 15, "dateTime": 1664555475544, "trialdata": {"revealed_states": [], "num_clicks_accrued": [0, 0, 0, 0, 0, 0, 0, 0, 0, 0, 0, 0, 0], "stateRewards": ["", 4, -8, -48, 48, -2, 8, -48, 48, -2, -4, 24, -48], "withholdReward": false, "trial_id": "mdp_400558136089", "block": "test1", "trialIndex": 8, "score": -49, "costs": 0, "simulationMode": [null, null, null], "rewards": [-2, -4, -48], "path": ["0", "0", "9", "10", "12"], "rt": [855, 133, 94], "actions": ["left", "left", "down"], "actionTimes": [2782, 3405, 3999], "queries": {"click": {"state": {"target": [], "time": []}, "edge": {"target": [], "time": []}}, "mouseover": {"state": {"target": [], "time": []}, "edge": {"target": [], "time": []}}, "mouseout": {"state": {"target": ["3", "0", "0", "6", "5", "1", "9"], "time": [1472, 1672, 2106, 24323, 24356, 24940, 29040]}, "edge": {"target": [], "time": []}}}, "displayed_time": "9.93", "trialTime": 30922, "trial_type": "mouselab-mdp", "trial_index": 15, "time_elapsed": 341219, "internal_node_id": "0.0-4.0-1.0-6.0"}}, {"uniqueid": "w12685848:a21304504", "current_trial": 16, "dateTime": 1664555488088, "trialdata": {"revealed_states": [], "num_clicks_accrued": [0, 0, 0, 0, 0, 0, 0, 0, 0, 0, 0, 0, 0], "stateRewards": ["", -4, 4, -24, 48, 2, 4, -48, 24, 4, -8, -24, 24], "withholdReward": false, "trial_id": "mdp_740130150937", "block": "test1", "trialIndex": 9, "score": 24.25, "costs": -0.75, "simulationMode": [null, null, null], "rewards": [4, -8, 24], "path": ["0", "0", "9", "10", "12"], "rt": [4645, 134, 222], "actions": ["left", "left", "down"], "actionTimes": [6544, 7174, 7896], "queries": {"click": {"state": {"target": ["9", "10", "12"], "time": [3883, 5219, 5663]}, "edge": {"target": [], "time": []}}, "mouseover": {"state": {"target": ["0", "8", "0", "9", "10", "12"], "time": [1990, 2073, 3507, 3773, 4640, 5490]}, "edge": {"target": [], "time": []}}, "mouseout": {"state": {"target": ["5", "8", "8", "0", "0", "8", "0", "9", "10", "12", "0", "5"], "time": [1140, 1323, 1607, 1856, 2007, 2090, 3641, 4523, 5440, 5858, 9741, 11657]}, "edge": {"target": [], "time": []}}}, "displayed_time": "10.90", "trialTime": 12516, "trial_type": "mouselab-mdp", "trial_index": 16, "time_elapsed": 353763, "internal_node_id": "0.0-4.0-1.0-7.0"}}, {"uniqueid": "w12685848:a21304504", "current_trial": 17, "dateTime": 1664555498641, "trialdata": {"revealed_states": [], "num_clicks_accrued": [0, 0, 0, 0, 0, 0, 0, 0, 0, 0, 0, 0, 0], "stateRewards": ["", 2, -4, 24, 24, 4, -4, -24, 24, -4, -4, 48, 48], "withholdReward": false, "trial_id": "mdp_566306223773", "block": "test1", "trialIndex": 10, "score": 26.5, "costs": -0.5, "simulationMode": [null, null, null], "rewards": [2, -4, 24], "path": ["0", "0", "1", "2", "3"], "rt": [2849, 39, 516], "actions": ["up", "up", "right"], "actionTimes": [4069, 4603, 5630], "queries": {"click": {"state": {"target": ["3", "4"], "time": [1820, 3280]}, "edge": {"target": [], "time": []}}, "mouseover": {"state": {"target": ["3", "2", "4", "7"], "time": [1663, 3029, 3146, 3513]}, "edge": {"target": [], "time": []}}, "mouseout": {"state": {"target": ["0", "3", "2", "4", "7", "10", "9", "7", "10", "6", "11", "7", "3", "2", "0", "7", "5", "8", "6", "8"], "time": [1530, 2579, 3047, 3447, 3530, 7930, 7946, 8030, 8230, 8696, 8747, 8963, 8997, 9013, 9079, 9232, 9313, 9363, 9780, 10030]}, "edge": {"target": [], "time": []}}}, "displayed_time": "9.22", "trialTime": 10525, "trial_type": "mouselab-mdp", "trial_index": 17, "time_elapsed": 364316, "internal_node_id": "0.0-4.0-1.0-8.0"}}, {"uniqueid": "w12685848:a21304504", "current_trial": 18, "dateTime": 1664555508796, "trialdata": {"revealed_states": [], "num_clicks_accrued": [0, 0, 0, 0, 0, 0, 0, 0, 0, 0, 0, 0, 0], "stateRewards": ["", -2, 8, 24, -48, -4, -8, -24, -48, -4, 8, -24, 48], "withholdReward": true, "trial_id": "mdp_464339499860", "block": "test1", "trialIndex": 11, "score": -37.5, "costs": -0.5, "simulationMode": [null, null, null], "rewards": [-2, 8, -48], "path": ["0", "0", "1", "2", "4"], "rt": [3843, 115, 67], "actions": ["up", "up", "left"], "actionTimes": [4766, 5378, 5946], "queries": {"click": {"state": {"target": ["8", "7"], "time": [2008, 3090]}, "edge": {"target": [], "time": []}}, "mouseover": {"state": {"target": ["8", "6", "7"], "time": [1945, 2813, 2996]}, "edge": {"target": [], "time": []}}, "mouseout": {"state": {"target": ["0", "8", "6", "7", "3", "6", "11", "9", "1"], "time": [1229, 2795, 2879, 3278, 7413, 7496, 7779, 8446, 9763]}, "edge": {"target": [], "time": []}}}, "displayed_time": "8.92", "trialTime": 10129, "trial_type": "mouselab-mdp", "trial_index": 18, "time_elapsed": 374471, "internal_node_id": "0.0-4.0-1.0-9.0"}}, {"uniqueid": "w12685848:a21304504", "current_trial": 19, "dateTime": 1664555521156, "trialdata": {"revealed_states": [], "num_clicks_accrued": [0, 0, 0, 0, 0, 0, 0, 0, 0, 0, 0, 0, 0], "stateRewards": ["", -4, -4, -24, -48, -4, 8, -24, -48, 4, -8, 24, -24], "withholdReward": false, "trial_id": "mdp_924927483179", "block": "test1", "trialIndex": 12, "score": -27.5, "costs": -0.5, "simulationMode": [null, null, null], "rewards": [-4, -4, -24], "path": ["0", "0", "1", "2", "3"], "rt": [2841, 533, 163], "actions": ["up", "up", "right"], "actionTimes": [3645, 4676, 5340], "queries": {"click": {"state": {"target": ["12", "7"], "time": [1415, 2681]}, "edge": {"target": [], "time": []}}, "mouseover": {"state": {"target": ["12", "6", "7"], "time": [1276, 2393, 2576]}, "edge": {"target": [], "time": []}}, "mouseout": {"state": {"target": ["0", "12", "6", "7", "6", "0", "0"], "time": [1092, 2076, 2493, 2843, 9026, 10510, 11543]}, "edge": {"target": [], "time": []}}}, "displayed_time": "10.80", "trialTime": 12336, "trial_type": "mouselab-mdp", "trial_index": 19, "time_elapsed": 386831, "internal_node_id": "0.0-4.0-1.0-10.0"}}, {"uniqueid": "w12685848:a21304504", "current_trial": 20, "dateTime": 1664555531813, "trialdata": {"revealed_states": [], "num_clicks_accrued": [0, 0, 0, 0, 0, 0, 0, 0, 0, 0, 0, 0, 0], "stateRewards": ["", 2, -8, -48, 24, 4, 8, 48, -48, 2, -4, 24, 24], "withholdReward": true, "trial_id": "mdp_130475327289", "block": "test1", "trialIndex": 13, "score": 26.5, "costs": -0.5, "simulationMode": [null, null, null], "rewards": [2, -4, 24], "path": ["0", "0", "9", "10", "12"], "rt": [7265, 41, 94], "actions": ["left", "left", "down"], "actionTimes": [7992, 8521, 9108], "queries": {"click": {"state": {"target": ["10", "11"], "time": [4891, 5545]}, "edge": {"target": [], "time": []}}, "mouseover": {"state": {"target": ["10", "11", "10", "11", "9", "8"], "time": [4130, 4462, 4781, 5446, 5896, 5980]}, "edge": {"target": [], "time": []}}, "mouseout": {"state": {"target": ["0", "10", "11", "10", "11", "9"], "time": [1763, 4313, 4713, 5396, 5830, 5930]}, "edge": {"target": [], "time": []}}}, "displayed_time": "9.60", "trialTime": 10630, "trial_type": "mouselab-mdp", "trial_index": 20, "time_elapsed": 397488, "internal_node_id": "0.0-4.0-1.0-11.0"}}, {"uniqueid": "w12685848:a21304504", "current_trial": 21, "dateTime": 1664555545507, "trialdata": {"revealed_states": [], "num_clicks_accrued": [0, 0, 0, 0, 0, 0, 0, 0, 0, 0, 0, 0, 0], "stateRewards": ["", 4, -8, 48, 48, 2, 4, 48, -48, 4, -4, -48, 48], "withholdReward": true, "trial_id": "mdp_519605841135", "block": "test1", "trialIndex": 14, "score": 58.75, "costs": -0.25, "simulationMode": [null, null, null], "rewards": [2, 4, 48], "path": ["0", "0", "5", "6", "7"], "rt": [3828, 568, 136], "actions": ["right", "right", "up"], "actionTimes": [5849, 6908, 7542], "queries": {"click": {"state": {"target": ["7"], "time": [4792]}, "edge": {"target": [], "time": []}}, "mouseover": {"state": {"target": ["5", "7"], "time": [2189, 4622]}, "edge": {"target": [], "time": []}}, "mouseout": {"state": {"target": ["8", "0", "5", "7"], "time": [1655, 2171, 2223, 5156]}, "edge": {"target": [], "time": []}}}, "displayed_time": "12.02", "trialTime": 13666, "trial_type": "mouselab-mdp", "trial_index": 21, "time_elapsed": 411182, "internal_node_id": "0.0-4.0-1.0-12.0"}}, {"uniqueid": "w12685848:a21304504", "current_trial": 22, "dateTime": 1664555555942, "trialdata": {"revealed_states": [], "num_clicks_accrued": [0, 0, 0, 0, 0, 0, 0, 0, 0, 0, 0, 0, 0], "stateRewards": ["", 4, -4, 48, -48, 2, 8, -48, 24, -2, -4, -24, 48], "withholdReward": true, "trial_id": "mdp_937564992306", "block": "test1", "trialIndex": 15, "score": 38.75, "costs": -0.25, "simulationMode": [null, null, null], "rewards": [2, 8, 24], "path": ["0", "0", "5", "6", "8"], "rt": [1655, 30, 124], "actions": ["right", "right", "down"], "actionTimes": [2723, 3243, 3855], "queries": {"click": {"state": {"target": ["8"], "time": [1876]}, "edge": {"target": [], "time": []}}, "mouseover": {"state": {"target": ["8"], "time": [1647]}, "edge": {"target": [], "time": []}}, "mouseout": {"state": {"target": ["0", "8"], "time": [1546, 2063]}, "edge": {"target": [], "time": []}}}, "displayed_time": "10.07", "trialTime": 10408, "trial_type": "mouselab-mdp", "trial_index": 22, "time_elapsed": 421617, "internal_node_id": "0.0-4.0-1.0-13.0"}}, {"uniqueid": "w12685848:a21304504", "current_trial": 23, "dateTime": 1664555576002, "trialdata": {"revealed_states": [], "num_clicks_accrued": [0, 0, 0, 0, 0, 0, 0, 0, 0, 0, 0, 0, 0], "stateRewards": ["", -2, 8, -48, -24, -2, 8, 48, -48, -4, 8, 24, 48], "withholdReward": true, "trial_id": "mdp_160707003673", "block": "test1", "trialIndex": 16, "score": 32.5, "costs": -0.5, "simulationMode": [null, null, null], "rewards": [-4, 8, 24], "path": ["0", "0", "9", "10", "11"], "rt": [3736, 37, 176], "actions": ["left", "left", "up"], "actionTimes": [5018, 5549, 6238], "queries": {"click": {"state": {"target": ["4", "8"], "time": [2390, 3661]}, "edge": {"target": [], "time": []}}, "mouseover": {"state": {"target": ["1", "4", "1", "8"], "time": [1645, 2295, 3278, 3545]}, "edge": {"target": [], "time": []}}, "mouseout": {"state": {"target": ["7", "1", "0", "1", "4", "1", "8"], "time": [878, 978, 1561, 1695, 3194, 3311, 3794]}, "edge": {"target": [], "time": []}}}, "displayed_time": "10.28", "trialTime": 20033, "trial_type": "mouselab-mdp", "trial_index": 23, "time_elapsed": 441677, "internal_node_id": "0.0-4.0-1.0-14.0"}}, {"uniqueid": "w12685848:a21304504", "current_trial": 24, "dateTime": 1664555588375, "trialdata": {"revealed_states": [], "num_clicks_accrued": [0, 0, 0, 0, 0, 0, 0, 0, 0, 0, 0, 0, 0], "stateRewards": ["", -4, -8, -24, 24, 2, 8, 24, 48, 2, 4, 24, -48], "withholdReward": false, "trial_id": "mdp_122352383932", "block": "test1", "trialIndex": 17, "score": 38.75, "costs": -0.25, "simulationMode": [null, null, null], "rewards": [2, 8, 24], "path": ["0", "0", "5", "6", "7"], "rt": [1969, 49, 1987], "actions": ["right", "right", "up"], "actionTimes": [2569, 3116, 5605], "queries": {"click": {"state": {"target": ["6"], "time": [1727]}, "edge": {"target": [], "time": []}}, "mouseover": {"state": {"target": ["0", "8", "6", "5", "6"], "time": [784, 867, 1034, 1350, 1500]}, "edge": {"target": [], "time": []}}, "mouseout": {"state": {"target": ["0", "0", "8", "6", "5", "6", "7", "7", "1", "9"], "time": [567, 817, 900, 1050, 1434, 1884, 5001, 10851, 10917, 10967]}, "edge": {"target": [], "time": []}}}, "displayed_time": "9.60", "trialTime": 12345, "trial_type": "mouselab-mdp", "trial_index": 24, "time_elapsed": 454050, "internal_node_id": "0.0-4.0-1.0-15.0"}}, {"uniqueid": "w12685848:a21304504", "current_trial": 25, "dateTime": 1664555604360, "trialdata": {"revealed_states": [], "num_clicks_accrued": [0, 0, 0, 0, 0, 0, 0, 0, 0, 0, 0, 0, 0], "stateRewards": ["", -2, -4, 48, -24, -4, -4, -24, -24, -2, 4, -48, -24], "withholdReward": true, "trial_id": "mdp_410467837196", "block": "test1", "trialIndex": 18, "score": 46.75, "costs": -0.25, "simulationMode": [null, null, null], "rewards": [-2, -4, 48], "path": ["0", "0", "1", "2", "3"], "rt": [2559, 232, 111], "actions": ["up", "up", "right"], "actionTimes": [5509, 6229, 6840], "queries": {"click": {"state": {"target": ["3"], "time": [4544]}, "edge": {"target": [], "time": []}}, "mouseover": {"state": {"target": ["5", "6", "2", "2", "3"], "time": [3196, 3629, 3828, 4079, 4479]}, "edge": {"target": [], "time": []}}, "mouseout": {"state": {"target": ["5", "8", "5", "5", "6", "2", "2", "3"], "time": [2545, 2762, 2829, 3212, 3645, 3946, 4379, 4846]}, "edge": {"target": [], "time": []}}}, "displayed_time": "11.95", "trialTime": 15959, "trial_type": "mouselab-mdp", "trial_index": 25, "time_elapsed": 470035, "internal_node_id": "0.0-4.0-1.0-16.0"}}, {"uniqueid": "w12685848:a21304504", "current_trial": 26, "dateTime": 1664555618432, "trialdata": {"revealed_states": [], "num_clicks_accrued": [0, 0, 0, 0, 0, 0, 0, 0, 0, 0, 0, 0, 0], "stateRewards": ["", 4, -8, -24, 48, -4, 8, -24, -48, -4, -4, 24, 48], "withholdReward": true, "trial_id": "mdp_282352776624", "block": "test1", "trialIndex": 19, "score": 20.75, "costs": -0.25, "simulationMode": [null, null, null], "rewards": [-4, -4, 24], "path": ["0", "0", "9", "10", "11"], "rt": [2254, 146, 151], "actions": ["left", "left", "up"], "actionTimes": [3736, 4371, 5009], "queries": {"click": {"state": {"target": ["11"], "time": [2527]}, "edge": {"target": [], "time": []}}, "mouseover": {"state": {"target": ["0", "9", "11", "9"], "time": [1691, 2324, 2458, 2874]}, "edge": {"target": [], "time": []}}, "mouseout": {"state": {"target": ["7", "5", "5", "0", "0", "0", "9", "11", "9"], "time": [541, 607, 808, 908, 1391, 1724, 2375, 2759, 2891]}, "edge": {"target": [], "time": []}}}, "displayed_time": "10.48", "trialTime": 14043, "trial_type": "mouselab-mdp", "trial_index": 26, "time_elapsed": 484107, "internal_node_id": "0.0-4.0-1.0-17.0"}}, {"uniqueid": "w12685848:a21304504", "current_trial": 27, "dateTime": 1664555629915, "trialdata": {"revealed_states": [], "num_clicks_accrued": [0, 0, 0, 0, 0, 0, 0, 0, 0, 0, 0, 0, 0], "stateRewards": ["", -2, -8, -24, -24, 4, -4, -48, 48, 2, 8, 48, -48], "withholdReward": true, "trial_id": "mdp_498095124548", "block": "test1", "trialIndex": 20, "score": 52.75, "costs": -0.25, "simulationMode": [null, null, null], "rewards": [4, -4, 48], "path": ["0", "0", "5", "6", "8"], "rt": [1990, 80, 134], "actions": ["right", "right", "down"], "actionTimes": [3260, 3830, 4467], "queries": {"click": {"state": {"target": ["8"], "time": [2178]}, "edge": {"target": [], "time": []}}, "mouseover": {"state": {"target": ["8", "8"], "time": [1866, 2067]}, "edge": {"target": [], "time": []}}, "mouseout": {"state": {"target": ["0", "8", "8"], "time": [1784, 1900, 2549]}, "edge": {"target": [], "time": []}}}, "displayed_time": "10.27", "trialTime": 11451, "trial_type": "mouselab-mdp", "trial_index": 27, "time_elapsed": 495590, "internal_node_id": "0.0-4.0-1.0-18.0"}}, {"uniqueid": "w12685848:a21304504", "current_trial": 28, "dateTime": 1664555641157, "trialdata": {"revealed_states": [], "num_clicks_accrued": [0, 0, 0, 0, 0, 0, 0, 0, 0, 0, 0, 0, 0], "stateRewards": ["", -4, -4, 24, -24, 4, 4, 24, 48, 4, -4, 48, -48], "withholdReward": true, "trial_id": "mdp_522385334882", "block": "test1", "trialIndex": 21, "score": 52.75, "costs": -0.25, "simulationMode": [null, null, null], "rewards": [4, -4, 48], "path": ["0", "0", "9", "10", "11"], "rt": [2988, 227, 114], "actions": ["left", "left", "up"], "actionTimes": [4145, 4864, 5483], "queries": {"click": {"state": {"target": ["11"], "time": [3015]}, "edge": {"target": [], "time": []}}, "mouseover": {"state": {"target": ["9", "11", "5", "6"], "time": [1785, 2819, 3536, 3553]}, "edge": {"target": [], "time": []}}, "mouseout": {"state": {"target": ["8", "0", "9", "11", "5", "6"], "time": [785, 1735, 1835, 3502, 3552, 3569]}, "edge": {"target": [], "time": []}}}, "displayed_time": "10.16", "trialTime": 11211, "trial_type": "mouselab-mdp", "trial_index": 28, "time_elapsed": 506832, "internal_node_id": "0.0-4.0-1.0-19.0"}}, {"uniqueid": "w12685848:a21304504", "current_trial": 29, "dateTime": 1664555652265, "trialdata": {"revealed_states": [], "num_clicks_accrued": [0, 0, 0, 0, 0, 0, 0, 0, 0, 0, 0, 0, 0], "stateRewards": ["", 2, 8, 48, -48, -2, -4, -24, 24, 4, -4, 48, -48], "withholdReward": true, "trial_id": "mdp_105734044587", "block": "test1", "trialIndex": 22, "score": 52.25, "costs": -0.75, "simulationMode": [null, null, null], "rewards": [4, -4, 48], "path": ["0", "0", "9", "10", "11"], "rt": [2595, 66, 177], "actions": ["left", "left", "up"], "actionTimes": [3828, 4396, 5073], "queries": {"click": {"state": {"target": ["11", "9", "10"], "time": [1827, 2485, 2931]}, "edge": {"target": [], "time": []}}, "mouseover": {"state": {"target": ["9", "10", "11", "9", "10"], "time": [1462, 1512, 1630, 2162, 2846]}, "edge": {"target": [], "time": []}}, "mouseout": {"state": {"target": ["6", "5", "0", "9", "10", "11", "9", "10"], "time": [845, 945, 1429, 1479, 1562, 2096, 2695, 3113]}, "edge": {"target": [], "time": []}}}, "displayed_time": "10.23", "trialTime": 11080, "trial_type": "mouselab-mdp", "trial_index": 29, "time_elapsed": 517940, "internal_node_id": "0.0-4.0-1.0-20.0"}}, {"uniqueid": "w12685848:a21304504", "current_trial": 30, "dateTime": 1664555663167, "trialdata": {"revealed_states": [], "num_clicks_accrued": [0, 0, 0, 0, 0, 0, 0, 0, 0, 0, 0, 0, 0], "stateRewards": ["", 2, 8, 48, 24, 2, 8, 48, 48, -2, -4, -24, -48], "withholdReward": true, "trial_id": "mdp_717636349175", "block": "test1", "trialIndex": 23, "score": 62.75, "costs": -0.25, "simulationMode": [null, null, null], "rewards": [2, 8, 48], "path": ["0", "0", "1", "2", "3"], "rt": [925, 131, 288], "actions": ["up", "up", "right"], "actionTimes": [1855, 2501, 3274], "queries": {"click": {"state": {"target": ["3"], "time": [1440]}, "edge": {"target": [], "time": []}}, "mouseover": {"state": {"target": ["3"], "time": [1303]}, "edge": {"target": [], "time": []}}, "mouseout": {"state": {"target": ["0", "3"], "time": [1104, 1703]}, "edge": {"target": [], "time": []}}}, "displayed_time": "9.93", "trialTime": 10872, "trial_type": "mouselab-mdp", "trial_index": 30, "time_elapsed": 528842, "internal_node_id": "0.0-4.0-1.0-21.0"}}, {"uniqueid": "w12685848:a21304504", "current_trial": 31, "dateTime": 1664555677837, "trialdata": {"revealed_states": [], "num_clicks_accrued": [0, 0, 0, 0, 0, 0, 0, 0, 0, 0, 0, 0, 0], "stateRewards": ["", -4, 8, 24, 24, 2, 4, -48, 24, -2, -4, -24, -24], "withholdReward": false, "trial_id": "mdp_752328329546", "block": "test1", "trialIndex": 24, "score": 32.25, "costs": -0.75, "simulationMode": [null, null, null], "rewards": [-4, 8, 24], "path": ["0", "0", "1", "2", "3"], "rt": [2700, 2, 93], "actions": ["up", "up", "right"], "actionTimes": [3352, 3854, 4461], "queries": {"click": {"state": {"target": ["3", "2", "1"], "time": [1437, 2136, 2386]}, "edge": {"target": [], "time": []}}, "mouseover": {"state": {"target": ["5", "6", "7", "3", "2", "1", "6"], "time": [917, 1051, 1135, 1351, 2068, 2300, 2601]}, "edge": {"target": [], "time": []}}, "mouseout": {"state": {"target": ["8", "5", "0", "5", "6", "7", "3", "2", "1", "6", "7", "11", "10", "12"], "time": [368, 451, 885, 1017, 1101, 1184, 1951, 2267, 2550, 2618, 13152, 13418, 13435, 13467]}, "edge": {"target": [], "time": []}}}, "displayed_time": "9.65", "trialTime": 14640, "trial_type": "mouselab-mdp", "trial_index": 31, "time_elapsed": 543512, "internal_node_id": "0.0-4.0-1.0-22.0"}}, {"uniqueid": "w12685848:a21304504", "current_trial": 32, "dateTime": 1664555692173, "trialdata": {"revealed_states": [], "num_clicks_accrued": [0, 0, 0, 0, 0, 0, 0, 0, 0, 0, 0, 0, 0], "stateRewards": ["", -2, -8, 48, 24, 4, -8, 24, 48, 4, -4, 24, -48], "withholdReward": false, "trial_id": "mdp_871576155740", "block": "test1", "trialIndex": 25, "score": 18.5, "costs": -0.5, "simulationMode": [null, null, null], "rewards": [-2, -8, 24], "path": ["0", "0", "1", "2", "4"], "rt": [3777, 54, 240], "actions": ["up", "up", "left"], "actionTimes": [4639, 5186, 5923], "queries": {"click": {"state": {"target": ["4", "1"], "time": [2461, 3786]}, "edge": {"target": [], "time": []}}, "mouseover": {"state": {"target": ["4", "7", "1", "6"], "time": [2376, 2798, 3683, 4066]}, "edge": {"target": [], "time": []}}, "mouseout": {"state": {"target": ["5", "0", "4", "7", "1", "6", "7", "0"], "time": [716, 1234, 2765, 2816, 4015, 4083, 13384, 13599]}, "edge": {"target": [], "time": []}}}, "displayed_time": "8.86", "trialTime": 14307, "trial_type": "mouselab-mdp", "trial_index": 32, "time_elapsed": 557848, "internal_node_id": "0.0-4.0-1.0-23.0"}}, {"uniqueid": "w12685848:a21304504", "current_trial": 33, "dateTime": 1664555704278, "trialdata": {"revealed_states": [], "num_clicks_accrued": [0, 0, 0, 0, 0, 0, 0, 0, 0, 0, 0, 0, 0], "stateRewards": ["", -2, 8, -48, 48, 4, -8, -48, 48, 4, -4, -24, 48], "withholdReward": true, "trial_id": "mdp_144739116828", "block": "test1", "trialIndex": 26, "score": 48.75, "costs": -0.25, "simulationMode": [null, null, null], "rewards": [4, -8, 48], "path": ["0", "0", "5", "6", "8"], "rt": [1657, 125, 80], "actions": ["right", "right", "down"], "actionTimes": [3757, 4371, 4942], "queries": {"click": {"state": {"target": ["8"], "time": [2739]}, "edge": {"target": [], "time": []}}, "mouseover": {"state": {"target": ["5", "8"], "time": [2396, 2679]}, "edge": {"target": [], "time": []}}, "mouseout": {"state": {"target": ["8", "5", "0", "0", "5", "8"], "time": [579, 845, 1279, 2379, 2413, 3128]}, "edge": {"target": [], "time": []}}}, "displayed_time": "11.10", "trialTime": 12075, "trial_type": "mouselab-mdp", "trial_index": 33, "time_elapsed": 569953, "internal_node_id": "0.0-4.0-1.0-24.0"}}, {"uniqueid": "w12685848:a21304504", "current_trial": 34, "dateTime": 1664555714065, "trialdata": {"revealed_states": [], "num_clicks_accrued": [0, 0, 0, 0, 0, 0, 0, 0, 0, 0, 0, 0, 0], "stateRewards": ["", -2, -4, -48, 48, -4, 4, -48, 24, -4, -8, 24, 48], "withholdReward": true, "trial_id": "mdp_264482284450", "block": "test1", "trialIndex": 27, "score": 40.5, "costs": -0.5, "simulationMode": [null, null, null], "rewards": [-4, -8, 48], "path": ["0", "0", "9", "10", "12"], "rt": [3083, 40, 162], "actions": ["left", "left", "down"], "actionTimes": [3847, 4381, 5052], "queries": {"click": {"state": {"target": ["11", "12"], "time": [1902, 3028]}, "edge": {"target": [], "time": []}}, "mouseover": {"state": {"target": ["0", "9", "11", "10", "12"], "time": [1023, 1274, 1758, 2307, 2908]}, "edge": {"target": [], "time": []}}, "mouseout": {"state": {"target": ["5", "0", "9", "11", "10", "12"], "time": [507, 1090, 1341, 2223, 2407, 3207]}, "edge": {"target": [], "time": []}}}, "displayed_time": "8.77", "trialTime": 9756, "trial_type": "mouselab-mdp", "trial_index": 34, "time_elapsed": 579740, "internal_node_id": "0.0-4.0-1.0-25.0"}}, {"uniqueid": "w12685848:a21304504", "current_trial": 35, "dateTime": 1664555728662, "trialdata": {"revealed_states": [], "num_clicks_accrued": [0, 0, 0, 0, 0, 0, 0, 0, 0, 0, 0, 0, 0], "stateRewards": ["", 2, -4, 24, 24, 2, 4, 24, 24, -4, 8, 24, 48], "withholdReward": true, "trial_id": "mdp_268430387178", "block": "test1", "trialIndex": 28, "score": 34, "costs": -1, "simulationMode": [null, null, null], "rewards": [2, 4, 24], "path": ["0", "0", "5", "6", "7"], "rt": [5251, 466, 246], "actions": ["right", "right", "up"], "actionTimes": [8583, 9539, 10284], "queries": {"click": {"state": {"target": ["7", "8", "11", "3"], "time": [3810, 4270, 6465, 7437]}, "edge": {"target": [], "time": []}}, "mouseover": {"state": {"target": ["5", "6", "7", "6", "8", "2", "4", "11", "0", "5", "3"], "time": [3522, 3572, 3689, 4071, 4205, 6189, 6222, 6289, 6805, 7089, 7321]}, "edge": {"target": [], "time": []}}, "mouseout": {"state": {"target": ["6", "6", "5", "5", "5", "6", "7", "6", "8", "2", "4", "11", "0", "5", "3", "7", "8"], "time": [2255, 2738, 2823, 3221, 3555, 3622, 4005, 4089, 4605, 6205, 6255, 6755, 6821, 7105, 7739, 7789, 14188]}, "edge": {"target": [], "time": []}}}, "displayed_time": "11.33", "trialTime": 14567, "trial_type": "mouselab-mdp", "trial_index": 35, "time_elapsed": 594336, "internal_node_id": "0.0-4.0-1.0-26.0"}}, {"uniqueid": "w12685848:a21304504", "current_trial": 36, "dateTime": 1664555739375, "trialdata": {"revealed_states": [], "num_clicks_accrued": [0, 0, 0, 0, 0, 0, 0, 0, 0, 0, 0, 0, 0], "stateRewards": ["", 2, -8, 48, -24, -4, -8, -24, 48, -2, 4, 24, -48], "withholdReward": true, "trial_id": "mdp_186932504904", "block": "test1", "trialIndex": 29, "score": 46.75, "costs": -0.25, "simulationMode": [null, null, null], "rewards": [2, -8, 48], "path": ["0", "0", "1", "2", "3"], "rt": [1735, 37, 147], "actions": ["up", "up", "right"], "actionTimes": [2686, 3212, 3873], "queries": {"click": {"state": {"target": ["3"], "time": [1706]}, "edge": {"target": [], "time": []}}, "mouseover": {"state": {"target": ["1", "2", "3", "6"], "time": [1309, 1442, 1625, 2125]}, "edge": {"target": [], "time": []}}, "mouseout": {"state": {"target": ["0", "1", "2", "3", "6"], "time": [1275, 1342, 1459, 1958, 2142]}, "edge": {"target": [], "time": []}}}, "displayed_time": "9.95", "trialTime": 10684, "trial_type": "mouselab-mdp", "trial_index": 36, "time_elapsed": 605050, "internal_node_id": "0.0-4.0-1.0-27.0"}}, {"uniqueid": "w12685848:a21304504", "current_trial": 37, "dateTime": 1664555750219, "trialdata": {"revealed_states": [], "num_clicks_accrued": [0, 0, 0, 0, 0, 0, 0, 0, 0, 0, 0, 0, 0], "stateRewards": ["", 2, -8, 24, -24, -2, 8, -48, -48, 2, -8, -24, -48], "withholdReward": true, "trial_id": "mdp_744278669205", "block": "test1", "trialIndex": 30, "score": 22.25, "costs": -0.75, "simulationMode": [null, null, null], "rewards": [2, -8, 24], "path": ["0", "0", "1", "2", "3"], "rt": [3986, 83, 40], "actions": ["up", "up", "right"], "actionTimes": [5138, 5714, 6256], "queries": {"click": {"state": {"target": ["12", "3", "7"], "time": [1960, 3119, 4321]}, "edge": {"target": [], "time": []}}, "mouseover": {"state": {"target": ["0", "12", "10", "11", "3", "6", "8", "8", "6", "7"], "time": [1249, 1715, 2382, 2449, 3015, 3632, 3715, 3898, 4032, 4099]}, "edge": {"target": [], "time": []}}, "mouseout": {"state": {"target": ["6", "5", "0", "0", "0", "12", "10", "11", "3", "6", "8", "8", "6", "7"], "time": [548, 582, 698, 1098, 1281, 2366, 2415, 2733, 3515, 3682, 3749, 4016, 4065, 4449]}, "edge": {"target": [], "time": []}}}, "displayed_time": "10.15", "trialTime": 10818, "trial_type": "mouselab-mdp", "trial_index": 37, "time_elapsed": 615894, "internal_node_id": "0.0-4.0-1.0-28.0"}}, {"uniqueid": "w12685848:a21304504", "current_trial": 38, "dateTime": 1664555763235, "trialdata": {"revealed_states": [], "num_clicks_accrued": [0, 0, 0, 0, 0, 0, 0, 0, 0, 0, 0, 0, 0], "stateRewards": ["", 2, 4, -48, 24, -4, 4, -24, 48, -2, -8, -48, 48], "withholdReward": false, "trial_id": "mdp_424193661731", "block": "test1", "trialIndex": 31, "score": 52.5, "costs": -0.5, "simulationMode": [null, null, null], "rewards": [-4, 4, 48], "path": ["0", "0", "5", "6", "8"], "rt": [2397, 70, 118], "actions": ["right", "right", "down"], "actionTimes": [3994, 4557, 5172], "queries": {"click": {"state": {"target": ["4", "8"], "time": [2394, 3155]}, "edge": {"target": [], "time": []}}, "mouseover": {"state": {"target": ["1", "4", "1", "5", "8"], "time": [2003, 2253, 2703, 2786, 2886]}, "edge": {"target": [], "time": []}}, "mouseout": {"state": {"target": ["5", "0", "1", "4", "1", "5", "8"], "time": [1003, 1502, 2070, 2620, 2736, 2803, 3336]}, "edge": {"target": [], "time": []}}}, "displayed_time": "10.60", "trialTime": 12987, "trial_type": "mouselab-mdp", "trial_index": 38, "time_elapsed": 628910, "internal_node_id": "0.0-4.0-1.0-29.0"}}, {"uniqueid": "w12685848:a21304504", "current_trial": 39, "dateTime": 1664555772109, "trialdata": {"rt": 8871, "stimulus": "<h1> End of block! </h1>\n\nYou have reached the end of the block 1/4. If you need a short break, feel free to take one now before moving on.\n\n<br><br>\nIn the next block, you will complete another 30 rounds of this game.\n\n<br><br>\n<div style='text-align: center;'>Press <code>space</code> to begin.</div>\n<br><br>\n<div style='text-align: center;'>(If the experiment doesn't continue, try clicking on the text and then pressing <code>space</code>.)</div>", "response": " ", "trial_id": "mdp_ready_2", "trial_type": "html-keyboard-response", "trial_index": 39, "time_elapsed": 637784, "internal_node_id": "0.0-4.0-2.0"}}, {"uniqueid": "w12685848:a21304504", "current_trial": 40, "dateTime": 1664555783563, "trialdata": {"revealed_states": [], "num_clicks_accrued": [0, 0, 0, 0, 0, 0, 0, 0, 0, 0, 0, 0, 0], "stateRewards": ["", 4, 8, 24, 24, 2, -4, 48, -24, -4, 8, -24, 24], "withholdReward": false, "trial_id": "mdp_932292142091", "block": "test2", "trialIndex": 32, "score": 40.75, "costs": -0.25, "simulationMode": [null, null, null], "rewards": [4, 8, 24], "path": ["0", "0", "1", "2", "3"], "rt": [1892, 52, 42], "actions": ["up", "up", "right"], "actionTimes": [3578, 4131, 4670], "queries": {"click": {"state": {"target": ["3"], "time": [2588]}, "edge": {"target": [], "time": []}}, "mouseover": {"state": {"target": ["5", "6", "7", "3"], "time": [2028, 2061, 2328, 2512]}, "edge": {"target": [], "time": []}}, "mouseout": {"state": {"target": ["7", "1", "0", "5", "6", "7", "3"], "time": [1311, 1461, 2011, 2045, 2260, 2361, 2944]}, "edge": {"target": [], "time": []}}}, "displayed_time": "10.69", "trialTime": 11424, "trial_type": "mouselab-mdp", "trial_index": 40, "time_elapsed": 649238, "internal_node_id": "0.0-4.0-3.0-0.0"}}, {"uniqueid": "w12685848:a21304504", "current_trial": 41, "dateTime": 1664555796034, "trialdata": {"revealed_states": [], "num_clicks_accrued": [0, 0, 0, 0, 0, 0, 0, 0, 0, 0, 0, 0, 0], "stateRewards": ["", -2, 4, -24, -24, -2, 4, 48, 24, -4, -8, 24, -48], "withholdReward": false, "trial_id": "mdp_191839460481", "block": "test2", "trialIndex": 33, "score": 30.5, "costs": -0.5, "simulationMode": [null, null, null], "rewards": [-2, 4, 24], "path": ["0", "0", "5", "6", "8"], "rt": [2689, 465, 244], "actions": ["right", "right", "down"], "actionTimes": [3786, 4740, 5469], "queries": {"click": {"state": {"target": ["11", "8"], "time": [2127, 2896]}, "edge": {"target": [], "time": []}}, "mouseover": {"state": {"target": ["9", "10", "11", "9", "8"], "time": [1642, 1708, 2024, 2525, 2692]}, "edge": {"target": [], "time": []}}, "mouseout": {"state": {"target": ["12", "12", "0", "9", "10", "11", "9", "8"], "time": [641, 792, 1625, 1692, 1958, 2425, 2558, 3042]}, "edge": {"target": [], "time": []}}}, "displayed_time": "10.10", "trialTime": 12442, "trial_type": "mouselab-mdp", "trial_index": 41, "time_elapsed": 661709, "internal_node_id": "0.0-4.0-3.0-1.0"}}, {"uniqueid": "w12685848:a21304504", "current_trial": 42, "dateTime": 1664555809714, "trialdata": {"revealed_states": [], "num_clicks_accrued": [0, 0, 0, 0, 0, 0, 0, 0, 0, 0, 0, 0, 0], "stateRewards": ["", -2, 4, -48, -48, -4, -8, 48, -48, 2, 4, 48, -48], "withholdReward": true, "trial_id": "mdp_258647270500", "block": "test2", "trialIndex": 34, "score": 40.75, "costs": -0.25, "simulationMode": [null, null, null], "rewards": [-4, -8, 48], "path": ["0", "0", "5", "6", "7"], "rt": [1781, 73, 101], "actions": ["right", "right", "up"], "actionTimes": [5533, 6094, 6688], "queries": {"click": {"state": {"target": ["7"], "time": [4425]}, "edge": {"target": [], "time": []}}, "mouseover": {"state": {"target": ["5", "6", "7"], "time": [4037, 4254, 4337]}, "edge": {"target": [], "time": []}}, "mouseout": {"state": {"target": ["8", "8", "8", "0", "5", "6", "7"], "time": [1853, 2804, 3187, 4020, 4053, 4287, 4821]}, "edge": {"target": [], "time": []}}}, "displayed_time": "12.75", "trialTime": 13650, "trial_type": "mouselab-mdp", "trial_index": 42, "time_elapsed": 675389, "internal_node_id": "0.0-4.0-3.0-2.0"}}, {"uniqueid": "w12685848:a21304504", "current_trial": 43, "dateTime": 1664555821781, "trialdata": {"revealed_states": [], "num_clicks_accrued": [0, 0, 0, 0, 0, 0, 0, 0, 0, 0, 0, 0, 0], "stateRewards": ["", -4, -4, 48, 24, -4, -4, -24, -48, -4, 4, 48, -24], "withholdReward": true, "trial_id": "mdp_896503755738", "block": "test2", "trialIndex": 35, "score": 44.5, "costs": -0.5, "simulationMode": [null, null, null], "rewards": [-4, -4, 48], "path": ["0", "0", "1", "2", "3"], "rt": [2603, 169, 3], "actions": ["up", "up", "right"], "actionTimes": [3936, 4596, 5096], "queries": {"click": {"state": {"target": ["12", "3"], "time": [2178, 3075]}, "edge": {"target": [], "time": []}}, "mouseover": {"state": {"target": ["12", "9", "1", "3"], "time": [2094, 2660, 2727, 2943]}, "edge": {"target": [], "time": []}}, "mouseout": {"state": {"target": ["6", "5", "0", "0", "12", "9", "1", "3"], "time": [443, 510, 961, 1577, 2610, 2677, 2760, 3393]}, "edge": {"target": [], "time": []}}}, "displayed_time": "10.34", "trialTime": 12040, "trial_type": "mouselab-mdp", "trial_index": 43, "time_elapsed": 687456, "internal_node_id": "0.0-4.0-3.0-3.0"}}, {"uniqueid": "w12685848:a21304504", "current_trial": 44, "dateTime": 1664555835027, "trialdata": {"revealed_states": [], "num_clicks_accrued": [0, 0, 0, 0, 0, 0, 0, 0, 0, 0, 0, 0, 0], "stateRewards": ["", -4, 8, 48, -48, 2, -4, 24, -24, -2, 4, -24, -24], "withholdReward": true, "trial_id": "mdp_804988042722", "block": "test2", "trialIndex": 36, "score": 56.75, "costs": -0.25, "simulationMode": [null, null, null], "rewards": [-4, 8, 48], "path": ["0", "0", "1", "2", "3"], "rt": [2275, 57, 134], "actions": ["up", "up", "right"], "actionTimes": [6027, 6581, 7208], "queries": {"click": {"state": {"target": ["3"], "time": [5050]}, "edge": {"target": [], "time": []}}, "mouseover": {"state": {"target": ["6", "7", "3", "7"], "time": [4674, 4723, 4940, 5407]}, "edge": {"target": [], "time": []}}, "mouseout": {"state": {"target": ["6", "5", "0", "6", "7", "3", "7"], "time": [3040, 3090, 3624, 4691, 4757, 5323, 5457]}, "edge": {"target": [], "time": []}}}, "displayed_time": "11.75", "trialTime": 13216, "trial_type": "mouselab-mdp", "trial_index": 44, "time_elapsed": 700702, "internal_node_id": "0.0-4.0-3.0-4.0"}}, {"uniqueid": "w12685848:a21304504", "current_trial": 45, "dateTime": 1664555849001, "trialdata": {"revealed_states": [], "num_clicks_accrued": [0, 0, 0, 0, 0, 0, 0, 0, 0, 0, 0, 0, 0], "stateRewards": ["", -2, -4, -48, 48, -2, -4, 24, 48, -4, -8, -24, 24], "withholdReward": true, "trial_id": "mdp_917590390609", "block": "test2", "trialIndex": 37, "score": 46.75, "costs": -0.25, "simulationMode": [null, null, null], "rewards": [-2, -4, 48], "path": ["0", "0", "5", "6", "8"], "rt": [1984, 73, 118], "actions": ["right", "right", "down"], "actionTimes": [3206, 3767, 4379], "queries": {"click": {"state": {"target": ["8"], "time": [2414]}, "edge": {"target": [], "time": []}}, "mouseover": {"state": {"target": ["5", "8"], "time": [1495, 2327]}, "edge": {"target": [], "time": []}}, "mouseout": {"state": {"target": ["8", "0", "5", "8"], "time": [694, 1477, 1511, 2661]}, "edge": {"target": [], "time": []}}}, "displayed_time": "10.22", "trialTime": 13944, "trial_type": "mouselab-mdp", "trial_index": 45, "time_elapsed": 714676, "internal_node_id": "0.0-4.0-3.0-5.0"}}, {"uniqueid": "w12685848:a21304504", "current_trial": 46, "dateTime": 1664555870512, "trialdata": {"revealed_states": [], "num_clicks_accrued": [0, 0, 0, 0, 0, 0, 0, 0, 0, 0, 0, 0, 0], "stateRewards": ["", -2, -4, 48, 48, 2, 4, -48, 24, 4, -8, 24, -24], "withholdReward": true, "trial_id": "mdp_628613319495", "block": "test2", "trialIndex": 38, "score": 46.5, "costs": -0.5, "simulationMode": [null, null, null], "rewards": [-2, -4, 48], "path": ["0", "0", "1", "2", "4"], "rt": [3193, 57, 38], "actions": ["up", "up", "left"], "actionTimes": [14680, 15232, 15762], "queries": {"click": {"state": {"target": ["8", "4"], "time": [12765, 13897]}, "edge": {"target": [], "time": []}}, "mouseover": {"state": {"target": ["0", "5", "8", "5", "1", "4", "1"], "time": [11940, 12424, 12658, 13491, 13557, 13840, 14241]}, "edge": {"target": [], "time": []}}, "mouseout": {"state": {"target": ["9", "0", "5", "8", "8", "5", "1", "4"], "time": [11274, 12123, 12458, 12940, 13474, 13507, 13607, 14157]}, "edge": {"target": [], "time": []}}}, "displayed_time": "19.49", "trialTime": 21483, "trial_type": "mouselab-mdp", "trial_index": 46, "time_elapsed": 736187, "internal_node_id": "0.0-4.0-3.0-6.0"}}, {"uniqueid": "w12685848:a21304504", "current_trial": 47, "dateTime": 1664555881717, "trialdata": {"revealed_states": [], "num_clicks_accrued": [0, 0, 0, 0, 0, 0, 0, 0, 0, 0, 0, 0, 0], "stateRewards": ["", -4, -8, 48, 24, 4, -8, 24, -48, -2, -8, 24, -48], "withholdReward": true, "trial_id": "mdp_952038635544", "block": "test2", "trialIndex": 39, "score": 18.5, "costs": -0.5, "simulationMode": [null, null, null], "rewards": [-2, -8, 24], "path": ["0", "0", "9", "10", "11"], "rt": [2892, 174, 119], "actions": ["left", "left", "up"], "actionTimes": [3902, 4568, 5179], "queries": {"click": {"state": {"target": ["11", "8"], "time": [1957, 2869]}, "edge": {"target": [], "time": []}}, "mouseover": {"state": {"target": ["1", "4", "11", "11", "9", "0", "8", "8"], "time": [1376, 1443, 1576, 1877, 2276, 2310, 2360, 2743]}, "edge": {"target": [], "time": []}}, "mouseout": {"state": {"target": ["1", "5", "0", "1", "4", "11", "11", "9", "0", "8", "8"], "time": [610, 827, 1343, 1411, 1511, 1593, 2226, 2293, 2326, 2394, 3027]}, "edge": {"target": [], "time": []}}}, "displayed_time": "10.01", "trialTime": 11175, "trial_type": "mouselab-mdp", "trial_index": 47, "time_elapsed": 747392, "internal_node_id": "0.0-4.0-3.0-7.0"}}, {"uniqueid": "w12685848:a21304504", "current_trial": 48, "dateTime": 1664555896652, "trialdata": {"revealed_states": [], "num_clicks_accrued": [0, 0, 0, 0, 0, 0, 0, 0, 0, 0, 0, 0, 0], "stateRewards": ["", -4, -4, -24, 24, 4, 4, -24, -24, -4, 4, 24, 24], "withholdReward": true, "trial_id": "mdp_787781487383", "block": "test2", "trialIndex": 40, "score": 20.5, "costs": -0.5, "simulationMode": [null, null, null], "rewards": [-4, -4, 24], "path": ["0", "0", "1", "2", "4"], "rt": [3551, 23, 115], "actions": ["up", "up", "left"], "actionTimes": [7091, 7612, 8221], "queries": {"click": {"state": {"target": ["3", "4"], "time": [4414, 5905]}, "edge": {"target": [], "time": []}}, "mouseover": {"state": {"target": ["3", "2", "1", "8", "4", "1", "6"], "time": [4322, 4838, 4922, 5272, 5754, 6372, 6422]}, "edge": {"target": [], "time": []}}, "mouseout": {"state": {"target": ["8", "0", "3", "2", "1", "8", "4", "1", "6"], "time": [2588, 3822, 4772, 4855, 4955, 5523, 6339, 6388, 6438]}, "edge": {"target": [], "time": []}}}, "displayed_time": "12.54", "trialTime": 14905, "trial_type": "mouselab-mdp", "trial_index": 48, "time_elapsed": 762327, "internal_node_id": "0.0-4.0-3.0-8.0"}}, {"uniqueid": "w12685848:a21304504", "current_trial": 49, "dateTime": 1664555906613, "trialdata": {"revealed_states": [], "num_clicks_accrued": [0, 0, 0, 0, 0, 0, 0, 0, 0, 0, 0, 0, 0], "stateRewards": ["", 2, 8, 48, 24, -4, 4, -48, 24, 2, 8, 48, 48], "withholdReward": true, "trial_id": "mdp_367344599162", "block": "test2", "trialIndex": 41, "score": 62.5, "costs": -0.5, "simulationMode": [null, null, null], "rewards": [2, 8, 48], "path": ["0", "0", "9", "10", "11"], "rt": [4039, 87, 174], "actions": ["left", "left", "up"], "actionTimes": [5271, 5844, 6514], "queries": {"click": {"state": {"target": ["8", "11"], "time": [2636, 4408]}, "edge": {"target": [], "time": []}}, "mouseover": {"state": {"target": ["8", "8", "10", "11", "9"], "time": [2024, 2573, 4290, 4323, 4573]}, "edge": {"target": [], "time": []}}, "mouseout": {"state": {"target": ["0", "8", "8", "8", "10", "11", "9"], "time": [1956, 2256, 3007, 4006, 4307, 4540, 4590]}, "edge": {"target": [], "time": []}}}, "displayed_time": "9.23", "trialTime": 9934, "trial_type": "mouselab-mdp", "trial_index": 49, "time_elapsed": 772288, "internal_node_id": "0.0-4.0-3.0-9.0"}}, {"uniqueid": "w12685848:a21304504", "current_trial": 50, "dateTime": 1664555921244, "trialdata": {"revealed_states": [], "num_clicks_accrued": [0, 0, 0, 0, 0, 0, 0, 0, 0, 0, 0, 0, 0], "stateRewards": ["", -2, -8, 48, 24, 2, 8, -48, 24, -4, 8, 48, 48], "withholdReward": true, "trial_id": "mdp_875436109858", "block": "test2", "trialIndex": 42, "score": 56.75, "costs": -0.25, "simulationMode": [null, null, null], "rewards": [-4, 8, 48], "path": ["0", "0", "9", "10", "12"], "rt": [1554, 148, 235], "actions": ["left", "left", "down"], "actionTimes": [6558, 7191, 7912], "queries": {"click": {"state": {"target": ["12"], "time": [5602]}, "edge": {"target": [], "time": []}}, "mouseover": {"state": {"target": ["0", "12"], "time": [5259, 5493]}, "edge": {"target": [], "time": []}}, "mouseout": {"state": {"target": ["10", "0", "0", "12"], "time": [4576, 4759, 5310, 5893]}, "edge": {"target": [], "time": []}}}, "displayed_time": "14.00", "trialTime": 14601, "trial_type": "mouselab-mdp", "trial_index": 50, "time_elapsed": 786919, "internal_node_id": "0.0-4.0-3.0-10.0"}}, {"uniqueid": "w12685848:a21304504", "current_trial": 51, "dateTime": 1664555931220, "trialdata": {"revealed_states": [], "num_clicks_accrued": [0, 0, 0, 0, 0, 0, 0, 0, 0, 0, 0, 0, 0], "stateRewards": ["", -4, -8, -48, 48, -2, -8, -48, -24, 4, 8, 24, -48], "withholdReward": false, "trial_id": "mdp_509977295685", "block": "test2", "trialIndex": 43, "score": 40.5, "costs": -0.5, "simulationMode": [null, null, null], "rewards": [-4, -8, 48], "path": ["0", "0", "1", "2", "4"], "rt": [2265, 32, 77], "actions": ["up", "up", "left"], "actionTimes": [2787, 3310, 3889], "queries": {"click": {"state": {"target": ["3", "4"], "time": [1070, 1944]}, "edge": {"target": [], "time": []}}, "mouseover": {"state": {"target": ["3", "2", "4", "6"], "time": [978, 1760, 1828, 2327]}, "edge": {"target": [], "time": []}}, "mouseout": {"state": {"target": ["0", "3", "2", "4"], "time": [678, 1744, 1795, 2244]}, "edge": {"target": [], "time": []}}}, "displayed_time": "8.52", "trialTime": 9945, "trial_type": "mouselab-mdp", "trial_index": 51, "time_elapsed": 796895, "internal_node_id": "0.0-4.0-3.0-11.0"}}, {"uniqueid": "w12685848:a21304504", "current_trial": 52, "dateTime": 1664555941136, "trialdata": {"revealed_states": [], "num_clicks_accrued": [0, 0, 0, 0, 0, 0, 0, 0, 0, 0, 0, 0, 0], "stateRewards": ["", -4, -4, 24, -48, -2, 8, -24, -48, -4, 4, 24, -48], "withholdReward": true, "trial_id": "mdp_934626330092", "block": "test2", "trialIndex": 44, "score": 28.25, "costs": -0.75, "simulationMode": [null, null, null], "rewards": [-4, 4, 24], "path": ["0", "0", "9", "10", "11"], "rt": [4089, 461, 98], "actions": ["left", "left", "up"], "actionTimes": [5056, 6014, 6600], "queries": {"click": {"state": {"target": ["7", "8", "11"], "time": [1474, 2247, 4098]}, "edge": {"target": [], "time": []}}, "mouseover": {"state": {"target": ["5", "7", "6", "8", "1", "10", "11"], "time": [1236, 1368, 2035, 2135, 2902, 3118, 3618]}, "edge": {"target": [], "time": []}}, "mouseout": {"state": {"target": ["6", "5", "0", "5", "7", "6", "8", "1", "10", "11"], "time": [684, 718, 1202, 1268, 2018, 2085, 2435, 2918, 3302, 4486]}, "edge": {"target": [], "time": []}}}, "displayed_time": "8.97", "trialTime": 9885, "trial_type": "mouselab-mdp", "trial_index": 52, "time_elapsed": 806811, "internal_node_id": "0.0-4.0-3.0-12.0"}}, {"uniqueid": "w12685848:a21304504", "current_trial": 53, "dateTime": 1664555950123, "trialdata": {"revealed_states": [], "num_clicks_accrued": [0, 0, 0, 0, 0, 0, 0, 0, 0, 0, 0, 0, 0], "stateRewards": ["", 2, 8, 24, 24, 2, -8, -24, -48, 2, 8, -48, 48], "withholdReward": true, "trial_id": "mdp_745175888812", "block": "test2", "trialIndex": 45, "score": 38.5, "costs": -0.5, "simulationMode": [null, null, null], "rewards": [2, 8, 24], "path": ["0", "0", "1", "2", "4"], "rt": [3030, 34, 75], "actions": ["up", "up", "left"], "actionTimes": [3694, 4224, 4816], "queries": {"click": {"state": {"target": ["3", "4"], "time": [1280, 2047]}, "edge": {"target": [], "time": []}}, "mouseover": {"state": {"target": ["5", "3", "2", "4", "1", "6", "8"], "time": [957, 1190, 1857, 1940, 2390, 2457, 2773]}, "edge": {"target": [], "time": []}}, "mouseout": {"state": {"target": ["5", "0", "5", "3", "2", "4", "1", "6", "8"], "time": [489, 890, 1040, 1840, 1907, 2339, 2423, 2508, 3074]}, "edge": {"target": [], "time": []}}}, "displayed_time": "8.66", "trialTime": 8960, "trial_type": "mouselab-mdp", "trial_index": 53, "time_elapsed": 815798, "internal_node_id": "0.0-4.0-3.0-13.0"}}, {"uniqueid": "w12685848:a21304504", "current_trial": 54, "dateTime": 1664555961405, "trialdata": {"revealed_states": [], "num_clicks_accrued": [0, 0, 0, 0, 0, 0, 0, 0, 0, 0, 0, 0, 0], "stateRewards": ["", -2, -8, 24, -48, 4, 4, -24, -48, -2, -8, -48, 24], "withholdReward": false, "trial_id": "mdp_556006673466", "block": "test2", "trialIndex": 46, "score": 17.5, "costs": -1.5, "simulationMode": [null, null, null], "rewards": [-2, -8, 24], "path": ["0", "0", "1", "2", "3"], "rt": [7143, 92, 282], "actions": ["up", "up", "right"], "actionTimes": [7637, 8228, 9018], "queries": {"click": {"state": {"target": ["7", "12", "3", "4", "8", "11"], "time": [1082, 2082, 3409, 4105, 4998, 6142]}, "edge": {"target": [], "time": []}}, "mouseover": {"state": {"target": ["0", "5", "6", "7", "5", "0", "12", "9", "1", "3", "2", "4", "1", "5", "8", "0", "9", "11", "0", "5"], "time": [719, 752, 869, 1002, 1753, 1802, 1952, 2885, 2952, 3136, 3902, 3936, 4635, 4686, 4936, 5519, 5569, 5735, 6786, 6852]}, "edge": {"target": [], "time": []}}, "mouseout": {"state": {"target": ["0", "0", "5", "6", "7", "5", "0", "12", "9", "1", "3", "2", "4", "1", "5", "8", "8", "0", "9", "11", "0", "5"], "time": [436, 735, 836, 952, 1702, 1769, 1835, 2853, 2902, 3002, 3869, 3920, 4585, 4670, 4702, 5186, 5452, 5536, 5603, 6702, 6819, 6953]}, "edge": {"target": [], "time": []}}}, "displayed_time": "9.52", "trialTime": 11254, "trial_type": "mouselab-mdp", "trial_index": 54, "time_elapsed": 827080, "internal_node_id": "0.0-4.0-3.0-14.0"}}, {"uniqueid": "w12685848:a21304504", "current_trial": 55, "dateTime": 1664555977282, "trialdata": {"revealed_states": [], "num_clicks_accrued": [0, 0, 0, 0, 0, 0, 0, 0, 0, 0, 0, 0, 0], "stateRewards": ["", 2, 8, -48, -24, 4, 4, 24, 48, 4, -4, -48, 48], "withholdReward": true, "trial_id": "mdp_665096999232", "block": "test2", "trialIndex": 47, "score": 60.75, "costs": -0.25, "simulationMode": [null, null, null], "rewards": [4, 4, 48], "path": ["0", "0", "5", "6", "8"], "rt": [1975, 113, 370], "actions": ["right", "right", "down"], "actionTimes": [7282, 7882, 8740], "queries": {"click": {"state": {"target": ["8"], "time": [6234]}, "edge": {"target": [], "time": []}}, "mouseover": {"state": {"target": ["8", "8"], "time": [5769, 6036]}, "edge": {"target": [], "time": []}}, "mouseout": {"state": {"target": ["0", "8", "8"], "time": [5653, 5819, 6636]}, "edge": {"target": [], "time": []}}}, "displayed_time": "14.31", "trialTime": 15848, "trial_type": "mouselab-mdp", "trial_index": 55, "time_elapsed": 842957, "internal_node_id": "0.0-4.0-3.0-15.0"}}, {"uniqueid": "w12685848:a21304504", "current_trial": 56, "dateTime": 1664555988330, "trialdata": {"revealed_states": [], "num_clicks_accrued": [0, 0, 0, 0, 0, 0, 0, 0, 0, 0, 0, 0, 0], "stateRewards": ["", -2, -8, -24, 48, -2, -8, -48, -48, 2, -8, -48, 24], "withholdReward": true, "trial_id": "mdp_288324580942", "block": "test2", "trialIndex": 48, "score": 42, "costs": -1, "simulationMode": [null, null, null], "rewards": [-2, -8, 48], "path": ["0", "0", "1", "2", "4"], "rt": [4790, 105, 176], "actions": ["up", "up", "left"], "actionTimes": [6165, 6762, 7433], "queries": {"click": {"state": {"target": ["7", "11", "3", "4"], "time": [2225, 3412, 4509, 5129]}, "edge": {"target": [], "time": []}}, "mouseover": {"state": {"target": ["5", "6", "7", "11", "0", "0", "1", "3", "4", "1", "5", "8"], "time": [1556, 1623, 2089, 3090, 3773, 4140, 4189, 4390, 4990, 5457, 5523, 5556]}, "edge": {"target": [], "time": []}}, "mouseout": {"state": {"target": ["8", "8", "8", "5", "0", "5", "6", "7", "11", "0", "0", "1", "3", "4", "1", "5", "8"], "time": [589, 939, 1089, 1256, 1523, 1590, 1723, 2690, 3706, 3790, 4156, 4289, 4740, 5356, 5473, 5540, 5573]}, "edge": {"target": [], "time": []}}}, "displayed_time": "9.38", "trialTime": 11016, "trial_type": "mouselab-mdp", "trial_index": 56, "time_elapsed": 854005, "internal_node_id": "0.0-4.0-3.0-16.0"}}, {"uniqueid": "w12685848:a21304504", "current_trial": 57, "dateTime": 1664556000493, "trialdata": {"revealed_states": [], "num_clicks_accrued": [0, 0, 0, 0, 0, 0, 0, 0, 0, 0, 0, 0, 0], "stateRewards": ["", -4, -4, -48, 48, -4, -8, -24, -48, -2, 8, 48, 24], "withholdReward": false, "trial_id": "mdp_365393526663", "block": "test2", "trialIndex": 49, "score": 33.25, "costs": -1.75, "simulationMode": [null, null, null], "rewards": [-2, 8, 24], "path": ["0", "0", "9", "10", "12"], "rt": [6368, 60, 49], "actions": ["left", "left", "down"], "actionTimes": [8683, 9237, 9793], "queries": {"click": {"state": {"target": ["7", "5", "6", "3", "12", "9", "10"], "time": [2819, 3597, 4082, 5229, 6330, 7154, 7792]}, "edge": {"target": [], "time": []}}, "mouseover": {"state": {"target": ["5", "6", "7", "7", "6", "5", "6", "8", "8", "3", "2", "9", "12", "9", "10"], "time": [2545, 2610, 2694, 2744, 3427, 3544, 4044, 4444, 4677, 5177, 5711, 5994, 6227, 7094, 7678]}, "edge": {"target": [], "time": []}}, "mouseout": {"state": {"target": ["8", "5", "5", "6", "7", "7", "6", "5", "6", "8", "8", "5", "3", "2", "9", "12", "9", "10"], "time": [1978, 2095, 2577, 2644, 2727, 3261, 3461, 3960, 4294, 4494, 4794, 4910, 5644, 5761, 6061, 6977, 7327, 7944]}, "edge": {"target": [], "time": []}}}, "displayed_time": "10.32", "trialTime": 12132, "trial_type": "mouselab-mdp", "trial_index": 57, "time_elapsed": 866167, "internal_node_id": "0.0-4.0-3.0-17.0"}}, {"uniqueid": "w12685848:a21304504", "current_trial": 58, "dateTime": 1664556009934, "trialdata": {"revealed_states": [], "num_clicks_accrued": [0, 0, 0, 0, 0, 0, 0, 0, 0, 0, 0, 0, 0], "stateRewards": ["", -2, -4, -24, -48, 2, -8, -24, -24, 4, -8, 48, 48], "withholdReward": true, "trial_id": "mdp_950599994674", "block": "test2", "trialIndex": 50, "score": 47.25, "costs": -1.75, "simulationMode": [null, null, null], "rewards": [4, -8, 48], "path": ["0", "0", "9", "10", "11"], "rt": [6234, 108, 62], "actions": ["left", "left", "up"], "actionTimes": [7258, 7859, 8413], "queries": {"click": {"state": {"target": ["3", "1", "2", "8", "11", "9", "10"], "time": [2617, 3248, 3720, 4616, 5585, 6166, 6453]}, "edge": {"target": [], "time": []}}, "mouseover": {"state": {"target": ["0", "1", "2", "3", "1", "2", "0", "8", "10", "11", "9", "10"], "time": [1700, 1834, 2117, 2451, 3134, 3617, 4184, 4450, 5417, 5517, 6034, 6384]}, "edge": {"target": [], "time": []}}, "mouseout": {"state": {"target": ["0", "0", "1", "2", "3", "1", "2", "0", "8", "10", "11", "9", "10"], "time": [1384, 1734, 1950, 2351, 2950, 3584, 3917, 4201, 5217, 5467, 5917, 6334, 6618]}, "edge": {"target": [], "time": []}}}, "displayed_time": "9.03", "trialTime": 9414, "trial_type": "mouselab-mdp", "trial_index": 58, "time_elapsed": 875609, "internal_node_id": "0.0-4.0-3.0-18.0"}}, {"uniqueid": "w12685848:a21304504", "current_trial": 59, "dateTime": 1664556021228, "trialdata": {"revealed_states": [], "num_clicks_accrued": [0, 0, 0, 0, 0, 0, 0, 0, 0, 0, 0, 0, 0], "stateRewards": ["", -4, -8, -24, 24, 2, 8, 24, 48, 2, 4, 24, -48], "withholdReward": true, "trial_id": "mdp_122352383932", "block": "test2", "trialIndex": 51, "score": 62, "costs": -1, "simulationMode": [null, null, null], "rewards": [2, 8, 48], "path": ["0", "0", "5", "6", "8"], "rt": [5037, 65, 84], "actions": ["right", "right", "down"], "actionTimes": [7864, 8427, 8996], "queries": {"click": {"state": {"target": ["7", "8", "6", "5"], "time": [4245, 6176, 6785, 7111]}, "edge": {"target": [], "time": []}}, "mouseover": {"state": {"target": ["5", "6", "7", "6", "8", "6", "5"], "time": [3195, 4062, 4129, 5744, 6045, 6678, 7012]}, "edge": {"target": [], "time": []}}, "mouseout": {"state": {"target": ["0", "5", "6", "7", "6", "8", "6", "5", "8"], "time": [3129, 3245, 4095, 5712, 5812, 6629, 6978, 7295, 7345]}, "edge": {"target": [], "time": []}}}, "displayed_time": "10.83", "trialTime": 11267, "trial_type": "mouselab-mdp", "trial_index": 59, "time_elapsed": 886903, "internal_node_id": "0.0-4.0-3.0-19.0"}}, {"uniqueid": "w12685848:a21304504", "current_trial": 60, "dateTime": 1664556035172, "trialdata": {"revealed_states": [], "num_clicks_accrued": [0, 0, 0, 0, 0, 0, 0, 0, 0, 0, 0, 0, 0], "stateRewards": ["", -4, -8, -24, 24, 4, 4, -48, -48, -4, -4, 24, -48], "withholdReward": true, "trial_id": "mdp_431592223624", "block": "test2", "trialIndex": 52, "score": 15, "costs": -2, "simulationMode": [null, null, null], "rewards": [-4, -8, 24], "path": ["0", "0", "1", "2", "4"], "rt": [6809, 76, 65], "actions": ["up", "up", "left"], "actionTimes": [8253, 8831, 9387], "queries": {"click": {"state": {"target": ["12", "3", "7", "8", "11", "4", "1", "2"], "time": [2017, 2782, 3955, 4645, 5288, 6295, 7224, 7502]}, "edge": {"target": [], "time": []}}, "mouseover": {"state": {"target": ["12", "0", "5", "3", "2", "4", "1", "7", "6", "8", "9", "10", "11", "4", "1", "2"], "time": [1871, 2421, 2455, 2671, 3154, 3253, 3438, 3921, 4354, 4489, 5038, 5089, 5188, 5838, 7037, 7422]}, "edge": {"target": [], "time": []}}, "mouseout": {"state": {"target": ["8", "10", "9", "0", "12", "0", "5", "3", "2", "4", "1", "7", "6", "8", "9", "10", "11", "4", "1", "2", "7"], "time": [888, 1137, 1187, 1671, 2371, 2438, 2471, 3137, 3203, 3338, 3471, 4304, 4437, 4938, 5071, 5104, 5688, 6737, 7354, 7654, 7754]}, "edge": {"target": [], "time": []}}}, "displayed_time": "10.44", "trialTime": 13921, "trial_type": "mouselab-mdp", "trial_index": 60, "time_elapsed": 900847, "internal_node_id": "0.0-4.0-3.0-20.0"}}, {"uniqueid": "w12685848:a21304504", "current_trial": 61, "dateTime": 1664556047502, "trialdata": {"revealed_states": [], "num_clicks_accrued": [0, 0, 0, 0, 0, 0, 0, 0, 0, 0, 0, 0, 0], "stateRewards": ["", 4, 8, -24, 48, -2, -4, 24, -24, -2, 4, 24, 24], "withholdReward": true, "trial_id": "mdp_948713805479", "block": "test2", "trialIndex": 53, "score": 30.75, "costs": -0.25, "simulationMode": [null, null, null], "rewards": [-2, 4, 24], "path": ["0", "0", "9", "10", "12"], "rt": [2010, 178, 146], "actions": ["left", "left", "down"], "actionTimes": [4103, 4778, 5413], "queries": {"click": {"state": {"target": ["12"], "time": [2626]}, "edge": {"target": [], "time": []}}, "mouseover": {"state": {"target": ["9", "12"], "time": [2416, 2567]}, "edge": {"target": [], "time": []}}, "mouseout": {"state": {"target": ["7", "9", "9", "12"], "time": [1633, 1900, 2466, 2966]}, "edge": {"target": [], "time": []}}}, "displayed_time": "10.09", "trialTime": 12296, "trial_type": "mouselab-mdp", "trial_index": 61, "time_elapsed": 913177, "internal_node_id": "0.0-4.0-3.0-21.0"}}, {"uniqueid": "w12685848:a21304504", "current_trial": 62, "dateTime": 1664556058240, "trialdata": {"revealed_states": [], "num_clicks_accrued": [0, 0, 0, 0, 0, 0, 0, 0, 0, 0, 0, 0, 0], "stateRewards": ["", 2, 4, -48, -48, 2, 4, 48, -24, -2, 8, 48, -48], "withholdReward": true, "trial_id": "mdp_258528916140", "block": "test2", "trialIndex": 54, "score": 58.25, "costs": -0.75, "simulationMode": [null, null, null], "rewards": [-2, 8, 48], "path": ["0", "0", "9", "10", "11"], "rt": [5243, 161, 348], "actions": ["left", "left", "up"], "actionTimes": [5921, 6575, 7411], "queries": {"click": {"state": {"target": ["3", "8", "11"], "time": [3030, 3953, 4971]}, "edge": {"target": [], "time": []}}, "mouseover": {"state": {"target": ["0", "3", "6", "8", "9", "11", "9", "0", "5"], "time": [2328, 2946, 3595, 3895, 4679, 4846, 5329, 5362, 5395]}, "edge": {"target": [], "time": []}}, "mouseout": {"state": {"target": ["0", "0", "3", "6", "8", "9", "11", "9", "0", "5", "8"], "time": [1028, 2379, 3412, 3629, 4545, 4695, 5295, 5346, 5379, 5412, 9996]}, "edge": {"target": [], "time": []}}}, "displayed_time": "9.68", "trialTime": 10713, "trial_type": "mouselab-mdp", "trial_index": 62, "time_elapsed": 923915, "internal_node_id": "0.0-4.0-3.0-22.0"}}, {"uniqueid": "w12685848:a21304504", "current_trial": 63, "dateTime": 1664556070362, "trialdata": {"revealed_states": [], "num_clicks_accrued": [0, 0, 0, 0, 0, 0, 0, 0, 0, 0, 0, 0, 0], "stateRewards": ["", 2, 4, 48, -48, 2, 8, -24, 48, 4, 8, 48, -48], "withholdReward": false, "trial_id": "mdp_110142964375", "block": "test2", "trialIndex": 55, "score": 58.25, "costs": -0.75, "simulationMode": [null, null, null], "rewards": [2, 4, 48], "path": ["0", "0", "1", "2", "3"], "rt": [3173, 311, 98], "actions": ["up", "up", "right"], "actionTimes": [5512, 6311, 6898], "queries": {"click": {"state": {"target": ["7", "12", "3"], "time": [2950, 3806, 4556]}, "edge": {"target": [], "time": []}}, "mouseover": {"state": {"target": ["5", "7", "6", "12", "0", "3"], "time": [2700, 2799, 3416, 3716, 4216, 4383]}, "edge": {"target": [], "time": []}}, "mouseout": {"state": {"target": ["0", "5", "7", "6", "12", "0", "3", "7", "7"], "time": [2666, 2733, 3316, 3483, 4150, 4234, 4850, 4933, 8667]}, "edge": {"target": [], "time": []}}}, "displayed_time": "11.34", "trialTime": 12088, "trial_type": "mouselab-mdp", "trial_index": 63, "time_elapsed": 936036, "internal_node_id": "0.0-4.0-3.0-23.0"}}, {"uniqueid": "w12685848:a21304504", "current_trial": 64, "dateTime": 1664556081165, "trialdata": {"revealed_states": [], "num_clicks_accrued": [0, 0, 0, 0, 0, 0, 0, 0, 0, 0, 0, 0, 0], "stateRewards": ["", -2, -4, -48, -48, 4, 8, 24, -48, 4, -8, 24, 24], "withholdReward": true, "trial_id": "mdp_749799219195", "block": "test2", "trialIndex": 56, "score": 24.75, "costs": -0.25, "simulationMode": [null, null, null], "rewards": [4, -8, 24], "path": ["0", "0", "9", "10", "12"], "rt": [1479, 92, 100], "actions": ["left", "left", "down"], "actionTimes": [2147, 2725, 3317], "queries": {"click": {"state": {"target": ["12"], "time": [1124]}, "edge": {"target": [], "time": []}}, "mouseover": {"state": {"target": ["12"], "time": [1034]}, "edge": {"target": [], "time": []}}, "mouseout": {"state": {"target": ["0", "12"], "time": [866, 1616]}, "edge": {"target": [], "time": []}}}, "displayed_time": "8.67", "trialTime": 10775, "trial_type": "mouselab-mdp", "trial_index": 64, "time_elapsed": 946840, "internal_node_id": "0.0-4.0-3.0-24.0"}}, {"uniqueid": "w12685848:a21304504", "current_trial": 65, "dateTime": 1664556092774, "trialdata": {"revealed_states": [], "num_clicks_accrued": [0, 0, 0, 0, 0, 0, 0, 0, 0, 0, 0, 0, 0], "stateRewards": ["", -4, 4, -24, 48, -2, 8, -48, 24, 2, 4, 48, -48], "withholdReward": false, "trial_id": "mdp_366632183904", "block": "test2", "trialIndex": 57, "score": 52.5, "costs": -0.5, "simulationMode": [null, null, null], "rewards": [-4, 4, 48], "path": ["0", "0", "1", "2", "4"], "rt": [2447, 72, 76], "actions": ["up", "up", "left"], "actionTimes": [4953, 5518, 6089], "queries": {"click": {"state": {"target": ["7", "4"], "time": [3139, 3895]}, "edge": {"target": [], "time": []}}, "mouseover": {"state": {"target": ["5", "6", "7", "4", "5"], "time": [2781, 2831, 3047, 3779, 4396]}, "edge": {"target": [], "time": []}}, "mouseout": {"state": {"target": ["0", "5", "6", "7", "4", "5", "8"], "time": [2731, 2814, 2896, 3596, 4296, 8396, 9063]}, "edge": {"target": [], "time": []}}}, "displayed_time": "10.51", "trialTime": 11580, "trial_type": "mouselab-mdp", "trial_index": 65, "time_elapsed": 958448, "internal_node_id": "0.0-4.0-3.0-25.0"}}, {"uniqueid": "w12685848:a21304504", "current_trial": 66, "dateTime": 1664556107572, "trialdata": {"revealed_states": [], "num_clicks_accrued": [0, 0, 0, 0, 0, 0, 0, 0, 0, 0, 0, 0, 0], "stateRewards": ["", 4, -8, -24, 24, 2, -4, 24, 24, 2, -4, 48, 48], "withholdReward": true, "trial_id": "mdp_457607480918", "block": "test2", "trialIndex": 58, "score": 26.5, "costs": -0.5, "simulationMode": [null, null, null], "rewards": [2, -4, 24], "path": ["0", "0", "5", "6", "7"], "rt": [2576, 44, 96], "actions": ["right", "right", "up"], "actionTimes": [7427, 7966, 8568], "queries": {"click": {"state": {"target": ["8", "7"], "time": [5555, 6539]}, "edge": {"target": [], "time": []}}, "mouseover": {"state": {"target": ["0", "8", "6", "7"], "time": [5077, 5439, 6340, 6406]}, "edge": {"target": [], "time": []}}, "mouseout": {"state": {"target": ["0", "0", "8", "6", "7", "8"], "time": [4805, 5189, 6322, 6389, 6805, 14021]}, "edge": {"target": [], "time": []}}}, "displayed_time": "13.85", "trialTime": 14770, "trial_type": "mouselab-mdp", "trial_index": 66, "time_elapsed": 973247, "internal_node_id": "0.0-4.0-3.0-26.0"}}, {"uniqueid": "w12685848:a21304504", "current_trial": 67, "dateTime": 1664556117511, "trialdata": {"revealed_states": [], "num_clicks_accrued": [0, 0, 0, 0, 0, 0, 0, 0, 0, 0, 0, 0, 0], "stateRewards": ["", -2, 8, -24, 24, 2, -8, 48, -24, 2, 8, -24, -24], "withholdReward": true, "trial_id": "mdp_674708270444", "block": "test2", "trialIndex": 59, "score": 46, "costs": -1, "simulationMode": [null, null, null], "rewards": [2, -8, 48], "path": ["0", "0", "5", "6", "7"], "rt": [3437, 151, 148], "actions": ["right", "right", "up"], "actionTimes": [4099, 4741, 5387], "queries": {"click": {"state": {"target": ["12", "3", "4", "7"], "time": [1042, 1760, 2399, 3065]}, "edge": {"target": [], "time": []}}, "mouseover": {"state": {"target": ["12", "3", "1", "4", "1", "7", "6", "8"], "time": [907, 1640, 2108, 2273, 2673, 2957, 3289, 3490]}, "edge": {"target": [], "time": []}}, "mouseout": {"state": {"target": ["0", "12", "3", "1", "4", "1", "7", "6", "8"], "time": [823, 1324, 1923, 2141, 2574, 2740, 3206, 3390, 3523]}, "edge": {"target": [], "time": []}}}, "displayed_time": "8.66", "trialTime": 9910, "trial_type": "mouselab-mdp", "trial_index": 67, "time_elapsed": 983185, "internal_node_id": "0.0-4.0-3.0-27.0"}}, {"uniqueid": "w12685848:a21304504", "current_trial": 68, "dateTime": 1664556129331, "trialdata": {"revealed_states": [], "num_clicks_accrued": [0, 0, 0, 0, 0, 0, 0, 0, 0, 0, 0, 0, 0], "stateRewards": ["", 4, -4, 48, -48, -4, -4, 48, -48, 4, 4, -48, -24], "withholdReward": true, "trial_id": "mdp_490058671112", "block": "test2", "trialIndex": 60, "score": 52.25, "costs": -0.75, "simulationMode": [null, null, null], "rewards": [4, -4, 48], "path": ["0", "0", "1", "2", "3"], "rt": [2901, 7, 55], "actions": ["up", "up", "right"], "actionTimes": [4086, 4592, 5157], "queries": {"click": {"state": {"target": ["8", "11", "3"], "time": [1610, 2262, 3029]}, "edge": {"target": [], "time": []}}, "mouseover": {"state": {"target": ["8", "9", "11", "3"], "time": [1452, 2052, 2135, 2919]}, "edge": {"target": [], "time": []}}, "mouseout": {"state": {"target": ["8", "0", "8", "9", "11", "3"], "time": [802, 1336, 1968, 2086, 2519, 3219]}, "edge": {"target": [], "time": []}}}, "displayed_time": "10.19", "trialTime": 11792, "trial_type": "mouselab-mdp", "trial_index": 68, "time_elapsed": 995006, "internal_node_id": "0.0-4.0-3.0-28.0"}}, {"uniqueid": "w12685848:a21304504", "current_trial": 69, "dateTime": 1664556140602, "trialdata": {"revealed_states": [], "num_clicks_accrued": [0, 0, 0, 0, 0, 0, 0, 0, 0, 0, 0, 0, 0], "stateRewards": ["", -2, -4, -24, 48, -4, 8, 48, 48, 2, 8, -48, -24], "withholdReward": false, "trial_id": "mdp_136376573354", "block": "test2", "trialIndex": 61, "score": 46.75, "costs": -0.25, "simulationMode": [null, null, null], "rewards": [-2, -4, 48], "path": ["0", "0", "1", "2", "4"], "rt": [1395, 46, 46], "actions": ["up", "up", "left"], "actionTimes": [2364, 2896, 3446], "queries": {"click": {"state": {"target": ["4"], "time": [1433]}, "edge": {"target": [], "time": []}}, "mouseover": {"state": {"target": ["4", "1"], "time": [1382, 1882]}, "edge": {"target": [], "time": []}}, "mouseout": {"state": {"target": ["0", "4"], "time": [1116, 1785]}, "edge": {"target": [], "time": []}}}, "displayed_time": "8.97", "trialTime": 11245, "trial_type": "mouselab-mdp", "trial_index": 69, "time_elapsed": 1006277, "internal_node_id": "0.0-4.0-3.0-29.0"}}, {"uniqueid": "w12685848:a21304504", "current_trial": 70, "dateTime": 1664556142658, "trialdata": {"rt": 2053, "stimulus": "<h1> End of block! </h1>\n\nYou have reached the end of the block 2/4. If you need a short break, feel free to take one now before moving on.\n\n<br><br>\nIn the next block, you will complete another 30 rounds of this game.\n\n<br><br>\n<div style='text-align: center;'>Press <code>space</code> to begin.</div>\n<br><br>\n<div style='text-align: center;'>(If the experiment doesn't continue, try clicking on the text and then pressing <code>space</code>.)</div>", "response": " ", "trial_id": "mdp_ready_3", "trial_type": "html-keyboard-response", "trial_index": 70, "time_elapsed": 1008333, "internal_node_id": "0.0-4.0-4.0"}}, {"uniqueid": "w12685848:a21304504", "current_trial": 71, "dateTime": 1664556154589, "trialdata": {"revealed_states": [], "num_clicks_accrued": [0, 0, 0, 0, 0, 0, 0, 0, 0, 0, 0, 0, 0], "stateRewards": ["", -2, -8, 24, -48, 4, 4, -24, -48, -2, -8, -48, 24], "withholdReward": true, "trial_id": "mdp_556006673466", "block": "test3", "trialIndex": 62, "score": 18.5, "costs": -0.5, "simulationMode": [null, null, null], "rewards": [-2, -8, 24], "path": ["0", "0", "9", "10", "12"], "rt": [2871, 116, 57], "actions": ["left", "left", "down"], "actionTimes": [4268, 4869, 5427], "queries": {"click": {"state": {"target": ["7", "12"], "time": [2241, 3270]}, "edge": {"target": [], "time": []}}, "mouseover": {"state": {"target": ["5", "7", "7", "5", "12"], "time": [1770, 1820, 2136, 2686, 3153]}, "edge": {"target": [], "time": []}}, "mouseout": {"state": {"target": ["2", "5", "0", "5", "7", "7", "5", "12"], "time": [302, 969, 1737, 1787, 1870, 2636, 2704, 3569]}, "edge": {"target": [], "time": []}}}, "displayed_time": "9.40", "trialTime": 11901, "trial_type": "mouselab-mdp", "trial_index": 71, "time_elapsed": 1020263, "internal_node_id": "0.0-4.0-5.0-0.0"}}, {"uniqueid": "w12685848:a21304504", "current_trial": 72, "dateTime": 1664556165026, "trialdata": {"revealed_states": [], "num_clicks_accrued": [0, 0, 0, 0, 0, 0, 0, 0, 0, 0, 0, 0, 0], "stateRewards": ["", 2, 4, 48, 24, -2, -8, 24, 24, -2, 4, -48, 24], "withholdReward": true, "trial_id": "mdp_130849500124", "block": "test3", "trialIndex": 63, "score": 57.75, "costs": -1.25, "simulationMode": [null, null, null], "rewards": [2, 4, 48], "path": ["0", "0", "1", "2", "3"], "rt": [4654, 15, 63], "actions": ["up", "up", "right"], "actionTimes": [5747, 6253, 6838], "queries": {"click": {"state": {"target": ["11", "8", "7", "4", "3"], "time": [1603, 2540, 3185, 3756, 4538]}, "edge": {"target": [], "time": []}}, "mouseover": {"state": {"target": ["9", "11", "11", "9", "8", "6", "7", "4", "3", "1", "9", "12"], "time": [1222, 1338, 1522, 2006, 2405, 2938, 3038, 3656, 4405, 4689, 4756, 5005]}, "edge": {"target": [], "time": []}}, "mouseout": {"state": {"target": ["0", "9", "11", "11", "9", "8", "6", "7", "4", "7", "3", "1", "9", "12"], "time": [1206, 1255, 1356, 1888, 2055, 2889, 2988, 3438, 4022, 4188, 4672, 4722, 4773, 5188]}, "edge": {"target": [], "time": []}}}, "displayed_time": "10.09", "trialTime": 10408, "trial_type": "mouselab-mdp", "trial_index": 72, "time_elapsed": 1030701, "internal_node_id": "0.0-4.0-5.0-1.0"}}, {"uniqueid": "w12685848:a21304504", "current_trial": 73, "dateTime": 1664556175337, "trialdata": {"revealed_states": [], "num_clicks_accrued": [0, 0, 0, 0, 0, 0, 0, 0, 0, 0, 0, 0, 0], "stateRewards": ["", -2, 4, 24, 48, 2, 4, -48, -48, -2, 8, 48, -24], "withholdReward": true, "trial_id": "mdp_305701202606", "block": "test3", "trialIndex": 64, "score": 53.75, "costs": -1.25, "simulationMode": [null, null, null], "rewards": [-2, 4, 48], "path": ["0", "0", "1", "2", "4"], "rt": [4957, 12, 126], "actions": ["up", "up", "left"], "actionTimes": [6158, 6665, 7296], "queries": {"click": {"state": {"target": ["12", "7", "3", "8", "4"], "time": [1613, 2623, 3417, 4520, 5350]}, "edge": {"target": [], "time": []}}, "mouseover": {"state": {"target": ["9", "12", "7", "3", "8", "5", "1", "4", "1", "6"], "time": [1403, 1502, 2536, 3303, 4420, 4954, 5069, 5219, 5570, 5687]}, "edge": {"target": [], "time": []}}, "mouseout": {"state": {"target": ["9", "9", "12", "7", "3", "7", "8", "5", "1", "4", "1"], "time": [1036, 1436, 2086, 3237, 3737, 3836, 4920, 4970, 5154, 5519, 5586]}, "edge": {"target": [], "time": []}}}, "displayed_time": "9.20", "trialTime": 10283, "trial_type": "mouselab-mdp", "trial_index": 73, "time_elapsed": 1041012, "internal_node_id": "0.0-4.0-5.0-2.0"}}, {"uniqueid": "w12685848:a21304504", "current_trial": 74, "dateTime": 1664556188180, "trialdata": {"revealed_states": [], "num_clicks_accrued": [0, 0, 0, 0, 0, 0, 0, 0, 0, 0, 0, 0, 0], "stateRewards": ["", 4, 4, 24, 24, 4, -4, 48, 48, 4, 4, 24, -48], "withholdReward": true, "trial_id": "mdp_454251689008", "block": "test3", "trialIndex": 65, "score": 36.75, "costs": -0.25, "simulationMode": [null, null, null], "rewards": [4, 4, 24], "path": ["0", "0", "9", "10", "11"], "rt": [1874, 66, 105], "actions": ["left", "left", "up"], "actionTimes": [6049, 6609, 7230], "queries": {"click": {"state": {"target": ["11"], "time": [4707]}, "edge": {"target": [], "time": []}}, "mouseover": {"state": {"target": ["9", "11", "9"], "time": [4426, 4609, 5475]}, "edge": {"target": [], "time": []}}, "mouseout": {"state": {"target": ["6", "5", "0", "9", "11", "9"], "time": [1076, 3275, 4409, 4508, 5425, 5509]}, "edge": {"target": [], "time": []}}}, "displayed_time": "12.18", "trialTime": 12814, "trial_type": "mouselab-mdp", "trial_index": 74, "time_elapsed": 1053854, "internal_node_id": "0.0-4.0-5.0-3.0"}}, {"uniqueid": "w12685848:a21304504", "current_trial": 75, "dateTime": 1664556202745, "trialdata": {"revealed_states": [], "num_clicks_accrued": [0, 0, 0, 0, 0, 0, 0, 0, 0, 0, 0, 0, 0], "stateRewards": ["", -4, 8, 24, -48, -4, -8, -24, 24, 2, -4, -48, 24], "withholdReward": true, "trial_id": "mdp_898449441629", "block": "test3", "trialIndex": 66, "score": 15, "costs": -2, "simulationMode": [null, null, null], "rewards": [-4, -8, 24], "path": ["0", "0", "5", "6", "8"], "rt": [9532, 621, 127], "actions": ["right", "right", "down"], "actionTimes": [11316, 12439, 13061], "queries": {"click": {"state": {"target": ["7", "8", "3", "4", "12", "11", "5", "6"], "time": [2652, 3583, 4544, 5366, 6137, 6776, 9447, 9754]}, "edge": {"target": [], "time": []}}, "mouseover": {"state": {"target": ["5", "7", "6", "8", "6", "3", "1", "4", "4", "10", "12", "10", "11", "9", "6", "5", "6"], "time": [2017, 2534, 3217, 3351, 4183, 4350, 4917, 5067, 5283, 5851, 5967, 6501, 6650, 7017, 8900, 9333, 9633]}, "edge": {"target": [], "time": []}}, "mouseout": {"state": {"target": ["0", "5", "7", "6", "8", "6", "7", "3", "1", "4", "4", "10", "12", "10", "11", "9", "6", "5", "6"], "time": [1983, 2033, 3150, 3283, 4050, 4200, 4251, 4850, 4933, 5083, 5668, 5867, 6483, 6550, 6967, 7033, 8917, 9567, 9918]}, "edge": {"target": [], "time": []}}}, "displayed_time": "13.55", "trialTime": 14538, "trial_type": "mouselab-mdp", "trial_index": 75, "time_elapsed": 1068420, "internal_node_id": "0.0-4.0-5.0-4.0"}}, {"uniqueid": "w12685848:a21304504", "current_trial": 76, "dateTime": 1664556219706, "trialdata": {"revealed_states": [], "num_clicks_accrued": [0, 0, 0, 0, 0, 0, 0, 0, 0, 0, 0, 0, 0], "stateRewards": ["", 2, 4, 48, 48, 4, -8, 24, -48, -4, -8, -24, -48], "withholdReward": true, "trial_id": "mdp_343818007251", "block": "test3", "trialIndex": 67, "score": 58.75, "costs": -0.25, "simulationMode": [null, null, null], "rewards": [2, 4, 48], "path": ["0", "0", "1", "2", "3"], "rt": [1710, 56, 10], "actions": ["up", "up", "right"], "actionTimes": [4392, 4940, 5444], "queries": {"click": {"state": {"target": ["3"], "time": [3474]}, "edge": {"target": [], "time": []}}, "mouseover": {"state": {"target": ["1", "3"], "time": [3050, 3267]}, "edge": {"target": [], "time": []}}, "mouseout": {"state": {"target": ["8", "0", "1", "3", "7"], "time": [2366, 3001, 3083, 3867, 7616]}, "edge": {"target": [], "time": []}}}, "displayed_time": "11.68", "trialTime": 16932, "trial_type": "mouselab-mdp", "trial_index": 76, "time_elapsed": 1085381, "internal_node_id": "0.0-4.0-5.0-5.0"}}, {"uniqueid": "w12685848:a21304504", "current_trial": 77, "dateTime": 1664556230798, "trialdata": {"revealed_states": [], "num_clicks_accrued": [0, 0, 0, 0, 0, 0, 0, 0, 0, 0, 0, 0, 0], "stateRewards": ["", -4, 4, 24, 24, 4, -8, 48, -48, -2, -8, 24, 24], "withholdReward": true, "trial_id": "mdp_395264223239", "block": "test3", "trialIndex": 68, "score": 48.25, "costs": -0.75, "simulationMode": [null, null, null], "rewards": [4, -8, 48], "path": ["0", "0", "5", "6", "7"], "rt": [4000, 73, 181], "actions": ["right", "right", "up"], "actionTimes": [5313, 5872, 6547], "queries": {"click": {"state": {"target": ["12", "11", "7"], "time": [1940, 3278, 4198]}, "edge": {"target": [], "time": []}}, "mouseover": {"state": {"target": ["10", "12", "10", "11", "9", "0", "5", "7"], "time": [1800, 1865, 3065, 3150, 3715, 3750, 3965, 4099]}, "edge": {"target": [], "time": []}}, "mouseout": {"state": {"target": ["0", "10", "12", "10", "11", "9", "0", "5", "7"], "time": [1549, 1833, 2980, 3116, 3683, 3732, 3950, 4015, 4516]}, "edge": {"target": [], "time": []}}}, "displayed_time": "10.31", "trialTime": 11055, "trial_type": "mouselab-mdp", "trial_index": 77, "time_elapsed": 1096472, "internal_node_id": "0.0-4.0-5.0-6.0"}}, {"uniqueid": "w12685848:a21304504", "current_trial": 78, "dateTime": 1664556242403, "trialdata": {"revealed_states": [], "num_clicks_accrued": [0, 0, 0, 0, 0, 0, 0, 0, 0, 0, 0, 0, 0], "stateRewards": ["", 2, -4, 24, 48, -2, 4, -48, -48, -4, 4, 24, -24], "withholdReward": true, "trial_id": "mdp_900363662757", "block": "test3", "trialIndex": 69, "score": 49.75, "costs": -1.25, "simulationMode": [null, null, null], "rewards": [2, -4, 48], "path": ["0", "0", "1", "2", "4"], "rt": [6899, 103, 61], "actions": ["up", "up", "left"], "actionTimes": [8293, 8903, 9461], "queries": {"click": {"state": {"target": ["3", "8", "11", "7", "4"], "time": [2340, 3300, 4150, 6541, 7241]}, "edge": {"target": [], "time": []}}, "mouseover": {"state": {"target": ["5", "6", "7", "3", "7", "6", "8", "9", "11", "7", "4", "9"], "time": [1650, 1718, 1816, 2216, 2983, 3017, 3099, 3849, 4033, 5001, 7149, 7633]}, "edge": {"target": [], "time": []}}, "mouseout": {"state": {"target": ["6", "9", "0", "5", "6", "7", "3", "7", "6", "8", "9", "11", "7", "4", "9"], "time": [850, 966, 1616, 1717, 1733, 1883, 2749, 2999, 3049, 3566, 3900, 4533, 6967, 7499, 7717]}, "edge": {"target": [], "time": []}}}, "displayed_time": "10.39", "trialTime": 11578, "trial_type": "mouselab-mdp", "trial_index": 78, "time_elapsed": 1108078, "internal_node_id": "0.0-4.0-5.0-7.0"}}, {"uniqueid": "w12685848:a21304504", "current_trial": 79, "dateTime": 1664556257336, "trialdata": {"revealed_states": [], "num_clicks_accrued": [0, 0, 0, 0, 0, 0, 0, 0, 0, 0, 0, 0, 0], "stateRewards": ["", -2, 4, -24, 24, -4, -8, 24, -48, -4, -4, -48, -24], "withholdReward": false, "trial_id": "mdp_753137520419", "block": "test3", "trialIndex": 70, "score": 15, "costs": -2, "simulationMode": [null, null, null], "rewards": [-4, -8, 24], "path": ["0", "0", "5", "6", "7"], "rt": [8208, 32, 56], "actions": ["right", "right", "up"], "actionTimes": [12039, 12560, 13134], "queries": {"click": {"state": {"target": ["12", "3", "8", "11", "7", "4", "5", "6"], "time": [4869, 5729, 6849, 7555, 8202, 9004, 10600, 10860]}, "edge": {"target": [], "time": []}}, "mouseover": {"state": {"target": ["9", "12", "0", "3", "2", "0", "8", "9", "11", "1", "7", "1", "4", "1", "5", "5", "6"], "time": [4278, 4587, 5411, 5594, 6094, 6393, 6727, 7311, 7477, 7929, 8077, 8661, 8878, 9344, 9844, 10477, 10760]}, "edge": {"target": [], "time": []}}, "mouseout": {"state": {"target": ["0", "9", "12", "0", "3", "2", "0", "8", "9", "11", "1", "7", "1", "4", "1", "5", "5", "6"], "time": [4243, 4327, 5327, 5427, 6061, 6111, 6428, 7161, 7360, 7877, 7944, 8594, 8711, 9194, 9627, 9960, 10728, 11044]}, "edge": {"target": [], "time": []}}}, "displayed_time": "13.63", "trialTime": 14905, "trial_type": "mouselab-mdp", "trial_index": 79, "time_elapsed": 1123011, "internal_node_id": "0.0-4.0-5.0-8.0"}}, {"uniqueid": "w12685848:a21304504", "current_trial": 80, "dateTime": 1664556268580, "trialdata": {"revealed_states": [], "num_clicks_accrued": [0, 0, 0, 0, 0, 0, 0, 0, 0, 0, 0, 0, 0], "stateRewards": ["", -4, -8, 48, 24, 4, -8, 24, -48, -2, -8, 24, -48], "withholdReward": true, "trial_id": "mdp_952038635544", "block": "test3", "trialIndex": 71, "score": 40, "costs": -1, "simulationMode": [null, null, null], "rewards": [-4, -8, 48], "path": ["0", "0", "1", "2", "3"], "rt": [3772, 90, 27], "actions": ["up", "up", "right"], "actionTimes": [5695, 6287, 6841], "queries": {"click": {"state": {"target": ["12", "7", "4", "3"], "time": [2752, 3634, 4511, 5234]}, "edge": {"target": [], "time": []}}, "mouseover": {"state": {"target": ["5", "12", "5", "7", "2", "4", "2", "3"], "time": [2278, 2695, 3212, 3512, 4179, 4412, 4946, 5079]}, "edge": {"target": [], "time": []}}, "mouseout": {"state": {"target": ["5", "0", "5", "12", "5", "7", "2", "4", "2", "3", "7"], "time": [1646, 2162, 2313, 3096, 3279, 4078, 4212, 4896, 4995, 5713, 5913]}, "edge": {"target": [], "time": []}}}, "displayed_time": "10.92", "trialTime": 11217, "trial_type": "mouselab-mdp", "trial_index": 80, "time_elapsed": 1134255, "internal_node_id": "0.0-4.0-5.0-9.0"}}, {"uniqueid": "w12685848:a21304504", "current_trial": 81, "dateTime": 1664556278765, "trialdata": {"revealed_states": [], "num_clicks_accrued": [0, 0, 0, 0, 0, 0, 0, 0, 0, 0, 0, 0, 0], "stateRewards": ["", 2, -8, 24, 24, 2, 4, -48, -48, 4, 4, -24, 48], "withholdReward": false, "trial_id": "mdp_985707010949", "block": "test3", "trialIndex": 72, "score": 59.5, "costs": -1.5, "simulationMode": [null, null, null], "rewards": [4, 4, 48], "path": ["0", "0", "9", "10", "12"], "rt": [5834, 143, 100], "actions": ["left", "left", "down"], "actionTimes": [6840, 7497, 8089], "queries": {"click": {"state": {"target": ["11", "8", "7", "3", "4", "12"], "time": [1835, 2609, 3378, 4224, 5130, 5768]}, "edge": {"target": [], "time": []}}, "mouseover": {"state": {"target": ["12", "10", "11", "9", "0", "8", "6", "7", "3", "2", "4", "4", "12"], "time": [1520, 1619, 1786, 2253, 2286, 2435, 3120, 3219, 4052, 4536, 4636, 5019, 5636]}, "edge": {"target": [], "time": []}}, "mouseout": {"state": {"target": ["6", "5", "0", "12", "10", "11", "9", "0", "8", "6", "7", "3", "2", "4", "4", "12"], "time": [652, 769, 1402, 1536, 1702, 2186, 2269, 2320, 3070, 3170, 3919, 4486, 4586, 4720, 5386, 5903]}, "edge": {"target": [], "time": []}}}, "displayed_time": "9.01", "trialTime": 10159, "trial_type": "mouselab-mdp", "trial_index": 81, "time_elapsed": 1144440, "internal_node_id": "0.0-4.0-5.0-10.0"}}, {"uniqueid": "w12685848:a21304504", "current_trial": 82, "dateTime": 1664556290337, "trialdata": {"revealed_states": [], "num_clicks_accrued": [0, 0, 0, 0, 0, 0, 0, 0, 0, 0, 0, 0, 0], "stateRewards": ["", 2, -4, -48, 24, -4, 4, 24, 24, 2, -8, -24, -48], "withholdReward": true, "trial_id": "mdp_807654778305", "block": "test3", "trialIndex": 73, "score": 27.5, "costs": -1.5, "simulationMode": [null, null, null], "rewards": [-4, 4, 24], "path": ["0", "0", "5", "6", "7"], "rt": [4311, 88, 75], "actions": ["right", "right", "up"], "actionTimes": [5162, 5757, 6327], "queries": {"click": {"state": {"target": ["11", "12", "7", "8", "3", "4"], "time": [1405, 2010, 2884, 3395, 4224, 4686]}, "edge": {"target": [], "time": []}}, "mouseover": {"state": {"target": ["9", "11", "10", "12", "7", "6", "8", "3", "4", "1", "5"], "time": [1119, 1335, 1819, 1902, 2768, 3152, 3369, 4135, 4602, 5069, 5136]}, "edge": {"target": [], "time": []}}, "mouseout": {"state": {"target": ["0", "9", "11", "10", "12", "7", "6", "8", "3", "4", "1", "5", "6", "5", "0"], "time": [1085, 1202, 1786, 1869, 2386, 3086, 3285, 3686, 4385, 4936, 5102, 5170, 10535, 10586, 10719]}, "edge": {"target": [], "time": []}}}, "displayed_time": "8.85", "trialTime": 11547, "trial_type": "mouselab-mdp", "trial_index": 82, "time_elapsed": 1156012, "internal_node_id": "0.0-4.0-5.0-11.0"}}, {"uniqueid": "w12685848:a21304504", "current_trial": 83, "dateTime": 1664556303578, "trialdata": {"revealed_states": [], "num_clicks_accrued": [0, 0, 0, 0, 0, 0, 0, 0, 0, 0, 0, 0, 0], "stateRewards": ["", -2, 4, -48, -48, -4, -8, 48, -48, 2, 4, 48, -48], "withholdReward": true, "trial_id": "mdp_258647270500", "block": "test3", "trialIndex": 74, "score": 58.25, "costs": -0.75, "simulationMode": [null, null, null], "rewards": [2, 4, 48], "path": ["0", "0", "9", "10", "11"], "rt": [4886, 37, 9], "actions": ["left", "left", "up"], "actionTimes": [6097, 6634, 7173], "queries": {"click": {"state": {"target": ["12", "3", "11"], "time": [4013, 4719, 5459]}, "edge": {"target": [], "time": []}}, "mouseover": {"state": {"target": ["0", "9", "10", "10", "12", "12", "0", "3", "1", "11", "9", "8"], "time": [2063, 2131, 2197, 3263, 3531, 3930, 4397, 4580, 5031, 5330, 5814, 5914]}, "edge": {"target": [], "time": []}}, "mouseout": {"state": {"target": ["0", "0", "9", "10", "10", "12", "12", "0", "3", "1", "11", "9", "8"], "time": [1847, 2114, 2181, 2264, 3480, 3563, 4314, 4413, 4964, 5049, 5747, 5847, 5947]}, "edge": {"target": [], "time": []}}}, "displayed_time": "10.21", "trialTime": 13216, "trial_type": "mouselab-mdp", "trial_index": 83, "time_elapsed": 1169253, "internal_node_id": "0.0-4.0-5.0-12.0"}}, {"uniqueid": "w12685848:a21304504", "current_trial": 84, "dateTime": 1664556314364, "trialdata": {"revealed_states": [], "num_clicks_accrued": [0, 0, 0, 0, 0, 0, 0, 0, 0, 0, 0, 0, 0], "stateRewards": ["", 4, 4, -48, -48, 4, 4, -24, -24, -4, 8, -48, 24], "withholdReward": false, "trial_id": "mdp_669785455541", "block": "test3", "trialIndex": 75, "score": 31.5, "costs": -1.5, "simulationMode": [null, null, null], "rewards": [-4, 8, 24], "path": ["0", "0", "9", "10", "12"], "rt": [4806, 430, 191], "actions": ["left", "left", "down"], "actionTimes": [6168, 7085, 7762], "queries": {"click": {"state": {"target": ["3", "4", "8", "11", "12", "7"], "time": [1924, 2768, 3491, 4155, 4673, 5366]}, "edge": {"target": [], "time": []}}, "mouseover": {"state": {"target": ["5", "3", "1", "4", "1", "8", "9", "11", "10", "12", "5", "7"], "time": [1587, 1819, 2536, 2686, 3120, 3403, 3903, 4036, 4470, 4537, 5120, 5203]}, "edge": {"target": [], "time": []}}, "mouseout": {"state": {"target": ["0", "0", "5", "5", "3", "1", "4", "1", "8", "9", "11", "10", "12", "5", "7"], "time": [554, 953, 987, 1605, 2321, 2587, 3037, 3137, 3687, 3937, 4354, 4503, 4837, 5153, 5503]}, "edge": {"target": [], "time": []}}}, "displayed_time": "10.36", "trialTime": 10758, "trial_type": "mouselab-mdp", "trial_index": 84, "time_elapsed": 1180039, "internal_node_id": "0.0-4.0-5.0-13.0"}}, {"uniqueid": "w12685848:a21304504", "current_trial": 85, "dateTime": 1664556324032, "trialdata": {"revealed_states": [], "num_clicks_accrued": [0, 0, 0, 0, 0, 0, 0, 0, 0, 0, 0, 0, 0], "stateRewards": ["", -2, -4, 48, -24, -4, -4, -24, -24, -2, 4, -48, -24], "withholdReward": true, "trial_id": "mdp_410467837196", "block": "test3", "trialIndex": 76, "score": 46, "costs": -1, "simulationMode": [null, null, null], "rewards": [-2, -4, 48], "path": ["0", "0", "1", "2", "3"], "rt": [4066, 161, 152], "actions": ["up", "up", "right"], "actionTimes": [5028, 5678, 6319], "queries": {"click": {"state": {"target": ["7", "12", "4", "3"], "time": [1665, 2300, 3009, 3924]}, "edge": {"target": [], "time": []}}, "mouseover": {"state": {"target": ["5", "7", "9", "12", "12", "9", "4", "2", "3", "3", "6"], "time": [1433, 1566, 2049, 2183, 2283, 2717, 2833, 3333, 3417, 3849, 4834]}, "edge": {"target": [], "time": []}}, "mouseout": {"state": {"target": ["8", "0", "5", "7", "9", "12", "12", "9", "4", "2", "3", "3", "6"], "time": [533, 1383, 1450, 1967, 2067, 2250, 2450, 2733, 3300, 3383, 3550, 4249, 4867]}, "edge": {"target": [], "time": []}}}, "displayed_time": "8.96", "trialTime": 9638, "trial_type": "mouselab-mdp", "trial_index": 85, "time_elapsed": 1189707, "internal_node_id": "0.0-4.0-5.0-14.0"}}, {"uniqueid": "w12685848:a21304504", "current_trial": 86, "dateTime": 1664556335091, "trialdata": {"revealed_states": [], "num_clicks_accrued": [0, 0, 0, 0, 0, 0, 0, 0, 0, 0, 0, 0, 0], "stateRewards": ["", 2, 8, 48, -48, -2, -4, -24, 24, 4, -4, 48, -48], "withholdReward": true, "trial_id": "mdp_105734044587", "block": "test3", "trialIndex": 77, "score": 52.5, "costs": -0.5, "simulationMode": [null, null, null], "rewards": [4, -4, 48], "path": ["0", "0", "9", "10", "11"], "rt": [2389, 159, 811], "actions": ["left", "left", "up"], "actionTimes": [5085, 5760, 7062], "queries": {"click": {"state": {"target": ["8", "11"], "time": [3694, 4488]}, "edge": {"target": [], "time": []}}, "mouseover": {"state": {"target": ["8", "0", "9", "11"], "time": [3551, 4201, 4234, 4384]}, "edge": {"target": [], "time": []}}, "mouseout": {"state": {"target": ["6", "0", "8", "0", "9", "11"], "time": [2318, 2934, 4119, 4219, 4268, 4985]}, "edge": {"target": [], "time": []}}}, "displayed_time": "9.70", "trialTime": 11032, "trial_type": "mouselab-mdp", "trial_index": 86, "time_elapsed": 1200766, "internal_node_id": "0.0-4.0-5.0-15.0"}}, {"uniqueid": "w12685848:a21304504", "current_trial": 87, "dateTime": 1664556347841, "trialdata": {"revealed_states": [], "num_clicks_accrued": [0, 0, 0, 0, 0, 0, 0, 0, 0, 0, 0, 0, 0], "stateRewards": ["", 2, -4, 48, 24, 2, 8, 24, 24, -2, 4, 24, 24], "withholdReward": true, "trial_id": "mdp_813974524300", "block": "test3", "trialIndex": 78, "score": 50.25, "costs": -0.75, "simulationMode": [null, null, null], "rewards": [2, -4, 48], "path": ["0", "0", "1", "2", "3"], "rt": [2619, 254, 98], "actions": ["up", "up", "right"], "actionTimes": [4865, 5628, 6223], "queries": {"click": {"state": {"target": ["12", "4", "3"], "time": [2968, 3855, 4444]}, "edge": {"target": [], "time": []}}, "mouseover": {"state": {"target": ["12", "9", "4", "2", "3", "7"], "time": [2874, 3541, 3757, 4258, 4340, 4824]}, "edge": {"target": [], "time": []}}, "mouseout": {"state": {"target": ["1", "0", "12", "9", "4", "2", "3"], "time": [1974, 2574, 3274, 3574, 4241, 4291, 4758]}, "edge": {"target": [], "time": []}}}, "displayed_time": "11.25", "trialTime": 12720, "trial_type": "mouselab-mdp", "trial_index": 87, "time_elapsed": 1213516, "internal_node_id": "0.0-4.0-5.0-16.0"}}, {"uniqueid": "w12685848:a21304504", "current_trial": 88, "dateTime": 1664556357910, "trialdata": {"revealed_states": [], "num_clicks_accrued": [0, 0, 0, 0, 0, 0, 0, 0, 0, 0, 0, 0, 0], "stateRewards": ["", -2, -4, -24, -48, 2, -8, -24, -24, 4, -8, 48, 48], "withholdReward": false, "trial_id": "mdp_950599994674", "block": "test3", "trialIndex": 79, "score": 47.75, "costs": -1.25, "simulationMode": [null, null, null], "rewards": [4, -8, 48], "path": ["0", "0", "9", "10", "11"], "rt": [3489, 203, 106], "actions": ["left", "left", "up"], "actionTimes": [5164, 5860, 6463], "queries": {"click": {"state": {"target": ["3", "4", "7", "8", "11"], "time": [2212, 2746, 3382, 3843, 4419]}, "edge": {"target": [], "time": []}}, "mouseover": {"state": {"target": ["1", "3", "2", "4", "1", "7", "6", "8", "9", "11", "10", "12"], "time": [1957, 2173, 2573, 2624, 3089, 3240, 3674, 3757, 4174, 4306, 4590, 4707]}, "edge": {"target": [], "time": []}}, "mouseout": {"state": {"target": ["7", "3", "2", "1", "1", "3", "2", "4", "1", "7", "6", "8", "9", "11", "10", "12"], "time": [1123, 1172, 1389, 1473, 2023, 2523, 2606,