{"condition": 0, "counterbalance": 0, "assignmentId": "a66273202", "workerId": "w27930822", "hitId": "h63248616", "currenttrial": 959, "bonus": 0, "data": [{"uniqueid": "w27930822:a66273202", "current_trial": 0, "dateTime": 1664367871690, "trialdata": {"success": true, "trial_type": "fullscreen", "trial_index": 0, "time_elapsed": 3930, "internal_node_id": "0.0-0.0"}}, {"uniqueid": "w27930822:a66273202", "current_trial": 1, "dateTime": 1664367890806, "trialdata": {"view_history": [{"page_index": 0, "viewing_time": 19105}], "rt": 19106, "trial_id": "exp_instructions_distractor", "trial_type": "instructions", "trial_index": 1, "time_elapsed": 23047, "internal_node_id": "0.0-1.0"}}, {"uniqueid": "w27930822:a66273202", "current_trial": 2, "dateTime": 1664367918322, "trialdata": {"view_history": [{"page_index": 0, "viewing_time": 27511}], "rt": 27512, "trial_id": "color_game_instructions", "trial_type": "instructions", "trial_index": 2, "time_elapsed": 50563, "internal_node_id": "0.0-2.0"}}, {"uniqueid": "w27930822:a66273202", "current_trial": 3, "dateTime": 1664367921534, "trialdata": {"rt": 3209, "stimulus": "<h1> Get ready to start the game! </h1>\n\nThank you for reading the instructions. Get ready start with the first of 5 block(s) of this game.\n<br><br>\nIn this first block, you will complete 90 rounds of this game before moving on.\n<br><br>\nRemember, the better you perform, the bigger your bonus will be!\n<br><br>\n<div style='text-align: center;'>Press <code>space</code> to begin.</div>", "response": " ", "trial_id": "stroop_1_ready_1", "trial_type": "html-keyboard-response", "trial_index": 3, "time_elapsed": 53775, "internal_node_id": "0.0-3.0"}}, {"uniqueid": "w27930822:a66273202", "current_trial": 4, "dateTime": 1664367922551, "trialdata": {"rt": 1011, "stimulus": "<p id='stroop-text' class='stroop-red'>DOG</p>", "response": "r", "stimulus-type": "unrelated", "word": "DOG", "color": "red", "correct_response": "r", "trial_id": "stroop-trial-1-unrelated-11", "trial_type": "html-keyboard-response", "trial_index": 4, "time_elapsed": 54792, "internal_node_id": "0.0-4.0-0.0"}}, {"uniqueid": "w27930822:a66273202", "current_trial": 5, "dateTime": 1664367923942, "trialdata": {"rt": 887, "stimulus": "<p id='stroop-text' class='stroop-yellow'>YELLOW</p>", "response": "y", "stimulus-type": "congruent", "word": "yellow", "color": "yellow", "correct_response": "y", "trial_id": "stroop-trial-1-congruent-9", "trial_type": "html-keyboard-response", "trial_index": 5, "time_elapsed": 56182, "internal_node_id": "0.0-4.0-1.0"}}, {"uniqueid": "w27930822:a66273202", "current_trial": 6, "dateTime": 1664367925543, "trialdata": {"rt": 1098, "stimulus": "<p id='stroop-text' class='stroop-green'>YELLOW</p>", "response": "g", "stimulus-type": "incongruent", "word": "yellow", "color": "green", "correct_response": "g", "trial_id": "stroop-trial-1-incongruent-4", "trial_type": "html-keyboard-response", "trial_index": 6, "time_elapsed": 57783, "internal_node_id": "0.0-4.0-2.0"}}, {"uniqueid": "w27930822:a66273202", "current_trial": 7, "dateTime": 1664367927075, "trialdata": {"rt": 1029, "stimulus": "<p id='stroop-text' class='stroop-red'>RED</p>", "response": "r", "stimulus-type": "congruent", "word": "red", "color": "red", "correct_response": "r", "trial_id": "stroop-trial-1-congruent-19", "trial_type": "html-keyboard-response", "trial_index": 7, "time_elapsed": 59315, "internal_node_id": "0.0-4.0-3.0"}}, {"uniqueid": "w27930822:a66273202", "current_trial": 8, "dateTime": 1664367928951, "trialdata": {"rt": 1373, "stimulus": "<p id='stroop-text' class='stroop-green'>WINDOW</p>", "response": "g", "stimulus-type": "unrelated", "word": "WINDOW", "color": "green", "correct_response": "g", "trial_id": "stroop-trial-1-unrelated-9", "trial_type": "html-keyboard-response", "trial_index": 8, "time_elapsed": 61191, "internal_node_id": "0.0-4.0-4.0"}}, {"uniqueid": "w27930822:a66273202", "current_trial": 9, "dateTime": 1664367930023, "trialdata": {"rt": 569, "stimulus": "<p id='stroop-text' class='stroop-green'>SHIP</p>", "response": "g", "stimulus-type": "unrelated", "word": "SHIP", "color": "green", "correct_response": "g", "trial_id": "stroop-trial-1-unrelated-3", "trial_type": "html-keyboard-response", "trial_index": 9, "time_elapsed": 62264, "internal_node_id": "0.0-4.0-5.0"}}, {"uniqueid": "w27930822:a66273202", "current_trial": 10, "dateTime": 1664367932131, "trialdata": {"rt": 1605, "stimulus": "<p id='stroop-text' class='stroop-yellow'>BLUE</p>", "response": "y", "stimulus-type": "incongruent", "word": "blue", "color": "yellow", "correct_response": "y", "trial_id": "stroop-trial-1-incongruent-16", "trial_type": "html-keyboard-response", "trial_index": 10, "time_elapsed": 64372, "internal_node_id": "0.0-4.0-6.0"}}, {"uniqueid": "w27930822:a66273202", "current_trial": 11, "dateTime": 1664367933830, "trialdata": {"rt": 1197, "stimulus": "<p id='stroop-text' class='stroop-blue'>GREEN</p>", "response": "b", "stimulus-type": "incongruent", "word": "green", "color": "blue", "correct_response": "b", "trial_id": "stroop-trial-1-incongruent-6", "trial_type": "html-keyboard-response", "trial_index": 11, "time_elapsed": 66071, "internal_node_id": "0.0-4.0-7.0"}}, {"uniqueid": "w27930822:a66273202", "current_trial": 12, "dateTime": 1664367935382, "trialdata": {"rt": 1047, "stimulus": "<p id='stroop-text' class='stroop-green'>BLUE</p>", "response": "g", "stimulus-type": "incongruent", "word": "blue", "color": "green", "correct_response": "g", "trial_id": "stroop-trial-1-incongruent-5", "trial_type": "html-keyboard-response", "trial_index": 12, "time_elapsed": 67622, "internal_node_id": "0.0-4.0-8.0"}}, {"uniqueid": "w27930822:a66273202", "current_trial": 13, "dateTime": 1664367936939, "trialdata": {"rt": 1054, "stimulus": "<p id='stroop-text' class='stroop-green'>BLUE</p>", "response": "g", "stimulus-type": "incongruent", "word": "blue", "color": "green", "correct_response": "g", "trial_id": "stroop-trial-1-incongruent-1", "trial_type": "html-keyboard-response", "trial_index": 13, "time_elapsed": 69179, "internal_node_id": "0.0-4.0-9.0"}}, {"uniqueid": "w27930822:a66273202", "current_trial": 14, "dateTime": 1664367938538, "trialdata": {"rt": 1096, "stimulus": "<p id='stroop-text' class='stroop-blue'>RED</p>", "response": "b", "stimulus-type": "incongruent", "word": "red", "color": "blue", "correct_response": "b", "trial_id": "stroop-trial-1-incongruent-29", "trial_type": "html-keyboard-response", "trial_index": 14, "time_elapsed": 70778, "internal_node_id": "0.0-4.0-10.0"}}, {"uniqueid": "w27930822:a66273202", "current_trial": 15, "dateTime": 1664367940044, "trialdata": {"rt": 1002, "stimulus": "<p id='stroop-text' class='stroop-green'>YELLOW</p>", "response": "g", "stimulus-type": "incongruent", "word": "yellow", "color": "green", "correct_response": "g", "trial_id": "stroop-trial-1-incongruent-11", "trial_type": "html-keyboard-response", "trial_index": 15, "time_elapsed": 72285, "internal_node_id": "0.0-4.0-11.0"}}, {"uniqueid": "w27930822:a66273202", "current_trial": 16, "dateTime": 1664367941988, "trialdata": {"rt": 1440, "stimulus": "<p id='stroop-text' class='stroop-yellow'>RED</p>", "response": "y", "stimulus-type": "incongruent", "word": "red", "color": "yellow", "correct_response": "y", "trial_id": "stroop-trial-1-incongruent-22", "trial_type": "html-keyboard-response", "trial_index": 16, "time_elapsed": 74228, "internal_node_id": "0.0-4.0-12.0"}}, {"uniqueid": "w27930822:a66273202", "current_trial": 17, "dateTime": 1664367944183, "trialdata": {"rt": 1692, "stimulus": "<p id='stroop-text' class='stroop-blue'>BRAIN</p>", "response": "b", "stimulus-type": "unrelated", "word": "BRAIN", "color": "blue", "correct_response": "b", "trial_id": "stroop-trial-1-unrelated-19", "trial_type": "html-keyboard-response", "trial_index": 17, "time_elapsed": 76423, "internal_node_id": "0.0-4.0-13.0"}}, {"uniqueid": "w27930822:a66273202", "current_trial": 18, "dateTime": 1664367945824, "trialdata": {"rt": 1139, "stimulus": "<p id='stroop-text' class='stroop-green'>GREEN</p>", "response": "g", "stimulus-type": "congruent", "word": "green", "color": "green", "correct_response": "g", "trial_id": "stroop-trial-1-congruent-21", "trial_type": "html-keyboard-response", "trial_index": 18, "time_elapsed": 78065, "internal_node_id": "0.0-4.0-14.0"}}, {"uniqueid": "w27930822:a66273202", "current_trial": 19, "dateTime": 1664367947104, "trialdata": {"rt": 776, "stimulus": "<p id='stroop-text' class='stroop-blue'>BLUE</p>", "response": "b", "stimulus-type": "congruent", "word": "blue", "color": "blue", "correct_response": "b", "trial_id": "stroop-trial-1-congruent-25", "trial_type": "html-keyboard-response", "trial_index": 19, "time_elapsed": 79344, "internal_node_id": "0.0-4.0-15.0"}}, {"uniqueid": "w27930822:a66273202", "current_trial": 20, "dateTime": 1664367948419, "trialdata": {"rt": 812, "stimulus": "<p id='stroop-text' class='stroop-yellow'>BOTTLE</p>", "response": "y", "stimulus-type": "unrelated", "word": "BOTTLE", "color": "yellow", "correct_response": "y", "trial_id": "stroop-trial-1-unrelated-14", "trial_type": "html-keyboard-response", "trial_index": 20, "time_elapsed": 80660, "internal_node_id": "0.0-4.0-16.0"}}, {"uniqueid": "w27930822:a66273202", "current_trial": 21, "dateTime": 1664367949583, "trialdata": {"rt": 661, "stimulus": "<p id='stroop-text' class='stroop-red'>WINDOW</p>", "response": "r", "stimulus-type": "unrelated", "word": "WINDOW", "color": "red", "correct_response": "r", "trial_id": "stroop-trial-1-unrelated-28", "trial_type": "html-keyboard-response", "trial_index": 21, "time_elapsed": 81824, "internal_node_id": "0.0-4.0-17.0"}}, {"uniqueid": "w27930822:a66273202", "current_trial": 22, "dateTime": 1664367951535, "trialdata": {"rt": 1448, "stimulus": "<p id='stroop-text' class='stroop-blue'>BLUE</p>", "response": "b", "stimulus-type": "congruent", "word": "blue", "color": "blue", "correct_response": "b", "trial_id": "stroop-trial-1-congruent-10", "trial_type": "html-keyboard-response", "trial_index": 22, "time_elapsed": 83776, "internal_node_id": "0.0-4.0-18.0"}}, {"uniqueid": "w27930822:a66273202", "current_trial": 23, "dateTime": 1664367952797, "trialdata": {"rt": 757, "stimulus": "<p id='stroop-text' class='stroop-yellow'>GREEN</p>", "response": "y", "stimulus-type": "incongruent", "word": "green", "color": "yellow", "correct_response": "y", "trial_id": "stroop-trial-1-incongruent-26", "trial_type": "html-keyboard-response", "trial_index": 23, "time_elapsed": 85038, "internal_node_id": "0.0-4.0-19.0"}}, {"uniqueid": "w27930822:a66273202", "current_trial": 24, "dateTime": 1664367954059, "trialdata": {"rt": 759, "stimulus": "<p id='stroop-text' class='stroop-blue'>STONE</p>", "response": "b", "stimulus-type": "unrelated", "word": "STONE", "color": "blue", "correct_response": "b", "trial_id": "stroop-trial-1-unrelated-10", "trial_type": "html-keyboard-response", "trial_index": 24, "time_elapsed": 86299, "internal_node_id": "0.0-4.0-20.0"}}, {"uniqueid": "w27930822:a66273202", "current_trial": 25, "dateTime": 1664367955331, "trialdata": {"rt": 769, "stimulus": "<p id='stroop-text' class='stroop-blue'>FORK</p>", "response": "b", "stimulus-type": "unrelated", "word": "FORK", "color": "blue", "correct_response": "b", "trial_id": "stroop-trial-1-unrelated-6", "trial_type": "html-keyboard-response", "trial_index": 25, "time_elapsed": 87571, "internal_node_id": "0.0-4.0-21.0"}}, {"uniqueid": "w27930822:a66273202", "current_trial": 26, "dateTime": 1664367956382, "trialdata": {"rt": 548, "stimulus": "<p id='stroop-text' class='stroop-blue'>RED</p>", "response": "b", "stimulus-type": "incongruent", "word": "red", "color": "blue", "correct_response": "b", "trial_id": "stroop-trial-1-incongruent-14", "trial_type": "html-keyboard-response", "trial_index": 26, "time_elapsed": 88622, "internal_node_id": "0.0-4.0-22.0"}}, {"uniqueid": "w27930822:a66273202", "current_trial": 27, "dateTime": 1664367957663, "trialdata": {"rt": 777, "stimulus": "<p id='stroop-text' class='stroop-yellow'>CHAIR</p>", "response": "y", "stimulus-type": "unrelated", "word": "CHAIR", "color": "yellow", "correct_response": "y", "trial_id": "stroop-trial-1-unrelated-5", "trial_type": "html-keyboard-response", "trial_index": 27, "time_elapsed": 89904, "internal_node_id": "0.0-4.0-23.0"}}, {"uniqueid": "w27930822:a66273202", "current_trial": 28, "dateTime": 1664367958890, "trialdata": {"rt": 723, "stimulus": "<p id='stroop-text' class='stroop-red'>RED</p>", "response": "r", "stimulus-type": "congruent", "word": "red", "color": "red", "correct_response": "r", "trial_id": "stroop-trial-1-congruent-14", "trial_type": "html-keyboard-response", "trial_index": 28, "time_elapsed": 91131, "internal_node_id": "0.0-4.0-24.0"}}, {"uniqueid": "w27930822:a66273202", "current_trial": 29, "dateTime": 1664367959951, "trialdata": {"rt": 555, "stimulus": "<p id='stroop-text' class='stroop-red'>RED</p>", "response": "r", "stimulus-type": "congruent", "word": "red", "color": "red", "correct_response": "r", "trial_id": "stroop-trial-1-congruent-12", "trial_type": "html-keyboard-response", "trial_index": 29, "time_elapsed": 92191, "internal_node_id": "0.0-4.0-25.0"}}, {"uniqueid": "w27930822:a66273202", "current_trial": 30, "dateTime": 1664367961051, "trialdata": {"rt": 597, "stimulus": "<p id='stroop-text' class='stroop-red'>RED</p>", "response": "r", "stimulus-type": "congruent", "word": "red", "color": "red", "correct_response": "r", "trial_id": "stroop-trial-1-congruent-27", "trial_type": "html-keyboard-response", "trial_index": 30, "time_elapsed": 93291, "internal_node_id": "0.0-4.0-26.0"}}, {"uniqueid": "w27930822:a66273202", "current_trial": 31, "dateTime": 1664367962461, "trialdata": {"rt": 906, "stimulus": "<p id='stroop-text' class='stroop-yellow'>YELLOW</p>", "response": "y", "stimulus-type": "congruent", "word": "yellow", "color": "yellow", "correct_response": "y", "trial_id": "stroop-trial-1-congruent-3", "trial_type": "html-keyboard-response", "trial_index": 31, "time_elapsed": 94701, "internal_node_id": "0.0-4.0-27.0"}}, {"uniqueid": "w27930822:a66273202", "current_trial": 32, "dateTime": 1664367963728, "trialdata": {"rt": 762, "stimulus": "<p id='stroop-text' class='stroop-blue'>BLUE</p>", "response": "b", "stimulus-type": "congruent", "word": "blue", "color": "blue", "correct_response": "b", "trial_id": "stroop-trial-1-congruent-8", "trial_type": "html-keyboard-response", "trial_index": 32, "time_elapsed": 95968, "internal_node_id": "0.0-4.0-28.0"}}, {"uniqueid": "w27930822:a66273202", "current_trial": 33, "dateTime": 1664367965372, "trialdata": {"rt": 1140, "stimulus": "<p id='stroop-text' class='stroop-yellow'>YELLOW</p>", "response": "y", "stimulus-type": "congruent", "word": "yellow", "color": "yellow", "correct_response": "y", "trial_id": "stroop-trial-1-congruent-2", "trial_type": "html-keyboard-response", "trial_index": 33, "time_elapsed": 97612, "internal_node_id": "0.0-4.0-29.0"}}, {"uniqueid": "w27930822:a66273202", "current_trial": 34, "dateTime": 1664367966723, "trialdata": {"rt": 849, "stimulus": "<p id='stroop-text' class='stroop-green'>MONKEY</p>", "response": "g", "stimulus-type": "unrelated", "word": "MONKEY", "color": "green", "correct_response": "g", "trial_id": "stroop-trial-1-unrelated-8", "trial_type": "html-keyboard-response", "trial_index": 34, "time_elapsed": 98964, "internal_node_id": "0.0-4.0-30.0"}}, {"uniqueid": "w27930822:a66273202", "current_trial": 35, "dateTime": 1664367968452, "trialdata": {"rt": 1226, "stimulus": "<p id='stroop-text' class='stroop-yellow'>BLUE</p>", "response": "y", "stimulus-type": "incongruent", "word": "blue", "color": "yellow", "correct_response": "y", "trial_id": "stroop-trial-1-incongruent-25", "trial_type": "html-keyboard-response", "trial_index": 35, "time_elapsed": 100692, "internal_node_id": "0.0-4.0-31.0"}}, {"uniqueid": "w27930822:a66273202", "current_trial": 36, "dateTime": 1664367969703, "trialdata": {"rt": 747, "stimulus": "<p id='stroop-text' class='stroop-red'>BLUE</p>", "response": "r", "stimulus-type": "incongruent", "word": "blue", "color": "red", "correct_response": "r", "trial_id": "stroop-trial-1-incongruent-13", "trial_type": "html-keyboard-response", "trial_index": 36, "time_elapsed": 101944, "internal_node_id": "0.0-4.0-32.0"}}, {"uniqueid": "w27930822:a66273202", "current_trial": 37, "dateTime": 1664367970778, "trialdata": {"rt": 572, "stimulus": "<p id='stroop-text' class='stroop-red'>RED</p>", "response": "r", "stimulus-type": "congruent", "word": "red", "color": "red", "correct_response": "r", "trial_id": "stroop-trial-1-congruent-24", "trial_type": "html-keyboard-response", "trial_index": 37, "time_elapsed": 103019, "internal_node_id": "0.0-4.0-33.0"}}, {"uniqueid": "w27930822:a66273202", "current_trial": 38, "dateTime": 1664367971963, "trialdata": {"rt": 681, "stimulus": "<p id='stroop-text' class='stroop-green'>CHAIR</p>", "response": "g", "stimulus-type": "unrelated", "word": "CHAIR", "color": "green", "correct_response": "g", "trial_id": "stroop-trial-1-unrelated-2", "trial_type": "html-keyboard-response", "trial_index": 38, "time_elapsed": 104204, "internal_node_id": "0.0-4.0-34.0"}}, {"uniqueid": "w27930822:a66273202", "current_trial": 39, "dateTime": 1664367973098, "trialdata": {"rt": 630, "stimulus": "<p id='stroop-text' class='stroop-red'>CHAIR</p>", "response": "r", "stimulus-type": "unrelated", "word": "CHAIR", "color": "red", "correct_response": "r", "trial_id": "stroop-trial-1-unrelated-29", "trial_type": "html-keyboard-response", "trial_index": 39, "time_elapsed": 105339, "internal_node_id": "0.0-4.0-35.0"}}, {"uniqueid": "w27930822:a66273202", "current_trial": 40, "dateTime": 1664367974360, "trialdata": {"rt": 759, "stimulus": "<p id='stroop-text' class='stroop-green'>GREEN</p>", "response": "g", "stimulus-type": "congruent", "word": "green", "color": "green", "correct_response": "g", "trial_id": "stroop-trial-1-congruent-1", "trial_type": "html-keyboard-response", "trial_index": 40, "time_elapsed": 106601, "internal_node_id": "0.0-4.0-36.0"}}, {"uniqueid": "w27930822:a66273202", "current_trial": 41, "dateTime": 1664367975522, "trialdata": {"rt": 656, "stimulus": "<p id='stroop-text' class='stroop-yellow'>YELLOW</p>", "response": "y", "stimulus-type": "congruent", "word": "yellow", "color": "yellow", "correct_response": "y", "trial_id": "stroop-trial-1-congruent-18", "trial_type": "html-keyboard-response", "trial_index": 41, "time_elapsed": 107762, "internal_node_id": "0.0-4.0-37.0"}}, {"uniqueid": "w27930822:a66273202", "current_trial": 42, "dateTime": 1664367976716, "trialdata": {"rt": 689, "stimulus": "<p id='stroop-text' class='stroop-yellow'>YELLOW</p>", "response": "y", "stimulus-type": "congruent", "word": "yellow", "color": "yellow", "correct_response": "y", "trial_id": "stroop-trial-1-congruent-20", "trial_type": "html-keyboard-response", "trial_index": 42, "time_elapsed": 108957, "internal_node_id": "0.0-4.0-38.0"}}, {"uniqueid": "w27930822:a66273202", "current_trial": 43, "dateTime": 1664367978112, "trialdata": {"rt": 892, "stimulus": "<p id='stroop-text' class='stroop-red'>YELLOW</p>", "response": "r", "stimulus-type": "incongruent", "word": "yellow", "color": "red", "correct_response": "r", "trial_id": "stroop-trial-1-incongruent-9", "trial_type": "html-keyboard-response", "trial_index": 43, "time_elapsed": 110352, "internal_node_id": "0.0-4.0-39.0"}}, {"uniqueid": "w27930822:a66273202", "current_trial": 44, "dateTime": 1664367980498, "trialdata": {"rt": 1882, "stimulus": "<p id='stroop-text' class='stroop-yellow'>MONKEY</p>", "response": "y", "stimulus-type": "unrelated", "word": "MONKEY", "color": "yellow", "correct_response": "y", "trial_id": "stroop-trial-1-unrelated-27", "trial_type": "html-keyboard-response", "trial_index": 44, "time_elapsed": 112738, "internal_node_id": "0.0-4.0-40.0"}}, {"uniqueid": "w27930822:a66273202", "current_trial": 45, "dateTime": 1664367981696, "trialdata": {"rt": 692, "stimulus": "<p id='stroop-text' class='stroop-blue'>SHIP</p>", "response": "b", "stimulus-type": "unrelated", "word": "SHIP", "color": "blue", "correct_response": "b", "trial_id": "stroop-trial-1-unrelated-25", "trial_type": "html-keyboard-response", "trial_index": 45, "time_elapsed": 113936, "internal_node_id": "0.0-4.0-41.0"}}, {"uniqueid": "w27930822:a66273202", "current_trial": 46, "dateTime": 1664367982827, "trialdata": {"rt": 629, "stimulus": "<p id='stroop-text' class='stroop-green'>YELLOW</p>", "response": "g", "stimulus-type": "incongruent", "word": "yellow", "color": "green", "correct_response": "g", "trial_id": "stroop-trial-1-incongruent-23", "trial_type": "html-keyboard-response", "trial_index": 46, "time_elapsed": 115067, "internal_node_id": "0.0-4.0-42.0"}}, {"uniqueid": "w27930822:a66273202", "current_trial": 47, "dateTime": 1664367984331, "trialdata": {"rt": 1001, "stimulus": "<p id='stroop-text' class='stroop-blue'>GREEN</p>", "response": "b", "stimulus-type": "incongruent", "word": "green", "color": "blue", "correct_response": "b", "trial_id": "stroop-trial-1-incongruent-17", "trial_type": "html-keyboard-response", "trial_index": 47, "time_elapsed": 116572, "internal_node_id": "0.0-4.0-43.0"}}, {"uniqueid": "w27930822:a66273202", "current_trial": 48, "dateTime": 1664367985488, "trialdata": {"rt": 655, "stimulus": "<p id='stroop-text' class='stroop-red'>GREEN</p>", "response": "r", "stimulus-type": "incongruent", "word": "green", "color": "red", "correct_response": "r", "trial_id": "stroop-trial-1-incongruent-28", "trial_type": "html-keyboard-response", "trial_index": 48, "time_elapsed": 117729, "internal_node_id": "0.0-4.0-44.0"}}, {"uniqueid": "w27930822:a66273202", "current_trial": 49, "dateTime": 1664367986536, "trialdata": {"rt": 545, "stimulus": "<p id='stroop-text' class='stroop-red'>GREEN</p>", "response": "r", "stimulus-type": "incongruent", "word": "green", "color": "red", "correct_response": "r", "trial_id": "stroop-trial-1-incongruent-10", "trial_type": "html-keyboard-response", "trial_index": 49, "time_elapsed": 118777, "internal_node_id": "0.0-4.0-45.0"}}, {"uniqueid": "w27930822:a66273202", "current_trial": 50, "dateTime": 1664367987893, "trialdata": {"rt": 854, "stimulus": "<p id='stroop-text' class='stroop-green'>GREEN</p>", "response": "g", "stimulus-type": "congruent", "word": "green", "color": "green", "correct_response": "g", "trial_id": "stroop-trial-1-congruent-5", "trial_type": "html-keyboard-response", "trial_index": 50, "time_elapsed": 120134, "internal_node_id": "0.0-4.0-46.0"}}, {"uniqueid": "w27930822:a66273202", "current_trial": 51, "dateTime": 1664367989192, "trialdata": {"rt": 795, "stimulus": "<p id='stroop-text' class='stroop-yellow'>BOAT</p>", "response": "y", "stimulus-type": "unrelated", "word": "BOAT", "color": "yellow", "correct_response": "y", "trial_id": "stroop-trial-1-unrelated-7", "trial_type": "html-keyboard-response", "trial_index": 51, "time_elapsed": 121433, "internal_node_id": "0.0-4.0-47.0"}}, {"uniqueid": "w27930822:a66273202", "current_trial": 52, "dateTime": 1664367990285, "trialdata": {"rt": 590, "stimulus": "<p id='stroop-text' class='stroop-green'>GREEN</p>", "response": "g", "stimulus-type": "congruent", "word": "green", "color": "green", "correct_response": "g", "trial_id": "stroop-trial-1-congruent-16", "trial_type": "html-keyboard-response", "trial_index": 52, "time_elapsed": 122526, "internal_node_id": "0.0-4.0-48.0"}}, {"uniqueid": "w27930822:a66273202", "current_trial": 53, "dateTime": 1664367991320, "trialdata": {"rt": 531, "stimulus": "<p id='stroop-text' class='stroop-red'>SHIP</p>", "response": "r", "stimulus-type": "unrelated", "word": "SHIP", "color": "red", "correct_response": "r", "trial_id": "stroop-trial-1-unrelated-1", "trial_type": "html-keyboard-response", "trial_index": 53, "time_elapsed": 123561, "internal_node_id": "0.0-4.0-49.0"}}, {"uniqueid": "w27930822:a66273202", "current_trial": 54, "dateTime": 1664367992461, "trialdata": {"rt": 639, "stimulus": "<p id='stroop-text' class='stroop-yellow'>BRIDGE</p>", "response": "y", "stimulus-type": "unrelated", "word": "BRIDGE", "color": "yellow", "correct_response": "y", "trial_id": "stroop-trial-1-unrelated-15", "trial_type": "html-keyboard-response", "trial_index": 54, "time_elapsed": 124702, "internal_node_id": "0.0-4.0-50.0"}}, {"uniqueid": "w27930822:a66273202", "current_trial": 55, "dateTime": 1664367993476, "trialdata": {"rt": 510, "stimulus": "<p id='stroop-text' class='stroop-blue'>BRIDGE</p>", "response": "b", "stimulus-type": "unrelated", "word": "BRIDGE", "color": "blue", "correct_response": "b", "trial_id": "stroop-trial-1-unrelated-4", "trial_type": "html-keyboard-response", "trial_index": 55, "time_elapsed": 125716, "internal_node_id": "0.0-4.0-51.0"}}, {"uniqueid": "w27930822:a66273202", "current_trial": 56, "dateTime": 1664367994581, "trialdata": {"rt": 602, "stimulus": "<p id='stroop-text' class='stroop-red'>RED</p>", "response": "r", "stimulus-type": "congruent", "word": "red", "color": "red", "correct_response": "r", "trial_id": "stroop-trial-1-congruent-22", "trial_type": "html-keyboard-response", "trial_index": 56, "time_elapsed": 126821, "internal_node_id": "0.0-4.0-52.0"}}, {"uniqueid": "w27930822:a66273202", "current_trial": 57, "dateTime": 1664367996027, "trialdata": {"rt": 923, "stimulus": "<p id='stroop-text' class='stroop-red'>GREEN</p>", "response": "r", "stimulus-type": "incongruent", "word": "green", "color": "red", "correct_response": "r", "trial_id": "stroop-trial-1-incongruent-18", "trial_type": "html-keyboard-response", "trial_index": 57, "time_elapsed": 128268, "internal_node_id": "0.0-4.0-53.0"}}, {"uniqueid": "w27930822:a66273202", "current_trial": 58, "dateTime": 1664367997076, "trialdata": {"rt": 529, "stimulus": "<p id='stroop-text' class='stroop-blue'>BLUE</p>", "response": "b", "stimulus-type": "congruent", "word": "blue", "color": "blue", "correct_response": "b", "trial_id": "stroop-trial-1-congruent-15", "trial_type": "html-keyboard-response", "trial_index": 58, "time_elapsed": 129317, "internal_node_id": "0.0-4.0-54.0"}}, {"uniqueid": "w27930822:a66273202", "current_trial": 59, "dateTime": 1664367998246, "trialdata": {"rt": 665, "stimulus": "<p id='stroop-text' class='stroop-yellow'>RED</p>", "response": "y", "stimulus-type": "incongruent", "word": "red", "color": "yellow", "correct_response": "y", "trial_id": "stroop-trial-1-incongruent-12", "trial_type": "html-keyboard-response", "trial_index": 59, "time_elapsed": 130487, "internal_node_id": "0.0-4.0-55.0"}}, {"uniqueid": "w27930822:a66273202", "current_trial": 60, "dateTime": 1664367999421, "trialdata": {"rt": 673, "stimulus": "<p id='stroop-text' class='stroop-blue'>BLUE</p>", "response": "b", "stimulus-type": "congruent", "word": "blue", "color": "blue", "correct_response": "b", "trial_id": "stroop-trial-1-congruent-17", "trial_type": "html-keyboard-response", "trial_index": 60, "time_elapsed": 131662, "internal_node_id": "0.0-4.0-56.0"}}, {"uniqueid": "w27930822:a66273202", "current_trial": 61, "dateTime": 1664368000414, "trialdata": {"rt": 490, "stimulus": "<p id='stroop-text' class='stroop-red'>RED</p>", "response": "r", "stimulus-type": "congruent", "word": "red", "color": "red", "correct_response": "r", "trial_id": "stroop-trial-1-congruent-13", "trial_type": "html-keyboard-response", "trial_index": 61, "time_elapsed": 132655, "internal_node_id": "0.0-4.0-57.0"}}, {"uniqueid": "w27930822:a66273202", "current_trial": 62, "dateTime": 1664368001834, "trialdata": {"rt": 915, "stimulus": "<p id='stroop-text' class='stroop-yellow'>DOG</p>", "response": "y", "stimulus-type": "unrelated", "word": "DOG", "color": "yellow", "correct_response": "y", "trial_id": "stroop-trial-1-unrelated-12", "trial_type": "html-keyboard-response", "trial_index": 62, "time_elapsed": 134074, "internal_node_id": "0.0-4.0-58.0"}}, {"uniqueid": "w27930822:a66273202", "current_trial": 63, "dateTime": 1664368003180, "trialdata": {"rt": 842, "stimulus": "<p id='stroop-text' class='stroop-blue'>YELLOW</p>", "response": "b", "stimulus-type": "incongruent", "word": "yellow", "color": "blue", "correct_response": "b", "trial_id": "stroop-trial-1-incongruent-21", "trial_type": "html-keyboard-response", "trial_index": 63, "time_elapsed": 135421, "internal_node_id": "0.0-4.0-59.0"}}, {"uniqueid": "w27930822:a66273202", "current_trial": 64, "dateTime": 1664368004605, "trialdata": {"rt": 923, "stimulus": "<p id='stroop-text' class='stroop-red'>MONKEY</p>", "response": "r", "stimulus-type": "unrelated", "word": "MONKEY", "color": "red", "correct_response": "r", "trial_id": "stroop-trial-1-unrelated-24", "trial_type": "html-keyboard-response", "trial_index": 64, "time_elapsed": 136846, "internal_node_id": "0.0-4.0-60.0"}}, {"uniqueid": "w27930822:a66273202", "current_trial": 65, "dateTime": 1664368005571, "trialdata": {"rt": 460, "stimulus": "<p id='stroop-text' class='stroop-green'>GREEN</p>", "response": "g", "stimulus-type": "congruent", "word": "green", "color": "green", "correct_response": "g", "trial_id": "stroop-trial-1-congruent-30", "trial_type": "html-keyboard-response", "trial_index": 65, "time_elapsed": 137811, "internal_node_id": "0.0-4.0-61.0"}}, {"uniqueid": "w27930822:a66273202", "current_trial": 66, "dateTime": 1664368006620, "trialdata": {"rt": 546, "stimulus": "<p id='stroop-text' class='stroop-green'>FORK</p>", "response": "g", "stimulus-type": "unrelated", "word": "FORK", "color": "green", "correct_response": "g", "trial_id": "stroop-trial-1-unrelated-22", "trial_type": "html-keyboard-response", "trial_index": 66, "time_elapsed": 138861, "internal_node_id": "0.0-4.0-62.0"}}, {"uniqueid": "w27930822:a66273202", "current_trial": 67, "dateTime": 1664368007836, "trialdata": {"rt": 711, "stimulus": "<p id='stroop-text' class='stroop-red'>GREEN</p>", "response": "r", "stimulus-type": "incongruent", "word": "green", "color": "red", "correct_response": "r", "trial_id": "stroop-trial-1-incongruent-8", "trial_type": "html-keyboard-response", "trial_index": 67, "time_elapsed": 140077, "internal_node_id": "0.0-4.0-63.0"}}, {"uniqueid": "w27930822:a66273202", "current_trial": 68, "dateTime": 1664368009360, "trialdata": {"rt": 1021, "stimulus": "<p id='stroop-text' class='stroop-green'>YELLOW</p>", "response": "g", "stimulus-type": "incongruent", "word": "yellow", "color": "green", "correct_response": "g", "trial_id": "stroop-trial-1-incongruent-20", "trial_type": "html-keyboard-response", "trial_index": 68, "time_elapsed": 141601, "internal_node_id": "0.0-4.0-64.0"}}, {"uniqueid": "w27930822:a66273202", "current_trial": 69, "dateTime": 1664368010506, "trialdata": {"rt": 641, "stimulus": "<p id='stroop-text' class='stroop-red'>BRAIN</p>", "response": "r", "stimulus-type": "unrelated", "word": "BRAIN", "color": "red", "correct_response": "r", "trial_id": "stroop-trial-1-unrelated-20", "trial_type": "html-keyboard-response", "trial_index": 69, "time_elapsed": 142747, "internal_node_id": "0.0-4.0-65.0"}}, {"uniqueid": "w27930822:a66273202", "current_trial": 70, "dateTime": 1664368011572, "trialdata": {"rt": 563, "stimulus": "<p id='stroop-text' class='stroop-green'>YELLOW</p>", "response": "g", "stimulus-type": "incongruent", "word": "yellow", "color": "green", "correct_response": "g", "trial_id": "stroop-trial-1-incongruent-2", "trial_type": "html-keyboard-response", "trial_index": 70, "time_elapsed": 143813, "internal_node_id": "0.0-4.0-66.0"}}, {"uniqueid": "w27930822:a66273202", "current_trial": 71, "dateTime": 1664368012699, "trialdata": {"rt": 622, "stimulus": "<p id='stroop-text' class='stroop-yellow'>STONE</p>", "response": "y", "stimulus-type": "unrelated", "word": "STONE", "color": "yellow", "correct_response": "y", "trial_id": "stroop-trial-1-unrelated-30", "trial_type": "html-keyboard-response", "trial_index": 71, "time_elapsed": 144939, "internal_node_id": "0.0-4.0-67.0"}}, {"uniqueid": "w27930822:a66273202", "current_trial": 72, "dateTime": 1664368013799, "trialdata": {"rt": 596, "stimulus": "<p id='stroop-text' class='stroop-blue'>BLUE</p>", "response": "b", "stimulus-type": "congruent", "word": "blue", "color": "blue", "correct_response": "b", "trial_id": "stroop-trial-1-congruent-26", "trial_type": "html-keyboard-response", "trial_index": 72, "time_elapsed": 146039, "internal_node_id": "0.0-4.0-68.0"}}, {"uniqueid": "w27930822:a66273202", "current_trial": 73, "dateTime": 1664368014988, "trialdata": {"rt": 684, "stimulus": "<p id='stroop-text' class='stroop-red'>FORK</p>", "response": "r", "stimulus-type": "unrelated", "word": "FORK", "color": "red", "correct_response": "r", "trial_id": "stroop-trial-1-unrelated-16", "trial_type": "html-keyboard-response", "trial_index": 73, "time_elapsed": 147229, "internal_node_id": "0.0-4.0-69.0"}}, {"uniqueid": "w27930822:a66273202", "current_trial": 74, "dateTime": 1664368016293, "trialdata": {"rt": 801, "stimulus": "<p id='stroop-text' class='stroop-blue'>STONE</p>", "response": "b", "stimulus-type": "unrelated", "word": "STONE", "color": "blue", "correct_response": "b", "trial_id": "stroop-trial-1-unrelated-23", "trial_type": "html-keyboard-response", "trial_index": 74, "time_elapsed": 148533, "internal_node_id": "0.0-4.0-70.0"}}, {"uniqueid": "w27930822:a66273202", "current_trial": 75, "dateTime": 1664368017541, "trialdata": {"rt": 745, "stimulus": "<p id='stroop-text' class='stroop-blue'>BLUE</p>", "response": "b", "stimulus-type": "congruent", "word": "blue", "color": "blue", "correct_response": "b", "trial_id": "stroop-trial-1-congruent-7", "trial_type": "html-keyboard-response", "trial_index": 75, "time_elapsed": 149781, "internal_node_id": "0.0-4.0-71.0"}}, {"uniqueid": "w27930822:a66273202", "current_trial": 76, "dateTime": 1664368018699, "trialdata": {"rt": 654, "stimulus": "<p id='stroop-text' class='stroop-red'>RED</p>", "response": "r", "stimulus-type": "congruent", "word": "red", "color": "red", "correct_response": "r", "trial_id": "stroop-trial-1-congruent-29", "trial_type": "html-keyboard-response", "trial_index": 76, "time_elapsed": 150940, "internal_node_id": "0.0-4.0-72.0"}}, {"uniqueid": "w27930822:a66273202", "current_trial": 77, "dateTime": 1664368019900, "trialdata": {"rt": 697, "stimulus": "<p id='stroop-text' class='stroop-blue'>BLUE</p>", "response": "b", "stimulus-type": "congruent", "word": "blue", "color": "blue", "correct_response": "b", "trial_id": "stroop-trial-1-congruent-11", "trial_type": "html-keyboard-response", "trial_index": 77, "time_elapsed": 152140, "internal_node_id": "0.0-4.0-73.0"}}, {"uniqueid": "w27930822:a66273202", "current_trial": 78, "dateTime": 1664368021691, "trialdata": {"rt": 1287, "stimulus": "<p id='stroop-text' class='stroop-green'>DOG</p>", "response": "g", "stimulus-type": "unrelated", "word": "DOG", "color": "green", "correct_response": "g", "trial_id": "stroop-trial-1-unrelated-26", "trial_type": "html-keyboard-response", "trial_index": 78, "time_elapsed": 153931, "internal_node_id": "0.0-4.0-74.0"}}, {"uniqueid": "w27930822:a66273202", "current_trial": 79, "dateTime": 1664368022886, "trialdata": {"rt": 691, "stimulus": "<p id='stroop-text' class='stroop-red'>YELLOW</p>", "response": "r", "stimulus-type": "incongruent", "word": "yellow", "color": "red", "correct_response": "r", "trial_id": "stroop-trial-1-incongruent-24", "trial_type": "html-keyboard-response", "trial_index": 79, "time_elapsed": 155127, "internal_node_id": "0.0-4.0-75.0"}}, {"uniqueid": "w27930822:a66273202", "current_trial": 80, "dateTime": 1664368024203, "trialdata": {"rt": 812, "stimulus": "<p id='stroop-text' class='stroop-green'>RED</p>", "response": "g", "stimulus-type": "incongruent", "word": "red", "color": "green", "correct_response": "g", "trial_id": "stroop-trial-1-incongruent-30", "trial_type": "html-keyboard-response", "trial_index": 80, "time_elapsed": 156444, "internal_node_id": "0.0-4.0-76.0"}}, {"uniqueid": "w27930822:a66273202", "current_trial": 81, "dateTime": 1664368025329, "trialdata": {"rt": 620, "stimulus": "<p id='stroop-text' class='stroop-blue'>CHAIR</p>", "response": "b", "stimulus-type": "unrelated", "word": "CHAIR", "color": "blue", "correct_response": "b", "trial_id": "stroop-trial-1-unrelated-13", "trial_type": "html-keyboard-response", "trial_index": 81, "time_elapsed": 157570, "internal_node_id": "0.0-4.0-77.0"}}, {"uniqueid": "w27930822:a66273202", "current_trial": 82, "dateTime": 1664368026468, "trialdata": {"rt": 634, "stimulus": "<p id='stroop-text' class='stroop-blue'>BLUE</p>", "response": "b", "stimulus-type": "congruent", "word": "blue", "color": "blue", "correct_response": "b", "trial_id": "stroop-trial-1-congruent-4", "trial_type": "html-keyboard-response", "trial_index": 82, "time_elapsed": 158709, "internal_node_id": "0.0-4.0-78.0"}}, {"uniqueid": "w27930822:a66273202", "current_trial": 83, "dateTime": 1664368027701, "trialdata": {"rt": 728, "stimulus": "<p id='stroop-text' class='stroop-green'>MONKEY</p>", "response": "g", "stimulus-type": "unrelated", "word": "MONKEY", "color": "green", "correct_response": "g", "trial_id": "stroop-trial-1-unrelated-18", "trial_type": "html-keyboard-response", "trial_index": 83, "time_elapsed": 159942, "internal_node_id": "0.0-4.0-79.0"}}, {"uniqueid": "w27930822:a66273202", "current_trial": 84, "dateTime": 1664368028650, "trialdata": {"rt": 446, "stimulus": "<p id='stroop-text' class='stroop-yellow'>YELLOW</p>", "response": "y", "stimulus-type": "congruent", "word": "yellow", "color": "yellow", "correct_response": "y", "trial_id": "stroop-trial-1-congruent-6", "trial_type": "html-keyboard-response", "trial_index": 84, "time_elapsed": 160891, "internal_node_id": "0.0-4.0-80.0"}}, {"uniqueid": "w27930822:a66273202", "current_trial": 85, "dateTime": 1664368029767, "trialdata": {"rt": 612, "stimulus": "<p id='stroop-text' class='stroop-red'>YELLOW</p>", "response": "r", "stimulus-type": "incongruent", "word": "yellow", "color": "red", "correct_response": "r", "trial_id": "stroop-trial-1-incongruent-7", "trial_type": "html-keyboard-response", "trial_index": 85, "time_elapsed": 162008, "internal_node_id": "0.0-4.0-81.0"}}, {"uniqueid": "w27930822:a66273202", "current_trial": 86, "dateTime": 1664368030969, "trialdata": {"rt": 697, "stimulus": "<p id='stroop-text' class='stroop-yellow'>GREEN</p>", "response": "y", "stimulus-type": "incongruent", "word": "green", "color": "yellow", "correct_response": "y", "trial_id": "stroop-trial-1-incongruent-15", "trial_type": "html-keyboard-response", "trial_index": 86, "time_elapsed": 163210, "internal_node_id": "0.0-4.0-82.0"}}, {"uniqueid": "w27930822:a66273202", "current_trial": 87, "dateTime": 1664368032091, "trialdata": {"rt": 619, "stimulus": "<p id='stroop-text' class='stroop-blue'>BLUE</p>", "response": "b", "stimulus-type": "congruent", "word": "blue", "color": "blue", "correct_response": "b", "trial_id": "stroop-trial-1-congruent-23", "trial_type": "html-keyboard-response", "trial_index": 87, "time_elapsed": 164331, "internal_node_id": "0.0-4.0-83.0"}}, {"uniqueid": "w27930822:a66273202", "current_trial": 88, "dateTime": 1664368033201, "trialdata": {"rt": 606, "stimulus": "<p id='stroop-text' class='stroop-blue'>BLUE</p>", "response": "b", "stimulus-type": "congruent", "word": "blue", "color": "blue", "correct_response": "b", "trial_id": "stroop-trial-1-congruent-28", "trial_type": "html-keyboard-response", "trial_index": 88, "time_elapsed": 165442, "internal_node_id": "0.0-4.0-84.0"}}, {"uniqueid": "w27930822:a66273202", "current_trial": 89, "dateTime": 1664368034749, "trialdata": {"rt": 1042, "stimulus": "<p id='stroop-text' class='stroop-yellow'>FORK</p>", "response": "y", "stimulus-type": "unrelated", "word": "FORK", "color": "yellow", "correct_response": "y", "trial_id": "stroop-trial-1-unrelated-17", "trial_type": "html-keyboard-response", "trial_index": 89, "time_elapsed": 166990, "internal_node_id": "0.0-4.0-85.0"}}, {"uniqueid": "w27930822:a66273202", "current_trial": 90, "dateTime": 1664368035821, "trialdata": {"rt": 567, "stimulus": "<p id='stroop-text' class='stroop-red'>YELLOW</p>", "response": "r", "stimulus-type": "incongruent", "word": "yellow", "color": "red", "correct_response": "r", "trial_id": "stroop-trial-1-incongruent-19", "trial_type": "html-keyboard-response", "trial_index": 90, "time_elapsed": 168062, "internal_node_id": "0.0-4.0-86.0"}}, {"uniqueid": "w27930822:a66273202", "current_trial": 91, "dateTime": 1664368036915, "trialdata": {"rt": 590, "stimulus": "<p id='stroop-text' class='stroop-blue'>CHAIR</p>", "response": "b", "stimulus-type": "unrelated", "word": "CHAIR", "color": "blue", "correct_response": "b", "trial_id": "stroop-trial-1-unrelated-21", "trial_type": "html-keyboard-response", "trial_index": 91, "time_elapsed": 169156, "internal_node_id": "0.0-4.0-87.0"}}, {"uniqueid": "w27930822:a66273202", "current_trial": 92, "dateTime": 1664368038262, "trialdata": {"rt": 844, "stimulus": "<p id='stroop-text' class='stroop-red'>YELLOW</p>", "response": "r", "stimulus-type": "incongruent", "word": "yellow", "color": "red", "correct_response": "r", "trial_id": "stroop-trial-1-incongruent-27", "trial_type": "html-keyboard-response", "trial_index": 92, "time_elapsed": 170503, "internal_node_id": "0.0-4.0-88.0"}}, {"uniqueid": "w27930822:a66273202", "current_trial": 93, "dateTime": 1664368039430, "trialdata": {"rt": 663, "stimulus": "<p id='stroop-text' class='stroop-green'>RED</p>", "response": "g", "stimulus-type": "incongruent", "word": "red", "color": "green", "correct_response": "g", "trial_id": "stroop-trial-1-incongruent-3", "trial_type": "html-keyboard-response", "trial_index": 93, "time_elapsed": 171671, "internal_node_id": "0.0-4.0-89.0"}}, {"uniqueid": "w27930822:a66273202", "current_trial": 94, "dateTime": 1664368046077, "trialdata": {"rt": 6142, "stimulus": "  <h1> End of block! </h1>\n\n  You have reached the end of the block 1/5. If you need a short break, feel free to take one now before moving on.\n\n  <br><br>\n  In the next block, you will complete another 90 rounds of this game.\n\n  <br><br>\n  <div style='text-align: center;'>Press <code>space</code> to begin.</div>\n  <br><br>\n<div style='text-align: center;'>(If the experiment doesn't continue, try clicking on the text and then pressing <code>space</code>.)</div>", "response": " ", "trial_id": "stroop_1_ready_2", "trial_type": "html-keyboard-response", "trial_index": 94, "time_elapsed": 178318, "internal_node_id": "0.0-5.0"}}, {"uniqueid": "w27930822:a66273202", "current_trial": 95, "dateTime": 1664368046849, "trialdata": {"rt": 767, "stimulus": "<p id='stroop-text' class='stroop-red'>BLUE</p>", "response": "r", "stimulus-type": "incongruent", "word": "blue", "color": "red", "correct_response": "r", "trial_id": "stroop-trial-1-incongruent-21", "trial_type": "html-keyboard-response", "trial_index": 95, "time_elapsed": 179089, "internal_node_id": "0.0-6.0-0.0"}}, {"uniqueid": "w27930822:a66273202", "current_trial": 96, "dateTime": 1664368047916, "trialdata": {"rt": 563, "stimulus": "<p id='stroop-text' class='stroop-blue'>WINDOW</p>", "response": "b", "stimulus-type": "unrelated", "word": "WINDOW", "color": "blue", "correct_response": "b", "trial_id": "stroop-trial-1-unrelated-21", "trial_type": "html-keyboard-response", "trial_index": 96, "time_elapsed": 180156, "internal_node_id": "0.0-6.0-1.0"}}, {"uniqueid": "w27930822:a66273202", "current_trial": 97, "dateTime": 1664368048990, "trialdata": {"rt": 572, "stimulus": "<p id='stroop-text' class='stroop-red'>RED</p>", "response": "r", "stimulus-type": "congruent", "word": "red", "color": "red", "correct_response": "r", "trial_id": "stroop-trial-1-congruent-11", "trial_type": "html-keyboard-response", "trial_index": 97, "time_elapsed": 181231, "internal_node_id": "0.0-6.0-2.0"}}, {"uniqueid": "w27930822:a66273202", "current_trial": 98, "dateTime": 1664368051966, "trialdata": {"rt": 2470, "stimulus": "<p id='stroop-text' class='stroop-blue'>RED</p>", "response": "b", "stimulus-type": "incongruent", "word": "red", "color": "blue", "correct_response": "b", "trial_id": "stroop-trial-1-incongruent-16", "trial_type": "html-keyboard-response", "trial_index": 98, "time_elapsed": 184207, "internal_node_id": "0.0-6.0-3.0"}}, {"uniqueid": "w27930822:a66273202", "current_trial": 99, "dateTime": 1664368053101, "trialdata": {"rt": 631, "stimulus": "<p id='stroop-text' class='stroop-yellow'>YELLOW</p>", "response": "y", "stimulus-type": "congruent", "word": "yellow", "color": "yellow", "correct_response": "y", "trial_id": "stroop-trial-1-congruent-30", "trial_type": "html-keyboard-response", "trial_index": 99, "time_elapsed": 185341, "internal_node_id": "0.0-6.0-4.0"}}, {"uniqueid": "w27930822:a66273202", "current_trial": 100, "dateTime": 1664368054253, "trialdata": {"rt": 648, "stimulus": "<p id='stroop-text' class='stroop-red'>BLUE</p>", "response": "r", "stimulus-type": "incongruent", "word": "blue", "color": "red", "correct_response": "r", "trial_id": "stroop-trial-1-incongruent-19", "trial_type": "html-keyboard-response", "trial_index": 100, "time_elapsed": 186493, "internal_node_id": "0.0-6.0-5.0"}}, {"uniqueid": "w27930822:a66273202", "current_trial": 101, "dateTime": 1664368055397, "trialdata": {"rt": 640, "stimulus": "<p id='stroop-text' class='stroop-green'>YELLOW</p>", "response": "g", "stimulus-type": "incongruent", "word": "yellow", "color": "green", "correct_response": "g", "trial_id": "stroop-trial-1-incongruent-11", "trial_type": "html-keyboard-response", "trial_index": 101, "time_elapsed": 187637, "internal_node_id": "0.0-6.0-6.0"}}, {"uniqueid": "w27930822:a66273202", "current_trial": 102, "dateTime": 1664368056443, "trialdata": {"rt": 544, "stimulus": "<p id='stroop-text' class='stroop-yellow'>YELLOW</p>", "response": "y", "stimulus-type": "congruent", "word": "yellow", "color": "yellow", "correct_response": "y", "trial_id": "stroop-trial-1-congruent-29", "trial_type": "html-keyboard-response", "trial_index": 102, "time_elapsed": 188684, "internal_node_id": "0.0-6.0-7.0"}}, {"uniqueid": "w27930822:a66273202", "current_trial": 103, "dateTime": 1664368057535, "trialdata": {"rt": 587, "stimulus": "<p id='stroop-text' class='stroop-red'>RED</p>", "response": "r", "stimulus-type": "congruent", "word": "red", "color": "red", "correct_response": "r", "trial_id": "stroop-trial-1-congruent-16", "trial_type": "html-keyboard-response", "trial_index": 103, "time_elapsed": 189775, "internal_node_id": "0.0-6.0-8.0"}}, {"uniqueid": "w27930822:a66273202", "current_trial": 104, "dateTime": 1664368058852, "trialdata": {"rt": 814, "stimulus": "<p id='stroop-text' class='stroop-yellow'>YELLOW</p>", "response": "y", "stimulus-type": "congruent", "word": "yellow", "color": "yellow", "correct_response": "y", "trial_id": "stroop-trial-1-congruent-9", "trial_type": "html-keyboard-response", "trial_index": 104, "time_elapsed": 191093, "internal_node_id": "0.0-6.0-9.0"}}, {"uniqueid": "w27930822:a66273202", "current_trial": 105, "dateTime": 1664368060032, "trialdata": {"rt": 674, "stimulus": "<p id='stroop-text' class='stroop-red'>BLUE</p>", "response": "r", "stimulus-type": "incongruent", "word": "blue", "color": "red", "correct_response": "r", "trial_id": "stroop-trial-1-incongruent-7", "trial_type": "html-keyboard-response", "trial_index": 105, "time_elapsed": 192272, "internal_node_id": "0.0-6.0-10.0"}}, {"uniqueid": "w27930822:a66273202", "current_trial": 106, "dateTime": 1664368061116, "trialdata": {"rt": 581, "stimulus": "<p id='stroop-text' class='stroop-blue'>BLUE</p>", "response": "b", "stimulus-type": "congruent", "word": "blue", "color": "blue", "correct_response": "b", "trial_id": "stroop-trial-1-congruent-23", "trial_type": "html-keyboard-response", "trial_index": 106, "time_elapsed": 193357, "internal_node_id": "0.0-6.0-11.0"}}, {"uniqueid": "w27930822:a66273202", "current_trial": 107, "dateTime": 1664368062446, "trialdata": {"rt": 826, "stimulus": "<p id='stroop-text' class='stroop-blue'>DOG</p>", "response": "b", "stimulus-type": "unrelated", "word": "DOG", "color": "blue", "correct_response": "b", "trial_id": "stroop-trial-1-unrelated-12", "trial_type": "html-keyboard-response", "trial_index": 107, "time_elapsed": 194687, "internal_node_id": "0.0-6.0-12.0"}}, {"uniqueid": "w27930822:a66273202", "current_trial": 108, "dateTime": 1664368063408, "trialdata": {"rt": 457, "stimulus": "<p id='stroop-text' class='stroop-blue'>RED</p>", "response": "b", "stimulus-type": "incongruent", "word": "red", "color": "blue", "correct_response": "b", "trial_id": "stroop-trial-1-incongruent-6", "trial_type": "html-keyboard-response", "trial_index": 108, "time_elapsed": 195648, "internal_node_id": "0.0-6.0-13.0"}}, {"uniqueid": "w27930822:a66273202", "current_trial": 109, "dateTime": 1664368064368, "trialdata": {"rt": 457, "stimulus": "<p id='stroop-text' class='stroop-blue'>DOG</p>", "response": "b", "stimulus-type": "unrelated", "word": "DOG", "color": "blue", "correct_response": "b", "trial_id": "stroop-trial-1-unrelated-6", "trial_type": "html-keyboard-response", "trial_index": 109, "time_elapsed": 196609, "internal_node_id": "0.0-6.0-14.0"}}, {"uniqueid": "w27930822:a66273202", "current_trial": 110, "dateTime": 1664368065279, "trialdata": {"rt": 405, "stimulus": "<p id='stroop-text' class='stroop-blue'>BOAT</p>", "response": "b", "stimulus-type": "unrelated", "word": "BOAT", "color": "blue", "correct_response": "b", "trial_id": "stroop-trial-1-unrelated-9", "trial_type": "html-keyboard-response", "trial_index": 110, "time_elapsed": 197520, "internal_node_id": "0.0-6.0-15.0"}}, {"uniqueid": "w27930822:a66273202", "current_trial": 111, "dateTime": 1664368066634, "trialdata": {"rt": 852, "stimulus": "<p id='stroop-text' class='stroop-green'>YELLOW</p>", "response": "g", "stimulus-type": "incongruent", "word": "yellow", "color": "green", "correct_response": "g", "trial_id": "stroop-trial-1-incongruent-25", "trial_type": "html-keyboard-response", "trial_index": 111, "time_elapsed": 198875, "internal_node_id": "0.0-6.0-16.0"}}, {"uniqueid": "w27930822:a66273202", "current_trial": 112, "dateTime": 1664368067672, "trialdata": {"rt": 533, "stimulus": "<p id='stroop-text' class='stroop-red'>YELLOW</p>", "response": "r", "stimulus-type": "incongruent", "word": "yellow", "color": "red", "correct_response": "r", "trial_id": "stroop-trial-1-incongruent-23", "trial_type": "html-keyboard-response", "trial_index": 112, "time_elapsed": 199913, "internal_node_id": "0.0-6.0-17.0"}}, {"uniqueid": "w27930822:a66273202", "current_trial": 113, "dateTime": 1664368068959, "trialdata": {"rt": 782, "stimulus": "<p id='stroop-text' class='stroop-green'>GREEN</p>", "response": "g", "stimulus-type": "congruent", "word": "green", "color": "green", "correct_response": "g", "trial_id": "stroop-trial-1-congruent-24", "trial_type": "html-keyboard-response", "trial_index": 113, "time_elapsed": 201200, "internal_node_id": "0.0-6.0-18.0"}}, {"uniqueid": "w27930822:a66273202", "current_trial": 114, "dateTime": 1664368070294, "trialdata": {"rt": 831, "stimulus": "<p id='stroop-text' class='stroop-green'>BLUE</p>", "response": "g", "stimulus-type": "incongruent", "word": "blue", "color": "green", "correct_response": "g", "trial_id": "stroop-trial-1-incongruent-17", "trial_type": "html-keyboard-response", "trial_index": 114, "time_elapsed": 202535, "internal_node_id": "0.0-6.0-19.0"}}, {"uniqueid": "w27930822:a66273202", "current_trial": 115, "dateTime": 1664368071332, "trialdata": {"rt": 534, "stimulus": "<p id='stroop-text' class='stroop-blue'>BLUE</p>", "response": "b", "stimulus-type": "congruent", "word": "blue", "color": "blue", "correct_response": "b", "trial_id": "stroop-trial-1-congruent-10", "trial_type": "html-keyboard-response", "trial_index": 115, "time_elapsed": 203572, "internal_node_id": "0.0-6.0-20.0"}}, {"uniqueid": "w27930822:a66273202", "current_trial": 116, "dateTime": 1664368072462, "trialdata": {"rt": 626, "stimulus": "<p id='stroop-text' class='stroop-red'>BLUE</p>", "response": "r", "stimulus-type": "incongruent", "word": "blue", "color": "red", "correct_response": "r", "trial_id": "stroop-trial-1-incongruent-28", "trial_type": "html-keyboard-response", "trial_index": 116, "time_elapsed": 204702, "internal_node_id": "0.0-6.0-21.0"}}, {"uniqueid": "w27930822:a66273202", "current_trial": 117, "dateTime": 1664368073497, "trialdata": {"rt": 530, "stimulus": "<p id='stroop-text' class='stroop-red'>RED</p>", "response": "r", "stimulus-type": "congruent", "word": "red", "color": "red", "correct_response": "r", "trial_id": "stroop-trial-1-congruent-25", "trial_type": "html-keyboard-response", "trial_index": 117, "time_elapsed": 205737, "internal_node_id": "0.0-6.0-22.0"}}, {"uniqueid": "w27930822:a66273202", "current_trial": 118, "dateTime": 1664368074610, "trialdata": {"rt": 609, "stimulus": "<p id='stroop-text' class='stroop-green'>MONKEY</p>", "response": "g", "stimulus-type": "unrelated", "word": "MONKEY", "color": "green", "correct_response": "g", "trial_id": "stroop-trial-1-unrelated-18", "trial_type": "html-keyboard-response", "trial_index": 118, "time_elapsed": 206851, "internal_node_id": "0.0-6.0-23.0"}}, {"uniqueid": "w27930822:a66273202", "current_trial": 119, "dateTime": 1664368075619, "trialdata": {"rt": 503, "stimulus": "<p id='stroop-text' class='stroop-yellow'>YELLOW</p>", "response": "y", "stimulus-type": "congruent", "word": "yellow", "color": "yellow", "correct_response": "y", "trial_id": "stroop-trial-1-congruent-19", "trial_type": "html-keyboard-response", "trial_index": 119, "time_elapsed": 207859, "internal_node_id": "0.0-6.0-24.0"}}, {"uniqueid": "w27930822:a66273202", "current_trial": 120, "dateTime": 1664368076681, "trialdata": {"rt": 556, "stimulus": "<p id='stroop-text' class='stroop-yellow'>CHAIR</p>", "response": "y", "stimulus-type": "unrelated", "word": "CHAIR", "color": "yellow", "correct_response": "y", "trial_id": "stroop-trial-1-unrelated-16", "trial_type": "html-keyboard-response", "trial_index": 120, "time_elapsed": 208922, "internal_node_id": "0.0-6.0-25.0"}}, {"uniqueid": "w27930822:a66273202", "current_trial": 121, "dateTime": 1664368077723, "trialdata": {"rt": 538, "stimulus": "<p id='stroop-text' class='stroop-green'>GREEN</p>", "response": "g", "stimulus-type": "congruent", "word": "green", "color": "green", "correct_response": "g", "trial_id": "stroop-trial-1-congruent-20", "trial_type": "html-keyboard-response", "trial_index": 121, "time_elapsed": 209964, "internal_node_id": "0.0-6.0-26.0"}}, {"uniqueid": "w27930822:a66273202", "current_trial": 122, "dateTime": 1664368078683, "trialdata": {"rt": 454, "stimulus": "<p id='stroop-text' class='stroop-green'>GREEN</p>", "response": "g", "stimulus-type": "congruent", "word": "green", "color": "green", "correct_response": "g", "trial_id": "stroop-trial-1-congruent-26", "trial_type": "html-keyboard-response", "trial_index": 122, "time_elapsed": 210923, "internal_node_id": "0.0-6.0-27.0"}}, {"uniqueid": "w27930822:a66273202", "current_trial": 123, "dateTime": 1664368079611, "trialdata": {"rt": 424, "stimulus": "<p id='stroop-text' class='stroop-green'>GREEN</p>", "response": "g", "stimulus-type": "congruent", "word": "green", "color": "green", "correct_response": "g", "trial_id": "stroop-trial-1-congruent-15", "trial_type": "html-keyboard-response", "trial_index": 123, "time_elapsed": 211851, "internal_node_id": "0.0-6.0-28.0"}}, {"uniqueid": "w27930822:a66273202", "current_trial": 124, "dateTime": 1664368080654, "trialdata": {"rt": 540, "stimulus": "<p id='stroop-text' class='stroop-red'>GREEN</p>", "response": "r", "stimulus-type": "incongruent", "word": "green", "color": "red", "correct_response": "r", "trial_id": "stroop-trial-1-incongruent-27", "trial_type": "html-keyboard-response", "trial_index": 124, "time_elapsed": 212895, "internal_node_id": "0.0-6.0-29.0"}}, {"uniqueid": "w27930822:a66273202", "current_trial": 125, "dateTime": 1664368081666, "trialdata": {"rt": 508, "stimulus": "<p id='stroop-text' class='stroop-red'>RED</p>", "response": "r", "stimulus-type": "congruent", "word": "red", "color": "red", "correct_response": "r", "trial_id": "stroop-trial-1-congruent-2", "trial_type": "html-keyboard-response", "trial_index": 125, "time_elapsed": 213907, "internal_node_id": "0.0-6.0-30.0"}}, {"uniqueid": "w27930822:a66273202", "current_trial": 126, "dateTime": 1664368082899, "trialdata": {"rt": 728, "stimulus": "<p id='stroop-text' class='stroop-green'>GREEN</p>", "response": "g", "stimulus-type": "congruent", "word": "green", "color": "green", "correct_response": "g", "trial_id": "stroop-trial-1-congruent-8", "trial_type": "html-keyboard-response", "trial_index": 126, "time_elapsed": 215139, "internal_node_id": "0.0-6.0-31.0"}}, {"uniqueid": "w27930822:a66273202", "current_trial": 127, "dateTime": 1664368083967, "trialdata": {"rt": 562, "stimulus": "<p id='stroop-text' class='stroop-yellow'>SHIP</p>", "response": "y", "stimulus-type": "unrelated", "word": "SHIP", "color": "yellow", "correct_response": "y", "trial_id": "stroop-trial-1-unrelated-23", "trial_type": "html-keyboard-response", "trial_index": 127, "time_elapsed": 216207, "internal_node_id": "0.0-6.0-32.0"}}, {"uniqueid": "w27930822:a66273202", "current_trial": 128, "dateTime": 1664368085568, "trialdata": {"rt": 1098, "stimulus": "<p id='stroop-text' class='stroop-green'>RED</p>", "response": "g", "stimulus-type": "incongruent", "word": "red", "color": "green", "correct_response": "g", "trial_id": "stroop-trial-1-incongruent-18", "trial_type": "html-keyboard-response", "trial_index": 128, "time_elapsed": 217809, "internal_node_id": "0.0-6.0-33.0"}}, {"uniqueid": "w27930822:a66273202", "current_trial": 129, "dateTime": 1664368086685, "trialdata": {"rt": 612, "stimulus": "<p id='stroop-text' class='stroop-yellow'>DOG</p>", "response": "y", "stimulus-type": "unrelated", "word": "DOG", "color": "yellow", "correct_response": "y", "trial_id": "stroop-trial-1-unrelated-20", "trial_type": "html-keyboard-response", "trial_index": 129, "time_elapsed": 218926, "internal_node_id": "0.0-6.0-34.0"}}, {"uniqueid": "w27930822:a66273202", "current_trial": 130, "dateTime": 1664368087690, "trialdata": {"rt": 500, "stimulus": "<p id='stroop-text' class='stroop-green'>GREEN</p>", "response": "g", "stimulus-type": "congruent", "word": "green", "color": "green", "correct_response": "g", "trial_id": "stroop-trial-1-congruent-13", "trial_type": "html-keyboard-response", "trial_index": 130, "time_elapsed": 219931, "internal_node_id": "0.0-6.0-35.0"}}, {"uniqueid": "w27930822:a66273202", "current_trial": 131, "dateTime": 1664368089267, "trialdata": {"rt": 1072, "stimulus": "<p id='stroop-text' class='stroop-green'>BOTTLE</p>", "response": "g", "stimulus-type": "unrelated", "word": "BOTTLE", "color": "green", "correct_response": "g", "trial_id": "stroop-trial-1-unrelated-5", "trial_type": "html-keyboard-response", "trial_index": 131, "time_elapsed": 221508, "internal_node_id": "0.0-6.0-36.0"}}, {"uniqueid": "w27930822:a66273202", "current_trial": 132, "dateTime": 1664368090315, "trialdata": {"rt": 544, "stimulus": "<p id='stroop-text' class='stroop-green'>CHAIR</p>", "response": "g", "stimulus-type": "unrelated", "word": "CHAIR", "color": "green", "correct_response": "g", "trial_id": "stroop-trial-1-unrelated-7", "trial_type": "html-keyboard-response", "trial_index": 132, "time_elapsed": 222556, "internal_node_id": "0.0-6.0-37.0"}}, {"uniqueid": "w27930822:a66273202", "current_trial": 133, "dateTime": 1664368091521, "trialdata": {"rt": 699, "stimulus": "<p id='stroop-text' class='stroop-blue'>BLUE</p>", "response": "b", "stimulus-type": "congruent", "word": "blue", "color": "blue", "correct_response": "b", "trial_id": "stroop-trial-1-congruent-28", "trial_type": "html-keyboard-response", "trial_index": 133, "time_elapsed": 223761, "internal_node_id": "0.0-6.0-38.0"}}, {"uniqueid": "w27930822:a66273202", "current_trial": 134, "dateTime": 1664368092617, "trialdata": {"rt": 592, "stimulus": "<p id='stroop-text' class='stroop-red'>STONE</p>", "response": "r", "stimulus-type": "unrelated", "word": "STONE", "color": "red", "correct_response": "r", "trial_id": "stroop-trial-1-unrelated-19", "trial_type": "html-keyboard-response", "trial_index": 134, "time_elapsed": 224858, "internal_node_id": "0.0-6.0-39.0"}}, {"uniqueid": "w27930822:a66273202", "current_trial": 135, "dateTime": 1664368093661, "trialdata": {"rt": 538, "stimulus": "<p id='stroop-text' class='stroop-red'>SHIP</p>", "response": "r", "stimulus-type": "unrelated", "word": "SHIP", "color": "red", "correct_response": "r", "trial_id": "stroop-trial-1-unrelated-30", "trial_type": "html-keyboard-response", "trial_index": 135, "time_elapsed": 225901, "internal_node_id": "0.0-6.0-40.0"}}, {"uniqueid": "w27930822:a66273202", "current_trial": 136, "dateTime": 1664368094647, "trialdata": {"rt": 482, "stimulus": "<p id='stroop-text' class='stroop-red'>GREEN</p>", "response": "r", "stimulus-type": "incongruent", "word": "green", "color": "red", "correct_response": "r", "trial_id": "stroop-trial-1-incongruent-30", "trial_type": "html-keyboard-response", "trial_index": 136, "time_elapsed": 226888, "internal_node_id": "0.0-6.0-41.0"}}, {"uniqueid": "w27930822:a66273202", "current_trial": 137, "dateTime": 1664368095934, "trialdata": {"rt": 783, "stimulus": "<p id='stroop-text' class='stroop-blue'>BRAIN</p>", "response": "b", "stimulus-type": "unrelated", "word": "BRAIN", "color": "blue", "correct_response": "b", "trial_id": "stroop-trial-1-unrelated-3", "trial_type": "html-keyboard-response", "trial_index": 137, "time_elapsed": 228175, "internal_node_id": "0.0-6.0-42.0"}}, {"uniqueid": "w27930822:a66273202", "current_trial": 138, "dateTime": 1664368097095, "trialdata": {"rt": 657, "stimulus": "<p id='stroop-text' class='stroop-blue'>GREEN</p>", "response": "b", "stimulus-type": "incongruent", "word": "green", "color": "blue", "correct_response": "b", "trial_id": "stroop-trial-1-incongruent-20", "trial_type": "html-keyboard-response", "trial_index": 138, "time_elapsed": 229336, "internal_node_id": "0.0-6.0-43.0"}}, {"uniqueid": "w27930822:a66273202", "current_trial": 139, "dateTime": 1664368098318, "trialdata": {"rt": 717, "stimulus": "<p id='stroop-text' class='stroop-yellow'>YELLOW</p>", "response": "y", "stimulus-type": "congruent", "word": "yellow", "color": "yellow", "correct_response": "y", "trial_id": "stroop-trial-1-congruent-14", "trial_type": "html-keyboard-response", "trial_index": 139, "time_elapsed": 230558, "internal_node_id": "0.0-6.0-44.0"}}, {"uniqueid": "w27930822:a66273202", "current_trial": 140, "dateTime": 1664368099824, "trialdata": {"rt": 1002, "stimulus": "<p id='stroop-text' class='stroop-blue'>GREEN</p>", "response": "b", "stimulus-type": "incongruent", "word": "green", "color": "blue", "correct_response": "b", "trial_id": "stroop-trial-1-incongruent-1", "trial_type": "html-keyboard-response", "trial_index": 140, "time_elapsed": 232065, "internal_node_id": "0.0-6.0-45.0"}}, {"uniqueid": "w27930822:a66273202", "current_trial": 141, "dateTime": 1664368100841, "trialdata": {"rt": 511, "stimulus": "<p id='stroop-text' class='stroop-blue'>WINDOW</p>", "response": "b", "stimulus-type": "unrelated", "word": "WINDOW", "color": "blue", "correct_response": "b", "trial_id": "stroop-trial-1-unrelated-22", "trial_type": "html-keyboard-response", "trial_index": 141, "time_elapsed": 233081, "internal_node_id": "0.0-6.0-46.0"}}, {"uniqueid": "w27930822:a66273202", "current_trial": 142, "dateTime": 1664368102147, "trialdata": {"rt": 802, "stimulus": "<p id='stroop-text' class='stroop-yellow'>BLUE</p>", "response": "y", "stimulus-type": "incongruent", "word": "blue", "color": "yellow", "correct_response": "y", "trial_id": "stroop-trial-1-incongruent-24", "trial_type": "html-keyboard-response", "trial_index": 142, "time_elapsed": 234387, "internal_node_id": "0.0-6.0-47.0"}}, {"uniqueid": "w27930822:a66273202", "current_trial": 143, "dateTime": 1664368103272, "trialdata": {"rt": 622, "stimulus": "<p id='stroop-text' class='stroop-green'>GREEN</p>", "response": "g", "stimulus-type": "congruent", "word": "green", "color": "green", "correct_response": "g", "trial_id": "stroop-trial-1-congruent-17", "trial_type": "html-keyboard-response", "trial_index": 143, "time_elapsed": 235512, "internal_node_id": "0.0-6.0-48.0"}}, {"uniqueid": "w27930822:a66273202", "current_trial": 144, "dateTime": 1664368104418, "trialdata": {"rt": 642, "stimulus": "<p id='stroop-text' class='stroop-red'>RED</p>", "response": "r", "stimulus-type": "congruent", "word": "red", "color": "red", "correct_response": "r", "trial_id": "stroop-trial-1-congruent-3", "trial_type": "html-keyboard-response", "trial_index": 144, "time_elapsed": 236658, "internal_node_id": "0.0-6.0-49.0"}}, {"uniqueid": "w27930822:a66273202", "current_trial": 145, "dateTime": 1664368106128, "trialdata": {"rt": 1204, "stimulus": "<p id='stroop-text' class='stroop-red'>BRAIN</p>", "response": "r", "stimulus-type": "unrelated", "word": "BRAIN", "color": "red", "correct_response": "r", "trial_id": "stroop-trial-1-unrelated-28", "trial_type": "html-keyboard-response", "trial_index": 145, "time_elapsed": 238369, "internal_node_id": "0.0-6.0-50.0"}}, {"uniqueid": "w27930822:a66273202", "current_trial": 146, "dateTime": 1664368107134, "trialdata": {"rt": 502, "stimulus": "<p id='stroop-text' class='stroop-red'>BLUE</p>", "response": "r", "stimulus-type": "incongruent", "word": "blue", "color": "red", "correct_response": "r", "trial_id": "stroop-trial-1-incongruent-12", "trial_type": "html-keyboard-response", "trial_index": 146, "time_elapsed": 239375, "internal_node_id": "0.0-6.0-51.0"}}, {"uniqueid": "w27930822:a66273202", "current_trial": 147, "dateTime": 1664368108391, "trialdata": {"rt": 752, "stimulus": "<p id='stroop-text' class='stroop-green'>GREEN</p>", "response": "g", "stimulus-type": "congruent", "word": "green", "color": "green", "correct_response": "g", "trial_id": "stroop-trial-1-congruent-5", "trial_type": "html-keyboard-response", "trial_index": 147, "time_elapsed": 240631, "internal_node_id": "0.0-6.0-52.0"}}, {"uniqueid": "w27930822:a66273202", "current_trial": 148, "dateTime": 1664368109518, "trialdata": {"rt": 622, "stimulus": "<p id='stroop-text' class='stroop-yellow'>YELLOW</p>", "response": "y", "stimulus-type": "congruent", "word": "yellow", "color": "yellow", "correct_response": "y", "trial_id": "stroop-trial-1-congruent-7", "trial_type": "html-keyboard-response", "trial_index": 148, "time_elapsed": 241758, "internal_node_id": "0.0-6.0-53.0"}}, {"uniqueid": "w27930822:a66273202", "current_trial": 149, "dateTime": 1664368110675, "trialdata": {"rt": 652, "stimulus": "<p id='stroop-text' class='stroop-yellow'>RED</p>", "response": "y", "stimulus-type": "incongruent", "word": "red", "color": "yellow", "correct_response": "y", "trial_id": "stroop-trial-1-incongruent-14", "trial_type": "html-keyboard-response", "trial_index": 149, "time_elapsed": 242916, "internal_node_id": "0.0-6.0-54.0"}}, {"uniqueid": "w27930822:a66273202", "current_trial": 150, "dateTime": 1664368111655, "trialdata": {"rt": 475, "stimulus": "<p id='stroop-text' class='stroop-yellow'>STONE</p>", "response": "y", "stimulus-type": "unrelated", "word": "STONE", "color": "yellow", "correct_response": "y", "trial_id": "stroop-trial-1-unrelated-4", "trial_type": "html-keyboard-response", "trial_index": 150, "time_elapsed": 243895, "internal_node_id": "0.0-6.0-55.0"}}, {"uniqueid": "w27930822:a66273202", "current_trial": 151, "dateTime": 1664368112770, "trialdata": {"rt": 611, "stimulus": "<p id='stroop-text' class='stroop-red'>MONKEY</p>", "response": "r", "stimulus-type": "unrelated", "word": "MONKEY", "color": "red", "correct_response": "r", "trial_id": "stroop-trial-1-unrelated-17", "trial_type": "html-keyboard-response", "trial_index": 151, "time_elapsed": 245010, "internal_node_id": "0.0-6.0-56.0"}}, {"uniqueid": "w27930822:a66273202", "current_trial": 152, "dateTime": 1664368113951, "trialdata": {"rt": 678, "stimulus": "<p id='stroop-text' class='stroop-yellow'>MONKEY</p>", "response": "y", "stimulus-type": "unrelated", "word": "MONKEY", "color": "yellow", "correct_response": "y", "trial_id": "stroop-trial-1-unrelated-13", "trial_type": "html-keyboard-response", "trial_index": 152, "time_elapsed": 246192, "internal_node_id": "0.0-6.0-57.0"}}, {"uniqueid": "w27930822:a66273202", "current_trial": 153, "dateTime": 1664368114919, "trialdata": {"rt": 461, "stimulus": "<p id='stroop-text' class='stroop-red'>RED</p>", "response": "g", "stimulus-type": "congruent", "word": "red", "color": "red", "correct_response": "r", "trial_id": "stroop-trial-1-congruent-12", "trial_type": "html-keyboard-response", "trial_index": 153, "time_elapsed": 247158, "internal_node_id": "0.0-6.0-58.0"}}, {"uniqueid": "w27930822:a66273202", "current_trial": 154, "dateTime": 1664368116535, "trialdata": {"rt": 1113, "stimulus": "<p id='stroop-text' class='stroop-green'>GREEN</p>", "response": "g", "stimulus-type": "congruent", "word": "green", "color": "green", "correct_response": "g", "trial_id": "stroop-trial-1-congruent-27", "trial_type": "html-keyboard-response", "trial_index": 154, "time_elapsed": 248775, "internal_node_id": "0.0-6.0-59.0"}}, {"uniqueid": "w27930822:a66273202", "current_trial": 155, "dateTime": 1664368117777, "trialdata": {"rt": 737, "stimulus": "<p id='stroop-text' class='stroop-red'>BLUE</p>", "response": "r", "stimulus-type": "incongruent", "word": "blue", "color": "red", "correct_response": "r", "trial_id": "stroop-trial-1-incongruent-2", "trial_type": "html-keyboard-response", "trial_index": 155, "time_elapsed": 250018, "internal_node_id": "0.0-6.0-60.0"}}, {"uniqueid": "w27930822:a66273202", "current_trial": 156, "dateTime": 1664368119167, "trialdata": {"rt": 884, "stimulus": "<p id='stroop-text' class='stroop-red'>RED</p>", "response": "r", "stimulus-type": "congruent", "word": "red", "color": "red", "correct_response": "r", "trial_id": "stroop-trial-1-congruent-1", "trial_type": "html-keyboard-response", "trial_index": 156, "time_elapsed": 251407, "internal_node_id": "0.0-6.0-61.0"}}, {"uniqueid": "w27930822:a66273202", "current_trial": 157, "dateTime": 1664368120334, "trialdata": {"rt": 663, "stimulus": "<p id='stroop-text' class='stroop-yellow'>BRAIN</p>", "response": "y", "stimulus-type": "unrelated", "word": "BRAIN", "color": "yellow", "correct_response": "y", "trial_id": "stroop-trial-1-unrelated-14", "trial_type": "html-keyboard-response", "trial_index": 157, "time_elapsed": 252575, "internal_node_id": "0.0-6.0-62.0"}}, {"uniqueid": "w27930822:a66273202", "current_trial": 158, "dateTime": 1664368121457, "trialdata": {"rt": 619, "stimulus": "<p id='stroop-text' class='stroop-green'>STONE</p>", "response": "g", "stimulus-type": "unrelated", "word": "STONE", "color": "green", "correct_response": "g", "trial_id": "stroop-trial-1-unrelated-26", "trial_type": "html-keyboard-response", "trial_index": 158, "time_elapsed": 253698, "internal_node_id": "0.0-6.0-63.0"}}, {"uniqueid": "w27930822:a66273202", "current_trial": 159, "dateTime": 1664368122577, "trialdata": {"rt": 616, "stimulus": "<p id='stroop-text' class='stroop-red'>RED</p>", "response": "r", "stimulus-type": "congruent", "word": "red", "color": "red", "correct_response": "r", "trial_id": "stroop-trial-1-congruent-22", "trial_type": "html-keyboard-response", "trial_index": 159, "time_elapsed": 254818, "internal_node_id": "0.0-6.0-64.0"}}, {"uniqueid": "w27930822:a66273202", "current_trial": 160, "dateTime": 1664368123625, "trialdata": {"rt": 543, "stimulus": "<p id='stroop-text' class='stroop-blue'>BOAT</p>", "response": "b", "stimulus-type": "unrelated", "word": "BOAT", "color": "blue", "correct_response": "b", "trial_id": "stroop-trial-1-unrelated-11", "trial_type": "html-keyboard-response", "trial_index": 160, "time_elapsed": 255866, "internal_node_id": "0.0-6.0-65.0"}}, {"uniqueid": "w27930822:a66273202", "current_trial": 161, "dateTime": 1664368124777, "trialdata": {"rt": 648, "stimulus": "<p id='stroop-text' class='stroop-yellow'>FORK</p>", "response": "y", "stimulus-type": "unrelated", "word": "FORK", "color": "yellow", "correct_response": "y", "trial_id": "stroop-trial-1-unrelated-27", "trial_type": "html-keyboard-response", "trial_index": 161, "time_elapsed": 257017, "internal_node_id": "0.0-6.0-66.0"}}, {"uniqueid": "w27930822:a66273202", "current_trial": 162, "dateTime": 1664368126283, "trialdata": {"rt": 1003, "stimulus": "<p id='stroop-text' class='stroop-yellow'>GREEN</p>", "response": "y", "stimulus-type": "incongruent", "word": "green", "color": "yellow", "correct_response": "y", "trial_id": "stroop-trial-1-incongruent-9", "trial_type": "html-keyboard-response", "trial_index": 162, "time_elapsed": 258524, "internal_node_id": "0.0-6.0-67.0"}}, {"uniqueid": "w27930822:a66273202", "current_trial": 163, "dateTime": 1664368127434, "trialdata": {"rt": 647, "stimulus": "<p id='stroop-text' class='stroop-red'>BLUE</p>", "response": "r", "stimulus-type": "incongruent", "word": "blue", "color": "red", "correct_response": "r", "trial_id": "stroop-trial-1-incongruent-3", "trial_type": "html-keyboard-response", "trial_index": 163, "time_elapsed": 259675, "internal_node_id": "0.0-6.0-68.0"}}, {"uniqueid": "w27930822:a66273202", "current_trial": 164, "dateTime": 1664368128552, "trialdata": {"rt": 613, "stimulus": "<p id='stroop-text' class='stroop-yellow'>STONE</p>", "response": "y", "stimulus-type": "unrelated", "word": "STONE", "color": "yellow", "correct_response": "y", "trial_id": "stroop-trial-1-unrelated-8", "trial_type": "html-keyboard-response", "trial_index": 164, "time_elapsed": 260793, "internal_node_id": "0.0-6.0-69.0"}}, {"uniqueid": "w27930822:a66273202", "current_trial": 165, "dateTime": 1664368129765, "trialdata": {"rt": 708, "stimulus": "<p id='stroop-text' class='stroop-yellow'>BLUE</p>", "response": "y", "stimulus-type": "incongruent", "word": "blue", "color": "yellow", "correct_response": "y", "trial_id": "stroop-trial-1-incongruent-8", "trial_type": "html-keyboard-response", "trial_index": 165, "time_elapsed": 262006, "internal_node_id": "0.0-6.0-70.0"}}, {"uniqueid": "w27930822:a66273202", "current_trial": 166, "dateTime": 1664368130829, "trialdata": {"rt": 558, "stimulus": "<p id='stroop-text' class='stroop-red'>STONE</p>", "response": "r", "stimulus-type": "unrelated", "word": "STONE", "color": "red", "correct_response": "r", "trial_id": "stroop-trial-1-unrelated-10", "trial_type": "html-keyboard-response", "trial_index": 166, "time_elapsed": 263069, "internal_node_id": "0.0-6.0-71.0"}}, {"uniqueid": "w27930822:a66273202", "current_trial": 167, "dateTime": 1664368131929, "trialdata": {"rt": 596, "stimulus": "<p id='stroop-text' class='stroop-blue'>WINDOW</p>", "response": "b", "stimulus-type": "unrelated", "word": "WINDOW", "color": "blue", "correct_response": "b", "trial_id": "stroop-trial-1-unrelated-2", "trial_type": "html-keyboard-response", "trial_index": 167, "time_elapsed": 264169, "internal_node_id": "0.0-6.0-72.0"}}, {"uniqueid": "w27930822:a66273202", "current_trial": 168, "dateTime": 1664368133200, "trialdata": {"rt": 768, "stimulus": "<p id='stroop-text' class='stroop-blue'>GREEN</p>", "response": "b", "stimulus-type": "incongruent", "word": "green", "color": "blue", "correct_response": "b", "trial_id": "stroop-trial-1-incongruent-15", "trial_type": "html-keyboard-response", "trial_index": 168, "time_elapsed": 265441, "internal_node_id": "0.0-6.0-73.0"}}, {"uniqueid": "w27930822:a66273202", "current_trial": 169, "dateTime": 1664368134211, "trialdata": {"rt": 506, "stimulus": "<p id='stroop-text' class='stroop-yellow'>YELLOW</p>", "response": "y", "stimulus-type": "congruent", "word": "yellow", "color": "yellow", "correct_response": "y", "trial_id": "stroop-trial-1-congruent-4", "trial_type": "html-keyboard-response", "trial_index": 169, "time_elapsed": 266452, "internal_node_id": "0.0-6.0-74.0"}}, {"uniqueid": "w27930822:a66273202", "current_trial": 170, "dateTime": 1664368135490, "trialdata": {"rt": 773, "stimulus": "<p id='stroop-text' class='stroop-yellow'>BRIDGE</p>", "response": "y", "stimulus-type": "unrelated", "word": "BRIDGE", "color": "yellow", "correct_response": "y", "trial_id": "stroop-trial-1-unrelated-1", "trial_type": "html-keyboard-response", "trial_index": 170, "time_elapsed": 267730, "internal_node_id": "0.0-6.0-75.0"}}, {"uniqueid": "w27930822:a66273202", "current_trial": 171, "dateTime": 1664368136590, "trialdata": {"rt": 595, "stimulus": "<p id='stroop-text' class='stroop-blue'>YELLOW</p>", "response": "g", "stimulus-type": "incongruent", "word": "yellow", "color": "blue", "correct_response": "b", "trial_id": "stroop-trial-1-incongruent-26", "trial_type": "html-keyboard-response", "trial_index": 171, "time_elapsed": 268830, "internal_node_id": "0.0-6.0-76.0"}}, {"uniqueid": "w27930822:a66273202", "current_trial": 172, "dateTime": 1664368138110, "trialdata": {"rt": 1016, "stimulus": "<p id='stroop-text' class='stroop-yellow'>BOAT</p>", "response": "y", "stimulus-type": "unrelated", "word": "BOAT", "color": "yellow", "correct_response": "y", "trial_id": "stroop-trial-1-unrelated-15", "trial_type": "html-keyboard-response", "trial_index": 172, "time_elapsed": 270351, "internal_node_id": "0.0-6.0-77.0"}}, {"uniqueid": "w27930822:a66273202", "current_trial": 173, "dateTime": 1664368140130, "trialdata": {"rt": 1516, "stimulus": "<p id='stroop-text' class='stroop-red'>GREEN</p>", "response": "r", "stimulus-type": "incongruent", "word": "green", "color": "red", "correct_response": "r", "trial_id": "stroop-trial-1-incongruent-4", "trial_type": "html-keyboard-response", "trial_index": 173, "time_elapsed": 272371, "internal_node_id": "0.0-6.0-78.0"}}, {"uniqueid": "w27930822:a66273202", "current_trial": 174, "dateTime": 1664368141407, "trialdata": {"rt": 772, "stimulus": "<p id='stroop-text' class='stroop-blue'>GREEN</p>", "response": "b", "stimulus-type": "incongruent", "word": "green", "color": "blue", "correct_response": "b", "trial_id": "stroop-trial-1-incongruent-29", "trial_type": "html-keyboard-response", "trial_index": 174, "time_elapsed": 273647, "internal_node_id": "0.0-6.0-79.0"}}, {"uniqueid": "w27930822:a66273202", "current_trial": 175, "dateTime": 1664368142623, "trialdata": {"rt": 712, "stimulus": "<p id='stroop-text' class='stroop-blue'>YELLOW</p>", "response": "b", "stimulus-type": "incongruent", "word": "yellow", "color": "blue", "correct_response": "b", "trial_id": "stroop-trial-1-incongruent-10", "trial_type": "html-keyboard-response", "trial_index": 175, "time_elapsed": 274864, "internal_node_id": "0.0-6.0-80.0"}}, {"uniqueid": "w27930822:a66273202", "current_trial": 176, "dateTime": 1664368143659, "trialdata": {"rt": 530, "stimulus": "<p id='stroop-text' class='stroop-blue'>BOAT</p>", "response": "b", "stimulus-type": "unrelated", "word": "BOAT", "color": "blue", "correct_response": "b", "trial_id": "stroop-trial-1-unrelated-29", "trial_type": "html-keyboard-response", "trial_index": 176, "time_elapsed": 275900, "internal_node_id": "0.0-6.0-81.0"}}, {"uniqueid": "w27930822:a66273202", "current_trial": 177, "dateTime": 1664368145131, "trialdata": {"rt": 968, "stimulus": "<p id='stroop-text' class='stroop-yellow'>YELLOW</p>", "response": "y", "stimulus-type": "congruent", "word": "yellow", "color": "yellow", "correct_response": "y", "trial_id": "stroop-trial-1-congruent-21", "trial_type": "html-keyboard-response", "trial_index": 177, "time_elapsed": 277372, "internal_node_id": "0.0-6.0-82.0"}}, {"uniqueid": "w27930822:a66273202", "current_trial": 178, "dateTime": 1664368147833, "trialdata": {"rt": 2197, "stimulus": "<p id='stroop-text' class='stroop-green'>GREEN</p>", "response": "g", "stimulus-type": "congruent", "word": "green", "color": "green", "correct_response": "g", "trial_id": "stroop-trial-1-congruent-6", "trial_type": "html-keyboard-response", "trial_index": 178, "time_elapsed": 280074, "internal_node_id": "0.0-6.0-83.0"}}, {"uniqueid": "w27930822:a66273202", "current_trial": 179, "dateTime": 1664368149183, "trialdata": {"rt": 844, "stimulus": "<p id='stroop-text' class='stroop-red'>BLUE</p>", "response": "r", "stimulus-type": "incongruent", "word": "blue", "color": "red", "correct_response": "r", "trial_id": "stroop-trial-1-incongruent-22", "trial_type": "html-keyboard-response", "trial_index": 179, "time_elapsed": 281423, "internal_node_id": "0.0-6.0-84.0"}}, {"uniqueid": "w27930822:a66273202", "current_trial": 180, "dateTime": 1664368150316, "trialdata": {"rt": 629, "stimulus": "<p id='stroop-text' class='stroop-blue'>SHIP</p>", "response": "b", "stimulus-type": "unrelated", "word": "SHIP", "color": "blue", "correct_response": "b", "trial_id": "stroop-trial-1-unrelated-24", "trial_type": "html-keyboard-response", "trial_index": 180, "time_elapsed": 282557, "internal_node_id": "0.0-6.0-85.0"}}, {"uniqueid": "w27930822:a66273202", "current_trial": 181, "dateTime": 1664368151624, "trialdata": {"rt": 803, "stimulus": "<p id='stroop-text' class='stroop-green'>YELLOW</p>", "response": "g", "stimulus-type": "incongruent", "word": "yellow", "color": "green", "correct_response": "g", "trial_id": "stroop-trial-1-incongruent-13", "trial_type": "html-keyboard-response", "trial_index": 181, "time_elapsed": 283865, "internal_node_id": "0.0-6.0-86.0"}}, {"uniqueid": "w27930822:a66273202", "current_trial": 182, "dateTime": 1664368152753, "trialdata": {"rt": 625, "stimulus": "<p id='stroop-text' class='stroop-red'>BOAT</p>", "response": "r", "stimulus-type": "unrelated", "word": "BOAT", "color": "red", "correct_response": "r", "trial_id": "stroop-trial-1-unrelated-25", "trial_type": "html-keyboard-response", "trial_index": 182, "time_elapsed": 284994, "internal_node_id": "0.0-6.0-87.0"}}, {"uniqueid": "w27930822:a66273202", "current_trial": 183, "dateTime": 1664368153898, "trialdata": {"rt": 639, "stimulus": "<p id='stroop-text' class='stroop-blue'>BLUE</p>", "response": "b", "stimulus-type": "congruent", "word": "blue", "color": "blue", "correct_response": "b", "trial_id": "stroop-trial-1-congruent-18", "trial_type": "html-keyboard-response", "trial_index": 183, "time_elapsed": 286138, "internal_node_id": "0.0-6.0-88.0"}}, {"uniqueid": "w27930822:a66273202", "current_trial": 184, "dateTime": 1664368155349, "trialdata": {"rt": 947, "stimulus": "<p id='stroop-text' class='stroop-green'>YELLOW</p>", "response": "g", "stimulus-type": "incongruent", "word": "yellow", "color": "green", "correct_response": "g", "trial_id": "stroop-trial-1-incongruent-5", "trial_type": "html-keyboard-response", "trial_index": 184, "time_elapsed": 287589, "internal_node_id": "0.0-6.0-89.0"}}, {"uniqueid": "w27930822:a66273202", "current_trial": 185, "dateTime": 1664368163937, "trialdata": {"rt": 8083, "stimulus": "  <h1> End of block! </h1>\n\n  You have reached the end of the block 2/5. If you need a short break, feel free to take one now before moving on.\n\n  <br><br>\n  In the next block, you will complete another 90 rounds of this game.\n\n  <br><br>\n  <div style='text-align: center;'>Press <code>space</code> to begin.</div>\n  <br><br>\n<div style='text-align: center;'>(If the experiment doesn't continue, try clicking on the text and then pressing <code>space</code>.)</div>", "response": " ", "trial_id": "stroop_1_ready_3", "trial_type": "html-keyboard-response", "trial_index": 185, "time_elapsed": 296178, "internal_node_id": "0.0-7.0"}}, {"uniqueid": "w27930822:a66273202", "current_trial": 186, "dateTime": 1664368165543, "trialdata": {"rt": 1599, "stimulus": "<p id='stroop-text' class='stroop-yellow'>GREEN</p>", "response": "y", "stimulus-type": "incongruent", "word": "green", "color": "yellow", "correct_response": "y", "trial_id": "stroop-trial-1-incongruent-20", "trial_type": "html-keyboard-response", "trial_index": 186, "time_elapsed": 297783, "internal_node_id": "0.0-8.0-0.0"}}, {"uniqueid": "w27930822:a66273202", "current_trial": 187, "dateTime": 1664368166603, "trialdata": {"rt": 556, "stimulus": "<p id='stroop-text' class='stroop-red'>RED</p>", "response": "r", "stimulus-type": "congruent", "word": "red", "color": "red", "correct_response": "r", "trial_id": "stroop-trial-1-congruent-20", "trial_type": "html-keyboard-response", "trial_index": 187, "time_elapsed": 298844, "internal_node_id": "0.0-8.0-1.0"}}, {"uniqueid": "w27930822:a66273202", "current_trial": 188, "dateTime": 1664368167813, "trialdata": {"rt": 705, "stimulus": "<p id='stroop-text' class='stroop-red'>RED</p>", "response": "r", "stimulus-type": "congruent", "word": "red", "color": "red", "correct_response": "r", "trial_id": "stroop-trial-1-congruent-3", "trial_type": "html-keyboard-response", "trial_index": 188, "time_elapsed": 300054, "internal_node_id": "0.0-8.0-2.0"}}, {"uniqueid": "w27930822:a66273202", "current_trial": 189, "dateTime": 1664368169099, "trialdata": {"rt": 781, "stimulus": "<p id='stroop-text' class='stroop-green'>RED</p>", "response": "g", "stimulus-type": "incongruent", "word": "red", "color": "green", "correct_response": "g", "trial_id": "stroop-trial-1-incongruent-13", "trial_type": "html-keyboard-response", "trial_index": 189, "time_elapsed": 301339, "internal_node_id": "0.0-8.0-3.0"}}, {"uniqueid": "w27930822:a66273202", "current_trial": 190, "dateTime": 1664368170886, "trialdata": {"rt": 1283, "stimulus": "<p id='stroop-text' class='stroop-blue'>BRAIN</p>", "response": "b", "stimulus-type": "unrelated", "word": "BRAIN", "color": "blue", "correct_response": "b", "trial_id": "stroop-trial-1-unrelated-3", "trial_type": "html-keyboard-response", "trial_index": 190, "time_elapsed": 303127, "internal_node_id": "0.0-8.0-4.0"}}, {"uniqueid": "w27930822:a66273202", "current_trial": 191, "dateTime": 1664368171826, "trialdata": {"rt": 435, "stimulus": "<p id='stroop-text' class='stroop-blue'>BOAT</p>", "response": "b", "stimulus-type": "unrelated", "word": "BOAT", "color": "blue", "correct_response": "b", "trial_id": "stroop-trial-1-unrelated-30", "trial_type": "html-keyboard-response", "trial_index": 191, "time_elapsed": 304066, "internal_node_id": "0.0-8.0-5.0"}}, {"uniqueid": "w27930822:a66273202", "current_trial": 192, "dateTime": 1664368172852, "trialdata": {"rt": 523, "stimulus": "<p id='stroop-text' class='stroop-blue'>STONE</p>", "response": "b", "stimulus-type": "unrelated", "word": "STONE", "color": "blue", "correct_response": "b", "trial_id": "stroop-trial-1-unrelated-20", "trial_type": "html-keyboard-response", "trial_index": 192, "time_elapsed": 305092, "internal_node_id": "0.0-8.0-6.0"}}, {"uniqueid": "w27930822:a66273202", "current_trial": 193, "dateTime": 1664368173944, "trialdata": {"rt": 588, "stimulus": "<p id='stroop-text' class='stroop-blue'>BLUE</p>", "response": "b", "stimulus-type": "congruent", "word": "blue", "color": "blue", "correct_response": "b", "trial_id": "stroop-trial-1-congruent-28", "trial_type": "html-keyboard-response", "trial_index": 193, "time_elapsed": 306185, "internal_node_id": "0.0-8.0-7.0"}}, {"uniqueid": "w27930822:a66273202", "current_trial": 194, "dateTime": 1664368175588, "trialdata": {"rt": 1140, "stimulus": "<p id='stroop-text' class='stroop-yellow'>YELLOW</p>", "response": "y", "stimulus-type": "congruent", "word": "yellow", "color": "yellow", "correct_response": "y", "trial_id": "stroop-trial-1-congruent-4", "trial_type": "html-keyboard-response", "trial_index": 194, "time_elapsed": 307829, "internal_node_id": "0.0-8.0-8.0"}}, {"uniqueid": "w27930822:a66273202", "current_trial": 195, "dateTime": 1664368176887, "trialdata": {"rt": 796, "stimulus": "<p id='stroop-text' class='stroop-red'>YELLOW</p>", "response": "r", "stimulus-type": "incongruent", "word": "yellow", "color": "red", "correct_response": "r", "trial_id": "stroop-trial-1-incongruent-4", "trial_type": "html-keyboard-response", "trial_index": 195, "time_elapsed": 309127, "internal_node_id": "0.0-8.0-9.0"}}, {"uniqueid": "w27930822:a66273202", "current_trial": 196, "dateTime": 1664368178021, "trialdata": {"rt": 630, "stimulus": "<p id='stroop-text' class='stroop-red'>RED</p>", "response": "r", "stimulus-type": "congruent", "word": "red", "color": "red", "correct_response": "r", "trial_id": "stroop-trial-1-congruent-19", "trial_type": "html-keyboard-response", "trial_index": 196, "time_elapsed": 310262, "internal_node_id": "0.0-8.0-10.0"}}, {"uniqueid": "w27930822:a66273202", "current_trial": 197, "dateTime": 1664368179121, "trialdata": {"rt": 590, "stimulus": "<p id='stroop-text' class='stroop-yellow'>BRAIN</p>", "response": "y", "stimulus-type": "unrelated", "word": "BRAIN", "color": "yellow", "correct_response": "y", "trial_id": "stroop-trial-1-unrelated-8", "trial_type": "html-keyboard-response", "trial_index": 197, "time_elapsed": 311362, "internal_node_id": "0.0-8.0-11.0"}}, {"uniqueid": "w27930822:a66273202", "current_trial": 198, "dateTime": 1664368180277, "trialdata": {"rt": 652, "stimulus": "<p id='stroop-text' class='stroop-red'>RED</p>", "response": "r", "stimulus-type": "congruent", "word": "red", "color": "red", "correct_response": "r", "trial_id": "stroop-trial-1-congruent-7", "trial_type": "html-keyboard-response", "trial_index": 198, "time_elapsed": 312518, "internal_node_id": "0.0-8.0-12.0"}}, {"uniqueid": "w27930822:a66273202", "current_trial": 199, "dateTime": 1664368181445, "trialdata": {"rt": 665, "stimulus": "<p id='stroop-text' class='stroop-red'>YELLOW</p>", "response": "r", "stimulus-type": "incongruent", "word": "yellow", "color": "red", "correct_response": "r", "trial_id": "stroop-trial-1-incongruent-18", "trial_type": "html-keyboard-response", "trial_index": 199, "time_elapsed": 313686, "internal_node_id": "0.0-8.0-13.0"}}, {"uniqueid": "w27930822:a66273202", "current_trial": 200, "dateTime": 1664368182507, "trialdata": {"rt": 559, "stimulus": "<p id='stroop-text' class='stroop-green'>GREEN</p>", "response": "b", "stimulus-type": "congruent", "word": "green", "color": "green", "correct_response": "g", "trial_id": "stroop-trial-1-congruent-17", "trial_type": "html-keyboard-response", "trial_index": 200, "time_elapsed": 314747, "internal_node_id": "0.0-8.0-14.0"}}, {"uniqueid": "w27930822:a66273202", "current_trial": 201, "dateTime": 1664368183725, "trialdata": {"rt": 713, "stimulus": "<p id='stroop-text' class='stroop-blue'>RED</p>", "response": "b", "stimulus-type": "incongruent", "word": "red", "color": "blue", "correct_response": "b", "trial_id": "stroop-trial-1-incongruent-24", "trial_type": "html-keyboard-response", "trial_index": 201, "time_elapsed": 315966, "internal_node_id": "0.0-8.0-15.0"}}, {"uniqueid": "w27930822:a66273202", "current_trial": 202, "dateTime": 1664368184912, "trialdata": {"rt": 683, "stimulus": "<p id='stroop-text' class='stroop-yellow'>BLUE</p>", "response": "y", "stimulus-type": "incongruent", "word": "blue", "color": "yellow", "correct_response": "y", "trial_id": "stroop-trial-1-incongruent-29", "trial_type": "html-keyboard-response", "trial_index": 202, "time_elapsed": 317153, "internal_node_id": "0.0-8.0-16.0"}}, {"uniqueid": "w27930822:a66273202", "current_trial": 203, "dateTime": 1664368186231, "trialdata": {"rt": 815, "stimulus": "<p id='stroop-text' class='stroop-red'>RED</p>", "response": "r", "stimulus-type": "congruent", "word": "red", "color": "red", "correct_response": "r", "trial_id": "stroop-trial-1-congruent-21", "trial_type": "html-keyboard-response", "trial_index": 203, "time_elapsed": 318472, "internal_node_id": "0.0-8.0-17.0"}}, {"uniqueid": "w27930822:a66273202", "current_trial": 204, "dateTime": 1664368187481, "trialdata": {"rt": 744, "stimulus": "<p id='stroop-text' class='stroop-green'>GREEN</p>", "response": "g", "stimulus-type": "congruent", "word": "green", "color": "green", "correct_response": "g", "trial_id": "stroop-trial-1-congruent-14", "trial_type": "html-keyboard-response", "trial_index": 204, "time_elapsed": 319721, "internal_node_id": "0.0-8.0-18.0"}}, {"uniqueid": "w27930822:a66273202", "current_trial": 205, "dateTime": 1664368188642, "trialdata": {"rt": 656, "stimulus": "<p id='stroop-text' class='stroop-blue'>RED</p>", "response": "b", "stimulus-type": "incongruent", "word": "red", "color": "blue", "correct_response": "b", "trial_id": "stroop-trial-1-incongruent-14", "trial_type": "html-keyboard-response", "trial_index": 205, "time_elapsed": 320883, "internal_node_id": "0.0-8.0-19.0"}}, {"uniqueid": "w27930822:a66273202", "current_trial": 206, "dateTime": 1664368189688, "trialdata": {"rt": 543, "stimulus": "<p id='stroop-text' class='stroop-yellow'>YELLOW</p>", "response": "y", "stimulus-type": "congruent", "word": "yellow", "color": "yellow", "correct_response": "y", "trial_id": "stroop-trial-1-congruent-12", "trial_type": "html-keyboard-response", "trial_index": 206, "time_elapsed": 321929, "internal_node_id": "0.0-8.0-20.0"}}, {"uniqueid": "w27930822:a66273202", "current_trial": 207, "dateTime": 1664368191039, "trialdata": {"rt": 846, "stimulus": "<p id='stroop-text' class='stroop-green'>BLUE</p>", "response": "g", "stimulus-type": "incongruent", "word": "blue", "color": "green", "correct_response": "g", "trial_id": "stroop-trial-1-incongruent-30", "trial_type": "html-keyboard-response", "trial_index": 207, "time_elapsed": 323280, "internal_node_id": "0.0-8.0-21.0"}}, {"uniqueid": "w27930822:a66273202", "current_trial": 208, "dateTime": 1664368192043, "trialdata": {"rt": 500, "stimulus": "<p id='stroop-text' class='stroop-yellow'>YELLOW</p>", "response": "y", "stimulus-type": "congruent", "word": "yellow", "color": "yellow", "correct_response": "y", "trial_id": "stroop-trial-1-congruent-8", "trial_type": "html-keyboard-response", "trial_index": 208, "time_elapsed": 324284, "internal_node_id": "0.0-8.0-22.0"}}, {"uniqueid": "w27930822:a66273202", "current_trial": 209, "dateTime": 1664368193161, "trialdata": {"rt": 614, "stimulus": "<p id='stroop-text' class='stroop-red'>RED</p>", "response": "r", "stimulus-type": "congruent", "word": "red", "color": "red", "correct_response": "r", "trial_id": "stroop-trial-1-congruent-29", "trial_type": "html-keyboard-response", "trial_index": 209, "time_elapsed": 325402, "internal_node_id": "0.0-8.0-23.0"}}, {"uniqueid": "w27930822:a66273202", "current_trial": 210, "dateTime": 1664368194144, "trialdata": {"rt": 476, "stimulus": "<p id='stroop-text' class='stroop-blue'>GREEN</p>", "response": "b", "stimulus-type": "incongruent", "word": "green", "color": "blue", "correct_response": "b", "trial_id": "stroop-trial-1-incongruent-23", "trial_type": "html-keyboard-response", "trial_index": 210, "time_elapsed": 326384, "internal_node_id": "0.0-8.0-24.0"}}, {"uniqueid": "w27930822:a66273202", "current_trial": 211, "dateTime": 1664368195451, "trialdata": {"rt": 804, "stimulus": "<p id='stroop-text' class='stroop-green'>RED</p>", "response": "g", "stimulus-type": "incongruent", "word": "red", "color": "green", "correct_response": "g", "trial_id": "stroop-trial-1-incongruent-12", "trial_type": "html-keyboard-response", "trial_index": 211, "time_elapsed": 327692, "internal_node_id": "0.0-8.0-25.0"}}, {"uniqueid": "w27930822:a66273202", "current_trial": 212, "dateTime": 1664368196686, "trialdata": {"rt": 731, "stimulus": "<p id='stroop-text' class='stroop-red'>YELLOW</p>", "response": "r", "stimulus-type": "incongruent", "word": "yellow", "color": "red", "correct_response": "r", "trial_id": "stroop-trial-1-incongruent-26", "trial_type": "html-keyboard-response", "trial_index": 212, "time_elapsed": 328927, "internal_node_id": "0.0-8.0-26.0"}}, {"uniqueid": "w27930822:a66273202", "current_trial": 213, "dateTime": 1664368198032, "trialdata": {"rt": 841, "stimulus": "<p id='stroop-text' class='stroop-red'>GREEN</p>", "response": "r", "stimulus-type": "incongruent", "word": "green", "color": "red", "correct_response": "r", "trial_id": "stroop-trial-1-incongruent-9", "trial_type": "html-keyboard-response", "trial_index": 213, "time_elapsed": 330273, "internal_node_id": "0.0-8.0-27.0"}}, {"uniqueid": "w27930822:a66273202", "current_trial": 214, "dateTime": 1664368199799, "trialdata": {"rt": 1262, "stimulus": "<p id='stroop-text' class='stroop-green'>MONKEY</p>", "response": "g", "stimulus-type": "unrelated", "word": "MONKEY", "color": "green", "correct_response": "g", "trial_id": "stroop-trial-1-unrelated-25", "trial_type": "html-keyboard-response", "trial_index": 214, "time_elapsed": 332040, "internal_node_id": "0.0-8.0-28.0"}}, {"uniqueid": "w27930822:a66273202", "current_trial": 215, "dateTime": 1664368200998, "trialdata": {"rt": 695, "stimulus": "<p id='stroop-text' class='stroop-blue'>WINDOW</p>", "response": "b", "stimulus-type": "unrelated", "word": "WINDOW", "color": "blue", "correct_response": "b", "trial_id": "stroop-trial-1-unrelated-1", "trial_type": "html-keyboard-response", "trial_index": 215, "time_elapsed": 333239, "internal_node_id": "0.0-8.0-29.0"}}, {"uniqueid": "w27930822:a66273202", "current_trial": 216, "dateTime": 1664368201900, "trialdata": {"rt": 398, "stimulus": "<p id='stroop-text' class='stroop-yellow'>BLUE</p>", "response": "y", "stimulus-type": "incongruent", "word": "blue", "color": "yellow", "correct_response": "y", "trial_id": "stroop-trial-1-incongruent-10", "trial_type": "html-keyboard-response", "trial_index": 216, "time_elapsed": 334141, "internal_node_id": "0.0-8.0-30.0"}}, {"uniqueid": "w27930822:a66273202", "current_trial": 217, "dateTime": 1664368203197, "trialdata": {"rt": 792, "stimulus": "<p id='stroop-text' class='stroop-blue'>WINDOW</p>", "response": "b", "stimulus-type": "unrelated", "word": "WINDOW", "color": "blue", "correct_response": "b", "trial_id": "stroop-trial-1-unrelated-9", "trial_type": "html-keyboard-response", "trial_index": 217, "time_elapsed": 335437, "internal_node_id": "0.0-8.0-31.0"}}, {"uniqueid": "w27930822:a66273202", "current_trial": 218, "dateTime": 1664368204212, "trialdata": {"rt": 511, "stimulus": "<p id='stroop-text' class='stroop-red'>RED</p>", "response": "r", "stimulus-type": "congruent", "word": "red", "color": "red", "correct_response": "r", "trial_id": "stroop-trial-1-congruent-11", "trial_type": "html-keyboard-response", "trial_index": 218, "time_elapsed": 336453, "internal_node_id": "0.0-8.0-32.0"}}, {"uniqueid": "w27930822:a66273202", "current_trial": 219, "dateTime": 1664368205598, "trialdata": {"rt": 881, "stimulus": "<p id='stroop-text' class='stroop-blue'>RED</p>", "response": "b", "stimulus-type": "incongruent", "word": "red", "color": "blue", "correct_response": "b", "trial_id": "stroop-trial-1-incongruent-19", "trial_type": "html-keyboard-response", "trial_index": 219, "time_elapsed": 337839, "internal_node_id": "0.0-8.0-33.0"}}, {"uniqueid": "w27930822:a66273202", "current_trial": 220, "dateTime": 1664368206851, "trialdata": {"rt": 746, "stimulus": "<p id='stroop-text' class='stroop-red'>YELLOW</p>", "response": "r", "stimulus-type": "incongruent", "word": "yellow", "color": "red", "correct_response": "r", "trial_id": "stroop-trial-1-incongruent-11", "trial_type": "html-keyboard-response", "trial_index": 220, "time_elapsed": 339091, "internal_node_id": "0.0-8.0-34.0"}}, {"uniqueid": "w27930822:a66273202", "current_trial": 221, "dateTime": 1664368208154, "trialdata": {"rt": 798, "stimulus": "<p id='stroop-text' class='stroop-green'>YELLOW</p>", "response": "g", "stimulus-type": "incongruent", "word": "yellow", "color": "green", "correct_response": "g", "trial_id": "stroop-trial-1-incongruent-21", "trial_type": "html-keyboard-response", "trial_index": 221, "time_elapsed": 340394, "internal_node_id": "0.0-8.0-35.0"}}, {"uniqueid": "w27930822:a66273202", "current_trial": 222, "dateTime": 1664368209161, "trialdata": {"rt": 503, "stimulus": "<p id='stroop-text' class='stroop-green'>CHAIR</p>", "response": "g", "stimulus-type": "unrelated", "word": "CHAIR", "color": "green", "correct_response": "g", "trial_id": "stroop-trial-1-unrelated-15", "trial_type": "html-keyboard-response", "trial_index": 222, "time_elapsed": 341402, "internal_node_id": "0