{"condition": 0, "counterbalance": 0, "assignmentId": "a99112050", "workerId": "w70697162", "hitId": "h65848645", "currenttrial": 965, "bonus": 0, "data": [{"uniqueid": "w70697162:a99112050", "current_trial": 0, "dateTime": 1664555002388, "trialdata": {"success": true, "trial_type": "fullscreen", "trial_index": 0, "time_elapsed": 12727, "internal_node_id": "0.0-0.0"}}, {"uniqueid": "w70697162:a99112050", "current_trial": 1, "dateTime": 1664555030764, "trialdata": {"view_history": [{"page_index": 0, "viewing_time": 28335}], "rt": 28346, "trial_id": "exp_instructions_distractor", "trial_type": "instructions", "trial_index": 1, "time_elapsed": 41106, "internal_node_id": "0.0-1.0"}}, {"uniqueid": "w70697162:a99112050", "current_trial": 2, "dateTime": 1664555070033, "trialdata": {"view_history": [{"page_index": 0, "viewing_time": 39247}], "rt": 39255, "trial_id": "color_game_instructions", "trial_type": "instructions", "trial_index": 2, "time_elapsed": 80375, "internal_node_id": "0.0-2.0"}}, {"uniqueid": "w70697162:a99112050", "current_trial": 3, "dateTime": 1664555077404, "trialdata": {"rt": 7357, "stimulus": "<h1> Get ready to start the game! </h1>\n\nThank you for reading the instructions. Get ready start with the first of 5 block(s) of this game.\n<br><br>\nIn this first block, you will complete 90 rounds of this game before moving on.\n<br><br>\nRemember, the better you perform, the bigger your bonus will be!\n<br><br>\n<div style='text-align: center;'>Press <code>space</code> to begin.</div>", "response": " ", "trial_id": "stroop_1_ready_1", "trial_type": "html-keyboard-response", "trial_index": 3, "time_elapsed": 87746, "internal_node_id": "0.0-3.0"}}, {"uniqueid": "w70697162:a99112050", "current_trial": 4, "dateTime": 1664555080862, "trialdata": {"rt": 3388, "stimulus": "<p id='stroop-text' class='stroop-yellow'>DOG</p>", "response": "y", "stimulus-type": "unrelated", "word": "DOG", "color": "yellow", "correct_response": "y", "trial_id": "stroop-trial-1-unrelated-25", "trial_type": "html-keyboard-response", "trial_index": 4, "time_elapsed": 91200, "internal_node_id": "0.0-4.0-0.0"}}, {"uniqueid": "w70697162:a99112050", "current_trial": 5, "dateTime": 1664555083726, "trialdata": {"rt": 2334, "stimulus": "<p id='stroop-text' class='stroop-blue'>MONKEY</p>", "response": "b", "stimulus-type": "unrelated", "word": "MONKEY", "color": "blue", "correct_response": "b", "trial_id": "stroop-trial-1-unrelated-10", "trial_type": "html-keyboard-response", "trial_index": 5, "time_elapsed": 94066, "internal_node_id": "0.0-4.0-1.0"}}, {"uniqueid": "w70697162:a99112050", "current_trial": 6, "dateTime": 1664555085538, "trialdata": {"rt": 1293, "stimulus": "<p id='stroop-text' class='stroop-blue'>BLUE</p>", "response": "b", "stimulus-type": "congruent", "word": "blue", "color": "blue", "correct_response": "b", "trial_id": "stroop-trial-1-congruent-10", "trial_type": "html-keyboard-response", "trial_index": 6, "time_elapsed": 95877, "internal_node_id": "0.0-4.0-2.0"}}, {"uniqueid": "w70697162:a99112050", "current_trial": 7, "dateTime": 1664555087504, "trialdata": {"rt": 1449, "stimulus": "<p id='stroop-text' class='stroop-blue'>RED</p>", "response": "r", "stimulus-type": "incongruent", "word": "red", "color": "blue", "correct_response": "b", "trial_id": "stroop-trial-1-incongruent-13", "trial_type": "html-keyboard-response", "trial_index": 7, "time_elapsed": 97844, "internal_node_id": "0.0-4.0-3.0"}}, {"uniqueid": "w70697162:a99112050", "current_trial": 8, "dateTime": 1664555089513, "trialdata": {"rt": 1494, "stimulus": "<p id='stroop-text' class='stroop-blue'>BRIDGE</p>", "response": "b", "stimulus-type": "unrelated", "word": "BRIDGE", "color": "blue", "correct_response": "b", "trial_id": "stroop-trial-1-unrelated-13", "trial_type": "html-keyboard-response", "trial_index": 8, "time_elapsed": 99852, "internal_node_id": "0.0-4.0-4.0"}}, {"uniqueid": "w70697162:a99112050", "current_trial": 9, "dateTime": 1664555091109, "trialdata": {"rt": 1076, "stimulus": "<p id='stroop-text' class='stroop-yellow'>BRAIN</p>", "response": "y", "stimulus-type": "unrelated", "word": "BRAIN", "color": "yellow", "correct_response": "y", "trial_id": "stroop-trial-1-unrelated-27", "trial_type": "html-keyboard-response", "trial_index": 9, "time_elapsed": 101449, "internal_node_id": "0.0-4.0-5.0"}}, {"uniqueid": "w70697162:a99112050", "current_trial": 10, "dateTime": 1664555092408, "trialdata": {"rt": 788, "stimulus": "<p id='stroop-text' class='stroop-yellow'>MONKEY</p>", "response": "y", "stimulus-type": "unrelated", "word": "MONKEY", "color": "yellow", "correct_response": "y", "trial_id": "stroop-trial-1-unrelated-28", "trial_type": "html-keyboard-response", "trial_index": 10, "time_elapsed": 102748, "internal_node_id": "0.0-4.0-6.0"}}, {"uniqueid": "w70697162:a99112050", "current_trial": 11, "dateTime": 1664555093852, "trialdata": {"rt": 929, "stimulus": "<p id='stroop-text' class='stroop-green'>DOG</p>", "response": "g", "stimulus-type": "unrelated", "word": "DOG", "color": "green", "correct_response": "g", "trial_id": "stroop-trial-1-unrelated-7", "trial_type": "html-keyboard-response", "trial_index": 11, "time_elapsed": 104192, "internal_node_id": "0.0-4.0-7.0"}}, {"uniqueid": "w70697162:a99112050", "current_trial": 12, "dateTime": 1664555096188, "trialdata": {"rt": 1822, "stimulus": "<p id='stroop-text' class='stroop-red'>BLUE</p>", "response": "r", "stimulus-type": "incongruent", "word": "blue", "color": "red", "correct_response": "r", "trial_id": "stroop-trial-1-incongruent-8", "trial_type": "html-keyboard-response", "trial_index": 12, "time_elapsed": 106529, "internal_node_id": "0.0-4.0-8.0"}}, {"uniqueid": "w70697162:a99112050", "current_trial": 13, "dateTime": 1664555097366, "trialdata": {"rt": 667, "stimulus": "<p id='stroop-text' class='stroop-red'>RED</p>", "response": "r", "stimulus-type": "congruent", "word": "red", "color": "red", "correct_response": "r", "trial_id": "stroop-trial-1-congruent-13", "trial_type": "html-keyboard-response", "trial_index": 13, "time_elapsed": 107706, "internal_node_id": "0.0-4.0-9.0"}}, {"uniqueid": "w70697162:a99112050", "current_trial": 14, "dateTime": 1664555098651, "trialdata": {"rt": 772, "stimulus": "<p id='stroop-text' class='stroop-red'>RED</p>", "response": "r", "stimulus-type": "congruent", "word": "red", "color": "red", "correct_response": "r", "trial_id": "stroop-trial-1-congruent-16", "trial_type": "html-keyboard-response", "trial_index": 14, "time_elapsed": 108991, "internal_node_id": "0.0-4.0-10.0"}}, {"uniqueid": "w70697162:a99112050", "current_trial": 15, "dateTime": 1664555100017, "trialdata": {"rt": 850, "stimulus": "<p id='stroop-text' class='stroop-green'>BOTTLE</p>", "response": "g", "stimulus-type": "unrelated", "word": "BOTTLE", "color": "green", "correct_response": "g", "trial_id": "stroop-trial-1-unrelated-17", "trial_type": "html-keyboard-response", "trial_index": 15, "time_elapsed": 110358, "internal_node_id": "0.0-4.0-11.0"}}, {"uniqueid": "w70697162:a99112050", "current_trial": 16, "dateTime": 1664555101102, "trialdata": {"rt": 570, "stimulus": "<p id='stroop-text' class='stroop-green'>BOAT</p>", "response": "g", "stimulus-type": "unrelated", "word": "BOAT", "color": "green", "correct_response": "g", "trial_id": "stroop-trial-1-unrelated-26", "trial_type": "html-keyboard-response", "trial_index": 16, "time_elapsed": 111442, "internal_node_id": "0.0-4.0-12.0"}}, {"uniqueid": "w70697162:a99112050", "current_trial": 17, "dateTime": 1664555102351, "trialdata": {"rt": 738, "stimulus": "<p id='stroop-text' class='stroop-green'>CHAIR</p>", "response": "g", "stimulus-type": "unrelated", "word": "CHAIR", "color": "green", "correct_response": "g", "trial_id": "stroop-trial-1-unrelated-9", "trial_type": "html-keyboard-response", "trial_index": 17, "time_elapsed": 112691, "internal_node_id": "0.0-4.0-13.0"}}, {"uniqueid": "w70697162:a99112050", "current_trial": 18, "dateTime": 1664555103699, "trialdata": {"rt": 828, "stimulus": "<p id='stroop-text' class='stroop-blue'>GREEN</p>", "response": "b", "stimulus-type": "incongruent", "word": "green", "color": "blue", "correct_response": "b", "trial_id": "stroop-trial-1-incongruent-10", "trial_type": "html-keyboard-response", "trial_index": 18, "time_elapsed": 114039, "internal_node_id": "0.0-4.0-14.0"}}, {"uniqueid": "w70697162:a99112050", "current_trial": 19, "dateTime": 1664555104937, "trialdata": {"rt": 726, "stimulus": "<p id='stroop-text' class='stroop-red'>FORK</p>", "response": "r", "stimulus-type": "unrelated", "word": "FORK", "color": "red", "correct_response": "r", "trial_id": "stroop-trial-1-unrelated-1", "trial_type": "html-keyboard-response", "trial_index": 19, "time_elapsed": 115278, "internal_node_id": "0.0-4.0-15.0"}}, {"uniqueid": "w70697162:a99112050", "current_trial": 20, "dateTime": 1664555106469, "trialdata": {"rt": 1025, "stimulus": "<p id='stroop-text' class='stroop-blue'>BLUE</p>", "response": "b", "stimulus-type": "congruent", "word": "blue", "color": "blue", "correct_response": "b", "trial_id": "stroop-trial-1-congruent-9", "trial_type": "html-keyboard-response", "trial_index": 20, "time_elapsed": 116810, "internal_node_id": "0.0-4.0-16.0"}}, {"uniqueid": "w70697162:a99112050", "current_trial": 21, "dateTime": 1664555108627, "trialdata": {"rt": 1640, "stimulus": "<p id='stroop-text' class='stroop-blue'>YELLOW</p>", "response": "b", "stimulus-type": "incongruent", "word": "yellow", "color": "blue", "correct_response": "b", "trial_id": "stroop-trial-1-incongruent-2", "trial_type": "html-keyboard-response", "trial_index": 21, "time_elapsed": 118967, "internal_node_id": "0.0-4.0-17.0"}}, {"uniqueid": "w70697162:a99112050", "current_trial": 22, "dateTime": 1664555109837, "trialdata": {"rt": 685, "stimulus": "<p id='stroop-text' class='stroop-red'>RED</p>", "response": "r", "stimulus-type": "congruent", "word": "red", "color": "red", "correct_response": "r", "trial_id": "stroop-trial-1-congruent-20", "trial_type": "html-keyboard-response", "trial_index": 22, "time_elapsed": 120178, "internal_node_id": "0.0-4.0-18.0"}}, {"uniqueid": "w70697162:a99112050", "current_trial": 23, "dateTime": 1664555111983, "trialdata": {"rt": 1638, "stimulus": "<p id='stroop-text' class='stroop-yellow'>BOAT</p>", "response": "y", "stimulus-type": "unrelated", "word": "BOAT", "color": "yellow", "correct_response": "y", "trial_id": "stroop-trial-1-unrelated-19", "trial_type": "html-keyboard-response", "trial_index": 23, "time_elapsed": 122322, "internal_node_id": "0.0-4.0-19.0"}}, {"uniqueid": "w70697162:a99112050", "current_trial": 24, "dateTime": 1664555113119, "trialdata": {"rt": 622, "stimulus": "<p id='stroop-text' class='stroop-green'>GREEN</p>", "response": "g", "stimulus-type": "congruent", "word": "green", "color": "green", "correct_response": "g", "trial_id": "stroop-trial-1-congruent-26", "trial_type": "html-keyboard-response", "trial_index": 24, "time_elapsed": 123458, "internal_node_id": "0.0-4.0-20.0"}}, {"uniqueid": "w70697162:a99112050", "current_trial": 25, "dateTime": 1664555114263, "trialdata": {"rt": 623, "stimulus": "<p id='stroop-text' class='stroop-blue'>BRAIN</p>", "response": "b", "stimulus-type": "unrelated", "word": "BRAIN", "color": "blue", "correct_response": "b", "trial_id": "stroop-trial-1-unrelated-14", "trial_type": "html-keyboard-response", "trial_index": 25, "time_elapsed": 124603, "internal_node_id": "0.0-4.0-21.0"}}, {"uniqueid": "w70697162:a99112050", "current_trial": 26, "dateTime": 1664555115587, "trialdata": {"rt": 811, "stimulus": "<p id='stroop-text' class='stroop-red'>MONKEY</p>", "response": "r", "stimulus-type": "unrelated", "word": "MONKEY", "color": "red", "correct_response": "r", "trial_id": "stroop-trial-1-unrelated-6", "trial_type": "html-keyboard-response", "trial_index": 26, "time_elapsed": 125927, "internal_node_id": "0.0-4.0-22.0"}}, {"uniqueid": "w70697162:a99112050", "current_trial": 27, "dateTime": 1664555116710, "trialdata": {"rt": 607, "stimulus": "<p id='stroop-text' class='stroop-yellow'>YELLOW</p>", "response": "y", "stimulus-type": "congruent", "word": "yellow", "color": "yellow", "correct_response": "y", "trial_id": "stroop-trial-1-congruent-21", "trial_type": "html-keyboard-response", "trial_index": 27, "time_elapsed": 127050, "internal_node_id": "0.0-4.0-23.0"}}, {"uniqueid": "w70697162:a99112050", "current_trial": 28, "dateTime": 1664555118142, "trialdata": {"rt": 917, "stimulus": "<p id='stroop-text' class='stroop-red'>RED</p>", "response": "r", "stimulus-type": "congruent", "word": "red", "color": "red", "correct_response": "r", "trial_id": "stroop-trial-1-congruent-7", "trial_type": "html-keyboard-response", "trial_index": 28, "time_elapsed": 128481, "internal_node_id": "0.0-4.0-24.0"}}, {"uniqueid": "w70697162:a99112050", "current_trial": 29, "dateTime": 1664555119355, "trialdata": {"rt": 690, "stimulus": "<p id='stroop-text' class='stroop-blue'>MONKEY</p>", "response": "b", "stimulus-type": "unrelated", "word": "MONKEY", "color": "blue", "correct_response": "b", "trial_id": "stroop-trial-1-unrelated-4", "trial_type": "html-keyboard-response", "trial_index": 29, "time_elapsed": 129693, "internal_node_id": "0.0-4.0-25.0"}}, {"uniqueid": "w70697162:a99112050", "current_trial": 30, "dateTime": 1664555120414, "trialdata": {"rt": 520, "stimulus": "<p id='stroop-text' class='stroop-red'>RED</p>", "response": "r", "stimulus-type": "congruent", "word": "red", "color": "red", "correct_response": "r", "trial_id": "stroop-trial-1-congruent-17", "trial_type": "html-keyboard-response", "trial_index": 30, "time_elapsed": 130753, "internal_node_id": "0.0-4.0-26.0"}}, {"uniqueid": "w70697162:a99112050", "current_trial": 31, "dateTime": 1664555121777, "trialdata": {"rt": 851, "stimulus": "<p id='stroop-text' class='stroop-red'>BRAIN</p>", "response": "r", "stimulus-type": "unrelated", "word": "BRAIN", "color": "red", "correct_response": "r", "trial_id": "stroop-trial-1-unrelated-21", "trial_type": "html-keyboard-response", "trial_index": 31, "time_elapsed": 132117, "internal_node_id": "0.0-4.0-27.0"}}, {"uniqueid": "w70697162:a99112050", "current_trial": 32, "dateTime": 1664555123205, "trialdata": {"rt": 917, "stimulus": "<p id='stroop-text' class='stroop-yellow'>STONE</p>", "response": "y", "stimulus-type": "unrelated", "word": "STONE", "color": "yellow", "correct_response": "y", "trial_id": "stroop-trial-1-unrelated-18", "trial_type": "html-keyboard-response", "trial_index": 32, "time_elapsed": 133546, "internal_node_id": "0.0-4.0-28.0"}}, {"uniqueid": "w70697162:a99112050", "current_trial": 33, "dateTime": 1664555124446, "trialdata": {"rt": 727, "stimulus": "<p id='stroop-text' class='stroop-blue'>BLUE</p>", "response": "b", "stimulus-type": "congruent", "word": "blue", "color": "blue", "correct_response": "b", "trial_id": "stroop-trial-1-congruent-15", "trial_type": "html-keyboard-response", "trial_index": 33, "time_elapsed": 134787, "internal_node_id": "0.0-4.0-29.0"}}, {"uniqueid": "w70697162:a99112050", "current_trial": 34, "dateTime": 1664555125506, "trialdata": {"rt": 548, "stimulus": "<p id='stroop-text' class='stroop-green'>GREEN</p>", "response": "g", "stimulus-type": "congruent", "word": "green", "color": "green", "correct_response": "g", "trial_id": "stroop-trial-1-congruent-23", "trial_type": "html-keyboard-response", "trial_index": 34, "time_elapsed": 135846, "internal_node_id": "0.0-4.0-30.0"}}, {"uniqueid": "w70697162:a99112050", "current_trial": 35, "dateTime": 1664555126479, "trialdata": {"rt": 458, "stimulus": "<p id='stroop-text' class='stroop-green'>BLUE</p>", "response": "g", "stimulus-type": "incongruent", "word": "blue", "color": "green", "correct_response": "g", "trial_id": "stroop-trial-1-incongruent-23", "trial_type": "html-keyboard-response", "trial_index": 35, "time_elapsed": 136818, "internal_node_id": "0.0-4.0-31.0"}}, {"uniqueid": "w70697162:a99112050", "current_trial": 36, "dateTime": 1664555127556, "trialdata": {"rt": 561, "stimulus": "<p id='stroop-text' class='stroop-green'>GREEN</p>", "response": "g", "stimulus-type": "congruent", "word": "green", "color": "green", "correct_response": "g", "trial_id": "stroop-trial-1-congruent-18", "trial_type": "html-keyboard-response", "trial_index": 36, "time_elapsed": 137897, "internal_node_id": "0.0-4.0-32.0"}}, {"uniqueid": "w70697162:a99112050", "current_trial": 37, "dateTime": 1664555128873, "trialdata": {"rt": 807, "stimulus": "<p id='stroop-text' class='stroop-green'>YELLOW</p>", "response": "y", "stimulus-type": "incongruent", "word": "yellow", "color": "green", "correct_response": "g", "trial_id": "stroop-trial-1-incongruent-14", "trial_type": "html-keyboard-response", "trial_index": 37, "time_elapsed": 139214, "internal_node_id": "0.0-4.0-33.0"}}, {"uniqueid": "w70697162:a99112050", "current_trial": 38, "dateTime": 1664555132065, "trialdata": {"rt": 2678, "stimulus": "<p id='stroop-text' class='stroop-green'>CHAIR</p>", "response": "g", "stimulus-type": "unrelated", "word": "CHAIR", "color": "green", "correct_response": "g", "trial_id": "stroop-trial-1-unrelated-23", "trial_type": "html-keyboard-response", "trial_index": 38, "time_elapsed": 142404, "internal_node_id": "0.0-4.0-34.0"}}, {"uniqueid": "w70697162:a99112050", "current_trial": 39, "dateTime": 1664555133249, "trialdata": {"rt": 667, "stimulus": "<p id='stroop-text' class='stroop-yellow'>YELLOW</p>", "response": "y", "stimulus-type": "congruent", "word": "yellow", "color": "yellow", "correct_response": "y", "trial_id": "stroop-trial-1-congruent-24", "trial_type": "html-keyboard-response", "trial_index": 39, "time_elapsed": 143588, "internal_node_id": "0.0-4.0-35.0"}}, {"uniqueid": "w70697162:a99112050", "current_trial": 40, "dateTime": 1664555135139, "trialdata": {"rt": 1376, "stimulus": "<p id='stroop-text' class='stroop-red'>GREEN</p>", "response": "g", "stimulus-type": "incongruent", "word": "green", "color": "red", "correct_response": "r", "trial_id": "stroop-trial-1-incongruent-7", "trial_type": "html-keyboard-response", "trial_index": 40, "time_elapsed": 145479, "internal_node_id": "0.0-4.0-36.0"}}, {"uniqueid": "w70697162:a99112050", "current_trial": 41, "dateTime": 1664555138448, "trialdata": {"rt": 2792, "stimulus": "<p id='stroop-text' class='stroop-yellow'>RED</p>", "response": "y", "stimulus-type": "incongruent", "word": "red", "color": "yellow", "correct_response": "y", "trial_id": "stroop-trial-1-incongruent-25", "trial_type": "html-keyboard-response", "trial_index": 41, "time_elapsed": 148788, "internal_node_id": "0.0-4.0-37.0"}}, {"uniqueid": "w70697162:a99112050", "current_trial": 42, "dateTime": 1664555139626, "trialdata": {"rt": 667, "stimulus": "<p id='stroop-text' class='stroop-blue'>BLUE</p>", "response": "b", "stimulus-type": "congruent", "word": "blue", "color": "blue", "correct_response": "b", "trial_id": "stroop-trial-1-congruent-1", "trial_type": "html-keyboard-response", "trial_index": 42, "time_elapsed": 149967, "internal_node_id": "0.0-4.0-38.0"}}, {"uniqueid": "w70697162:a99112050", "current_trial": 43, "dateTime": 1664555140795, "trialdata": {"rt": 656, "stimulus": "<p id='stroop-text' class='stroop-red'>BLUE</p>", "response": "r", "stimulus-type": "incongruent", "word": "blue", "color": "red", "correct_response": "r", "trial_id": "stroop-trial-1-incongruent-28", "trial_type": "html-keyboard-response", "trial_index": 43, "time_elapsed": 151133, "internal_node_id": "0.0-4.0-39.0"}}, {"uniqueid": "w70697162:a99112050", "current_trial": 44, "dateTime": 1664555141894, "trialdata": {"rt": 586, "stimulus": "<p id='stroop-text' class='stroop-red'>BLUE</p>", "response": "r", "stimulus-type": "incongruent", "word": "blue", "color": "red", "correct_response": "r", "trial_id": "stroop-trial-1-incongruent-1", "trial_type": "html-keyboard-response", "trial_index": 44, "time_elapsed": 152233, "internal_node_id": "0.0-4.0-40.0"}}, {"uniqueid": "w70697162:a99112050", "current_trial": 45, "dateTime": 1664555142964, "trialdata": {"rt": 554, "stimulus": "<p id='stroop-text' class='stroop-red'>RED</p>", "response": "r", "stimulus-type": "congruent", "word": "red", "color": "red", "correct_response": "r", "trial_id": "stroop-trial-1-congruent-4", "trial_type": "html-keyboard-response", "trial_index": 45, "time_elapsed": 153304, "internal_node_id": "0.0-4.0-41.0"}}, {"uniqueid": "w70697162:a99112050", "current_trial": 46, "dateTime": 1664555144271, "trialdata": {"rt": 789, "stimulus": "<p id='stroop-text' class='stroop-green'>YELLOW</p>", "response": "g", "stimulus-type": "incongruent", "word": "yellow", "color": "green", "correct_response": "g", "trial_id": "stroop-trial-1-incongruent-6", "trial_type": "html-keyboard-response", "trial_index": 46, "time_elapsed": 154611, "internal_node_id": "0.0-4.0-42.0"}}, {"uniqueid": "w70697162:a99112050", "current_trial": 47, "dateTime": 1664555145904, "trialdata": {"rt": 1116, "stimulus": "<p id='stroop-text' class='stroop-blue'>YELLOW</p>", "response": "b", "stimulus-type": "incongruent", "word": "yellow", "color": "blue", "correct_response": "b", "trial_id": "stroop-trial-1-incongruent-18", "trial_type": "html-keyboard-response", "trial_index": 47, "time_elapsed": 156243, "internal_node_id": "0.0-4.0-43.0"}}, {"uniqueid": "w70697162:a99112050", "current_trial": 48, "dateTime": 1664555147045, "trialdata": {"rt": 623, "stimulus": "<p id='stroop-text' class='stroop-red'>RED</p>", "response": "r", "stimulus-type": "congruent", "word": "red", "color": "red", "correct_response": "r", "trial_id": "stroop-trial-1-congruent-29", "trial_type": "html-keyboard-response", "trial_index": 48, "time_elapsed": 157384, "internal_node_id": "0.0-4.0-44.0"}}, {"uniqueid": "w70697162:a99112050", "current_trial": 49, "dateTime": 1664555148213, "trialdata": {"rt": 651, "stimulus": "<p id='stroop-text' class='stroop-blue'>BOTTLE</p>", "response": "b", "stimulus-type": "unrelated", "word": "BOTTLE", "color": "blue", "correct_response": "b", "trial_id": "stroop-trial-1-unrelated-2", "trial_type": "html-keyboard-response", "trial_index": 49, "time_elapsed": 158552, "internal_node_id": "0.0-4.0-45.0"}}, {"uniqueid": "w70697162:a99112050", "current_trial": 50, "dateTime": 1664555149677, "trialdata": {"rt": 948, "stimulus": "<p id='stroop-text' class='stroop-red'>RED</p>", "response": "r", "stimulus-type": "congruent", "word": "red", "color": "red", "correct_response": "r", "trial_id": "stroop-trial-1-congruent-8", "trial_type": "html-keyboard-response", "trial_index": 50, "time_elapsed": 160016, "internal_node_id": "0.0-4.0-46.0"}}, {"uniqueid": "w70697162:a99112050", "current_trial": 51, "dateTime": 1664555150882, "trialdata": {"rt": 691, "stimulus": "<p id='stroop-text' class='stroop-red'>BRAIN</p>", "response": "r", "stimulus-type": "unrelated", "word": "BRAIN", "color": "red", "correct_response": "r", "trial_id": "stroop-trial-1-unrelated-5", "trial_type": "html-keyboard-response", "trial_index": 51, "time_elapsed": 161221, "internal_node_id": "0.0-4.0-47.0"}}, {"uniqueid": "w70697162:a99112050", "current_trial": 52, "dateTime": 1664555152168, "trialdata": {"rt": 772, "stimulus": "<p id='stroop-text' class='stroop-blue'>BLUE</p>", "response": "b", "stimulus-type": "congruent", "word": "blue", "color": "blue", "correct_response": "b", "trial_id": "stroop-trial-1-congruent-30", "trial_type": "html-keyboard-response", "trial_index": 52, "time_elapsed": 162507, "internal_node_id": "0.0-4.0-48.0"}}, {"uniqueid": "w70697162:a99112050", "current_trial": 53, "dateTime": 1664555153135, "trialdata": {"rt": 446, "stimulus": "<p id='stroop-text' class='stroop-blue'>BLUE</p>", "response": "b", "stimulus-type": "congruent", "word": "blue", "color": "blue", "correct_response": "b", "trial_id": "stroop-trial-1-congruent-5", "trial_type": "html-keyboard-response", "trial_index": 53, "time_elapsed": 163476, "internal_node_id": "0.0-4.0-49.0"}}, {"uniqueid": "w70697162:a99112050", "current_trial": 54, "dateTime": 1664555154173, "trialdata": {"rt": 528, "stimulus": "<p id='stroop-text' class='stroop-blue'>SHIP</p>", "response": "b", "stimulus-type": "unrelated", "word": "SHIP", "color": "blue", "correct_response": "b", "trial_id": "stroop-trial-1-unrelated-24", "trial_type": "html-keyboard-response", "trial_index": 54, "time_elapsed": 164513, "internal_node_id": "0.0-4.0-50.0"}}, {"uniqueid": "w70697162:a99112050", "current_trial": 55, "dateTime": 1664555155068, "trialdata": {"rt": 383, "stimulus": "<p id='stroop-text' class='stroop-blue'>STONE</p>", "response": "b", "stimulus-type": "unrelated", "word": "STONE", "color": "blue", "correct_response": "b", "trial_id": "stroop-trial-1-unrelated-8", "trial_type": "html-keyboard-response", "trial_index": 55, "time_elapsed": 165409, "internal_node_id": "0.0-4.0-51.0"}}, {"uniqueid": "w70697162:a99112050", "current_trial": 56, "dateTime": 1664555156101, "trialdata": {"rt": 523, "stimulus": "<p id='stroop-text' class='stroop-red'>WINDOW</p>", "response": "r", "stimulus-type": "unrelated", "word": "WINDOW", "color": "red", "correct_response": "r", "trial_id": "stroop-trial-1-unrelated-16", "trial_type": "html-keyboard-response", "trial_index": 56, "time_elapsed": 166441, "internal_node_id": "0.0-4.0-52.0"}}, {"uniqueid": "w70697162:a99112050", "current_trial": 57, "dateTime": 1664555157449, "trialdata": {"rt": 829, "stimulus": "<p id='stroop-text' class='stroop-red'>RED</p>", "response": "r", "stimulus-type": "congruent", "word": "red", "color": "red", "correct_response": "r", "trial_id": "stroop-trial-1-congruent-28", "trial_type": "html-keyboard-response", "trial_index": 57, "time_elapsed": 167789, "internal_node_id": "0.0-4.0-53.0"}}, {"uniqueid": "w70697162:a99112050", "current_trial": 58, "dateTime": 1664555158717, "trialdata": {"rt": 757, "stimulus": "<p id='stroop-text' class='stroop-red'>GREEN</p>", "response": "r", "stimulus-type": "incongruent", "word": "green", "color": "red", "correct_response": "r", "trial_id": "stroop-trial-1-incongruent-21", "trial_type": "html-keyboard-response", "trial_index": 58, "time_elapsed": 169057, "internal_node_id": "0.0-4.0-54.0"}}, {"uniqueid": "w70697162:a99112050", "current_trial": 59, "dateTime": 1664555159896, "trialdata": {"rt": 657, "stimulus": "<p id='stroop-text' class='stroop-blue'>RED</p>", "response": "b", "stimulus-type": "incongruent", "word": "red", "color": "blue", "correct_response": "b", "trial_id": "stroop-trial-1-incongruent-4", "trial_type": "html-keyboard-response", "trial_index": 59, "time_elapsed": 170237, "internal_node_id": "0.0-4.0-55.0"}}, {"uniqueid": "w70697162:a99112050", "current_trial": 60, "dateTime": 1664555160913, "trialdata": {"rt": 507, "stimulus": "<p id='stroop-text' class='stroop-blue'>BLUE</p>", "response": "r", "stimulus-type": "congruent", "word": "blue", "color": "blue", "correct_response": "b", "trial_id": "stroop-trial-1-congruent-2", "trial_type": "html-keyboard-response", "trial_index": 60, "time_elapsed": 171253, "internal_node_id": "0.0-4.0-56.0"}}, {"uniqueid": "w70697162:a99112050", "current_trial": 61, "dateTime": 1664555163754, "trialdata": {"rt": 2330, "stimulus": "<p id='stroop-text' class='stroop-green'>BLUE</p>", "response": "g", "stimulus-type": "incongruent", "word": "blue", "color": "green", "correct_response": "g", "trial_id": "stroop-trial-1-incongruent-26", "trial_type": "html-keyboard-response", "trial_index": 61, "time_elapsed": 174094, "internal_node_id": "0.0-4.0-57.0"}}, {"uniqueid": "w70697162:a99112050", "current_trial": 62, "dateTime": 1664555164851, "trialdata": {"rt": 580, "stimulus": "<p id='stroop-text' class='stroop-yellow'>YELLOW</p>", "response": "y", "stimulus-type": "congruent", "word": "yellow", "color": "yellow", "correct_response": "y", "trial_id": "stroop-trial-1-congruent-12", "trial_type": "html-keyboard-response", "trial_index": 62, "time_elapsed": 175190, "internal_node_id": "0.0-4.0-58.0"}}, {"uniqueid": "w70697162:a99112050", "current_trial": 63, "dateTime": 1664555165985, "trialdata": {"rt": 619, "stimulus": "<p id='stroop-text' class='stroop-blue'>YELLOW</p>", "response": "b", "stimulus-type": "incongruent", "word": "yellow", "color": "blue", "correct_response": "b", "trial_id": "stroop-trial-1-incongruent-27", "trial_type": "html-keyboard-response", "trial_index": 63, "time_elapsed": 176326, "internal_node_id": "0.0-4.0-59.0"}}, {"uniqueid": "w70697162:a99112050", "current_trial": 64, "dateTime": 1664555167604, "trialdata": {"rt": 1107, "stimulus": "<p id='stroop-text' class='stroop-green'>YELLOW</p>", "response": "g", "stimulus-type": "incongruent", "word": "yellow", "color": "green", "correct_response": "g", "trial_id": "stroop-trial-1-incongruent-15", "trial_type": "html-keyboard-response", "trial_index": 64, "time_elapsed": 177943, "internal_node_id": "0.0-4.0-60.0"}}, {"uniqueid": "w70697162:a99112050", "current_trial": 65, "dateTime": 1664555168810, "trialdata": {"rt": 688, "stimulus": "<p id='stroop-text' class='stroop-yellow'>YELLOW</p>", "response": "y", "stimulus-type": "congruent", "word": "yellow", "color": "yellow", "correct_response": "y", "trial_id": "stroop-trial-1-congruent-19", "trial_type": "html-keyboard-response", "trial_index": 65, "time_elapsed": 179149, "internal_node_id": "0.0-4.0-61.0"}}, {"uniqueid": "w70697162:a99112050", "current_trial": 66, "dateTime": 1664555170500, "trialdata": {"rt": 1176, "stimulus": "<p id='stroop-text' class='stroop-red'>YELLOW</p>", "response": "r", "stimulus-type": "incongruent", "word": "yellow", "color": "red", "correct_response": "r", "trial_id": "stroop-trial-1-incongruent-16", "trial_type": "html-keyboard-response", "trial_index": 66, "time_elapsed": 180841, "internal_node_id": "0.0-4.0-62.0"}}, {"uniqueid": "w70697162:a99112050", "current_trial": 67, "dateTime": 1664555171445, "trialdata": {"rt": 431, "stimulus": "<p id='stroop-text' class='stroop-red'>YELLOW</p>", "response": "r", "stimulus-type": "incongruent", "word": "yellow", "color": "red", "correct_response": "r", "trial_id": "stroop-trial-1-incongruent-5", "trial_type": "html-keyboard-response", "trial_index": 67, "time_elapsed": 181782, "internal_node_id": "0.0-4.0-63.0"}}, {"uniqueid": "w70697162:a99112050", "current_trial": 68, "dateTime": 1664555173665, "trialdata": {"rt": 1707, "stimulus": "<p id='stroop-text' class='stroop-yellow'>GREEN</p>", "response": "y", "stimulus-type": "incongruent", "word": "green", "color": "yellow", "correct_response": "y", "trial_id": "stroop-trial-1-incongruent-17", "trial_type": "html-keyboard-response", "trial_index": 68, "time_elapsed": 184005, "internal_node_id": "0.0-4.0-64.0"}}, {"uniqueid": "w70697162:a99112050", "current_trial": 69, "dateTime": 1664555174888, "trialdata": {"rt": 701, "stimulus": "<p id='stroop-text' class='stroop-green'>FORK</p>", "response": "g", "stimulus-type": "unrelated", "word": "FORK", "color": "green", "correct_response": "g", "trial_id": "stroop-trial-1-unrelated-20", "trial_type": "html-keyboard-response", "trial_index": 69, "time_elapsed": 185229, "internal_node_id": "0.0-4.0-65.0"}}, {"uniqueid": "w70697162:a99112050", "current_trial": 70, "dateTime": 1664555176147, "trialdata": {"rt": 742, "stimulus": "<p id='stroop-text' class='stroop-green'>SHIP</p>", "response": "g", "stimulus-type": "unrelated", "word": "SHIP", "color": "green", "correct_response": "g", "trial_id": "stroop-trial-1-unrelated-22", "trial_type": "html-keyboard-response", "trial_index": 70, "time_elapsed": 186487, "internal_node_id": "0.0-4.0-66.0"}}, {"uniqueid": "w70697162:a99112050", "current_trial": 71, "dateTime": 1664555177328, "trialdata": {"rt": 663, "stimulus": "<p id='stroop-text' class='stroop-blue'>GREEN</p>", "response": "b", "stimulus-type": "incongruent", "word": "green", "color": "blue", "correct_response": "b", "trial_id": "stroop-trial-1-incongruent-22", "trial_type": "html-keyboard-response", "trial_index": 71, "time_elapsed": 187668, "internal_node_id": "0.0-4.0-67.0"}}, {"uniqueid": "w70697162:a99112050", "current_trial": 72, "dateTime": 1664555178291, "trialdata": {"rt": 435, "stimulus": "<p id='stroop-text' class='stroop-blue'>BLUE</p>", "response": "b", "stimulus-type": "congruent", "word": "blue", "color": "blue", "correct_response": "b", "trial_id": "stroop-trial-1-congruent-3", "trial_type": "html-keyboard-response", "trial_index": 72, "time_elapsed": 188631, "internal_node_id": "0.0-4.0-68.0"}}, {"uniqueid": "w70697162:a99112050", "current_trial": 73, "dateTime": 1664555179347, "trialdata": {"rt": 531, "stimulus": "<p id='stroop-text' class='stroop-green'>YELLOW</p>", "response": "b", "stimulus-type": "incongruent", "word": "yellow", "color": "green", "correct_response": "g", "trial_id": "stroop-trial-1-incongruent-30", "trial_type": "html-keyboard-response", "trial_index": 73, "time_elapsed": 189688, "internal_node_id": "0.0-4.0-69.0"}}, {"uniqueid": "w70697162:a99112050", "current_trial": 74, "dateTime": 1664555181370, "trialdata": {"rt": 1517, "stimulus": "<p id='stroop-text' class='stroop-green'>BLUE</p>", "response": "g", "stimulus-type": "incongruent", "word": "blue", "color": "green", "correct_response": "g", "trial_id": "stroop-trial-1-incongruent-3", "trial_type": "html-keyboard-response", "trial_index": 74, "time_elapsed": 191711, "internal_node_id": "0.0-4.0-70.0"}}, {"uniqueid": "w70697162:a99112050", "current_trial": 75, "dateTime": 1664555182829, "trialdata": {"rt": 946, "stimulus": "<p id='stroop-text' class='stroop-red'>GREEN</p>", "response": "r", "stimulus-type": "incongruent", "word": "green", "color": "red", "correct_response": "r", "trial_id": "stroop-trial-1-incongruent-20", "trial_type": "html-keyboard-response", "trial_index": 75, "time_elapsed": 193170, "internal_node_id": "0.0-4.0-71.0"}}, {"uniqueid": "w70697162:a99112050", "current_trial": 76, "dateTime": 1664555184030, "trialdata": {"rt": 688, "stimulus": "<p id='stroop-text' class='stroop-blue'>BLUE</p>", "response": "b", "stimulus-type": "congruent", "word": "blue", "color": "blue", "correct_response": "b", "trial_id": "stroop-trial-1-congruent-22", "trial_type": "html-keyboard-response", "trial_index": 76, "time_elapsed": 194370, "internal_node_id": "0.0-4.0-72.0"}}, {"uniqueid": "w70697162:a99112050", "current_trial": 77, "dateTime": 1664555185075, "trialdata": {"rt": 535, "stimulus": "<p id='stroop-text' class='stroop-red'>RED</p>", "response": "r", "stimulus-type": "congruent", "word": "red", "color": "red", "correct_response": "r", "trial_id": "stroop-trial-1-congruent-25", "trial_type": "html-keyboard-response", "trial_index": 77, "time_elapsed": 195416, "internal_node_id": "0.0-4.0-73.0"}}, {"uniqueid": "w70697162:a99112050", "current_trial": 78, "dateTime": 1664555186773, "trialdata": {"rt": 1187, "stimulus": "<p id='stroop-text' class='stroop-green'>YELLOW</p>", "response": "g", "stimulus-type": "incongruent", "word": "yellow", "color": "green", "correct_response": "g", "trial_id": "stroop-trial-1-incongruent-24", "trial_type": "html-keyboard-response", "trial_index": 78, "time_elapsed": 197114, "internal_node_id": "0.0-4.0-74.0"}}, {"uniqueid": "w70697162:a99112050", "current_trial": 79, "dateTime": 1664555187967, "trialdata": {"rt": 678, "stimulus": "<p id='stroop-text' class='stroop-green'>GREEN</p>", "response": "g", "stimulus-type": "congruent", "word": "green", "color": "green", "correct_response": "g", "trial_id": "stroop-trial-1-congruent-6", "trial_type": "html-keyboard-response", "trial_index": 79, "time_elapsed": 198306, "internal_node_id": "0.0-4.0-75.0"}}, {"uniqueid": "w70697162:a99112050", "current_trial": 80, "dateTime": 1664555189085, "trialdata": {"rt": 604, "stimulus": "<p id='stroop-text' class='stroop-yellow'>BRAIN</p>", "response": "y", "stimulus-type": "unrelated", "word": "BRAIN", "color": "yellow", "correct_response": "y", "trial_id": "stroop-trial-1-unrelated-12", "trial_type": "html-keyboard-response", "trial_index": 80, "time_elapsed": 199427, "internal_node_id": "0.0-4.0-76.0"}}, {"uniqueid": "w70697162:a99112050", "current_trial": 81, "dateTime": 1664555190691, "trialdata": {"rt": 1096, "stimulus": "<p id='stroop-text' class='stroop-green'>FORK</p>", "response": "g", "stimulus-type": "unrelated", "word": "FORK", "color": "green", "correct_response": "g", "trial_id": "stroop-trial-1-unrelated-30", "trial_type": "html-keyboard-response", "trial_index": 81, "time_elapsed": 201031, "internal_node_id": "0.0-4.0-77.0"}}, {"uniqueid": "w70697162:a99112050", "current_trial": 82, "dateTime": 1664555191849, "trialdata": {"rt": 636, "stimulus": "<p id='stroop-text' class='stroop-red'>BLUE</p>", "response": "r", "stimulus-type": "incongruent", "word": "blue", "color": "red", "correct_response": "r", "trial_id": "stroop-trial-1-incongruent-29", "trial_type": "html-keyboard-response", "trial_index": 82, "time_elapsed": 202189, "internal_node_id": "0.0-4.0-78.0"}}, {"uniqueid": "w70697162:a99112050", "current_trial": 83, "dateTime": 1664555193251, "trialdata": {"rt": 876, "stimulus": "<p id='stroop-text' class='stroop-green'>RED</p>", "response": "r", "stimulus-type": "incongruent", "word": "red", "color": "green", "correct_response": "g", "trial_id": "stroop-trial-1-incongruent-9", "trial_type": "html-keyboard-response", "trial_index": 83, "time_elapsed": 203591, "internal_node_id": "0.0-4.0-79.0"}}, {"uniqueid": "w70697162:a99112050", "current_trial": 84, "dateTime": 1664555194999, "trialdata": {"rt": 1229, "stimulus": "<p id='stroop-text' class='stroop-blue'>BLUE</p>", "response": "b", "stimulus-type": "congruent", "word": "blue", "color": "blue", "correct_response": "b", "trial_id": "stroop-trial-1-congruent-11", "trial_type": "html-keyboard-response", "trial_index": 84, "time_elapsed": 205339, "internal_node_id": "0.0-4.0-80.0"}}, {"uniqueid": "w70697162:a99112050", "current_trial": 85, "dateTime": 1664555196755, "trialdata": {"rt": 1233, "stimulus": "<p id='stroop-text' class='stroop-green'>FORK</p>", "response": "g", "stimulus-type": "unrelated", "word": "FORK", "color": "green", "correct_response": "g", "trial_id": "stroop-trial-1-unrelated-29", "trial_type": "html-keyboard-response", "trial_index": 85, "time_elapsed": 207095, "internal_node_id": "0.0-4.0-81.0"}}, {"uniqueid": "w70697162:a99112050", "current_trial": 86, "dateTime": 1664555198119, "trialdata": {"rt": 849, "stimulus": "<p id='stroop-text' class='stroop-red'>YELLOW</p>", "response": "r", "stimulus-type": "incongruent", "word": "yellow", "color": "red", "correct_response": "r", "trial_id": "stroop-trial-1-incongruent-12", "trial_type": "html-keyboard-response", "trial_index": 86, "time_elapsed": 208460, "internal_node_id": "0.0-4.0-82.0"}}, {"uniqueid": "w70697162:a99112050", "current_trial": 87, "dateTime": 1664555199331, "trialdata": {"rt": 697, "stimulus": "<p id='stroop-text' class='stroop-red'>RED</p>", "response": "r", "stimulus-type": "congruent", "word": "red", "color": "red", "correct_response": "r", "trial_id": "stroop-trial-1-congruent-27", "trial_type": "html-keyboard-response", "trial_index": 87, "time_elapsed": 209672, "internal_node_id": "0.0-4.0-83.0"}}, {"uniqueid": "w70697162:a99112050", "current_trial": 88, "dateTime": 1664555200483, "trialdata": {"rt": 638, "stimulus": "<p id='stroop-text' class='stroop-green'>GREEN</p>", "response": "g", "stimulus-type": "congruent", "word": "green", "color": "green", "correct_response": "g", "trial_id": "stroop-trial-1-congruent-14", "trial_type": "html-keyboard-response", "trial_index": 88, "time_elapsed": 210823, "internal_node_id": "0.0-4.0-84.0"}}, {"uniqueid": "w70697162:a99112050", "current_trial": 89, "dateTime": 1664555204376, "trialdata": {"rt": 3372, "stimulus": "<p id='stroop-text' class='stroop-green'>STONE</p>", "response": "g", "stimulus-type": "unrelated", "word": "STONE", "color": "green", "correct_response": "g", "trial_id": "stroop-trial-1-unrelated-11", "trial_type": "html-keyboard-response", "trial_index": 89, "time_elapsed": 214717, "internal_node_id": "0.0-4.0-85.0"}}, {"uniqueid": "w70697162:a99112050", "current_trial": 90, "dateTime": 1664555205536, "trialdata": {"rt": 647, "stimulus": "<p id='stroop-text' class='stroop-yellow'>BLUE</p>", "response": "y", "stimulus-type": "incongruent", "word": "blue", "color": "yellow", "correct_response": "y", "trial_id": "stroop-trial-1-incongruent-19", "trial_type": "html-keyboard-response", "trial_index": 90, "time_elapsed": 215877, "internal_node_id": "0.0-4.0-86.0"}}, {"uniqueid": "w70697162:a99112050", "current_trial": 91, "dateTime": 1664555206610, "trialdata": {"rt": 556, "stimulus": "<p id='stroop-text' class='stroop-yellow'>CHAIR</p>", "response": "y", "stimulus-type": "unrelated", "word": "CHAIR", "color": "yellow", "correct_response": "y", "trial_id": "stroop-trial-1-unrelated-15", "trial_type": "html-keyboard-response", "trial_index": 91, "time_elapsed": 216950, "internal_node_id": "0.0-4.0-87.0"}}, {"uniqueid": "w70697162:a99112050", "current_trial": 92, "dateTime": 1664555207850, "trialdata": {"rt": 717, "stimulus": "<p id='stroop-text' class='stroop-green'>YELLOW</p>", "response": "g", "stimulus-type": "incongruent", "word": "yellow", "color": "green", "correct_response": "g", "trial_id": "stroop-trial-1-incongruent-11", "trial_type": "html-keyboard-response", "trial_index": 92, "time_elapsed": 218189, "internal_node_id": "0.0-4.0-88.0"}}, {"uniqueid": "w70697162:a99112050", "current_trial": 93, "dateTime": 1664555208948, "trialdata": {"rt": 574, "stimulus": "<p id='stroop-text' class='stroop-red'>BRIDGE</p>", "response": "r", "stimulus-type": "unrelated", "word": "BRIDGE", "color": "red", "correct_response": "r", "trial_id": "stroop-trial-1-unrelated-3", "trial_type": "html-keyboard-response", "trial_index": 93, "time_elapsed": 219289, "internal_node_id": "0.0-4.0-89.0"}}, {"uniqueid": "w70697162:a99112050", "current_trial": 94, "dateTime": 1664555297686, "trialdata": {"rt": 88223, "stimulus": "  <h1> End of block! </h1>\n\n  You have reached the end of the block 1/5. If you need a short break, feel free to take one now before moving on.\n\n  <br><br>\n  In the next block, you will complete another 90 rounds of this game.\n\n  <br><br>\n  <div style='text-align: center;'>Press <code>space</code> to begin.</div>\n  <br><br>\n<div style='text-align: center;'>(If the experiment doesn't continue, try clicking on the text and then pressing <code>space</code>.)</div>", "response": " ", "trial_id": "stroop_1_ready_2", "trial_type": "html-keyboard-response", "trial_index": 94, "time_elapsed": 308027, "internal_node_id": "0.0-5.0"}}, {"uniqueid": "w70697162:a99112050", "current_trial": 95, "dateTime": 1664555300763, "trialdata": {"rt": 3052, "stimulus": "<p id='stroop-text' class='stroop-red'>GREEN</p>", "response": "r", "stimulus-type": "incongruent", "word": "green", "color": "red", "correct_response": "r", "trial_id": "stroop-trial-1-incongruent-11", "trial_type": "html-keyboard-response", "trial_index": 95, "time_elapsed": 311102, "internal_node_id": "0.0-6.0-0.0"}}, {"uniqueid": "w70697162:a99112050", "current_trial": 96, "dateTime": 1664555302714, "trialdata": {"rt": 1428, "stimulus": "<p id='stroop-text' class='stroop-blue'>RED</p>", "response": "b", "stimulus-type": "incongruent", "word": "red", "color": "blue", "correct_response": "b", "trial_id": "stroop-trial-1-incongruent-21", "trial_type": "html-keyboard-response", "trial_index": 96, "time_elapsed": 313053, "internal_node_id": "0.0-6.0-1.0"}}, {"uniqueid": "w70697162:a99112050", "current_trial": 97, "dateTime": 1664555303827, "trialdata": {"rt": 589, "stimulus": "<p id='stroop-text' class='stroop-yellow'>YELLOW</p>", "response": "y", "stimulus-type": "congruent", "word": "yellow", "color": "yellow", "correct_response": "y", "trial_id": "stroop-trial-1-congruent-17", "trial_type": "html-keyboard-response", "trial_index": 97, "time_elapsed": 314168, "internal_node_id": "0.0-6.0-2.0"}}, {"uniqueid": "w70697162:a99112050", "current_trial": 98, "dateTime": 1664555305150, "trialdata": {"rt": 801, "stimulus": "<p id='stroop-text' class='stroop-blue'>CHAIR</p>", "response": "g", "stimulus-type": "unrelated", "word": "CHAIR", "color": "blue", "correct_response": "b", "trial_id": "stroop-trial-1-unrelated-28", "trial_type": "html-keyboard-response", "trial_index": 98, "time_elapsed": 315490, "internal_node_id": "0.0-6.0-3.0"}}, {"uniqueid": "w70697162:a99112050", "current_trial": 99, "dateTime": 1664555307031, "trialdata": {"rt": 1331, "stimulus": "<p id='stroop-text' class='stroop-green'>BLUE</p>", "response": "g", "stimulus-type": "incongruent", "word": "blue", "color": "green", "correct_response": "g", "trial_id": "stroop-trial-1-incongruent-18", "trial_type": "html-keyboard-response", "trial_index": 99, "time_elapsed": 317372, "internal_node_id": "0.0-6.0-4.0"}}, {"uniqueid": "w70697162:a99112050", "current_trial": 100, "dateTime": 1664555308533, "trialdata": {"rt": 984, "stimulus": "<p id='stroop-text' class='stroop-yellow'>BRAIN</p>", "response": "y", "stimulus-type": "unrelated", "word": "BRAIN", "color": "yellow", "correct_response": "y", "trial_id": "stroop-trial-1-unrelated-4", "trial_type": "html-keyboard-response", "trial_index": 100, "time_elapsed": 318873, "internal_node_id": "0.0-6.0-5.0"}}, {"uniqueid": "w70697162:a99112050", "current_trial": 101, "dateTime": 1664555309649, "trialdata": {"rt": 591, "stimulus": "<p id='stroop-text' class='stroop-yellow'>DOG</p>", "response": "y", "stimulus-type": "unrelated", "word": "DOG", "color": "yellow", "correct_response": "y", "trial_id": "stroop-trial-1-unrelated-13", "trial_type": "html-keyboard-response", "trial_index": 101, "time_elapsed": 319990, "internal_node_id": "0.0-6.0-6.0"}}, {"uniqueid": "w70697162:a99112050", "current_trial": 102, "dateTime": 1664555310811, "trialdata": {"rt": 642, "stimulus": "<p id='stroop-text' class='stroop-green'>GREEN</p>", "response": "g", "stimulus-type": "congruent", "word": "green", "color": "green", "correct_response": "g", "trial_id": "stroop-trial-1-congruent-24", "trial_type": "html-keyboard-response", "trial_index": 102, "time_elapsed": 321151, "internal_node_id": "0.0-6.0-7.0"}}, {"uniqueid": "w70697162:a99112050", "current_trial": 103, "dateTime": 1664555311930, "trialdata": {"rt": 605, "stimulus": "<p id='stroop-text' class='stroop-red'>YELLOW</p>", "response": "r", "stimulus-type": "incongruent", "word": "yellow", "color": "red", "correct_response": "r", "trial_id": "stroop-trial-1-incongruent-27", "trial_type": "html-keyboard-response", "trial_index": 103, "time_elapsed": 322270, "internal_node_id": "0.0-6.0-8.0"}}, {"uniqueid": "w70697162:a99112050", "current_trial": 104, "dateTime": 1664555313138, "trialdata": {"rt": 684, "stimulus": "<p id='stroop-text' class='stroop-yellow'>BLUE</p>", "response": "y", "stimulus-type": "incongruent", "word": "blue", "color": "yellow", "correct_response": "y", "trial_id": "stroop-trial-1-incongruent-9", "trial_type": "html-keyboard-response", "trial_index": 104, "time_elapsed": 323478, "internal_node_id": "0.0-6.0-9.0"}}, {"uniqueid": "w70697162:a99112050", "current_trial": 105, "dateTime": 1664555314508, "trialdata": {"rt": 835, "stimulus": "<p id='stroop-text' class='stroop-green'>RED</p>", "response": "g", "stimulus-type": "incongruent", "word": "red", "color": "green", "correct_response": "g", "trial_id": "stroop-trial-1-incongruent-20", "trial_type": "html-keyboard-response", "trial_index": 105, "time_elapsed": 324848, "internal_node_id": "0.0-6.0-10.0"}}, {"uniqueid": "w70697162:a99112050", "current_trial": 106, "dateTime": 1664555316194, "trialdata": {"rt": 1165, "stimulus": "<p id='stroop-text' class='stroop-green'>YELLOW</p>", "response": "g", "stimulus-type": "incongruent", "word": "yellow", "color": "green", "correct_response": "g", "trial_id": "stroop-trial-1-incongruent-13", "trial_type": "html-keyboard-response", "trial_index": 106, "time_elapsed": 326535, "internal_node_id": "0.0-6.0-11.0"}}, {"uniqueid": "w70697162:a99112050", "current_trial": 107, "dateTime": 1664555317406, "trialdata": {"rt": 687, "stimulus": "<p id='stroop-text' class='stroop-green'>GREEN</p>", "response": "g", "stimulus-type": "congruent", "word": "green", "color": "green", "correct_response": "g", "trial_id": "stroop-trial-1-congruent-13", "trial_type": "html-keyboard-response", "trial_index": 107, "time_elapsed": 327747, "internal_node_id": "0.0-6.0-12.0"}}, {"uniqueid": "w70697162:a99112050", "current_trial": 108, "dateTime": 1664555318488, "trialdata": {"rt": 567, "stimulus": "<p id='stroop-text' class='stroop-green'>GREEN</p>", "response": "g", "stimulus-type": "congruent", "word": "green", "color": "green", "correct_response": "g", "trial_id": "stroop-trial-1-congruent-29", "trial_type": "html-keyboard-response", "trial_index": 108, "time_elapsed": 328829, "internal_node_id": "0.0-6.0-13.0"}}, {"uniqueid": "w70697162:a99112050", "current_trial": 109, "dateTime": 1664555319432, "trialdata": {"rt": 426, "stimulus": "<p id='stroop-text' class='stroop-yellow'>YELLOW</p>", "response": "y", "stimulus-type": "congruent", "word": "yellow", "color": "yellow", "correct_response": "y", "trial_id": "stroop-trial-1-congruent-21", "trial_type": "html-keyboard-response", "trial_index": 109, "time_elapsed": 329773, "internal_node_id": "0.0-6.0-14.0"}}, {"uniqueid": "w70697162:a99112050", "current_trial": 110, "dateTime": 1664555320345, "trialdata": {"rt": 397, "stimulus": "<p id='stroop-text' class='stroop-yellow'>YELLOW</p>", "response": "y", "stimulus-type": "congruent", "word": "yellow", "color": "yellow", "correct_response": "y", "trial_id": "stroop-trial-1-congruent-12", "trial_type": "html-keyboard-response", "trial_index": 110, "time_elapsed": 330685, "internal_node_id": "0.0-6.0-15.0"}}, {"uniqueid": "w70697162:a99112050", "current_trial": 111, "dateTime": 1664555321535, "trialdata": {"rt": 680, "stimulus": "<p id='stroop-text' class='stroop-green'>STONE</p>", "response": "g", "stimulus-type": "unrelated", "word": "STONE", "color": "green", "correct_response": "g", "trial_id": "stroop-trial-1-unrelated-21", "trial_type": "html-keyboard-response", "trial_index": 111, "time_elapsed": 331876, "internal_node_id": "0.0-6.0-16.0"}}, {"uniqueid": "w70697162:a99112050", "current_trial": 112, "dateTime": 1664555322678, "trialdata": {"rt": 631, "stimulus": "<p id='stroop-text' class='stroop-blue'>BLUE</p>", "response": "b", "stimulus-type": "congruent", "word": "blue", "color": "blue", "correct_response": "b", "trial_id": "stroop-trial-1-congruent-14", "trial_type": "html-keyboard-response", "trial_index": 112, "time_elapsed": 333019, "internal_node_id": "0.0-6.0-17.0"}}, {"uniqueid": "w70697162:a99112050", "current_trial": 113, "dateTime": 1664555323720, "trialdata": {"rt": 531, "stimulus": "<p id='stroop-text' class='stroop-blue'>MONKEY</p>", "response": "b", "stimulus-type": "unrelated", "word": "MONKEY", "color": "blue", "correct_response": "b", "trial_id": "stroop-trial-1-unrelated-11", "trial_type": "html-keyboard-response", "trial_index": 113, "time_elapsed": 334061, "internal_node_id": "0.0-6.0-18.0"}}, {"uniqueid": "w70697162:a99112050", "current_trial": 114, "dateTime": 1664555324842, "trialdata": {"rt": 604, "stimulus": "<p id='stroop-text' class='stroop-yellow'>YELLOW</p>", "response": "y", "stimulus-type": "congruent", "word": "yellow", "color": "yellow", "correct_response": "y", "trial_id": "stroop-trial-1-congruent-16", "trial_type": "html-keyboard-response", "trial_index": 114, "time_elapsed": 335182, "internal_node_id": "0.0-6.0-19.0"}}, {"uniqueid": "w70697162:a99112050", "current_trial": 115, "dateTime": 1664555325868, "trialdata": {"rt": 502, "stimulus": "<p id='stroop-text' class='stroop-yellow'>WINDOW</p>", "response": "y", "stimulus-type": "unrelated", "word": "WINDOW", "color": "yellow", "correct_response": "y", "trial_id": "stroop-trial-1-unrelated-1", "trial_type": "html-keyboard-response", "trial_index": 115, "time_elapsed": 336207, "internal_node_id": "0.0-6.0-20.0"}}, {"uniqueid": "w70697162:a99112050", "current_trial": 116, "dateTime": 1664555327206, "trialdata": {"rt": 809, "stimulus": "<p id='stroop-text' class='stroop-blue'>GREEN</p>", "response": "b", "stimulus-type": "incongruent", "word": "green", "color": "blue", "correct_response": "b", "trial_id": "stroop-trial-1-incongruent-1", "trial_type": "html-keyboard-response", "trial_index": 116, "time_elapsed": 337546, "internal_node_id": "0.0-6.0-21.0"}}, {"uniqueid": "w70697162:a99112050", "current_trial": 117, "dateTime": 1664555328509, "trialdata": {"rt": 788, "stimulus": "<p id='stroop-text' class='stroop-green'>RED</p>", "response": "g", "stimulus-type": "incongruent", "word": "red", "color": "green", "correct_response": "g", "trial_id": "stroop-trial-1-incongruent-28", "trial_type": "html-keyboard-response", "trial_index": 117, "time_elapsed": 338848, "internal_node_id": "0.0-6.0-22.0"}}, {"uniqueid": "w70697162:a99112050", "current_trial": 118, "dateTime": 1664555329569, "trialdata": {"rt": 539, "stimulus": "<p id='stroop-text' class='stroop-red'>RED</p>", "response": "r", "stimulus-type": "congruent", "word": "red", "color": "red", "correct_response": "r", "trial_id": "stroop-trial-1-congruent-19", "trial_type": "html-keyboard-response", "trial_index": 118, "time_elapsed": 339910, "internal_node_id": "0.0-6.0-23.0"}}, {"uniqueid": "w70697162:a99112050", "current_trial": 119, "dateTime": 1664555330809, "trialdata": {"rt": 722, "stimulus": "<p id='stroop-text' class='stroop-blue'>CHAIR</p>", "response": "b", "stimulus-type": "unrelated", "word": "CHAIR", "color": "blue", "correct_response": "b", "trial_id": "stroop-trial-1-unrelated-9", "trial_type": "html-keyboard-response", "trial_index": 119, "time_elapsed": 341148, "internal_node_id": "0.0-6.0-24.0"}}, {"uniqueid": "w70697162:a99112050", "current_trial": 120, "dateTime": 1664555332434, "trialdata": {"rt": 1110, "stimulus": "<p id='stroop-text' class='stroop-green'>YELLOW</p>", "response": "g", "stimulus-type": "incongruent", "word": "yellow", "color": "green", "correct_response": "g", "trial_id": "stroop-trial-1-incongruent-4", "trial_type": "html-keyboard-response", "trial_index": 120, "time_elapsed": 342775, "internal_node_id": "0.0-6.0-25.0"}}, {"uniqueid": "w70697162:a99112050", "current_trial": 121, "dateTime": 1664555333795, "trialdata": {"rt": 841, "stimulus": "<p id='stroop-text' class='stroop-green'>GREEN</p>", "response": "g", "stimulus-type": "congruent", "word": "green", "color": "green", "correct_response": "g", "trial_id": "stroop-trial-1-congruent-27", "trial_type": "html-keyboard-response", "trial_index": 121, "time_elapsed": 344135, "internal_node_id": "0.0-6.0-26.0"}}, {"uniqueid": "w70697162:a99112050", "current_trial": 122, "dateTime": 1664555334874, "trialdata": {"rt": 554, "stimulus": "<p id='stroop-text' class='stroop-red'>CHAIR</p>", "response": "r", "stimulus-type": "unrelated", "word": "CHAIR", "color": "red", "correct_response": "r", "trial_id": "stroop-trial-1-unrelated-6", "trial_type": "html-keyboard-response", "trial_index": 122, "time_elapsed": 345215, "internal_node_id": "0.0-6.0-27.0"}}, {"uniqueid": "w70697162:a99112050", "current_trial": 123, "dateTime": 1664555336074, "trialdata": {"rt": 692, "stimulus": "<p id='stroop-text' class='stroop-green'>YELLOW</p>", "response": "g", "stimulus-type": "incongruent", "word": "yellow", "color": "green", "correct_response": "g", "trial_id": "stroop-trial-1-incongruent-8", "trial_type": "html-keyboard-response", "trial_index": 123, "time_elapsed": 346415, "internal_node_id": "0.0-6.0-28.0"}}, {"uniqueid": "w70697162:a99112050", "current_trial": 124, "dateTime": 1664555337021, "trialdata": {"rt": 433, "stimulus": "<p id='stroop-text' class='stroop-green'>GREEN</p>", "response": "g", "stimulus-type": "congruent", "word": "green", "color": "green", "correct_response": "g", "trial_id": "stroop-trial-1-congruent-4", "trial_type": "html-keyboard-response", "trial_index": 124, "time_elapsed": 347362, "internal_node_id": "0.0-6.0-29.0"}}, {"uniqueid": "w70697162:a99112050", "current_trial": 125, "dateTime": 1664555337955, "trialdata": {"rt": 420, "stimulus": "<p id='stroop-text' class='stroop-green'>GREEN</p>", "response": "g", "stimulus-type": "congruent", "word": "green", "color": "green", "correct_response": "g", "trial_id": "stroop-trial-1-congruent-6", "trial_type": "html-keyboard-response", "trial_index": 125, "time_elapsed": 348295, "internal_node_id": "0.0-6.0-30.0"}}, {"uniqueid": "w70697162:a99112050", "current_trial": 126, "dateTime": 1664555338957, "trialdata": {"rt": 471, "stimulus": "<p id='stroop-text' class='stroop-red'>RED</p>", "response": "r", "stimulus-type": "congruent", "word": "red", "color": "red", "correct_response": "r", "trial_id": "stroop-trial-1-congruent-10", "trial_type": "html-keyboard-response", "trial_index": 126, "time_elapsed": 349298, "internal_node_id": "0.0-6.0-31.0"}}, {"uniqueid": "w70697162:a99112050", "current_trial": 127, "dateTime": 1664555339971, "trialdata": {"rt": 487, "stimulus": "<p id='stroop-text' class='stroop-blue'>BLUE</p>", "response": "b", "stimulus-type": "congruent", "word": "blue", "color": "blue", "correct_response": "b", "trial_id": "stroop-trial-1-congruent-9", "trial_type": "html-keyboard-response", "trial_index": 127, "time_elapsed": 350310, "internal_node_id": "0.0-6.0-32.0"}}, {"uniqueid": "w70697162:a99112050", "current_trial": 128, "dateTime": 1664555341150, "trialdata": {"rt": 659, "stimulus": "<p id='stroop-text' class='stroop-red'>RED</p>", "response": "r", "stimulus-type": "congruent", "word": "red", "color": "red", "correct_response": "r", "trial_id": "stroop-trial-1-congruent-23", "trial_type": "html-keyboard-response", "trial_index": 128, "time_elapsed": 351490, "internal_node_id": "0.0-6.0-33.0"}}, {"uniqueid": "w70697162:a99112050", "current_trial": 129, "dateTime": 1664555342070, "trialdata": {"rt": 404, "stimulus": "<p id='stroop-text' class='stroop-red'>RED</p>", "response": "r", "stimulus-type": "congruent", "word": "red", "color": "red", "correct_response": "r", "trial_id": "stroop-trial-1-congruent-2", "trial_type": "html-keyboard-response", "trial_index": 129, "time_elapsed": 352411, "internal_node_id": "0.0-6.0-34.0"}}, {"uniqueid": "w70697162:a99112050", "current_trial": 130, "dateTime": 1664555343092, "trialdata": {"rt": 504, "stimulus": "<p id='stroop-text' class='stroop-yellow'>RED</p>", "response": "y", "stimulus-type": "incongruent", "word": "red", "color": "yellow", "correct_response": "y", "trial_id": "stroop-trial-1-incongruent-25", "trial_type": "html-keyboard-response", "trial_index": 130, "time_elapsed": 353431, "internal_node_id": "0.0-6.0-35.0"}}, {"uniqueid": "w70697162:a99112050", "current_trial": 131, "dateTime": 1664555344224, "trialdata": {"rt": 607, "stimulus": "<p id='stroop-text' class='stroop-red'>RED</p>", "response": "r", "stimulus-type": "congruent", "word": "red", "color": "red", "correct_response": "r", "trial_id": "stroop-trial-1-congruent-3", "trial_type": "html-keyboard-response", "trial_index": 131, "time_elapsed": 354565, "internal_node_id": "0.0-6.0-36.0"}}, {"uniqueid": "w70697162:a99112050", "current_trial": 132, "dateTime": 1664555345229, "trialdata": {"rt": 488, "stimulus": "<p id='stroop-text' class='stroop-red'>RED</p>", "response": "r", "stimulus-type": "congruent", "word": "red", "color": "red", "correct_response": "r", "trial_id": "stroop-trial-1-congruent-8", "trial_type": "html-keyboard-response", "trial_index": 132, "time_elapsed": 355569, "internal_node_id": "0.0-6.0-37.0"}}, {"uniqueid": "w70697162:a99112050", "current_trial": 133, "dateTime": 1664555346170, "trialdata": {"rt": 414, "stimulus": "<p id='stroop-text' class='stroop-red'>YELLOW</p>", "response": "r", "stimulus-type": "incongruent", "word": "yellow", "color": "red", "correct_response": "r", "trial_id": "stroop-trial-1-incongruent-5", "trial_type": "html-keyboard-response", "trial_index": 133, "time_elapsed": 356510, "internal_node_id": "0.0-6.0-38.0"}}, {"uniqueid": "w70697162:a99112050", "current_trial": 134, "dateTime": 1664555347280, "trialdata": {"rt": 592, "stimulus": "<p id='stroop-text' class='stroop-green'>BOAT</p>", "response": "g", "stimulus-type": "unrelated", "word": "BOAT", "color": "green", "correct_response": "g", "trial_id": "stroop-trial-1-unrelated-22", "trial_type": "html-keyboard-response", "trial_index": 134, "time_elapsed": 357620, "internal_node_id": "0.0-6.0-39.0"}}, {"uniqueid": "w70697162:a99112050", "current_trial": 135, "dateTime": 1664555348492, "trialdata": {"rt": 692, "stimulus": "<p id='stroop-text' class='stroop-green'>RED</p>", "response": "g", "stimulus-type": "incongruent", "word": "red", "color": "green", "correct_response": "g", "trial_id": "stroop-trial-1-incongruent-12", "trial_type": "html-keyboard-response", "trial_index": 135, "time_elapsed": 358832, "internal_node_id": "0.0-6.0-40.0"}}, {"uniqueid": "w70697162:a99112050", "current_trial": 136, "dateTime": 1664555349956, "trialdata": {"rt": 949, "stimulus": "<p id='stroop-text' class='stroop-blue'>YELLOW</p>", "response": "b", "stimulus-type": "incongruent", "word": "yellow", "color": "blue", "correct_response": "b", "trial_id": "stroop-trial-1-incongruent-10", "trial_type": "html-keyboard-response", "trial_index": 136, "time_elapsed": 360297, "internal_node_id": "0.0-6.0-41.0"}}, {"uniqueid": "w70697162:a99112050", "current_trial": 137, "dateTime": 1664555351169, "trialdata": {"rt": 700, "stimulus": "<p id='stroop-text' class='stroop-red'>GREEN</p>", "response": "r", "stimulus-type": "incongruent", "word": "green", "color": "red", "correct_response": "r", "trial_id": "stroop-trial-1-incongruent-19", "trial_type": "html-keyboard-response", "trial_index": 137, "time_elapsed": 361510, "internal_node_id": "0.0-6.0-42.0"}}, {"uniqueid": "w70697162:a99112050", "current_trial": 138, "dateTime": 1664555352122, "trialdata": {"rt": 436, "stimulus": "<p id='stroop-text' class='stroop-red'>RED</p>", "response": "r", "stimulus-type": "congruent", "word": "red", "color": "red", "correct_response": "r", "trial_id": "stroop-trial-1-congruent-22", "trial_type": "html-keyboard-response", "trial_index": 138, "time_elapsed": 362462, "internal_node_id": "0.0-6.0-43.0"}}, {"uniqueid": "w70697162:a99112050", "current_trial": 139, "dateTime": 1664555353228, "trialdata": {"rt": 584, "stimulus": "<p id='stroop-text' class='stroop-green'>GREEN</p>", "response": "g", "stimulus-type": "congruent", "word": "green", "color": "green", "correct_response": "g", "trial_id": "stroop-trial-1-congruent-7", "trial_type": "html-keyboard-response", "trial_index": 139, "time_elapsed": 363568, "internal_node_id": "0.0-6.0-44.0"}}, {"uniqueid": "w70697162:a99112050", "current_trial": 140, "dateTime": 1664555354333, "trialdata": {"rt": 582, "stimulus": "<p id='stroop-text' class='stroop-yellow'>CHAIR</p>", "response": "y", "stimulus-type": "unrelated", "word": "CHAIR", "color": "yellow", "correct_response": "y", "trial_id": "stroop-trial-1-unrelated-3", "trial_type": "html-keyboard-response", "trial_index": 140, "time_elapsed": 364673, "internal_node_id": "0.0-6.0-45.0"}}, {"uniqueid": "w70697162:a99112050", "current_trial": 141, "dateTime": 1664555355262, "trialdata": {"rt": 397, "stimulus": "<p id='stroop-text' class='stroop-yellow'>STONE</p>", "response": "y", "stimulus-type": "unrelated", "word": "STONE", "color": "yellow", "correct_response": "y", "trial_id": "stroop-trial-1-unrelated-30", "trial_type": "html-keyboard-response", "trial_index": 141, "time_elapsed": 365602, "internal_node_id": "0.0-6.0-46.0"}}, {"uniqueid": "w70697162:a99112050", "current_trial": 142, "dateTime": 1664555356550, "trialdata": {"rt": 762, "stimulus": "<p id='stroop-text' class='stroop-green'>BLUE</p>", "response": "g", "stimulus-type": "incongruent", "word": "blue", "color": "green", "correct_response": "g", "trial_id": "stroop-trial-1-incongruent-15", "trial_type": "html-keyboard-response", "trial_index": 142, "time_elapsed": 366891, "internal_node_id": "0.0-6.0-47.0"}}, {"uniqueid": "w70697162:a99112050", "current_trial": 143, "dateTime": 1664555357739, "trialdata": {"rt": 671, "stimulus": "<p id='stroop-text' class='stroop-yellow'>YELLOW</p>", "response": "y", "stimulus-type": "congruent", "word": "yellow", "color": "yellow", "correct_response": "y", "trial_id": "stroop-trial-1-congruent-30", "trial_type": "html-keyboard-response", "trial_index": 143, "time_elapsed": 368079, "internal_node_id": "0.0-6.0-48.0"}}, {"uniqueid": "w70697162:a99112050", "current_trial": 144, "dateTime": 1664555358784, "trialdata": {"rt": 514, "stimulus": "<p id='stroop-text' class='stroop-yellow'>YELLOW</p>", "response": "y", "stimulus-type": "congruent", "word": "yellow", "color": "yellow", "correct_response": "y", "trial_id": "stroop-trial-1-congruent-5", "trial_type": "html-keyboard-response", "trial_index": 144, "time_elapsed": 369124, "internal_node_id": "0.0-6.0-49.0"}}, {"uniqueid": "w70697162:a99112050", "current_trial": 145, "dateTime": 1664555359768, "trialdata": {"rt": 455, "stimulus": "<p id='stroop-text' class='stroop-green'>GREEN</p>", "response": "y", "stimulus-type": "congruent", "word": "green", "color": "green", "correct_response": "g", "trial_id": "stroop-trial-1-congruent-28", "trial_type": "html-keyboard-response", "trial_index": 145, "time_elapsed": 370108, "internal_node_id": "0.0-6.0-50.0"}}, {"uniqueid": "w70697162:a99112050", "current_trial": 146, "dateTime": 1664555361549, "trialdata": {"rt": 1257, "stimulus": "<p id='stroop-text' class='stroop-red'>RED</p>", "response": "r", "stimulus-type": "congruent", "word": "red", "color": "red", "correct_response": "r", "trial_id": "stroop-trial-1-congruent-20", "trial_type": "html-keyboard-response", "trial_index": 146, "time_elapsed": 371888, "internal_node_id": "0.0-6.0-51.0"}}, {"uniqueid": "w70697162:a99112050", "current_trial": 147, "dateTime": 1664555362969, "trialdata": {"rt": 899, "stimulus": "<p id='stroop-text' class='stroop-blue'>BRIDGE</p>", "response": "b", "stimulus-type": "unrelated", "word": "BRIDGE", "color": "blue", "correct_response": "b", "trial_id": "stroop-trial-1-unrelated-20", "trial_type": "html-keyboard-response", "trial_index": 147, "time_elapsed": 373309, "internal_node_id": "0.0-6.0-52.0"}}, {"uniqueid": "w70697162:a99112050", "current_trial": 148, "dateTime": 1664555364015, "trialdata": {"rt": 515, "stimulus": "<p id='stroop-text' class='stroop-red'>BRAIN</p>", "response": "r", "stimulus-type": "unrelated", "word": "BRAIN", "color": "red", "correct_response": "r", "trial_id": "stroop-trial-1-unrelated-25", "trial_type": "html-keyboard-response", "trial_index": 148, "time_elapsed": 374356, "internal_node_id": "0.0-6.0-53.0"}}, {"uniqueid": "w70697162:a99112050", "current_trial": 149, "dateTime": 1664555365197, "trialdata": {"rt": 653, "stimulus": "<p id='stroop-text' class='stroop-yellow'>GREEN</p>", "response": "y", "stimulus-type": "incongruent", "word": "green", "color": "yellow", "correct_response": "y", "trial_id": "stroop-trial-1-incongruent-7", "trial_type": "html-keyboard-response", "trial_index": 149, "time_elapsed": 375537, "internal_node_id": "0.0-6.0-54.0"}}, {"uniqueid": "w70697162:a99112050", "current_trial": 150, "dateTime": 1664555366123, "trialdata": {"rt": 401, "stimulus": "<p id='stroop-text' class='stroop-yellow'>STONE</p>", "response": "y", "stimulus-type": "unrelated", "word": "STONE", "color": "yellow", "correct_response": "y", "trial_id": "stroop-trial-1-unrelated-17", "trial_type": "html-keyboard-response", "trial_index": 150, "time_elapsed": 376463, "internal_node_id": "0.0-6.0-55.0"}}, {"uniqueid": "w70697162:a99112050", "current_trial": 151, "dateTime": 1664555367088, "trialdata": {"rt": 435, "stimulus": "<p id='stroop-text' class='stroop-red'>YELLOW</p>", "response": "r", "stimulus-type": "incongruent", "word": "yellow", "color": "red", "correct_response": "r", "trial_id": "stroop-trial-1-incongruent-2", "trial_type": "html-keyboard-response", "trial_index": 151, "time_elapsed": 377427, "internal_node_id": "0.0-6.0-56.0"}}, {"uniqueid": "w70697162:a99112050", "current_trial": 152, "dateTime": 1664555368297, "trialdata": {"rt": 681, "stimulus": "<p id='stroop-text' class='stroop-blue'>FORK</p>", "response": "g", "stimulus-type": "unrelated", "word": "FORK", "color": "blue", "correct_response": "b", "trial_id": "stroop-trial-1-unrelated-24", "trial_type": "html-keyboard-response", "trial_index": 152, "time_elapsed": 378637, "internal_node_id": "0.0-6.0-57.0"}}, {"uniqueid": "w70697162:a99112050", "current_trial": 153, "dateTime": 1664555369602, "trialdata": {"rt": 779, "stimulus": "<p id='stroop-text' class='stroop-red'>MONKEY</p>", "response": "r", "stimulus-type": "unrelated", "word": "MONKEY", "color": "red", "correct_response": "r", "trial_id": "stroop-trial-1-unrelated-16", "trial_type": "html-keyboard-response", "trial_index": 153, "time_elapsed": 379942, "internal_node_id": "0.0-6.0-58.0"}}, {"uniqueid": "w70697162:a99112050", "current_trial": 154, "dateTime": 1664555370746, "trialdata": {"rt": 604, "stimulus": "<p id='stroop-text' class='stroop-yellow'>WINDOW</p>", "response": "y", "stimulus-type": "unrelated", "word": "WINDOW", "color": "yellow", "correct_response": "y", "trial_id": "stroop-trial-1-unrelated-10", "trial_type": "html-keyboard-response", "trial_index": 154, "time_elapsed": 381087, "internal_node_id": "0.0-6.0-59.0"}}, {"uniqueid": "w70697162:a99112050", "current_trial": 155, "dateTime": 1664555371764, "trialdata": {"rt": 504, "stimulus": "<p id='stroop-text' class='stroop-yellow'>YELLOW</p>", "response": "y", "stimulus-type": "congruent", "word": "yellow", "color": "yellow", "correct_response": "y", "trial_id": "stroop-trial-1-congruent-18", "trial_type": "html-keyboard-response", "trial_index": 155, "time_elapsed": 382105, "internal_node_id": "0.0-6.0-60.0"}}, {"uniqueid": "w70697162:a99112050", "current_trial": 156, "dateTime": 1664555372811, "trialdata": {"rt": 518, "stimulus": "<p id='stroop-text' class='stroop-red'>YELLOW</p>", "response": "r", "stimulus-type": "incongruent", "word": "yellow", "color": "red", "correct_response": "r", "trial_id": "stroop-trial-1-incongruent-17", "trial_type": "html-keyboard-response", "trial_index": 156, "time_elapsed": 383151, "internal_node_id": "0.0-6.0-61.0"}}, {"uniqueid": "w70697162:a99112050", "current_trial": 157, "dateTime": 1664555374213, "trialdata": {"rt": 875, "stimulus": "<p id='stroop-text' class='stroop-yellow'>BOAT</p>", "response": "y", "stimulus-type": "unrelated", "word": "BOAT", "color": "yellow", "correct_response": "y", "trial_id": "stroop-trial-1-unrelated-27", "trial_type": "html-keyboard-response", "trial_index": 157, "time_elapsed": 384553, "internal_node_id": "0.0-6.0-62.0"}}, {"uniqueid": "w70697162:a99112050", "current_trial": 158, "dateTime": 1664555375573, "trialdata": {"rt": 836, "stimulus": "<p id='stroop-text' class='stroop-green'>RED</p>", "response": "g", "stimulus-type": "incongruent", "word": "red", "color": "green", "correct_response": "g", "trial_id": "stroop-trial-1-incongruent-29", "trial_type": "html-keyboard-response", "trial_index": 158, "time_elapsed": 385913, "internal_node_id": "0.0-6.0-63.0"}}, {"uniqueid": "w70697162:a99112050", "current_trial": 159, "dateTime": 1664555376602, "trialdata": {"rt": 503, "stimulus": "<p id='stroop-text' class='stroop-green'>DOG</p>", "response": "g", "stimulus-type": "unrelated", "word": "DOG", "color": "green", "correct_response": "g", "trial_id": "stroop-trial-1-unrelated-12", "trial_type": "html-keyboard-response", "trial_index": 159, "time_elapsed": 386943, "internal_node_id": "0.0-6.0-64.0"}}, {"uniqueid": "w70697162:a99112050", "current_trial": 160, "dateTime": 1664555377726, "trialdata": {"rt": 608, "stimulus": "<p id='stroop-text' class='stroop-red'>RED</p>", "response": "r", "stimulus-type": "congruent", "word": "red", "color": "red", "correct_response": "r", "trial_id": "stroop-trial-1-congruent-15", "trial_type": "html-keyboard-response", "trial_index": 160, "time_elapsed": 388067, "internal_node_id": "0.0-6.0-65.0"}}, {"uniqueid": "w70697162:a99112050", "current_trial": 161, "dateTime": 1664555379046, "trialdata": {"rt": 796, "stimulus": "<p id='stroop-text' class='stroop-green'>YELLOW</p>", "response": "g", "stimulus-type": "incongruent", "word": "yellow", "color": "green", "correct_response": "g", "trial_id": "stroop-trial-1-incongruent-14", "trial_type": "html-keyboard-response", "trial_index": 161, "time_elapsed": 389386, "internal_node_id": "0.0-6.0-66.0"}}, {"uniqueid": "w70697162:a99112050", "current_trial": 162, "dateTime": 1664555380194, "trialdata": {"rt": 610, "stimulus": "<p id='stroop-text' class='stroop-red'>BLUE</p>", "response": "r", "stimulus-type": "incongruent", "word": "blue", "color": "red", "correct_response": "r", "trial_id": "stroop-trial-1-incongruent-24", "trial_type": "html-keyboard-response", "trial_index": 162, "time_elapsed": 390534, "internal_node_id": "0.0-6.0-67.0"}}, {"uniqueid": "w70697162:a99112050", "current_trial": 163, "dateTime": 1664555381584, "trialdata": {"rt": 868, "stimulus": "<p id='stroop-text' class='stroop-green'>BLUE</p>", "response": "g", "stimulus-type": "incongruent", "word": "blue", "color": "green", "correct_response": "g", "trial_id": "stroop-trial-1-incongruent-26", "trial_type": "html-keyboard-response", "trial_index": 163, "time_elapsed": 391925, "internal_node_id": "0.0-6.0-68.0"}}, {"uniqueid": "w70697162:a99112050", "current_trial": 164, "dateTime": 1664555382683, "trialdata": {"rt": 576, "stimulus": "<p id='stroop-text' class='stroop-blue'>BLUE</p>", "response": "b", "stimulus-type": "congruent", "word": "blue", "color": "blue", "correct_response": "b", "trial_id": "stroop-trial-1-congruent-11", "trial_type": "html-keyboard-response", "trial_index": 164, "time_elapsed": 393024, "internal_node_id": "0.0-6.0-69.0"}}, {"uniqueid": "w70697162:a99112050", "current_trial": 165, "dateTime": 1664555383865, "trialdata": {"rt": 658, "stimulus": "<p id='stroop-text' class='stroop-green'>CHAIR</p>", "response": "g", "stimulus-type": "unrelated", "word": "CHAIR", "color": "green", "correct_response": "g", "trial_id": "stroop-trial-1-unrelated-14", "trial_type": "html-keyboard-response", "trial_index": 165, "time_elapsed": 394206, "internal_node_id": "0.0-6.0-70.0"}}, {"uniqueid": "w70697162:a99112050", "current_trial": 166, "dateTime": 1664555384904, "trialdata": {"rt": 518, "stimulus": "<p id='stroop-text' class='stroop-red'>DOG</p>", "response": "r", "stimulus-type": "unrelated", "word": "DOG", "color": "red", "correct_response": "r", "trial_id": "stroop-trial-1-unrelated-23", "trial_type": "html-keyboard-response", "trial_index": 166, "time_elapsed": 395245, "internal_node_id": "0.0-6.0-71.0"}}, {"uniqueid": "w70697162:a99112050", "current_trial": 167, "dateTime": 1664555386486, "trialdata": {"rt": 1071, "stimulus": "<p id='stroop-text' class='stroop-red'>YELLOW</p>", "response": "r", "stimulus-type": "incongruent", "word": "yellow", "color": "red", "correct_response": "r", "trial_id": "stroop-trial-1-incongruent-23", "trial_type": "html-keyboard-response", "trial_index": 167, "time_elapsed": 396827, "internal_node_id": "0.0-6.0-72.0"}}, {"uniqueid": "w70697162:a99112050", "current_trial": 168, "dateTime": 1664555387966, "trialdata": {"rt": 964, "stimulus": "<p id='stroop-text' class='stroop-blue'>BRAIN</p>", "response": "g", "stimulus-type": "unrelated", "word": "BRAIN", "color": "blue", "correct_response": "b", "trial_id": "stroop-trial-1-unrelated-7", "trial_type": "html-keyboard-response", "trial_index": 168, "time_elapsed": 398307, "internal_node_id": "0.0-6.0-73.0"}}, {"uniqueid": "w70697162:a99112050", "current_trial": 169, "dateTime": 1664555389210, "trialdata": {"rt": 727, "stimulus": "<p id='stroop-text' class='stroop-yellow'>BLUE</p>", "response": "y", "stimulus-type": "incongruent", "word": "blue", "color": "yellow", "correct_response": "y", "trial_id": "stroop-trial-1-incongruent-3", "trial_type": "html-keyboard-response", "trial_index": 169, "time_elapsed": 399550, "internal_node_id": "0.0-6.0-74.0"}}, {"uniqueid": "w70697162:a99112050", "current_trial": 170, "dateTime": 1664555390564, "trialdata": {"rt": 830, "stimulus": "<p id='stroop-text' class='stroop-green'>SHIP</p>", "response": "g", "stimulus-type": "unrelated", "word": "SHIP", "color": "green", "correct_response": "g", "trial_id": "stroop-trial-1-unrelated-18", "trial_type": "html-keyboard-response", "trial_index": 170, "time_elapsed": 400901, "internal_node_id": "0.0-6.0-75.0"}}, {"uniqueid": "w70697162:a99112050", "current_trial": 171, "dateTime": 1664555391681, "trialdata": {"rt": 600, "stimulus": "<p id='stroop-text' class='stroop-blue'>BLUE</p>", "response": "b", "stimulus-type": "congruent", "word": "blue", "color": "blue", "correct_response": "b", "trial_id": "stroop-trial-1-congruent-26", "trial_type": "html-keyboard-response", "trial_index": 171, "time_elapsed": 402022, "internal_node_id": "0.0-6.0-76.0"}}, {"uniqueid": "w70697162:a99112050", "current_trial": 172, "dateTime": 1664555392884, "trialdata": {"rt": 680, "stimulus": "<p id='stroop-text' class='stroop-yellow'>SHIP</p>", "response": "y", "stimulus-type": "unrelated", "word": "SHIP", "color": "yellow", "correct_response": "y", "trial_id": "stroop-trial-1-unrelated-8", "trial_type": "html-keyboard-response", "trial_index": 172, "time_elapsed": 403224, "internal_node_id": "0.0-6.0-77.0"}}, {"uniqueid": "w70697162:a99112050", "current_trial": 173, "dateTime": 1664555393859, "trialdata": {"rt": 453, "stimulus": "<p id='stroop-text' class='stroop-yellow'>BRAIN</p>", "response": "y", "stimulus-type": "unrelated", "word": "BRAIN", "color": "yellow", "correct_response": "y", "trial_id": "stroop-trial-1-unrelated-15", "trial_type": "html-keyboard-response", "trial_index": 173, "time_elapsed": 404198, "internal_node_id": "0.0-6.0-78.0"}}, {"uniqueid": "w70697162:a99112050", "current_trial": 174, "dateTime": 1664555394878, "trialdata": {"rt": 493, "stimulus": "<p id='stroop-text' class='stroop-red'>YELLOW</p>", "response": "r", "stimulus-type": "incongruent", "word": "yellow", "color": "red", "correct_response": "r", "trial_id": "stroop-trial-1-incongruent-16", "trial_type": "html-keyboard-response", "trial_index": 174, "time_elapsed": 405218, "internal_node_id": "0.0-6.0-79.0"}}, {"uniqueid": "w70697162:a99112050", "current_trial": 175, "dateTime": 1664555395844, "trialdata": {"rt": 444, "stimulus": "<p id='stroop-text' class='stroop-red'>SHIP</p>", "response": "r", "stimulus-type": "unrelated", "word": "SHIP", "color": "red", "correct_response": "r", "trial_id": "stroop-trial-1-unrelated-19", "trial_type": "html-keyboard-response", "trial_index": 175, "time_elapsed": 406184, "internal_node_id": "0.0-6.0-80.0"}}, {"uniqueid": "w70697162:a99112050", "current_trial": 176, "dateTime": 1664555397053, "trialdata": {"rt": 697, "stimulus": "<p id='stroop-text' class='stroop-green'>YELLOW</p>", "response": "g", "stimulus-type": "incongruent", "word": "yellow", "color": "green", "correct_response": "g", "trial_id": "stroop-trial-1-incongruent-30", "trial_type": "html-keyboard-response", "trial_index": 176, "time_elapsed": 407394, "internal_node_id": "0.0-6.0-81.0"}}, {"uniqueid": "w70697162:a99112050", "current_trial": 177, "dateTime": 1664555398251, "trialdata": {"rt": 673, "stimulus": "<p id='stroop-text' class='stroop-blue'>BLUE</p>", "response": "b", "stimulus-type": "congruent", "word": "blue", "color": "blue", "correct_response": "b", "trial_id": "stroop-trial-1-congruent-1", "trial_type": "html-keyboard-response", "trial_index": 177, "time_elapsed": 408589, "internal_node_id": "0.0-6.0-82.0"}}, {"uniqueid": "w70697162:a99112050", "current_trial": 178, "dateTime": 1664555400353, "trialdata": {"rt": 1585, "stimulus": "<p id='stroop-text' class='stroop-blue'>RED</p>", "response": "b", "stimulus-type": "incongruent", "word": "red", "color": "blue", "correct_response": "b", "trial_id": "stroop-trial-1-incongruent-22", "trial_type": "html-keyboard-response", "trial_index": 178, "time_elapsed": 410694, "internal_node_id": "0.0-6.0-83.0"}}, {"uniqueid": "w70697162:a99112050", "current_trial": 179, "dateTime": 1664555401510, "trialdata": {"rt": 642, "stimulus": "<p id='stroop-text' class='stroop-yellow'>DOG</p>", "response": "y", "stimulus-type": "unrelated", "word": "DOG", "color": "yellow", "correct_response": "y", "trial_id": "stroop-trial-1-unrelated-2", "trial_type": "html-keyboard-response", "trial_index": 179, "time_elapsed": 411850, "internal_node_id": "0.0-6.0-84.0"}}, {"uniqueid": "w70697162:a99112050", "current_trial": 180, "dateTime": 1664555402494, "trialdata": {"rt": 463, "stimulus": "<p id='stroop-text' class='stroop-red'>STONE</p>", "response": "r", "stimulus-type": "unrelated", "word": "STONE", "color": "red", "correct_response": "r", "trial_id": "stroop-trial-1-unrelated-26", "trial_type": "html-keyboard-response", "trial_index": 180, "time_elapsed": 412835, "internal_node_id": "0.0-6.0-85.0"}}, {"uniqueid": "w70697162:a99112050", "current_trial": 181, "dateTime": 1664555403827, "trialdata": {"rt": 816, "stimulus": "<p id='stroop-text' class='stroop-blue'>BOAT</p>", "response": "b", "stimulus-type": "unrelated", "word": "BOAT", "color": "blue", "correct_response": "b", "trial_id": "stroop-trial-1-unrelated-29", "trial_type": "html-keyboard-response", "trial_index": 181, "time_elapsed": 414167, "internal_node_id": "0.0-6.0-86.0"}}, {"uniqueid": "w70697162:a99112050", "current_trial": 182, "dateTime": 1664555404986, "trialdata": {"rt": 636, "stimulus": "<p id='stroop-text' class='stroop-red'>BLUE</p>", "response": "r", "stimulus-type": "incongruent", "word": "blue", "color": "red", "correct_response": "r", "trial_id": "stroop-trial-1-incongruent-6", "trial_type": "html-keyboard-response", "trial_index": 182, "time_elapsed": 415327, "internal_node_id": "0.0-6.0-87.0"}}, {"uniqueid": "w70697162:a99112050", "current_trial": 183, "dateTime": 1664555406170, "trialdata": {"rt": 653, "stimulus": "<p id='stroop-text' class='stroop-green'>MONKEY</p>", "response": "g", "stimulus-type": "unrelated", "word": "MONKEY", "color": "green", "correct_response": "g", "trial_id": "stroop-trial-1-unrelated-5", "trial_type": "html-keyboard-response", "trial_index": 183, "time_elapsed": 416510, "internal_node_id": "0.0-6.0-88.0"}}, {"uniqueid": "w70697162:a99112050", "current_trial": 184, "dateTime": 1664555407316, "trialdata": {"rt": 617, "stimulus": "<p id='stroop-text' class='stroop-blue'>BLUE</p>", "response": "b", "stimulus-type": "congruent", "word": "blue", "color": "blue", "correct_response": "b", "trial_id": "stroop-trial-1-congruent-25", "trial_type": "html-keyboard-response", "trial_index": 184, "time_elapsed": 417656, "internal_node_id": "0.0-6.0-89.0"}}, {"uniqueid": "w70697162:a99112050", "current_trial": 185, "dateTime": 1664555522284, "trialdata": {"rt": 114433, "stimulus": "  <h1> End of block! </h1>\n\n  You have reached the end of the block 2/5. If you need a short break, feel free to take one now before moving on.\n\n  <br><br>\n  In the next block, you will complete another 90 rounds of this game.\n\n  <br><br>\n  <div style='text-align: center;'>Press <code>space</code> to begin.</div>\n  <br><br>\n<div style='text-align: center;'>(If the experiment doesn't continue, try clicking on the text and then pressing <code>space</code>.)</div>", "response": " ", "trial_id": "stroop_1_ready_3", "trial_type": "html-keyboard-response", "trial_index": 185, "time_elapsed": 532625, "internal_node_id": "0.0-7.0"}}, {"uniqueid": "w70697162:a99112050", "current_trial": 186, "dateTime": 1664555523477, "trialdata": {"rt": 1137, "stimulus": "<p id='stroop-text' class='stroop-green'>BLUE</p>", "response": "g", "stimulus-type": "incongruent", "word": "blue", "color": "green", "correct_response": "g", "trial_id": "stroop-trial-1-incongruent-23", "trial_type": "html-keyboard-response", "trial_index": 186, "time_elapsed": 533818, "internal_node_id": "0.0-8.0-0.0"}}, {"uniqueid": "w70697162:a99112050", "current_trial": 187, "dateTime": 1664555525462, "trialdata": {"rt": 1462, "stimulus": "<p id='stroop-text' class='stroop-red'>YELLOW</p>", "response": "r", "stimulus-type": "incongruent", "word": "yellow", "color": "red", "correct_response": "r", "trial_id": "stroop-trial-1-incongruent-28", "trial_type": "html-keyboard-response", "trial_index": 187, "time_elapsed": 535802, "internal_node_id": "0.0-8.0-1.0"}}, {"uniqueid": "w70697162:a99112050", "current_trial": 188, "dateTime": 1664555526679, "trialdata": {"rt": 694, "stimulus": "<p id='stroop-text' class='stroop-red'>GREEN</p>", "response": "r", "stimulus-type": "incongruent", "word": "green", "color": "red", "correct_response": "r", "trial_id": "stroop-trial-1-incongruent-22", "trial_type": "html-keyboard-response", "trial_index": 188, "time_elapsed": 537020, "internal_node_id": "0.0-8.0-2.0"}}, {"uniqueid": "w70697162:a99112050", "current_trial": 189, "dateTime": 1664555528071, "trialdata": {"rt": 873, "stimulus": "<p id='stroop-text' class='stroop-green'>GREEN</p>", "response": "g", "stimulus-type": "congruent", "word": "green", "color": "green", "correct_response": "g", "trial_id": "stroop-trial-1-congruent-30", "trial_type": "html-keyboard-response", "trial_index": 189, "time_elapsed": 538410, "internal_node_id": "0.0-8.0-3.0"}}, {"uniqueid": "w70697162:a99112050", "current_trial": 190, "dateTime": 1664555529349, "trialdata": {"rt": 750, "stimulus": "<p id='stroop-text' class='stroop-blue'>YELLOW</p>", "response": "b", "stimulus-type": "incongruent", "word": "yellow", "color": "blue", "correct_response": "b", "trial_id": "stroop-trial-1-incongruent-2", "trial_type": "html-keyboard-response", "trial_index": 190, "time_elapsed": 539690, "internal_node_id": "0.0-8.0-4.0"}}, {"uniqueid": "w70697162:a99112050", "current_trial": 191, "dateTime": 1664555530825, "trialdata": {"rt": 955, "stimulus": "<p id='stroop-text' class='stroop-green'>SHIP</p>", "response": "g", "stimulus-type": "unrelated", "word": "SHIP", "color": "green", "correct_response": "g", "trial_id": "stroop-trial-1-unrelated-22", "trial_type": "html-keyboard-response", "trial_index": 191, "time_elapsed": 541165, "internal_node_id": "0.0-8.0-5.0"}}, {"uniqueid": "w70697162:a99112050", "current_trial": 192, "dateTime": 1664555531926, "trialdata": {"rt": 578, "stimulus": "<p id='stroop-text' class='stroop-green'>DOG</p>", "response": "g", "stimulus-type": "unrelated", "word": "DOG", "color": "green", "correct_response": "g", "trial_id": "stroop-trial-1-unrelated-5", "trial_type": "html-keyboard-response", "trial_index": 192, "time_elapsed": 542267, "internal_node_id": "0.0-8.0-6.0"}}, {"uniqueid": "w70697162:a99112050", "current_trial": 193, "dateTime": 1664555532980, "trialdata": {"rt": 528, "stimulus": "<p id='stroop-text' class='stroop-red'>FORK</p>", "response": "r", "stimulus-type": "unrelated", "word": "FORK", "color": "red", "correct_response": "r", "trial_id": "stroop-trial-1-unrelated-17", "trial_type": "html-keyboard-response", "trial_index": 193, "time_elapsed": 543320, "internal_node_id": "0.0-8.0-7.0"}}, {"uniqueid": "w70697162:a99112050", "current_trial": 194, "dateTime": 1664555534216, "trialdata": {"rt": 701, "stimulus": "<p id='stroop-text' class='stroop-green'>WINDOW</p>", "response": "g", "stimulus-type": "unrelated", "word": "WINDOW", "color": "green", "correct_response": "g", "trial_id": "stroop-trial-1-unrelated-21", "trial_type": "html-keyboard-response", "trial_index": 194, "time_elapsed": 544557, "internal_node_id": "0.0-8.0-8.0"}}, {"uniqueid": "w70697162:a99112050", "current_trial": 195, "dateTime": 1664555535206, "trialdata": {"rt": 468, "stimulus": "<p id='stroop-text' class='stroop-green'>BOAT</p>", "response": "g", "stimulus-type": "unrelated", "word": "BOAT", "color": "green", "correct_response": "g", "trial_id": "stroop-trial-1-unrelated-14", "trial_type": "html-keyboard-response", "trial_index": 195, "time_elapsed": 545545, "internal_node_id": "0.0-8.0-9.0"}}, {"uniqueid": "w70697162:a99112050", "current_trial": 196, "dateTime": 1664555536157, "trialdata": {"rt": 424, "stimulus": "<p id='stroop-text' class='stroop-green'>BOAT</p>", "response": "g", "stimulus-type": "unrelated", "word": "BOAT", "color": "green", "correct_response": "g", "trial_id": "stroop-trial-1-unrelated-2", "trial_type": "html-keyboard-response", "trial_index": 196, "time_elapsed": 546496, "internal_node_id": "0.0-8.0-10.0"}}, {"uniqueid": "w70697162:a99112050", "current_trial": 197, "dateTime": 1664555537241, "trialdata": {"rt": 560, "stimulus": "<p id='stroop-text' class='stroop-blue'>BLUE</p>", "response": "b", "stimulus-type": "congruent", "word": "blue", "color": "blue", "correct_response": "b", "trial_id": "stroop-trial-1-congruent-8", "trial_type": "html-keyboard-response", "trial_index": 197, "time_elapsed": 547582, "internal_node_id": "0.0-8.0-11.0"}}, {"uniqueid": "w70697162:a99112050", "current_trial": 198, "dateTime": 1664555538162, "trialdata": {"rt": 399, "stimulus": "<p id='stroop-text' class='stroop-blue'>BLUE</p>", "response": "b", "stimulus-type": "congruent", "word": "blue", "color": "blue", "correct_response": "b", "trial_id": "stroop-trial-1-congruent-5", "trial_type": "html-keyboard-response", "trial_index": 198, "time_elapsed": 548501, "internal_node_id": "0.0-8.0-12.0"}}, {"uniqueid": "w70697162:a99112050", "current_trial": 199, "dateTime": 1664555539127, "trialdata": {"rt": 431, "stimulus": "<p id='stroop-text' class='stroop-blue'>STONE</p>", "response": "b", "stimulus-type": "unrelated", "word": "STONE", "color": "blue", "correct_response": "b", "trial_id": "stroop-trial-1-unrelated-20", "trial_type": "html-keyboard-response", "trial_index": 199, "time_elapsed": 549468, "internal_node_id": "0.0-8.0-13.0"}}, {"uniqueid": "w70697162:a99112050", "current_trial": 200, "dateTime": 1664555540178, "trialdata": {"rt": 531, "stimulus": "<p id='stroop-text' class='stroop-yellow'>YELLOW</p>", "response": "y", "stimulus-type": "congruent", "word": "yellow", "color": "yellow", "correct_response": "y", "trial_id": "stroop-trial-1-congruent-25", "trial_type": "html-keyboard-response", "trial_index": 200, "time_elapsed": 550517, "internal_node_id": "0.0-8.0-14.0"}}, {"uniqueid": "w70697162:a99112050", "current_trial": 201, "dateTime": 1664555541159, "trialdata": {"rt": 455, "stimulus": "<p id='stroop-text' class='stroop-red'>RED</p>", "response": "r", "stimulus-type": "congruent", "word": "red", "color": "red", "correct_response": "r", "trial_id": "stroop-trial-1-congruent-27", "trial_type": "html-keyboard-response", "trial_index": 201, "time_elapsed": 551499, "internal_node_id": "0.0-8.0-15.0"}}, {"uniqueid": "w70697162:a99112050", "current_trial": 202, "dateTime": 1664555542300, "trialdata": {"rt": 617, "stimulus": "<p id='stroop-text' class='stroop-green'>SHIP</p>", "response": "g", "stimulus-type": "unrelated", "word": "SHIP", "color": "green", "correct_response": "g", "trial_id": "stroop-trial-1-unrelated-15", "trial_type": "html-keyboard-response", "trial_index": 202, "time_elapsed": 552640, "internal_node_id": "0.0-8.0-16.0"}}, {"uniqueid": "w70697162:a99112050", "current_trial": 203, "dateTime": 1664555543288, "trialdata": {"rt": 449, "stimulus": "<p id='stroop-text' class='stroop-yellow'>YELLOW</p>", "response": "y", "stimulus-type": "congruent", "word": "yellow", "color": "yellow", "correct_response": "y", "trial_id": "stroop-trial-1-congruent-20", "trial_type": "html-keyboard-response", "trial_index": 203, "time_elapsed": 553627, "internal_node_id": "0.0-8.0-17.0"}}, {"uniqueid": "w70697162:a99112050", "current_trial": 204, "dateTime": 1664555544332, "trialdata": {"rt": 521, "stimulus": "<p id='stroop-text' class='stroop-blue'>BLUE</p>", "response": "b", "stimulus-type": "congruent", "word": "blue", "color": "blue", "correct_response": "b", "trial_id": "stroop-trial-1-congruent-19", "trial_type": "html-keyboard-response", "trial_index": 204, "time_elapsed": 554672, "internal_node_id": "0.0-8.0-18.0"}}, {"uniqueid": "w70697162:a99112050", "current_trial": 205, "dateTime": 1664555545655, "trialdata": {"rt": 787, "stimulus": "<p id='stroop-text' class='stroop-green'>WINDOW</p>", "response": "g", "stimulus-type": "unrelated", "word": "WINDOW", "color": "green", "correct_response": "g", "trial_id": "stroop-trial-1-unrelated-27", "trial_type": "html-keyboard-response", "trial_index": 205, "time_elapsed": 555994, "internal_node_id": "0.0-8.0-19.0"}}, {"uniqueid": "w70697162:a99112050", "current_trial": 206, "dateTime": 1664555546802, "trialdata": {"rt": 627, "stimulus": "<p id='stroop-text' class='stroop-red'>SHIP</p>", "response": "r", "stimulus-type": "unrelated", "word": "SHIP", "color": "red", "correct_response": "r", "trial_id": "stroop-trial-1-unrelated-1", "trial_type": "html-keyboard-response", "trial_index": 206, "time_elapsed": 557143, "internal_node_id": "0.0-8.0-20.0"}}, {"uniqueid": "w70697162:a99112050", "current_trial": 207, "dateTime": 1664555547981, "trialdata": {"rt": 665, "stimulus": "<p id='stroop-text' class='stroop-blue'>MONKEY</p>", "response": "b", "stimulus-type": "unrelated", "word": "MONKEY", "color": "blue", "correct_response": "b", "trial_id": "stroop-trial-1-unrelated-24", "trial_type": "html-keyboard-response", "trial_index": 207, "time_elapsed": 558322, "internal_node_id": "0.0-8.0-21.0"}}, {"uniqueid": "w70697162:a99112050", "current_trial": 208, "dateTime": 1664555549048, "trialdata": {"rt": 549, "stimulus": "<p id='stroop-text' class='stroop-blue'>BLUE</p>", "response": "b", "stimulus-type": "congruent", "word": "blue", "color": "blue", "correct_response": "b", "trial_id": "stroop-trial-1-congruent-14", "trial_type": "html-keyboard-response", "trial_index": 208, "time_elapsed": 559389, "internal_node_id": "0.0-8.0-22.0"}}, {"uniqueid": "w70697162:a99112050", "current_trial": 209, "dateTime": 1664555550250, "trialdata": {"rt": 671, "stimulus": "<p id='stroop-text' class='stroop-yellow'>CHAIR</p>", "response": "y", "stimulus-type": "unrelated", "word": "CHAIR", "color": "yellow", "correct_response": "y", "trial_id": "stroop-trial-1-unrelated-25", "trial_type": "html-keyboard-response", "trial_index": 209, "time_elapsed": 560591, "internal_node_id": "0.0-8.0-23.0"}}, {"uniqueid": "w70697162:a99112050", "current_trial": 210, "dateTime": 1664555551338, "trialdata": {"rt": 541, "stimulus": "<p id='stroop-text' class='stroop-green'>DOG</p>", "response": "g", "stimulus-type": "unrelated", "word": "DOG", "color": "green", "correct_response": "g", "trial_id": "stroop-trial-1-unrelated-29", "trial_type": "html-keyboard-response", "trial_index": 210, "time_elapsed": 561678, "internal_node_id": "0.0-8.0-24.0"}}, {"uniqueid": "w70697162:a99112050", "current_trial": 211, "dateTime": 1664555552328, "trialdata": {"rt": 457, "stimulus": "<p id='stroop-text' class='stroop-green'>RED</p>", "response": "g", "stimulus-type": "incongruent", "word": "red", "color": "green", "correct_response": "g", "trial_id": "stroop-trial-1-incongruent-17", "trial_type": "html-keyboard-response", "trial_index": 211, "time_elapsed": 562668, "internal_node_id": "0.0-8.0-25.0"}}, {"uniqueid": "w70697162:a99112050", "current_trial": 212, "dateTime": 1664555553452, "trialdata": {"rt": 601, "stimulus": "<p id='stroop-text' class='stroop-blue'>BLUE</p>", "response": "b", "stimulus-type": "congruent", "word": "blue", "color": "blue", "correct_response": "b", "trial_id": "stroop-trial-1-congruent-6", "trial_type": "html-keyboard-response", "trial_index": 212, "time_elapsed": 563793, "internal_node_id": "0.0-8.0-26.0"}}, {"uniqueid": "w70697162:a99112050", "current_trial": 213, "dateTime": 1664555554807, "trialdata": {"rt": 826, "stimulus": "<p id='stroop-text' class='stroop-green'>GREEN</p>", "response": "g", "stimulus-type": "congruent", "word": "green", "color": "green", "correct_response": "g", "trial_id": "stroop-trial-1-congruent-21", "trial_type": "html-keyboard-response", "trial_index": 213, "time_elapsed": 565147, "internal_node_id": "0.0-8.0-27.0"}}, {"uniqueid": "w70697162:a99112050", "current_trial": 214, "dateTime": 1664555555991, "trialdata": {"rt": 668, "stimulus": "<p id='stroop-text' class='stroop-blue'>BLUE</p>", "response": "b", "stimulus-type": "congruent", "word": "blue", "color": "blue", "correct_response": "b", "trial_id": "stroop-trial-1-congruent-24", "trial_type": "html-keyboard-response", "trial_index": 214, "time_elapsed": 566332, "internal_node_id": "0.0-8.0-28.0"}}, {"uniqueid": "w70697162:a99112050", "current_trial": 215, "dateTime": 1664555557868, "trialdata": {"rt": 1353, "stimulus": "<p id='stroop-text' class='stroop-green'>YELLOW</p>", "response": "g", "stimulus-type": "incongruent", "word": "yellow", "color": "green", "correct_response": "g", "trial_id": "stroop-trial-1-incongruent-25", "trial_type": "html-keyboard-response", "trial_index": 215, "time_elapsed": 568207, "internal_node_id": "0.0-8.0-29.0"}}, {"uniqueid": "w70697162:a99112050", "current_trial": 216, "dateTime": 1664555558986, "trialdata": {"rt": 603, "stimulus": "<p id='stroop-text' class='stroop-red'>BLUE</p>", "response": "r", "stimulus-type": "incongruent", "word": "blue", "color": "red", "correct_response": "r", "trial_id": "stroop-trial-1-incongruent-27", "trial_type": "html-keyboard-response", "trial_index": 216, "time_elapsed": 569327, "internal_node_id": "0.0-8.0-30.0"}}, {"uniqueid": "w70697162:a99112050", "current_trial": 217, "dateTime": 1664555560342, "trialdata": {"rt": 840, "stimulus": "<p id='stroop-text' class='stroop-blue'>BLUE</p>", "response": "b", "stimulus-type": "congruent", "word": "blue", "color": "blue", "correct_response": "b", "trial_id": "stroop-trial-1-congruent-1", "trial_type": "html-keyboard-response", "trial_index": 217, "time_elapsed": 570683, "internal_node_id": "0.0-8.0-31.0"}}, {"uniqueid": "w70697162:a99112050", "current_trial": 218, "dateTime": 1664555561337, "trialdata": {"rt": 474, "stimulus": "<p id='stroop-text' class='stroop-blue'>WINDOW</p>", "response": "b", "stimulus-type": "unrelated", "word": "WINDOW", "color": "blue", "correct_response": "b", "trial_id": "stroop-trial-1-unrelated-12", "trial_type": "html-keyboard-response", "trial_index": 218, "time_elapsed": 571677, "internal_node_id": "0.0-8.0-32.0"}}, {"uniqueid": "w70697162:a99112050", "current_trial": 219, "dateTime": 1664555562484, "trialdata": {"rt": 628, "stimulus": "<p id='stroop-text' class='stroop-green'>BLUE</p>", "response": "g", "stimulus-type": "incongruent", "word": "blue", "color": "green", "correct_response": "g", "trial_id": "stroop-trial-1-incongruent-8", "trial_type": "html-keyboard-response", "trial_index": 219, "time_elapsed": 572824, "internal_node_id": "0.0-8.0-33.0"}}, {"uniqueid": "w70697162:a99112050", "current_trial": 220, "dateTime": 1664555563633, "trialdata": {"rt": 626, "stimulus": "<p id='stroop-text' class='stroop-yellow'>DOG</p>", "response": "y", "stimulus-type": "unrelated", "word": "DOG", "color": "yellow", "correct_response": "y", "trial_id": "stroop-trial-1-unrelated-9", "trial_type": "html-keyboard-response", "trial_index": 220, "time_elapsed": 573973, "internal_node_id": "0.0-8.0-34.0"}}, {"uniqueid": "w70697162:a99112050", "current_trial": 221, "dateTime": 1664555564840, "trialdata": {"rt": 674, "stimulus": "<p id='stroop-text' class='stroop-yellow'>BLUE</p>", "response": "y", "stimulus-type": "incongruent", "word": "blue", "color": "yellow", "correct_response": "y", "trial_id": "stroop-trial-1-incongruent-5", "trial_type": "html-keyboard-response", "trial_index": 221, "time_elapsed": 575180, "internal_node_id": "0.0-8.0-35.0"}}, {"uniqueid": "w70697162:a99112050", "current_trial": 222, "dateTime": 1664555565861, "trialdata": {"rt": 492, "stimulus": "<p id='stroop-text' class='stroop-red'>GREEN</p>", "response": "r", "stimulus-type": "incongruent", "word": "green", "color": "red", "correct_response": "r", "trial_id": "stroop-trial-1-incongruent-24", "trial_type": "html-keyboard-response", "trial_index": 222, "time_elapsed": 576201, "internal_node_id": "0.