{"condition": 0, "counterbalance": 0, "assignmentId": "a72872978", "workerId": "w35324835", "hitId": "h86344255", "currenttrial": 959, "bonus": 0, "data": [{"uniqueid": "w35324835:a72872978", "current_trial": 0, "dateTime": 1664463918842, "trialdata": {"success": true, "trial_type": "fullscreen", "trial_index": 0, "time_elapsed": 6136, "internal_node_id": "0.0-0.0"}}, {"uniqueid": "w35324835:a72872978", "current_trial": 1, "dateTime": 1664464013929, "trialdata": {"view_history": [{"page_index": 0, "viewing_time": 95084}], "rt": 95085, "trial_id": "exp_instructions_distractor", "trial_type": "instructions", "trial_index": 1, "time_elapsed": 101223, "internal_node_id": "0.0-1.0"}}, {"uniqueid": "w35324835:a72872978", "current_trial": 2, "dateTime": 1664464090522, "trialdata": {"view_history": [{"page_index": 0, "viewing_time": 76592}], "rt": 76592, "trial_id": "color_game_instructions", "trial_type": "instructions", "trial_index": 2, "time_elapsed": 177816, "internal_node_id": "0.0-2.0"}}, {"uniqueid": "w35324835:a72872978", "current_trial": 3, "dateTime": 1664464108966, "trialdata": {"rt": 18442, "stimulus": "<h1> Get ready to start the game! </h1>\n\nThank you for reading the instructions. Get ready start with the first of 5 block(s) of this game.\n<br><br>\nIn this first block, you will complete 90 rounds of this game before moving on.\n<br><br>\nRemember, the better you perform, the bigger your bonus will be!\n<br><br>\n<div style='text-align: center;'>Press <code>space</code> to begin.</div>", "response": " ", "trial_id": "stroop_1_ready_1", "trial_type": "html-keyboard-response", "trial_index": 3, "time_elapsed": 196260, "internal_node_id": "0.0-3.0"}}, {"uniqueid": "w35324835:a72872978", "current_trial": 4, "dateTime": 1664464111054, "trialdata": {"rt": 2084, "stimulus": "<p id='stroop-text' class='stroop-green'>YELLOW</p>", "response": "g", "stimulus-type": "incongruent", "word": "yellow", "color": "green", "correct_response": "g", "trial_id": "stroop-trial-1-incongruent-23", "trial_type": "html-keyboard-response", "trial_index": 4, "time_elapsed": 198347, "internal_node_id": "0.0-4.0-0.0"}}, {"uniqueid": "w35324835:a72872978", "current_trial": 5, "dateTime": 1664464113014, "trialdata": {"rt": 1458, "stimulus": "<p id='stroop-text' class='stroop-green'>MONKEY</p>", "response": "g", "stimulus-type": "unrelated", "word": "MONKEY", "color": "green", "correct_response": "g", "trial_id": "stroop-trial-1-unrelated-8", "trial_type": "html-keyboard-response", "trial_index": 5, "time_elapsed": 200307, "internal_node_id": "0.0-4.0-1.0"}}, {"uniqueid": "w35324835:a72872978", "current_trial": 6, "dateTime": 1664464114829, "trialdata": {"rt": 1314, "stimulus": "<p id='stroop-text' class='stroop-yellow'>YELLOW</p>", "response": "y", "stimulus-type": "congruent", "word": "yellow", "color": "yellow", "correct_response": "y", "trial_id": "stroop-trial-1-congruent-26", "trial_type": "html-keyboard-response", "trial_index": 6, "time_elapsed": 202123, "internal_node_id": "0.0-4.0-2.0"}}, {"uniqueid": "w35324835:a72872978", "current_trial": 7, "dateTime": 1664464116502, "trialdata": {"rt": 1170, "stimulus": "<p id='stroop-text' class='stroop-blue'>BLUE</p>", "response": "b", "stimulus-type": "congruent", "word": "blue", "color": "blue", "correct_response": "b", "trial_id": "stroop-trial-1-congruent-13", "trial_type": "html-keyboard-response", "trial_index": 7, "time_elapsed": 203795, "internal_node_id": "0.0-4.0-3.0"}}, {"uniqueid": "w35324835:a72872978", "current_trial": 8, "dateTime": 1664464118205, "trialdata": {"rt": 1202, "stimulus": "<p id='stroop-text' class='stroop-red'>YELLOW</p>", "response": "r", "stimulus-type": "incongruent", "word": "yellow", "color": "red", "correct_response": "r", "trial_id": "stroop-trial-1-incongruent-26", "trial_type": "html-keyboard-response", "trial_index": 8, "time_elapsed": 205499, "internal_node_id": "0.0-4.0-4.0"}}, {"uniqueid": "w35324835:a72872978", "current_trial": 9, "dateTime": 1664464120021, "trialdata": {"rt": 1315, "stimulus": "<p id='stroop-text' class='stroop-blue'>GREEN</p>", "response": "b", "stimulus-type": "incongruent", "word": "green", "color": "blue", "correct_response": "b", "trial_id": "stroop-trial-1-incongruent-19", "trial_type": "html-keyboard-response", "trial_index": 9, "time_elapsed": 207315, "internal_node_id": "0.0-4.0-5.0"}}, {"uniqueid": "w35324835:a72872978", "current_trial": 10, "dateTime": 1664464121541, "trialdata": {"rt": 1019, "stimulus": "<p id='stroop-text' class='stroop-blue'>RED</p>", "response": "b", "stimulus-type": "incongruent", "word": "red", "color": "blue", "correct_response": "b", "trial_id": "stroop-trial-1-incongruent-12", "trial_type": "html-keyboard-response", "trial_index": 10, "time_elapsed": 208835, "internal_node_id": "0.0-4.0-6.0"}}, {"uniqueid": "w35324835:a72872978", "current_trial": 11, "dateTime": 1664464122845, "trialdata": {"rt": 803, "stimulus": "<p id='stroop-text' class='stroop-blue'>GREEN</p>", "response": "b", "stimulus-type": "incongruent", "word": "green", "color": "blue", "correct_response": "b", "trial_id": "stroop-trial-1-incongruent-20", "trial_type": "html-keyboard-response", "trial_index": 11, "time_elapsed": 210139, "internal_node_id": "0.0-4.0-7.0"}}, {"uniqueid": "w35324835:a72872978", "current_trial": 12, "dateTime": 1664464124598, "trialdata": {"rt": 1250, "stimulus": "<p id='stroop-text' class='stroop-yellow'>BOAT</p>", "response": "y", "stimulus-type": "unrelated", "word": "BOAT", "color": "yellow", "correct_response": "y", "trial_id": "stroop-trial-1-unrelated-3", "trial_type": "html-keyboard-response", "trial_index": 12, "time_elapsed": 211891, "internal_node_id": "0.0-4.0-8.0"}}, {"uniqueid": "w35324835:a72872978", "current_trial": 13, "dateTime": 1664464125925, "trialdata": {"rt": 825, "stimulus": "<p id='stroop-text' class='stroop-yellow'>YELLOW</p>", "response": "y", "stimulus-type": "congruent", "word": "yellow", "color": "yellow", "correct_response": "y", "trial_id": "stroop-trial-1-congruent-19", "trial_type": "html-keyboard-response", "trial_index": 13, "time_elapsed": 213219, "internal_node_id": "0.0-4.0-9.0"}}, {"uniqueid": "w35324835:a72872978", "current_trial": 14, "dateTime": 1664464127581, "trialdata": {"rt": 1155, "stimulus": "<p id='stroop-text' class='stroop-blue'>FORK</p>", "response": "b", "stimulus-type": "unrelated", "word": "FORK", "color": "blue", "correct_response": "b", "trial_id": "stroop-trial-1-unrelated-9", "trial_type": "html-keyboard-response", "trial_index": 14, "time_elapsed": 214875, "internal_node_id": "0.0-4.0-10.0"}}, {"uniqueid": "w35324835:a72872978", "current_trial": 15, "dateTime": 1664464128821, "trialdata": {"rt": 738, "stimulus": "<p id='stroop-text' class='stroop-blue'>BLUE</p>", "response": "b", "stimulus-type": "congruent", "word": "blue", "color": "blue", "correct_response": "b", "trial_id": "stroop-trial-1-congruent-1", "trial_type": "html-keyboard-response", "trial_index": 15, "time_elapsed": 216115, "internal_node_id": "0.0-4.0-11.0"}}, {"uniqueid": "w35324835:a72872978", "current_trial": 16, "dateTime": 1664464130637, "trialdata": {"rt": 1314, "stimulus": "<p id='stroop-text' class='stroop-red'>DOG</p>", "response": "r", "stimulus-type": "unrelated", "word": "DOG", "color": "red", "correct_response": "r", "trial_id": "stroop-trial-1-unrelated-11", "trial_type": "html-keyboard-response", "trial_index": 16, "time_elapsed": 217931, "internal_node_id": "0.0-4.0-12.0"}}, {"uniqueid": "w35324835:a72872978", "current_trial": 17, "dateTime": 1664464132821, "trialdata": {"rt": 1682, "stimulus": "<p id='stroop-text' class='stroop-green'>RED</p>", "response": "g", "stimulus-type": "incongruent", "word": "red", "color": "green", "correct_response": "g", "trial_id": "stroop-trial-1-incongruent-15", "trial_type": "html-keyboard-response", "trial_index": 17, "time_elapsed": 220115, "internal_node_id": "0.0-4.0-13.0"}}, {"uniqueid": "w35324835:a72872978", "current_trial": 18, "dateTime": 1664464134357, "trialdata": {"rt": 1034, "stimulus": "<p id='stroop-text' class='stroop-red'>RED</p>", "response": "r", "stimulus-type": "congruent", "word": "red", "color": "red", "correct_response": "r", "trial_id": "stroop-trial-1-congruent-14", "trial_type": "html-keyboard-response", "trial_index": 18, "time_elapsed": 221651, "internal_node_id": "0.0-4.0-14.0"}}, {"uniqueid": "w35324835:a72872978", "current_trial": 19, "dateTime": 1664464136109, "trialdata": {"rt": 1250, "stimulus": "<p id='stroop-text' class='stroop-yellow'>YELLOW</p>", "response": "y", "stimulus-type": "congruent", "word": "yellow", "color": "yellow", "correct_response": "y", "trial_id": "stroop-trial-1-congruent-2", "trial_type": "html-keyboard-response", "trial_index": 19, "time_elapsed": 223403, "internal_node_id": "0.0-4.0-15.0"}}, {"uniqueid": "w35324835:a72872978", "current_trial": 20, "dateTime": 1664464137637, "trialdata": {"rt": 1025, "stimulus": "<p id='stroop-text' class='stroop-blue'>BOAT</p>", "response": "b", "stimulus-type": "unrelated", "word": "BOAT", "color": "blue", "correct_response": "b", "trial_id": "stroop-trial-1-unrelated-30", "trial_type": "html-keyboard-response", "trial_index": 20, "time_elapsed": 224931, "internal_node_id": "0.0-4.0-16.0"}}, {"uniqueid": "w35324835:a72872978", "current_trial": 21, "dateTime": 1664464139469, "trialdata": {"rt": 1331, "stimulus": "<p id='stroop-text' class='stroop-green'>YELLOW</p>", "response": "g", "stimulus-type": "incongruent", "word": "yellow", "color": "green", "correct_response": "g", "trial_id": "stroop-trial-1-incongruent-10", "trial_type": "html-keyboard-response", "trial_index": 21, "time_elapsed": 226763, "internal_node_id": "0.0-4.0-17.0"}}, {"uniqueid": "w35324835:a72872978", "current_trial": 22, "dateTime": 1664464141085, "trialdata": {"rt": 1114, "stimulus": "<p id='stroop-text' class='stroop-blue'>BLUE</p>", "response": "b", "stimulus-type": "congruent", "word": "blue", "color": "blue", "correct_response": "b", "trial_id": "stroop-trial-1-congruent-22", "trial_type": "html-keyboard-response", "trial_index": 22, "time_elapsed": 228379, "internal_node_id": "0.0-4.0-18.0"}}, {"uniqueid": "w35324835:a72872978", "current_trial": 23, "dateTime": 1664464142789, "trialdata": {"rt": 1203, "stimulus": "<p id='stroop-text' class='stroop-red'>BOAT</p>", "response": "r", "stimulus-type": "unrelated", "word": "BOAT", "color": "red", "correct_response": "r", "trial_id": "stroop-trial-1-unrelated-4", "trial_type": "html-keyboard-response", "trial_index": 23, "time_elapsed": 230083, "internal_node_id": "0.0-4.0-19.0"}}, {"uniqueid": "w35324835:a72872978", "current_trial": 24, "dateTime": 1664464144501, "trialdata": {"rt": 1210, "stimulus": "<p id='stroop-text' class='stroop-yellow'>BRIDGE</p>", "response": "y", "stimulus-type": "unrelated", "word": "BRIDGE", "color": "yellow", "correct_response": "y", "trial_id": "stroop-trial-1-unrelated-10", "trial_type": "html-keyboard-response", "trial_index": 24, "time_elapsed": 231795, "internal_node_id": "0.0-4.0-20.0"}}, {"uniqueid": "w35324835:a72872978", "current_trial": 25, "dateTime": 1664464145957, "trialdata": {"rt": 955, "stimulus": "<p id='stroop-text' class='stroop-yellow'>YELLOW</p>", "response": "y", "stimulus-type": "congruent", "word": "yellow", "color": "yellow", "correct_response": "y", "trial_id": "stroop-trial-1-congruent-20", "trial_type": "html-keyboard-response", "trial_index": 25, "time_elapsed": 233251, "internal_node_id": "0.0-4.0-21.0"}}, {"uniqueid": "w35324835:a72872978", "current_trial": 26, "dateTime": 1664464147861, "trialdata": {"rt": 1403, "stimulus": "<p id='stroop-text' class='stroop-red'>SHIP</p>", "response": "r", "stimulus-type": "unrelated", "word": "SHIP", "color": "red", "correct_response": "r", "trial_id": "stroop-trial-1-unrelated-16", "trial_type": "html-keyboard-response", "trial_index": 26, "time_elapsed": 235154, "internal_node_id": "0.0-4.0-22.0"}}, {"uniqueid": "w35324835:a72872978", "current_trial": 27, "dateTime": 1664464149589, "trialdata": {"rt": 1226, "stimulus": "<p id='stroop-text' class='stroop-green'>WINDOW</p>", "response": "g", "stimulus-type": "unrelated", "word": "WINDOW", "color": "green", "correct_response": "g", "trial_id": "stroop-trial-1-unrelated-22", "trial_type": "html-keyboard-response", "trial_index": 27, "time_elapsed": 236882, "internal_node_id": "0.0-4.0-23.0"}}, {"uniqueid": "w35324835:a72872978", "current_trial": 28, "dateTime": 1664464151268, "trialdata": {"rt": 1178, "stimulus": "<p id='stroop-text' class='stroop-yellow'>YELLOW</p>", "response": "y", "stimulus-type": "congruent", "word": "yellow", "color": "yellow", "correct_response": "y", "trial_id": "stroop-trial-1-congruent-8", "trial_type": "html-keyboard-response", "trial_index": 28, "time_elapsed": 238562, "internal_node_id": "0.0-4.0-24.0"}}, {"uniqueid": "w35324835:a72872978", "current_trial": 29, "dateTime": 1664464152829, "trialdata": {"rt": 1058, "stimulus": "<p id='stroop-text' class='stroop-blue'>BLUE</p>", "response": "b", "stimulus-type": "congruent", "word": "blue", "color": "blue", "correct_response": "b", "trial_id": "stroop-trial-1-congruent-9", "trial_type": "html-keyboard-response", "trial_index": 29, "time_elapsed": 240122, "internal_node_id": "0.0-4.0-25.0"}}, {"uniqueid": "w35324835:a72872978", "current_trial": 30, "dateTime": 1664464155149, "trialdata": {"rt": 1819, "stimulus": "<p id='stroop-text' class='stroop-red'>YELLOW</p>", "response": "r", "stimulus-type": "incongruent", "word": "yellow", "color": "red", "correct_response": "r", "trial_id": "stroop-trial-1-incongruent-17", "trial_type": "html-keyboard-response", "trial_index": 30, "time_elapsed": 242442, "internal_node_id": "0.0-4.0-26.0"}}, {"uniqueid": "w35324835:a72872978", "current_trial": 31, "dateTime": 1664464156717, "trialdata": {"rt": 1066, "stimulus": "<p id='stroop-text' class='stroop-red'>BLUE</p>", "response": "r", "stimulus-type": "incongruent", "word": "blue", "color": "red", "correct_response": "r", "trial_id": "stroop-trial-1-incongruent-2", "trial_type": "html-keyboard-response", "trial_index": 31, "time_elapsed": 244010, "internal_node_id": "0.0-4.0-27.0"}}, {"uniqueid": "w35324835:a72872978", "current_trial": 32, "dateTime": 1664464158069, "trialdata": {"rt": 851, "stimulus": "<p id='stroop-text' class='stroop-red'>BLUE</p>", "response": "r", "stimulus-type": "incongruent", "word": "blue", "color": "red", "correct_response": "r", "trial_id": "stroop-trial-1-incongruent-14", "trial_type": "html-keyboard-response", "trial_index": 32, "time_elapsed": 245362, "internal_node_id": "0.0-4.0-28.0"}}, {"uniqueid": "w35324835:a72872978", "current_trial": 33, "dateTime": 1664464160205, "trialdata": {"rt": 1634, "stimulus": "<p id='stroop-text' class='stroop-blue'>GREEN</p>", "response": "b", "stimulus-type": "incongruent", "word": "green", "color": "blue", "correct_response": "b", "trial_id": "stroop-trial-1-incongruent-3", "trial_type": "html-keyboard-response", "trial_index": 33, "time_elapsed": 247498, "internal_node_id": "0.0-4.0-29.0"}}, {"uniqueid": "w35324835:a72872978", "current_trial": 34, "dateTime": 1664464161453, "trialdata": {"rt": 747, "stimulus": "<p id='stroop-text' class='stroop-blue'>YELLOW</p>", "response": "b", "stimulus-type": "incongruent", "word": "yellow", "color": "blue", "correct_response": "b", "trial_id": "stroop-trial-1-incongruent-25", "trial_type": "html-keyboard-response", "trial_index": 34, "time_elapsed": 248746, "internal_node_id": "0.0-4.0-30.0"}}, {"uniqueid": "w35324835:a72872978", "current_trial": 35, "dateTime": 1664464163613, "trialdata": {"rt": 1659, "stimulus": "<p id='stroop-text' class='stroop-yellow'>RED</p>", "response": "y", "stimulus-type": "incongruent", "word": "red", "color": "yellow", "correct_response": "y", "trial_id": "stroop-trial-1-incongruent-8", "trial_type": "html-keyboard-response", "trial_index": 35, "time_elapsed": 250906, "internal_node_id": "0.0-4.0-31.0"}}, {"uniqueid": "w35324835:a72872978", "current_trial": 36, "dateTime": 1664464165189, "trialdata": {"rt": 1074, "stimulus": "<p id='stroop-text' class='stroop-blue'>BRAIN</p>", "response": "b", "stimulus-type": "unrelated", "word": "BRAIN", "color": "blue", "correct_response": "b", "trial_id": "stroop-trial-1-unrelated-12", "trial_type": "html-keyboard-response", "trial_index": 36, "time_elapsed": 252482, "internal_node_id": "0.0-4.0-32.0"}}, {"uniqueid": "w35324835:a72872978", "current_trial": 37, "dateTime": 1664464166901, "trialdata": {"rt": 1210, "stimulus": "<p id='stroop-text' class='stroop-yellow'>RED</p>", "response": "y", "stimulus-type": "incongruent", "word": "red", "color": "yellow", "correct_response": "y", "trial_id": "stroop-trial-1-incongruent-21", "trial_type": "html-keyboard-response", "trial_index": 37, "time_elapsed": 254194, "internal_node_id": "0.0-4.0-33.0"}}, {"uniqueid": "w35324835:a72872978", "current_trial": 38, "dateTime": 1664464168829, "trialdata": {"rt": 1427, "stimulus": "<p id='stroop-text' class='stroop-green'>FORK</p>", "response": "g", "stimulus-type": "unrelated", "word": "FORK", "color": "green", "correct_response": "g", "trial_id": "stroop-trial-1-unrelated-1", "trial_type": "html-keyboard-response", "trial_index": 38, "time_elapsed": 256123, "internal_node_id": "0.0-4.0-34.0"}}, {"uniqueid": "w35324835:a72872978", "current_trial": 39, "dateTime": 1664464170509, "trialdata": {"rt": 1179, "stimulus": "<p id='stroop-text' class='stroop-blue'>BLUE</p>", "response": "b", "stimulus-type": "congruent", "word": "blue", "color": "blue", "correct_response": "b", "trial_id": "stroop-trial-1-congruent-10", "trial_type": "html-keyboard-response", "trial_index": 39, "time_elapsed": 257802, "internal_node_id": "0.0-4.0-35.0"}}, {"uniqueid": "w35324835:a72872978", "current_trial": 40, "dateTime": 1664464172509, "trialdata": {"rt": 1498, "stimulus": "<p id='stroop-text' class='stroop-green'>BOTTLE</p>", "response": "g", "stimulus-type": "unrelated", "word": "BOTTLE", "color": "green", "correct_response": "g", "trial_id": "stroop-trial-1-unrelated-18", "trial_type": "html-keyboard-response", "trial_index": 40, "time_elapsed": 259802, "internal_node_id": "0.0-4.0-36.0"}}, {"uniqueid": "w35324835:a72872978", "current_trial": 41, "dateTime": 1664464174037, "trialdata": {"rt": 1026, "stimulus": "<p id='stroop-text' class='stroop-yellow'>YELLOW</p>", "response": "y", "stimulus-type": "congruent", "word": "yellow", "color": "yellow", "correct_response": "y", "trial_id": "stroop-trial-1-congruent-21", "trial_type": "html-keyboard-response", "trial_index": 41, "time_elapsed": 261330, "internal_node_id": "0.0-4.0-37.0"}}, {"uniqueid": "w35324835:a72872978", "current_trial": 42, "dateTime": 1664464175596, "trialdata": {"rt": 1058, "stimulus": "<p id='stroop-text' class='stroop-yellow'>YELLOW</p>", "response": "y", "stimulus-type": "congruent", "word": "yellow", "color": "yellow", "correct_response": "y", "trial_id": "stroop-trial-1-congruent-15", "trial_type": "html-keyboard-response", "trial_index": 42, "time_elapsed": 262890, "internal_node_id": "0.0-4.0-38.0"}}, {"uniqueid": "w35324835:a72872978", "current_trial": 43, "dateTime": 1664464177204, "trialdata": {"rt": 1106, "stimulus": "<p id='stroop-text' class='stroop-yellow'>RED</p>", "response": "y", "stimulus-type": "incongruent", "word": "red", "color": "yellow", "correct_response": "y", "trial_id": "stroop-trial-1-incongruent-1", "trial_type": "html-keyboard-response", "trial_index": 43, "time_elapsed": 264498, "internal_node_id": "0.0-4.0-39.0"}}, {"uniqueid": "w35324835:a72872978", "current_trial": 44, "dateTime": 1664464178692, "trialdata": {"rt": 980, "stimulus": "<p id='stroop-text' class='stroop-blue'>BLUE</p>", "response": "b", "stimulus-type": "congruent", "word": "blue", "color": "blue", "correct_response": "b", "trial_id": "stroop-trial-1-congruent-6", "trial_type": "html-keyboard-response", "trial_index": 44, "time_elapsed": 265986, "internal_node_id": "0.0-4.0-40.0"}}, {"uniqueid": "w35324835:a72872978", "current_trial": 45, "dateTime": 1664464180293, "trialdata": {"rt": 1099, "stimulus": "<p id='stroop-text' class='stroop-yellow'>BOTTLE</p>", "response": "y", "stimulus-type": "unrelated", "word": "BOTTLE", "color": "yellow", "correct_response": "y", "trial_id": "stroop-trial-1-unrelated-28", "trial_type": "html-keyboard-response", "trial_index": 45, "time_elapsed": 267587, "internal_node_id": "0.0-4.0-41.0"}}, {"uniqueid": "w35324835:a72872978", "current_trial": 46, "dateTime": 1664464182101, "trialdata": {"rt": 1306, "stimulus": "<p id='stroop-text' class='stroop-blue'>BLUE</p>", "response": "b", "stimulus-type": "congruent", "word": "blue", "color": "blue", "correct_response": "b", "trial_id": "stroop-trial-1-congruent-25", "trial_type": "html-keyboard-response", "trial_index": 46, "time_elapsed": 269394, "internal_node_id": "0.0-4.0-42.0"}}, {"uniqueid": "w35324835:a72872978", "current_trial": 47, "dateTime": 1664464183692, "trialdata": {"rt": 1090, "stimulus": "<p id='stroop-text' class='stroop-green'>FORK</p>", "response": "g", "stimulus-type": "unrelated", "word": "FORK", "color": "green", "correct_response": "g", "trial_id": "stroop-trial-1-unrelated-25", "trial_type": "html-keyboard-response", "trial_index": 47, "time_elapsed": 270986, "internal_node_id": "0.0-4.0-43.0"}}, {"uniqueid": "w35324835:a72872978", "current_trial": 48, "dateTime": 1664464185140, "trialdata": {"rt": 946, "stimulus": "<p id='stroop-text' class='stroop-blue'>STONE</p>", "response": "b", "stimulus-type": "unrelated", "word": "STONE", "color": "blue", "correct_response": "b", "trial_id": "stroop-trial-1-unrelated-2", "trial_type": "html-keyboard-response", "trial_index": 48, "time_elapsed": 272434, "internal_node_id": "0.0-4.0-44.0"}}, {"uniqueid": "w35324835:a72872978", "current_trial": 49, "dateTime": 1664464186973, "trialdata": {"rt": 1329, "stimulus": "<p id='stroop-text' class='stroop-blue'>RED</p>", "response": "b", "stimulus-type": "incongruent", "word": "red", "color": "blue", "correct_response": "b", "trial_id": "stroop-trial-1-incongruent-7", "trial_type": "html-keyboard-response", "trial_index": 49, "time_elapsed": 274266, "internal_node_id": "0.0-4.0-45.0"}}, {"uniqueid": "w35324835:a72872978", "current_trial": 50, "dateTime": 1664464188853, "trialdata": {"rt": 1378, "stimulus": "<p id='stroop-text' class='stroop-green'>BRAIN</p>", "response": "g", "stimulus-type": "unrelated", "word": "BRAIN", "color": "green", "correct_response": "g", "trial_id": "stroop-trial-1-unrelated-20", "trial_type": "html-keyboard-response", "trial_index": 50, "time_elapsed": 276147, "internal_node_id": "0.0-4.0-46.0"}}, {"uniqueid": "w35324835:a72872978", "current_trial": 51, "dateTime": 1664464190165, "trialdata": {"rt": 810, "stimulus": "<p id='stroop-text' class='stroop-green'>GREEN</p>", "response": "g", "stimulus-type": "congruent", "word": "green", "color": "green", "correct_response": "g", "trial_id": "stroop-trial-1-congruent-11", "trial_type": "html-keyboard-response", "trial_index": 51, "time_elapsed": 277459, "internal_node_id": "0.0-4.0-47.0"}}, {"uniqueid": "w35324835:a72872978", "current_trial": 52, "dateTime": 1664464191789, "trialdata": {"rt": 1122, "stimulus": "<p id='stroop-text' class='stroop-red'>BLUE</p>", "response": "r", "stimulus-type": "incongruent", "word": "blue", "color": "red", "correct_response": "r", "trial_id": "stroop-trial-1-incongruent-5", "trial_type": "html-keyboard-response", "trial_index": 52, "time_elapsed": 279083, "internal_node_id": "0.0-4.0-48.0"}}, {"uniqueid": "w35324835:a72872978", "current_trial": 53, "dateTime": 1664464193293, "trialdata": {"rt": 1002, "stimulus": "<p id='stroop-text' class='stroop-red'>WINDOW</p>", "response": "r", "stimulus-type": "unrelated", "word": "WINDOW", "color": "red", "correct_response": "r", "trial_id": "stroop-trial-1-unrelated-23", "trial_type": "html-keyboard-response", "trial_index": 53, "time_elapsed": 280586, "internal_node_id": "0.0-4.0-49.0"}}, {"uniqueid": "w35324835:a72872978", "current_trial": 54, "dateTime": 1664464195101, "trialdata": {"rt": 1306, "stimulus": "<p id='stroop-text' class='stroop-blue'>BLUE</p>", "response": "b", "stimulus-type": "congruent", "word": "blue", "color": "blue", "correct_response": "b", "trial_id": "stroop-trial-1-congruent-27", "trial_type": "html-keyboard-response", "trial_index": 54, "time_elapsed": 282395, "internal_node_id": "0.0-4.0-50.0"}}, {"uniqueid": "w35324835:a72872978", "current_trial": 55, "dateTime": 1664464197109, "trialdata": {"rt": 1506, "stimulus": "<p id='stroop-text' class='stroop-red'>GREEN</p>", "response": "r", "stimulus-type": "incongruent", "word": "green", "color": "red", "correct_response": "r", "trial_id": "stroop-trial-1-incongruent-30", "trial_type": "html-keyboard-response", "trial_index": 55, "time_elapsed": 284402, "internal_node_id": "0.0-4.0-51.0"}}, {"uniqueid": "w35324835:a72872978", "current_trial": 56, "dateTime": 1664464198357, "trialdata": {"rt": 746, "stimulus": "<p id='stroop-text' class='stroop-red'>RED</p>", "response": "r", "stimulus-type": "congruent", "word": "red", "color": "red", "correct_response": "r", "trial_id": "stroop-trial-1-congruent-4", "trial_type": "html-keyboard-response", "trial_index": 56, "time_elapsed": 285650, "internal_node_id": "0.0-4.0-52.0"}}, {"uniqueid": "w35324835:a72872978", "current_trial": 57, "dateTime": 1664464199628, "trialdata": {"rt": 769, "stimulus": "<p id='stroop-text' class='stroop-red'>FORK</p>", "response": "r", "stimulus-type": "unrelated", "word": "FORK", "color": "red", "correct_response": "r", "trial_id": "stroop-trial-1-unrelated-14", "trial_type": "html-keyboard-response", "trial_index": 57, "time_elapsed": 286922, "internal_node_id": "0.0-4.0-53.0"}}, {"uniqueid": "w35324835:a72872978", "current_trial": 58, "dateTime": 1664464201268, "trialdata": {"rt": 1138, "stimulus": "<p id='stroop-text' class='stroop-green'>BLUE</p>", "response": "g", "stimulus-type": "incongruent", "word": "blue", "color": "green", "correct_response": "g", "trial_id": "stroop-trial-1-incongruent-28", "trial_type": "html-keyboard-response", "trial_index": 58, "time_elapsed": 288562, "internal_node_id": "0.0-4.0-54.0"}}, {"uniqueid": "w35324835:a72872978", "current_trial": 59, "dateTime": 1664464202853, "trialdata": {"rt": 1083, "stimulus": "<p id='stroop-text' class='stroop-red'>STONE</p>", "response": "r", "stimulus-type": "unrelated", "word": "STONE", "color": "red", "correct_response": "r", "trial_id": "stroop-trial-1-unrelated-29", "trial_type": "html-keyboard-response", "trial_index": 59, "time_elapsed": 290147, "internal_node_id": "0.0-4.0-55.0"}}, {"uniqueid": "w35324835:a72872978", "current_trial": 60, "dateTime": 1664464204037, "trialdata": {"rt": 682, "stimulus": "<p id='stroop-text' class='stroop-red'>BLUE</p>", "response": "r", "stimulus-type": "incongruent", "word": "blue", "color": "red", "correct_response": "r", "trial_id": "stroop-trial-1-incongruent-16", "trial_type": "html-keyboard-response", "trial_index": 60, "time_elapsed": 291330, "internal_node_id": "0.0-4.0-56.0"}}, {"uniqueid": "w35324835:a72872978", "current_trial": 61, "dateTime": 1664464205365, "trialdata": {"rt": 827, "stimulus": "<p id='stroop-text' class='stroop-blue'>BLUE</p>", "response": "b", "stimulus-type": "congruent", "word": "blue", "color": "blue", "correct_response": "b", "trial_id": "stroop-trial-1-congruent-23", "trial_type": "html-keyboard-response", "trial_index": 61, "time_elapsed": 292659, "internal_node_id": "0.0-4.0-57.0"}}, {"uniqueid": "w35324835:a72872978", "current_trial": 62, "dateTime": 1664464206461, "trialdata": {"rt": 594, "stimulus": "<p id='stroop-text' class='stroop-blue'>YELLOW</p>", "response": "b", "stimulus-type": "incongruent", "word": "yellow", "color": "blue", "correct_response": "b", "trial_id": "stroop-trial-1-incongruent-13", "trial_type": "html-keyboard-response", "trial_index": 62, "time_elapsed": 293755, "internal_node_id": "0.0-4.0-58.0"}}, {"uniqueid": "w35324835:a72872978", "current_trial": 63, "dateTime": 1664464208413, "trialdata": {"rt": 1450, "stimulus": "<p id='stroop-text' class='stroop-yellow'>RED</p>", "response": "y", "stimulus-type": "incongruent", "word": "red", "color": "yellow", "correct_response": "y", "trial_id": "stroop-trial-1-incongruent-22", "trial_type": "html-keyboard-response", "trial_index": 63, "time_elapsed": 295707, "internal_node_id": "0.0-4.0-59.0"}}, {"uniqueid": "w35324835:a72872978", "current_trial": 64, "dateTime": 1664464209517, "trialdata": {"rt": 603, "stimulus": "<p id='stroop-text' class='stroop-yellow'>RED</p>", "response": "y", "stimulus-type": "incongruent", "word": "red", "color": "yellow", "correct_response": "y", "trial_id": "stroop-trial-1-incongruent-29", "trial_type": "html-keyboard-response", "trial_index": 64, "time_elapsed": 296811, "internal_node_id": "0.0-4.0-60.0"}}, {"uniqueid": "w35324835:a72872978", "current_trial": 65, "dateTime": 1664464210741, "trialdata": {"rt": 722, "stimulus": "<p id='stroop-text' class='stroop-yellow'>STONE</p>", "response": "y", "stimulus-type": "unrelated", "word": "STONE", "color": "yellow", "correct_response": "y", "trial_id": "stroop-trial-1-unrelated-5", "trial_type": "html-keyboard-response", "trial_index": 65, "time_elapsed": 298035, "internal_node_id": "0.0-4.0-61.0"}}, {"uniqueid": "w35324835:a72872978", "current_trial": 66, "dateTime": 1664464212365, "trialdata": {"rt": 1122, "stimulus": "<p id='stroop-text' class='stroop-green'>CHAIR</p>", "response": "g", "stimulus-type": "unrelated", "word": "CHAIR", "color": "green", "correct_response": "g", "trial_id": "stroop-trial-1-unrelated-27", "trial_type": "html-keyboard-response", "trial_index": 66, "time_elapsed": 299659, "internal_node_id": "0.0-4.0-62.0"}}, {"uniqueid": "w35324835:a72872978", "current_trial": 67, "dateTime": 1664464213981, "trialdata": {"rt": 1114, "stimulus": "<p id='stroop-text' class='stroop-red'>RED</p>", "response": "r", "stimulus-type": "congruent", "word": "red", "color": "red", "correct_response": "r", "trial_id": "stroop-trial-1-congruent-3", "trial_type": "html-keyboard-response", "trial_index": 67, "time_elapsed": 301275, "internal_node_id": "0.0-4.0-63.0"}}, {"uniqueid": "w35324835:a72872978", "current_trial": 68, "dateTime": 1664464215357, "trialdata": {"rt": 875, "stimulus": "<p id='stroop-text' class='stroop-yellow'>YELLOW</p>", "response": "y", "stimulus-type": "congruent", "word": "yellow", "color": "yellow", "correct_response": "y", "trial_id": "stroop-trial-1-congruent-17", "trial_type": "html-keyboard-response", "trial_index": 68, "time_elapsed": 302651, "internal_node_id": "0.0-4.0-64.0"}}, {"uniqueid": "w35324835:a72872978", "current_trial": 69, "dateTime": 1664464216661, "trialdata": {"rt": 802, "stimulus": "<p id='stroop-text' class='stroop-yellow'>DOG</p>", "response": "y", "stimulus-type": "unrelated", "word": "DOG", "color": "yellow", "correct_response": "y", "trial_id": "stroop-trial-1-unrelated-13", "trial_type": "html-keyboard-response", "trial_index": 69, "time_elapsed": 303955, "internal_node_id": "0.0-4.0-65.0"}}, {"uniqueid": "w35324835:a72872978", "current_trial": 70, "dateTime": 1664464218324, "trialdata": {"rt": 1161, "stimulus": "<p id='stroop-text' class='stroop-red'>BRIDGE</p>", "response": "r", "stimulus-type": "unrelated", "word": "BRIDGE", "color": "red", "correct_response": "r", "trial_id": "stroop-trial-1-unrelated-15", "trial_type": "html-keyboard-response", "trial_index": 70, "time_elapsed": 305618, "internal_node_id": "0.0-4.0-66.0"}}, {"uniqueid": "w35324835:a72872978", "current_trial": 71, "dateTime": 1664464220045, "trialdata": {"rt": 1219, "stimulus": "<p id='stroop-text' class='stroop-yellow'>RED</p>", "response": "y", "stimulus-type": "incongruent", "word": "red", "color": "yellow", "correct_response": "y", "trial_id": "stroop-trial-1-incongruent-18", "trial_type": "html-keyboard-response", "trial_index": 71, "time_elapsed": 307339, "internal_node_id": "0.0-4.0-67.0"}}, {"uniqueid": "w35324835:a72872978", "current_trial": 72, "dateTime": 1664464221629, "trialdata": {"rt": 1077, "stimulus": "<p id='stroop-text' class='stroop-blue'>YELLOW</p>", "response": "b", "stimulus-type": "incongruent", "word": "yellow", "color": "blue", "correct_response": "b", "trial_id": "stroop-trial-1-incongruent-4", "trial_type": "html-keyboard-response", "trial_index": 72, "time_elapsed": 308923, "internal_node_id": "0.0-4.0-68.0"}}, {"uniqueid": "w35324835:a72872978", "current_trial": 73, "dateTime": 1664464222701, "trialdata": {"rt": 570, "stimulus": "<p id='stroop-text' class='stroop-blue'>BLUE</p>", "response": "b", "stimulus-type": "congruent", "word": "blue", "color": "blue", "correct_response": "b", "trial_id": "stroop-trial-1-congruent-28", "trial_type": "html-keyboard-response", "trial_index": 73, "time_elapsed": 309995, "internal_node_id": "0.0-4.0-69.0"}}, {"uniqueid": "w35324835:a72872978", "current_trial": 74, "dateTime": 1664464224221, "trialdata": {"rt": 1018, "stimulus": "<p id='stroop-text' class='stroop-yellow'>YELLOW</p>", "response": "y", "stimulus-type": "congruent", "word": "yellow", "color": "yellow", "correct_response": "y", "trial_id": "stroop-trial-1-congruent-18", "trial_type": "html-keyboard-response", "trial_index": 74, "time_elapsed": 311515, "internal_node_id": "0.0-4.0-70.0"}}, {"uniqueid": "w35324835:a72872978", "current_trial": 75, "dateTime": 1664464226596, "trialdata": {"rt": 1874, "stimulus": "<p id='stroop-text' class='stroop-red'>BLUE</p>", "response": "r", "stimulus-type": "incongruent", "word": "blue", "color": "red", "correct_response": "r", "trial_id": "stroop-trial-1-incongruent-24", "trial_type": "html-keyboard-response", "trial_index": 75, "time_elapsed": 313890, "internal_node_id": "0.0-4.0-71.0"}}, {"uniqueid": "w35324835:a72872978", "current_trial": 76, "dateTime": 1664464228117, "trialdata": {"rt": 1019, "stimulus": "<p id='stroop-text' class='stroop-yellow'>WINDOW</p>", "response": "y", "stimulus-type": "unrelated", "word": "WINDOW", "color": "yellow", "correct_response": "y", "trial_id": "stroop-trial-1-unrelated-17", "trial_type": "html-keyboard-response", "trial_index": 76, "time_elapsed": 315411, "internal_node_id": "0.0-4.0-72.0"}}, {"uniqueid": "w35324835:a72872978", "current_trial": 77, "dateTime": 1664464229669, "trialdata": {"rt": 1051, "stimulus": "<p id='stroop-text' class='stroop-blue'>BOTTLE</p>", "response": "b", "stimulus-type": "unrelated", "word": "BOTTLE", "color": "blue", "correct_response": "b", "trial_id": "stroop-trial-1-unrelated-7", "trial_type": "html-keyboard-response", "trial_index": 77, "time_elapsed": 316963, "internal_node_id": "0.0-4.0-73.0"}}, {"uniqueid": "w35324835:a72872978", "current_trial": 78, "dateTime": 1664464231133, "trialdata": {"rt": 962, "stimulus": "<p id='stroop-text' class='stroop-green'>GREEN</p>", "response": "g", "stimulus-type": "congruent", "word": "green", "color": "green", "correct_response": "g", "trial_id": "stroop-trial-1-congruent-24", "trial_type": "html-keyboard-response", "trial_index": 78, "time_elapsed": 318427, "internal_node_id": "0.0-4.0-74.0"}}, {"uniqueid": "w35324835:a72872978", "current_trial": 79, "dateTime": 1664464232700, "trialdata": {"rt": 1066, "stimulus": "<p id='stroop-text' class='stroop-blue'>BLUE</p>", "response": "b", "stimulus-type": "congruent", "word": "blue", "color": "blue", "correct_response": "b", "trial_id": "stroop-trial-1-congruent-5", "trial_type": "html-keyboard-response", "trial_index": 79, "time_elapsed": 319994, "internal_node_id": "0.0-4.0-75.0"}}, {"uniqueid": "w35324835:a72872978", "current_trial": 80, "dateTime": 1664464234325, "trialdata": {"rt": 1122, "stimulus": "<p id='stroop-text' class='stroop-red'>RED</p>", "response": "r", "stimulus-type": "congruent", "word": "red", "color": "red", "correct_response": "r", "trial_id": "stroop-trial-1-congruent-12", "trial_type": "html-keyboard-response", "trial_index": 80, "time_elapsed": 321619, "internal_node_id": "0.0-4.0-76.0"}}, {"uniqueid": "w35324835:a72872978", "current_trial": 81, "dateTime": 1664464235901, "trialdata": {"rt": 1074, "stimulus": "<p id='stroop-text' class='stroop-blue'>RED</p>", "response": "b", "stimulus-type": "incongruent", "word": "red", "color": "blue", "correct_response": "b", "trial_id": "stroop-trial-1-incongruent-27", "trial_type": "html-keyboard-response", "trial_index": 81, "time_elapsed": 323195, "internal_node_id": "0.0-4.0-77.0"}}, {"uniqueid": "w35324835:a72872978", "current_trial": 82, "dateTime": 1664464237061, "trialdata": {"rt": 658, "stimulus": "<p id='stroop-text' class='stroop-blue'>BOAT</p>", "response": "b", "stimulus-type": "unrelated", "word": "BOAT", "color": "blue", "correct_response": "b", "trial_id": "stroop-trial-1-unrelated-26", "trial_type": "html-keyboard-response", "trial_index": 82, "time_elapsed": 324355, "internal_node_id": "0.0-4.0-78.0"}}, {"uniqueid": "w35324835:a72872978", "current_trial": 83, "dateTime": 1664464238541, "trialdata": {"rt": 978, "stimulus": "<p id='stroop-text' class='stroop-yellow'>BRAIN</p>", "response": "y", "stimulus-type": "unrelated", "word": "BRAIN", "color": "yellow", "correct_response": "y", "trial_id": "stroop-trial-1-unrelated-24", "trial_type": "html-keyboard-response", "trial_index": 83, "time_elapsed": 325834, "internal_node_id": "0.0-4.0-79.0"}}, {"uniqueid": "w35324835:a72872978", "current_trial": 84, "dateTime": 1664464239949, "trialdata": {"rt": 907, "stimulus": "<p id='stroop-text' class='stroop-yellow'>SHIP</p>", "response": "y", "stimulus-type": "unrelated", "word": "SHIP", "color": "yellow", "correct_response": "y", "trial_id": "stroop-trial-1-unrelated-6", "trial_type": "html-keyboard-response", "trial_index": 84, "time_elapsed": 327243, "internal_node_id": "0.0-4.0-80.0"}}, {"uniqueid": "w35324835:a72872978", "current_trial": 85, "dateTime": 1664464241589, "trialdata": {"rt": 1138, "stimulus": "<p id='stroop-text' class='stroop-red'>SHIP</p>", "response": "r", "stimulus-type": "unrelated", "word": "SHIP", "color": "red", "correct_response": "r", "trial_id": "stroop-trial-1-unrelated-19", "trial_type": "html-keyboard-response", "trial_index": 85, "time_elapsed": 328883, "internal_node_id": "0.0-4.0-81.0"}}, {"uniqueid": "w35324835:a72872978", "current_trial": 86, "dateTime": 1664464242965, "trialdata": {"rt": 874, "stimulus": "<p id='stroop-text' class='stroop-blue'>BLUE</p>", "response": "b", "stimulus-type": "congruent", "word": "blue", "color": "blue", "correct_response": "b", "trial_id": "stroop-trial-1-congruent-29", "trial_type": "html-keyboard-response", "trial_index": 86, "time_elapsed": 330259, "internal_node_id": "0.0-4.0-82.0"}}, {"uniqueid": "w35324835:a72872978", "current_trial": 87, "dateTime": 1664464244733, "trialdata": {"rt": 1255, "stimulus": "<p id='stroop-text' class='stroop-red'>YELLOW</p>", "response": "r", "stimulus-type": "incongruent", "word": "yellow", "color": "red", "correct_response": "r", "trial_id": "stroop-trial-1-incongruent-6", "trial_type": "html-keyboard-response", "trial_index": 87, "time_elapsed": 332027, "internal_node_id": "0.0-4.0-83.0"}}, {"uniqueid": "w35324835:a72872978", "current_trial": 88, "dateTime": 1664464246245, "trialdata": {"rt": 1010, "stimulus": "<p id='stroop-text' class='stroop-green'>GREEN</p>", "response": "g", "stimulus-type": "congruent", "word": "green", "color": "green", "correct_response": "g", "trial_id": "stroop-trial-1-congruent-16", "trial_type": "html-keyboard-response", "trial_index": 88, "time_elapsed": 333539, "internal_node_id": "0.0-4.0-84.0"}}, {"uniqueid": "w35324835:a72872978", "current_trial": 89, "dateTime": 1664464247685, "trialdata": {"rt": 938, "stimulus": "<p id='stroop-text' class='stroop-blue'>BLUE</p>", "response": "b", "stimulus-type": "congruent", "word": "blue", "color": "blue", "correct_response": "b", "trial_id": "stroop-trial-1-congruent-7", "trial_type": "html-keyboard-response", "trial_index": 89, "time_elapsed": 334979, "internal_node_id": "0.0-4.0-85.0"}}, {"uniqueid": "w35324835:a72872978", "current_trial": 90, "dateTime": 1664464249277, "trialdata": {"rt": 1090, "stimulus": "<p id='stroop-text' class='stroop-yellow'>RED</p>", "response": "y", "stimulus-type": "incongruent", "word": "red", "color": "yellow", "correct_response": "y", "trial_id": "stroop-trial-1-incongruent-11", "trial_type": "html-keyboard-response", "trial_index": 90, "time_elapsed": 336571, "internal_node_id": "0.0-4.0-86.0"}}, {"uniqueid": "w35324835:a72872978", "current_trial": 91, "dateTime": 1664464251117, "trialdata": {"rt": 1338, "stimulus": "<p id='stroop-text' class='stroop-green'>BOAT</p>", "response": "g", "stimulus-type": "unrelated", "word": "BOAT", "color": "green", "correct_response": "g", "trial_id": "stroop-trial-1-unrelated-21", "trial_type": "html-keyboard-response", "trial_index": 91, "time_elapsed": 338411, "internal_node_id": "0.0-4.0-87.0"}}, {"uniqueid": "w35324835:a72872978", "current_trial": 92, "dateTime": 1664464252853, "trialdata": {"rt": 1234, "stimulus": "<p id='stroop-text' class='stroop-green'>RED</p>", "response": "g", "stimulus-type": "incongruent", "word": "red", "color": "green", "correct_response": "g", "trial_id": "stroop-trial-1-incongruent-9", "trial_type": "html-keyboard-response", "trial_index": 92, "time_elapsed": 340146, "internal_node_id": "0.0-4.0-88.0"}}, {"uniqueid": "w35324835:a72872978", "current_trial": 93, "dateTime": 1664464253925, "trialdata": {"rt": 570, "stimulus": "<p id='stroop-text' class='stroop-green'>GREEN</p>", "response": "g", "stimulus-type": "congruent", "word": "green", "color": "green", "correct_response": "g", "trial_id": "stroop-trial-1-congruent-30", "trial_type": "html-keyboard-response", "trial_index": 93, "time_elapsed": 341219, "internal_node_id": "0.0-4.0-89.0"}}, {"uniqueid": "w35324835:a72872978", "current_trial": 94, "dateTime": 1664464291412, "trialdata": {"rt": 36984, "stimulus": "  <h1> End of block! </h1>\n\n  You have reached the end of the block 1/5. If you need a short break, feel free to take one now before moving on.\n\n  <br><br>\n  In the next block, you will complete another 90 rounds of this game.\n\n  <br><br>\n  <div style='text-align: center;'>Press <code>space</code> to begin.</div>\n  <br><br>\n<div style='text-align: center;'>(If the experiment doesn't continue, try clicking on the text and then pressing <code>space</code>.)</div>", "response": " ", "trial_id": "stroop_1_ready_2", "trial_type": "html-keyboard-response", "trial_index": 94, "time_elapsed": 378706, "internal_node_id": "0.0-5.0"}}, {"uniqueid": "w35324835:a72872978", "current_trial": 95, "dateTime": 1664464292869, "trialdata": {"rt": 1455, "stimulus": "<p id='stroop-text' class='stroop-blue'>BLUE</p>", "response": "b", "stimulus-type": "congruent", "word": "blue", "color": "blue", "correct_response": "b", "trial_id": "stroop-trial-1-congruent-17", "trial_type": "html-keyboard-response", "trial_index": 95, "time_elapsed": 380163, "internal_node_id": "0.0-6.0-0.0"}}, {"uniqueid": "w35324835:a72872978", "current_trial": 96, "dateTime": 1664464294085, "trialdata": {"rt": 714, "stimulus": "<p id='stroop-text' class='stroop-blue'>BRIDGE</p>", "response": "b", "stimulus-type": "unrelated", "word": "BRIDGE", "color": "blue", "correct_response": "b", "trial_id": "stroop-trial-1-unrelated-17", "trial_type": "html-keyboard-response", "trial_index": 96, "time_elapsed": 381379, "internal_node_id": "0.0-6.0-1.0"}}, {"uniqueid": "w35324835:a72872978", "current_trial": 97, "dateTime": 1664464295733, "trialdata": {"rt": 1146, "stimulus": "<p id='stroop-text' class='stroop-green'>GREEN</p>", "response": "g", "stimulus-type": "congruent", "word": "green", "color": "green", "correct_response": "g", "trial_id": "stroop-trial-1-congruent-3", "trial_type": "html-keyboard-response", "trial_index": 97, "time_elapsed": 383027, "internal_node_id": "0.0-6.0-2.0"}}, {"uniqueid": "w35324835:a72872978", "current_trial": 98, "dateTime": 1664464297381, "trialdata": {"rt": 1146, "stimulus": "<p id='stroop-text' class='stroop-yellow'>GREEN</p>", "response": "y", "stimulus-type": "incongruent", "word": "green", "color": "yellow", "correct_response": "y", "trial_id": "stroop-trial-1-incongruent-26", "trial_type": "html-keyboard-response", "trial_index": 98, "time_elapsed": 384675, "internal_node_id": "0.0-6.0-3.0"}}, {"uniqueid": "w35324835:a72872978", "current_trial": 99, "dateTime": 1664464298893, "trialdata": {"rt": 1010, "stimulus": "<p id='stroop-text' class='stroop-blue'>GREEN</p>", "response": "b", "stimulus-type": "incongruent", "word": "green", "color": "blue", "correct_response": "b", "trial_id": "stroop-trial-1-incongruent-21", "trial_type": "html-keyboard-response", "trial_index": 99, "time_elapsed": 386187, "internal_node_id": "0.0-6.0-4.0"}}, {"uniqueid": "w35324835:a72872978", "current_trial": 100, "dateTime": 1664464300277, "trialdata": {"rt": 882, "stimulus": "<p id='stroop-text' class='stroop-yellow'>YELLOW</p>", "response": "y", "stimulus-type": "congruent", "word": "yellow", "color": "yellow", "correct_response": "y", "trial_id": "stroop-trial-1-congruent-9", "trial_type": "html-keyboard-response", "trial_index": 100, "time_elapsed": 387571, "internal_node_id": "0.0-6.0-5.0"}}, {"uniqueid": "w35324835:a72872978", "current_trial": 101, "dateTime": 1664464301501, "trialdata": {"rt": 722, "stimulus": "<p id='stroop-text' class='stroop-yellow'>YELLOW</p>", "response": "y", "stimulus-type": "congruent", "word": "yellow", "color": "yellow", "correct_response": "y", "trial_id": "stroop-trial-1-congruent-18", "trial_type": "html-keyboard-response", "trial_index": 101, "time_elapsed": 388795, "internal_node_id": "0.0-6.0-6.0"}}, {"uniqueid": "w35324835:a72872978", "current_trial": 102, "dateTime": 1664464302909, "trialdata": {"rt": 905, "stimulus": "<p id='stroop-text' class='stroop-red'>RED</p>", "response": "r", "stimulus-type": "congruent", "word": "red", "color": "red", "correct_response": "r", "trial_id": "stroop-trial-1-congruent-15", "trial_type": "html-keyboard-response", "trial_index": 102, "time_elapsed": 390202, "internal_node_id": "0.0-6.0-7.0"}}, {"uniqueid": "w35324835:a72872978", "current_trial": 103, "dateTime": 1664464304285, "trialdata": {"rt": 874, "stimulus": "<p id='stroop-text' class='stroop-yellow'>YELLOW</p>", "response": "y", "stimulus-type": "congruent", "word": "yellow", "color": "yellow", "correct_response": "y", "trial_id": "stroop-trial-1-congruent-7", "trial_type": "html-keyboard-response", "trial_index": 103, "time_elapsed": 391578, "internal_node_id": "0.0-6.0-8.0"}}, {"uniqueid": "w35324835:a72872978", "current_trial": 104, "dateTime": 1664464306085, "trialdata": {"rt": 1297, "stimulus": "<p id='stroop-text' class='stroop-green'>BLUE</p>", "response": "g", "stimulus-type": "incongruent", "word": "blue", "color": "green", "correct_response": "g", "trial_id": "stroop-trial-1-incongruent-20", "trial_type": "html-keyboard-response", "trial_index": 104, "time_elapsed": 393378, "internal_node_id": "0.0-6.0-9.0"}}, {"uniqueid": "w35324835:a72872978", "current_trial": 105, "dateTime": 1664464307701, "trialdata": {"rt": 1114, "stimulus": "<p id='stroop-text' class='stroop-yellow'>FORK</p>", "response": "y", "stimulus-type": "unrelated", "word": "FORK", "color": "yellow", "correct_response": "y", "trial_id": "stroop-trial-1-unrelated-4", "trial_type": "html-keyboard-response", "trial_index": 105, "time_elapsed": 394994, "internal_node_id": "0.0-6.0-10.0"}}, {"uniqueid": "w35324835:a72872978", "current_trial": 106, "dateTime": 1664464308853, "trialdata": {"rt": 650, "stimulus": "<p id='stroop-text' class='stroop-green'>BRIDGE</p>", "response": "g", "stimulus-type": "unrelated", "word": "BRIDGE", "color": "green", "correct_response": "g", "trial_id": "stroop-trial-1-unrelated-9", "trial_type": "html-keyboard-response", "trial_index": 106, "time_elapsed": 396146, "internal_node_id": "0.0-6.0-11.0"}}, {"uniqueid": "w35324835:a72872978", "current_trial": 107, "dateTime": 1664464310212, "trialdata": {"rt": 857, "stimulus": "<p id='stroop-text' class='stroop-blue'>YELLOW</p>", "response": "b", "stimulus-type": "incongruent", "word": "yellow", "color": "blue", "correct_response": "b", "trial_id": "stroop-trial-1-incongruent-7", "trial_type": "html-keyboard-response", "trial_index": 107, "time_elapsed": 397506, "internal_node_id": "0.0-6.0-12.0"}}, {"uniqueid": "w35324835:a72872978", "current_trial": 108, "dateTime": 1664464311621, "trialdata": {"rt": 906, "stimulus": "<p id='stroop-text' class='stroop-yellow'>YELLOW</p>", "response": "y", "stimulus-type": "congruent", "word": "yellow", "color": "yellow", "correct_response": "y", "trial_id": "stroop-trial-1-congruent-30", "trial_type": "html-keyboard-response", "trial_index": 108, "time_elapsed": 398915, "internal_node_id": "0.0-6.0-13.0"}}, {"uniqueid": "w35324835:a72872978", "current_trial": 109, "dateTime": 1664464313461, "trialdata": {"rt": 1338, "stimulus": "<p id='stroop-text' class='stroop-red'>BRAIN</p>", "response": "r", "stimulus-type": "unrelated", "word": "BRAIN", "color": "red", "correct_response": "r", "trial_id": "stroop-trial-1-unrelated-14", "trial_type": "html-keyboard-response", "trial_index": 109, "time_elapsed": 400755, "internal_node_id": "0.0-6.0-14.0"}}, {"uniqueid": "w35324835:a72872978", "current_trial": 110, "dateTime": 1664464314597, "trialdata": {"rt": 634, "stimulus": "<p id='stroop-text' class='stroop-red'>GREEN</p>", "response": "r", "stimulus-type": "incongruent", "word": "green", "color": "red", "correct_response": "r", "trial_id": "stroop-trial-1-incongruent-12", "trial_type": "html-keyboard-response", "trial_index": 110, "time_elapsed": 401891, "internal_node_id": "0.0-6.0-15.0"}}, {"uniqueid": "w35324835:a72872978", "current_trial": 111, "dateTime": 1664464315909, "trialdata": {"rt": 810, "stimulus": "<p id='stroop-text' class='stroop-yellow'>YELLOW</p>", "response": "y", "stimulus-type": "congruent", "word": "yellow", "color": "yellow", "correct_response": "y", "trial_id": "stroop-trial-1-congruent-22", "trial_type": "html-keyboard-response", "trial_index": 111, "time_elapsed": 403203, "internal_node_id": "0.0-6.0-16.0"}}, {"uniqueid": "w35324835:a72872978", "current_trial": 112, "dateTime": 1664464317773, "trialdata": {"rt": 1353, "stimulus": "<p id='stroop-text' class='stroop-green'>BOAT</p>", "response": "g", "stimulus-type": "unrelated", "word": "BOAT", "color": "green", "correct_response": "g", "trial_id": "stroop-trial-1-unrelated-21", "trial_type": "html-keyboard-response", "trial_index": 112, "time_elapsed": 405067, "internal_node_id": "0.0-6.0-17.0"}}, {"uniqueid": "w35324835:a72872978", "current_trial": 113, "dateTime": 1664464318876, "trialdata": {"rt": 602, "stimulus": "<p id='stroop-text' class='stroop-green'>YELLOW</p>", "response": "g", "stimulus-type": "incongruent", "word": "yellow", "color": "green", "correct_response": "g", "trial_id": "stroop-trial-1-incongruent-16", "trial_type": "html-keyboard-response", "trial_index": 113, "time_elapsed": 406170, "internal_node_id": "0.0-6.0-18.0"}}, {"uniqueid": "w35324835:a72872978", "current_trial": 114, "dateTime": 1664464320108, "trialdata": {"rt": 729, "stimulus": "<p id='stroop-text' class='stroop-green'>GREEN</p>", "response": "g", "stimulus-type": "congruent", "word": "green", "color": "green", "correct_response": "g", "trial_id": "stroop-trial-1-congruent-4", "trial_type": "html-keyboard-response", "trial_index": 114, "time_elapsed": 407402, "internal_node_id": "0.0-6.0-19.0"}}, {"uniqueid": "w35324835:a72872978", "current_trial": 115, "dateTime": 1664464321549, "trialdata": {"rt": 932, "stimulus": "<p id='stroop-text' class='stroop-blue'>STONE</p>", "response": "b", "stimulus-type": "unrelated", "word": "STONE", "color": "blue", "correct_response": "b", "trial_id": "stroop-trial-1-unrelated-20", "trial_type": "html-keyboard-response", "trial_index": 115, "time_elapsed": 408843, "internal_node_id": "0.0-6.0-20.0"}}, {"uniqueid": "w35324835:a72872978", "current_trial": 116, "dateTime": 1664464322613, "trialdata": {"rt": 562, "stimulus": "<p id='stroop-text' class='stroop-blue'>RED</p>", "response": "b", "stimulus-type": "incongruent", "word": "red", "color": "blue", "correct_response": "b", "trial_id": "stroop-trial-1-incongruent-29", "trial_type": "html-keyboard-response", "trial_index": 116, "time_elapsed": 409906, "internal_node_id": "0.0-6.0-21.0"}}, {"uniqueid": "w35324835:a72872978", "current_trial": 117, "dateTime": 1664464324477, "trialdata": {"rt": 1362, "stimulus": "<p id='stroop-text' class='stroop-red'>BRAIN</p>", "response": "r", "stimulus-type": "unrelated", "word": "BRAIN", "color": "red", "correct_response": "r", "trial_id": "stroop-trial-1-unrelated-15", "trial_type": "html-keyboard-response", "trial_index": 117, "time_elapsed": 411770, "internal_node_id": "0.0-6.0-22.0"}}, {"uniqueid": "w35324835:a72872978", "current_trial": 118, "dateTime": 1664464325781, "trialdata": {"rt": 802, "stimulus": "<p id='stroop-text' class='stroop-yellow'>YELLOW</p>", "response": "y", "stimulus-type": "congruent", "word": "yellow", "color": "yellow", "correct_response": "y", "trial_id": "stroop-trial-1-congruent-8", "trial_type": "html-keyboard-response", "trial_index": 118, "time_elapsed": 413075, "internal_node_id": "0.0-6.0-23.0"}}, {"uniqueid": "w35324835:a72872978", "current_trial": 119, "dateTime": 1664464326933, "trialdata": {"rt": 650, "stimulus": "<p id='stroop-text' class='stroop-yellow'>MONKEY</p>", "response": "y", "stimulus-type": "unrelated", "word": "MONKEY", "color": "yellow", "correct_response": "y", "trial_id": "stroop-trial-1-unrelated-7", "trial_type": "html-keyboard-response", "trial_index": 119, "time_elapsed": 414227, "internal_node_id": "0.0-6.0-24.0"}}, {"uniqueid": "w35324835:a72872978", "current_trial": 120, "dateTime": 1664464328997, "trialdata": {"rt": 1561, "stimulus": "<p id='stroop-text' class='stroop-green'>RED</p>", "response": "g", "stimulus-type": "incongruent", "word": "red", "color": "green", "correct_response": "g", "trial_id": "stroop-trial-1-incongruent-14", "trial_type": "html-keyboard-response", "trial_index": 120, "time_elapsed": 416290, "internal_node_id": "0.0-6.0-25.0"}}, {"uniqueid": "w35324835:a72872978", "current_trial": 121, "dateTime": 1664464331285, "trialdata": {"rt": 1787, "stimulus": "<p id='stroop-text' class='stroop-red'>BRIDGE</p>", "response": "r", "stimulus-type": "unrelated", "word": "BRIDGE", "color": "red", "correct_response": "r", "trial_id": "stroop-trial-1-unrelated-5", "trial_type": "html-keyboard-response", "trial_index": 121, "time_elapsed": 418579, "internal_node_id": "0.0-6.0-26.0"}}, {"uniqueid": "w35324835:a72872978", "current_trial": 122, "dateTime": 1664464332557, "trialdata": {"rt": 765, "stimulus": "<p id='stroop-text' class='stroop-blue'>GREEN</p>", "response": "b", "stimulus-type": "incongruent", "word": "green", "color": "blue", "correct_response": "b", "trial_id": "stroop-trial-1-incongruent-6", "trial_type": "html-keyboard-response", "trial_index": 122, "time_elapsed": 419851, "internal_node_id": "0.0-6.0-27.0"}}, {"uniqueid": "w35324835:a72872978", "current_trial": 123, "dateTime": 1664464333965, "trialdata": {"rt": 905, "stimulus": "<p id='stroop-text' class='stroop-green'>BRAIN</p>", "response": "g", "stimulus-type": "unrelated", "word": "BRAIN", "color": "green", "correct_response": "g", "trial_id": "stroop-trial-1-unrelated-22", "trial_type": "html-keyboard-response", "trial_index": 123, "time_elapsed": 421259, "internal_node_id": "0.0-6.0-28.0"}}, {"uniqueid": "w35324835:a72872978", "current_trial": 124, "dateTime": 1664464335477, "trialdata": {"rt": 1010, "stimulus": "<p id='stroop-text' class='stroop-blue'>RED</p>", "response": "b", "stimulus-type": "incongruent", "word": "red", "color": "blue", "correct_response": "b", "trial_id": "stroop-trial-1-incongruent-4", "trial_type": "html-keyboard-response", "trial_index": 124, "time_elapsed": 422771, "internal_node_id": "0.0-6.0-29.0"}}, {"uniqueid": "w35324835:a72872978", "current_trial": 125, "dateTime": 1664464336845, "trialdata": {"rt": 867, "stimulus": "<p id='stroop-text' class='stroop-green'>GREEN</p>", "response": "g", "stimulus-type": "congruent", "word": "green", "color": "green", "correct_response": "g", "trial_id": "stroop-trial-1-congruent-16", "trial_type": "html-keyboard-response", "trial_index": 125, "time_elapsed": 424139, "internal_node_id": "0.0-6.0-30.0"}}, {"uniqueid": "w35324835:a72872978", "current_trial": 126, "dateTime": 1664464338245, "trialdata": {"rt": 897, "stimulus": "<p id='stroop-text' class='stroop-yellow'>BRAIN</p>", "response": "y", "stimulus-type": "unrelated", "word": "BRAIN", "color": "yellow", "correct_response": "y", "trial_id": "stroop-trial-1-unrelated-24", "trial_type": "html-keyboard-response", "trial_index": 126, "time_elapsed": 425539, "internal_node_id": "0.0-6.0-31.0"}}, {"uniqueid": "w35324835:a72872978", "current_trial": 127, "dateTime": 1664464339637, "trialdata": {"rt": 890, "stimulus": "<p id='stroop-text' class='stroop-red'>RED</p>", "response": "r", "stimulus-type": "congruent", "word": "red", "color": "red", "correct_response": "r", "trial_id": "stroop-trial-1-congruent-1", "trial_type": "html-keyboard-response", "trial_index": 127, "time_elapsed": 426931, "internal_node_id": "0.0-6.0-32.0"}}, {"uniqueid": "w35324835:a72872978", "current_trial": 128, "dateTime": 1664464341117, "trialdata": {"rt": 978, "stimulus": "<p id='stroop-text' class='stroop-green'>MONKEY</p>", "response": "g", "stimulus-type": "unrelated", "word": "MONKEY", "color": "green", "correct_response": "g", "trial_id": "stroop-trial-1-unrelated-16", "trial_type": "html-keyboard-response", "trial_index": 128, "time_elapsed": 428411, "internal_node_id": "0.0-6.0-33.0"}}, {"uniqueid": "w35324835:a72872978", "current_trial": 129, "dateTime": 1664464342493, "trialdata": {"rt": 874, "stimulus": "<p id='stroop-text' class='stroop-yellow'>YELLOW</p>", "response": "y", "stimulus-type": "congruent", "word": "yellow", "color": "yellow", "correct_response": "y", "trial_id": "stroop-trial-1-congruent-23", "trial_type": "html-keyboard-response", "trial_index": 129, "time_elapsed": 429787, "internal_node_id": "0.0-6.0-34.0"}}, {"uniqueid": "w35324835:a72872978", "current_trial": 130, "dateTime": 1664464343853, "trialdata": {"rt": 857, "stimulus": "<p id='stroop-text' class='stroop-green'>BOTTLE</p>", "response": "g", "stimulus-type": "unrelated", "word": "BOTTLE", "color": "green", "correct_response": "g", "trial_id": "stroop-trial-1-unrelated-8", "trial_type": "html-keyboard-response", "trial_index": 130, "time_elapsed": 431146, "internal_node_id": "0.0-6.0-35.0"}}, {"uniqueid": "w35324835:a72872978", "current_trial": 131, "dateTime": 1664464345237, "trialdata": {"rt": 882, "stimulus": "<p id='stroop-text' class='stroop-red'>STONE</p>", "response": "r", "stimulus-type": "unrelated", "word": "STONE", "color": "red", "correct_response": "r", "trial_id": "stroop-trial-1-unrelated-29", "trial_type": "html-keyboard-response", "trial_index": 131, "time_elapsed": 432531, "internal_node_id": "0.0-6.0-36.0"}}, {"uniqueid": "w35324835:a72872978", "current_trial": 132, "dateTime": 1664464346541, "trialdata": {"rt": 802, "stimulus": "<p id='stroop-text' class='stroop-green'>BOAT</p>", "response": "g", "stimulus-type": "unrelated", "word": "BOAT", "color": "green", "correct_response": "g", "trial_id": "stroop-trial-1-unrelated-26", "trial_type": "html-keyboard-response", "trial_index": 132, "time_elapsed": 433835, "internal_node_id": "0.0-6.0-37.0"}}, {"uniqueid": "w35324835:a72872978", "current_trial": 133, "dateTime": 1664464347813, "trialdata": {"rt": 770, "stimulus": "<p id='stroop-text' class='stroop-yellow'>YELLOW</p>", "response": "y", "stimulus-type": "congruent", "word": "yellow", "color": "yellow", "correct_response": "y", "trial_id": "stroop-trial-1-congruent-12", "trial_type": "html-keyboard-response", "trial_index": 133, "time_elapsed": 435107, "internal_node_id": "0.0-6.0-38.0"}}, {"uniqueid": "w35324835:a72872978", "current_trial": 134, "dateTime": 1664464349525, "trialdata": {"rt": 1210, "stimulus": "<p id='stroop-text' class='stroop-red'>RED</p>", "response": "r", "stimulus-type": "congruent", "word": "red", "color": "red", "correct_response": "r", "trial_id": "stroop-trial-1-congruent-5", "trial_type": "html-keyboard-response", "trial_index": 134, "time_elapsed": 436819, "internal_node_id": "0.0-6.0-39.0"}}, {"uniqueid": "w35324835:a72872978", "current_trial": 135, "dateTime": 1664464351085, "trialdata": {"rt": 1045, "stimulus": "<p id='stroop-text' class='stroop-red'>YELLOW</p>", "response": "r", "stimulus-type": "incongruent", "word": "yellow", "color": "red", "correct_response": "r", "trial_id": "stroop-trial-1-incongruent-15", "trial_type": "html-keyboard-response", "trial_index": 135, "time_elapsed": 438379, "internal_node_id": "0.0-6.0-40.0"}}, {"uniqueid": "w35324835:a72872978", "current_trial": 136, "dateTime": 1664464352636, "trialdata": {"rt": 1049, "stimulus": "<p id='stroop-text' class='stroop-blue'>BRAIN</p>", "response": "b", "stimulus-type": "unrelated", "word": "BRAIN", "color": "blue", "correct_response": "b", "trial_id": "stroop-trial-1-unrelated-1", "trial_type": "html-keyboard-response", "trial_index": 136, "time_elapsed": 439930, "internal_node_id": "0.0-6.0-41.0"}}, {"uniqueid": "w35324835:a72872978", "current_trial": 137, "dateTime": 1664464354005, "trialdata": {"rt": 865, "stimulus": "<p id='stroop-text' class='stroop-red'>RED</p>", "response": "r", "stimulus-type": "congruent", "word": "red", "color": "red", "correct_response": "r", "trial_id": "stroop-trial-1-congruent-13", "trial_type": "html-keyboard-response", "trial_index": 137, "time_elapsed": 441299, "internal_node_id": "0.0-6.0-42.0"}}, {"uniqueid": "w35324835:a72872978", "current_trial": 138, "dateTime": 1664464355469, "trialdata": {"rt": 962, "stimulus": "<p id='stroop-text' class='stroop-yellow'>BOAT</p>", "response": "y", "stimulus-type": "unrelated", "word": "BOAT", "color": "yellow", "correct_response": "y", "trial_id": "stroop-trial-1-unrelated-10", "trial_type": "html-keyboard-response", "trial_index": 138, "time_elapsed": 442762, "internal_node_id": "0.0-6.0-43.0"}}, {"uniqueid": "w35324835:a72872978", "current_trial": 139, "dateTime": 1664464356804, "trialdata": {"rt": 834, "stimulus": "<p id='stroop-text' class='stroop-blue'>BLUE</p>", "response": "b", "stimulus-type": "congruent", "word": "blue", "color": "blue", "correct_response": "b", "trial_id": "stroop-trial-1-congruent-14", "trial_type": "html-keyboard-response", "trial_index": 139, "time_elapsed": 444098, "internal_node_id": "0.0-6.0-44.0"}}, {"uniqueid": "w35324835:a72872978", "current_trial": 140, "dateTime": 1664464358253, "trialdata": {"rt": 947, "stimulus": "<p id='stroop-text' class='stroop-blue'>YELLOW</p>", "response": "b", "stimulus-type": "incongruent", "word": "yellow", "color": "blue", "correct_response": "b", "trial_id": "stroop-trial-1-incongruent-1", "trial_type": "html-keyboard-response", "trial_index": 140, "time_elapsed": 445547, "internal_node_id": "0.0-6.0-45.0"}}, {"uniqueid": "w35324835:a72872978", "current_trial": 141, "dateTime": 1664464359693, "trialdata": {"rt": 938, "stimulus": "<p id='stroop-text' class='stroop-green'>FORK</p>", "response": "g", "stimulus-type": "unrelated", "word": "FORK", "color": "green", "correct_response": "g", "trial_id": "stroop-trial-1-unrelated-25", "trial_type": "html-keyboard-response", "trial_index": 141, "time_elapsed": 446987, "internal_node_id": "0.0-6.0-46.0"}}, {"uniqueid": "w35324835:a72872978", "current_trial": 142, "dateTime": 1664464361117, "trialdata": {"rt": 919, "stimulus": "<p id='stroop-text' class='stroop-yellow'>BLUE</p>", "response": "b", "stimulus-type": "incongruent", "word": "blue", "color": "yellow", "correct_response": "y", "trial_id": "stroop-trial-1-incongruent-28", "trial_type": "html-keyboard-response", "trial_index": 142, "time_elapsed": 448411, "internal_node_id": "0.0-6.0-47.0"}}, {"uniqueid": "w35324835:a72872978", "current_trial": 143, "dateTime": 1664464364013, "trialdata": {"rt": 2393, "stimulus": "<p id='stroop-text' class='stroop-red'>YELLOW</p>", "response": "r", "stimulus-type": "incongruent", "word": "yellow", "color": "red", "correct_response": "r", "trial_id": "stroop-trial-1-incongruent-23", "trial_type": "html-keyboard-response", "trial_index": 143, "time_elapsed": 451307, "internal_node_id": "0.0-6.0-48.0"}}, {"uniqueid": "w35324835:a72872978", "current_trial": 144, "dateTime": 1664464365461, "trialdata": {"rt": 945, "stimulus": "<p id='stroop-text' class='stroop-green'>GREEN</p>", "response": "g", "stimulus-type": "congruent", "word": "green", "color": "green", "correct_response": "g", "trial_id": "stroop-trial-1-congruent-25", "trial_type": "html-keyboard-response", "trial_index": 144, "time_elapsed": 452755, "internal_node_id": "0.0-6.0-49.0"}}, {"uniqueid": "w35324835:a72872978", "current_trial": 145, "dateTime": 1664464367237, "trialdata": {"rt": 1274, "stimulus": "<p id='stroop-text' class='stroop-blue'>BOAT</p>", "response": "b", "stimulus-type": "unrelated", "word": "BOAT", "color": "blue", "correct_response": "b", "trial_id": "stroop-trial-1-unrelated-13", "trial_type": "html-keyboard-response", "trial_index": 145, "time_elapsed": 454530, "internal_node_id": "0.0-6.0-50.0"}}, {"uniqueid": "w35324835:a72872978", "current_trial": 146, "dateTime": 1664464368300, "trialdata": {"rt": 562, "stimulus": "<p id='stroop-text' class='stroop-blue'>BLUE</p>", "response": "b", "stimulus-type": "congruent", "word": "blue", "color": "blue", "correct_response": "b", "trial_id": "stroop-trial-1-congruent-6", "trial_type": "html-keyboard-response", "trial_index": 146, "time_elapsed": 455594, "internal_node_id": "0.0-6.0-51.0"}}, {"uniqueid": "w35324835:a72872978", "current_trial": 147, "dateTime": 1664464369653, "trialdata": {"rt": 851, "stimulus": "<p id='stroop-text' class='stroop-green'>CHAIR</p>", "response": "g", "stimulus-type": "unrelated", "word": "CHAIR", "color": "green", "correct_response": "g", "trial_id": "stroop-trial-1-unrelated-27", "trial_type": "html-keyboard-response", "trial_index": 147, "time_elapsed": 456947, "internal_node_id": "0.0-6.0-52.0"}}, {"uniqueid": "w35324835:a72872978", "current_trial": 148, "dateTime": 1664464371132, "trialdata": {"rt": 978, "stimulus": "<p id='stroop-text' class='stroop-red'>CHAIR</p>", "response": "r", "stimulus-type": "unrelated", "word": "CHAIR", "color": "red", "correct_response": "r", "trial_id": "stroop-trial-1-unrelated-28", "trial_type": "html-keyboard-response", "trial_index": 148, "time_elapsed": 458426, "internal_node_id": "0.0-6.0-53.0"}}, {"uniqueid": "w35324835:a72872978", "current_trial": 149, "dateTime": 1664464372589, "trialdata": {"rt": 954, "stimulus": "<p id='stroop-text' class='stroop-yellow'>BOAT</p>", "response": "y", "stimulus-type": "unrelated", "word": "BOAT", "color": "yellow", "correct_response": "y", "trial_id": "stroop-trial-1-unrelated-12", "trial_type": "html-keyboard-response", "trial_index": 149, "time_elapsed": 459883, "internal_node_id": "0.0-6.0-54.0"}}, {"uniqueid": "w35324835:a72872978", "current_trial": 150, "dateTime": 1664464374341, "trialdata": {"rt": 1250, "stimulus": "<p id='stroop-text' class='stroop-green'>RED</p>", "response": "g", "stimulus-type": "incongruent", "word": "red", "color": "green", "correct_response": "g", "trial_id": "stroop-trial-1-incongruent-24", "trial_type": "html-keyboard-response", "trial_index": 150, "time_elapsed": 461635, "internal_node_id": "0.0-6.0-55.0"}}, {"uniqueid": "w35324835:a72872978", "current_trial": 151, "dateTime": 1664464375668, "trialdata": {"rt": 824, "stimulus": "<p id='stroop-text' class='stroop-blue'>BOAT</p>", "response": "b", "stimulus-type": "unrelated", "word": "BOAT", "color": "blue", "correct_response": "b", "trial_id": "stroop-trial-1-unrelated-18", "trial_type": "html-keyboard-response", "trial_index": 151, "time_elapsed": 462962, "internal_node_id": "0.0-6.0-56.0"}}, {"uniqueid": "w35324835:a72872978", "current_trial": 152, "dateTime": 1664464377277, "trialdata": {"rt": 1106, "stimulus": "<p id='stroop-text' class='stroop-blue'>RED</p>", "response": "b", "stimulus-type": "incongruent", "word": "red", "color": "blue", "correct_response": "b", "trial_id": "stroop-trial-1-incongruent-27", "trial_type": "html-keyboard-response", "trial_index": 152, "time_elapsed": 464571, "internal_node_id": "0.0-6.0-57.0"}}, {"uniqueid": "w35324835:a72872978", "current_trial": 153, "dateTime": 1664464378716, "trialdata": {"rt": 938, "stimulus": "<p id='stroop-text' class='stroop-yellow'>DOG</p>", "response": "y", "stimulus-type": "unrelated", "word": "DOG", "color": "yellow", "correct_response": "y", "trial_id": "stroop-trial-1-unrelated-19", "trial_type": "html-keyboard-response", "trial_index": 153, "time_elapsed": 466010, "internal_node_id": "0.0-6.0-58.0"}}, {"uniqueid": "w35324835:a72872978", "current_trial": 154, "dateTime": 1664464380068, "trialdata": {"rt": 849, "stimulus": "<p id='stroop-text' class='stroop-yellow'>CHAIR</p>", "response": "y", "stimulus-type": "unrelated", "word": "CHAIR", "color": "yellow", "correct_response": "y", "trial_id": "stroop-trial-1-unrelated-2", "trial_type": "html-keyboard-response", "trial_index": 154, "time_elapsed": 467362, "internal_node_id": "0.0-6.0-59.0"}}, {"uniqueid": "w35324835:a72872978", "current_trial": 155, "dateTime": 1664464381269, "trialdata": {"rt": 698, "stimulus": "<p id='stroop-text' class='stroop-yellow'>BLUE</p>", "response": "y", "stimulus-type": "incongruent", "word": "blue", "color": "yellow", "correct_response": "y", "trial_id": "stroop-trial-1-incongruent-2", "trial_type": "html-keyboard-response", "trial_index": 155, "time_elapsed": 468563, "internal_node_id": "0.0-6.0-60.0"}}, {"uniqueid": "w35324835:a72872978", "current_trial": 156, "dateTime": 1664464382469, "trialdata": {"rt": 697, "stimulus": "<p id='stroop-text' class='stroop-yellow'>BOTTLE</p>", "response": "y", "stimulus-type": "unrelated", "word": "BOTTLE", "color": "yellow", "correct_response": "y", "trial_id": "stroop-trial-1-unrelated-11", "trial_type": "html-keyboard-response", "trial_index": 156, "time_elapsed": 469763, "internal_node_id": "0.0-6.0-61.0"}}, {"uniqueid": "w35324835:a72872978", "current_trial": 157, "dateTime": 1664464383797, "trialdata": {"rt": 826, "stimulus": "<p id='stroop-text' class='stroop-blue'>BLUE</p>", "response": "b", "stimulus-type": "congruent", "word": "blue", "color": "blue", "correct_response": "b", "trial_id": "stroop-trial-1-congruent-11", "trial_type": "html-keyboard-response", "trial_index": 157, "time_elapsed": 471091, "internal_node_id": "0.0-6.0-62.0"}}, {"uniqueid": "w35324835:a72872978", "current_trial": 158, "dateTime": 1664464385181, "trialdata": {"rt": 881, "stimulus": "<p id='stroop-text' class='stroop-green'>GREEN</p>", "response": "g", "stimulus-type": "congruent", "word": "green", "color": "green", "correct_response": "g", "trial_id": "stroop-trial-1-congruent-21", "trial_type": "html-keyboard-response", "trial_index": 158, "time_elapsed": 472475, "internal_node_id": "0.0-6.0-63.0"}}, {"uniqueid": "w35324835:a72872978", "current_trial": 159, "dateTime": 1664464386549, "trialdata": {"rt": 866, "stimulus": "<p id='stroop-text' class='stroop-blue'>BLUE</p>", "response": "b", "stimulus-type": "congruent", "word": "blue", "color": "blue", "correct_response": "b", "trial_id": "stroop-trial-1-congruent-28", "trial_type": "html-keyboard-response", "trial_index": 159, "time_elapsed": 473843, "internal_node_id": "0.0-6.0-64.0"}}, {"uniqueid": "w35324835:a72872978", "current_trial": 160, "dateTime": 1664464388477, "trialdata": {"rt": 1425, "stimulus": "<p id='stroop-text' class='stroop-yellow'>BLUE</p>", "response": "y", "stimulus-type": "incongruent", "word": "blue", "color": "yellow", "correct_response": "y", "trial_id": "stroop-trial-1-incongruent-18", "trial_type": "html-keyboard-response", "trial_index": 160, "time_elapsed": 475770, "internal_node_id": "0.0-6.0-65.0"}}, {"uniqueid": "w35324835:a72872978", "current_trial": 161, "dateTime": 1664464390181, "trialdata": {"rt": 1194, "stimulus": "<p id='stroop-text' class='stroop-red'>YELLOW</p>", "response": "r", "stimulus-type": "incongruent", "word": "yellow", "color": "red", "correct_response": "r", "trial_id": "stroop-trial-1-incongruent-5", "trial_type": "html-keyboard-response", "trial_index": 161, "time_elapsed": 477475, "internal_node_id": "0.0-6.0-66.0"}}, {"uniqueid": "w35324835:a72872978", "current_trial": 162, "dateTime": 1664464391533, "trialdata": {"rt": 850, "stimulus": "<p id='stroop-text' class='stroop-yellow'>YELLOW</p>", "response": "y", "stimulus-type": "congruent", "word": "yellow", "color": "yellow", "correct_response": "y", "trial_id": "stroop-trial-1-congruent-29", "trial_type": "html-keyboard-response", "trial_index": 162, "time_elapsed": 478827, "internal_node_id": "0.0-6.0-67.0"}}, {"uniqueid": "w35324835:a72872978", "current_trial": 163, "dateTime": 1664464393021, "trialdata": {"rt": 985, "stimulus": "<p id='stroop-text' class='stroop-yellow'>BLUE</p>", "response": "y", "stimulus-type": "incongruent", "word": "blue", "color": "yellow", "correct_response": "y", "trial_id": "stroop-trial-1-incongruent-30", "trial_type": "html-keyboard-response", "trial_index": 163, "time_elapsed": 480315, "internal_node_id": "0.0-6.0-68.0"}}, {"uniqueid": "w35324835:a72872978", "current_trial": 164, "dateTime": 1664464394885, "trialdata": {"rt": 1361, "stimulus": "<p id='stroop-text' class='stroop-red'>RED</p>", "response": "r", "stimulus-type": "congruent", "word": "red", "color": "red", "correct_response": "r", "trial_id": "stroop-trial-1-congruent-26", "trial_type": "html-keyboard-response", "trial_index": 164, "time_elapsed": 482179, "internal_node_id": "0.0-6.0-69.0"}}, {"uniqueid": "w35324835:a72872978", "current_trial": 165, "dateTime": 1664464396029, "trialdata": {"rt": 633, "stimulus": "<p id='stroop-text' class='stroop-red'>YELLOW</p>", "response": "r", "stimulus-type": "incongruent", "word": "yellow", "color": "red", "correct_response": "r", "trial_id": "stroop-trial-1-incongruent-25", "trial_type": "html-keyboard-response", "trial_index": 165, "time_elapsed": 483323, "internal_node_id": "0.0-6.0-70.0"}}, {"uniqueid": "w35324835:a72872978", "current_trial": 166, "dateTime": 1664464397437, "trialdata": {"rt": 905, "stimulus": "<p id='stroop-text' class='stroop-blue'>BLUE</p>", "response": "b", "stimulus-type": "congruent", "word": "blue", "color": "blue", "correct_response": "b", "trial_id": "stroop-trial-1-congruent-10", "trial_type": "html-keyboard-response", "trial_index": 166, "time_elapsed": 484730, "internal_node_id": "0.0-6.0-71.0"}}, {"uniqueid": "w35324835:a72872978", "current_trial": 167, "dateTime": 1664464398581, "trialdata": {"rt": 642, "stimulus": "<p id='stroop-text' class='stroop-blue'>BLUE</p>", "response": "b", "stimulus-type": "congruent", "word": "blue", "color": "blue", "correct_response": "b", "trial_id": "stroop-trial-1-congruent-24", "trial_type": "html-keyboard-response", "trial_index": 167, "time_elapsed": 485875, "internal_node_id": "0.0-6.0-72.0"}}, {"uniqueid": "w35324835:a72872978", "current_trial": 168, "dateTime": 1664464399901, "trialdata": {"rt": 817, "stimulus": "<p id='stroop-text' class='stroop-blue'>WINDOW</p>", "response": "b", "stimulus-type": "unrelated", "word": "WINDOW", "color": "blue", "correct_response": "b", "trial_id": "stroop-trial-1-unrelated-30", "trial_type": "html-keyboard-response", "trial_index": 168, "time_elapsed": 487195, "internal_node_id": "0.0-6.0-73.0"}}, {"uniqueid": "w35324835:a72872978", "current_trial": 169, "dateTime": 1664464401197, "trialdata": {"rt": 794, "stimulus": "<p id='stroop-text' class='stroop-blue'>YELLOW</p>", "response": "b", "stimulus-type": "incongruent", "word": "yellow", "color": "blue", "correct_response": "b", "trial_id": "stroop-trial-1-incongruent-3", "trial_type": "html-keyboard-response", "trial_index": 169, "time_elapsed": 488490, "internal_node_id": "0.0-6.0-74.0"}}, {"uniqueid": "w35324835:a72872978", "current_trial": 170, "dateTime": 1664464402701, "trialdata": {"rt": 1002, "stimulus": "<p id='stroop-text' class='stroop-green'>BLUE</p>", "response": "g", "stimulus-type": "incongruent", "word": "blue", "color": "green", "correct_response": "g", "trial_id": "stroop-trial-1-incongruent-17", "trial_type": "html-keyboard-response", "trial_index": 170, "time_elapsed": 489995, "internal_node_id": "0.0-6.0-75.0"}}, {"uniqueid": "w35324835:a72872978", "current_trial": 171, "dateTime": 1664464404325, "trialdata": {"rt": 1122, "stimulus": "<p id='stroop-text' class='stroop-yellow'>BLUE</p>", "response": "y", "stimulus-type": "incongruent", "word": "blue", "color": "yellow", "correct_response": "y", "trial_id": "stroop-trial-1-incongruent-8", "trial_type": "html-keyboard-response", "trial_index": 171, "time_elapsed": 491619, "internal_node_id": "0.0-6.0-76.0"}}, {"uniqueid": "w35324835:a72872978", "current_trial": 172, "dateTime": 1664464406061, "trialdata": {"rt": 1223, "stimulus": "<p id='stroop-text' class='stroop-blue'>BLUE</p>", "response": "b", "stimulus-type": "congruent", "word": "blue", "color": "blue", "correct_response": "b", "trial_id": "stroop-trial-1-congruent-2", "trial_type": "html-keyboard-response", "trial_index": 172, "time_elapsed": 493355, "internal_node_id": "0.0-6.0-77.0"}}, {"uniqueid": "w35324835:a72872978", "current_trial": 173, "dateTime": 1664464407549, "trialdata": {"rt": 986, "stimulus": "<p id='stroop-text' class='stroop-yellow'>RED</p>", "response": "y", "stimulus-type": "incongruent", "word": "red", "color": "yellow", "correct_response": "y", "trial_id": "stroop-trial-1-incongruent-11", "trial_type": "html-keyboard-response", "trial_index": 173, "time_elapsed": 494843, "internal_node_id": "0.0-6.0-78.0"}}, {"uniqueid": "w35324835:a72872978", "current_trial": 174, "dateTime": 1664464408757, "trialdata": {"rt": 705, "stimulus": "<p id='stroop-text' class='stroop-yellow'>WINDOW</p>", "response": "y", "stimulus-type": "unrelated", "word": "WINDOW", "color": "yellow", "correct_response": "y", "trial_id": "stroop-trial-1-unrelated-6", "trial_type": "html-keyboard-response", "trial_index": 174, "time_elapsed": 496051, "internal_node_id": "0.0-6.0-79.0"}}, {"uniqueid": "w35324835:a72872978", "current_trial": 175, "dateTime": 1664464410197, "trialdata": {"rt": 938, "stimulus": "<p id='stroop-text' class='stroop-green'>RED</p>", "response": "g", "stimulus-type": "incongruent", "word": "red", "color": "green", "correct_response": "g", "trial_id": "stroop-trial-1-incongruent-10", "trial_type": "html-keyboard-response", "trial_index": 175, "time_elapsed": 497491, "internal_node_id": "0.0-6.0-80.0"}}, {"uniqueid": "w35324835:a72872978", "current_trial": 176, "dateTime": 1664464411349, "trialdata": {"rt": 650, "stimulus": "<p id='stroop-text' class='stroop-green'>GREEN</p>", "response": "g", "stimulus-type": "congruent", "word": "green", "color": "green", "correct_response": "g", "trial_id": "stroop-trial-1-congruent-20", "trial_type": "html-keyboard-response", "trial_index": 176, "time_elapsed": 498643, "internal_node_id": "0.0-6.0-81.0"}}, {"uniqueid": "w35324835:a72872978", "current_trial": 177, "dateTime": 1664464413029, "trialdata": {"rt": 1178, "stimulus": "<p id='stroop-text' class='stroop-yellow'>STONE</p>", "response": "y", "stimulus-type": "unrelated", "word": "STONE", "color": "yellow", "correct_response": "y", "trial_id": "stroop-trial-1-unrelated-3", "trial_type": "html-keyboard-response", "trial_index": 177, "time_elapsed": 500323, "internal_node_id": "0.0-6.0-82.0"}}, {"uniqueid": "w35324835:a72872978", "current_trial": 178, "dateTime": 1664464415045, "trialdata": {"rt": 1514, "stimulus": "<p id='stroop-text' class='stroop-blue'>GREEN</p>", "response": "b", "stimulus-type": "incongruent", "word": "green", "color": "blue", "correct_response": "b", "trial_id": "stroop-trial-1-incongruent-19", "trial_type": "html-keyboard-response", "trial_index": 178, "time_elapsed": 502339, "internal_node_id": "0.0-6.0-83.0"}}, {"uniqueid": "w35324835:a72872978", "current_trial": 179, "dateTime": 1664464416669, "trialdata": {"rt": 1114, "stimulus": "<p id='stroop-text' class='stroop-red'>YELLOW</p>", "response": "r", "stimulus-type": "incongruent", "word": "yellow", "color": "red", "correct_response": "r", "trial_id": "stroop-trial-1-incongruent-22", "trial_type": "html-keyboard-response", "trial_index": 179, "time_elapsed": 503963, "internal_node_id": "0.0-6.0-84.0"}}, {"uniqueid": "w35324835:a72872978", "current_trial": 180, "dateTime": 1664464418157, "trialdata": {"rt": 987, "stimulus": "<p id='stroop-text' class='stroop-green'>YELLOW</p>", "response": "g", "stimulus-type": "incongruent", "word": "yellow", "color": "green", "correct_response": "g", "trial_id": "stroop-trial-1-incongruent-13", "trial_type": "html-keyboard-response", "trial_index": 180, "time_elapsed": 505451, "internal_node_id": "0.0-6.0-85.0"}}, {"uniqueid": "w35324835:a72872978", "current_trial": 181, "dateTime": 1664464419765, "trialdata": {"rt": 1105, "stimulus": "<p id='stroop-text' class='stroop-yellow'>SHIP</p>", "response": "y", "stimulus-type": "unrelated", "word": "SHIP", "color": "yellow", "correct_response": "y", "trial_id": "stroop-trial-1-unrelated-23", "trial_type": "html-keyboard-response", "trial_index": 181, "time_elapsed": 507059, "internal_node_id": "0.0-6.0-86.0"}}, {"uniqueid": "w35324835:a72872978", "current_trial": 182, "dateTime": 1664464421181, "trialdata": {"rt": 914, "stimulus": "<p id='stroop-text' class='stroop-blue'>BLUE</p>", "response": "b", "stimulus-type": "congruent", "word": "blue", "color": "blue", "correct_response": "b", "trial_id": "stroop-trial-1-congruent-19", "trial_type": "html-keyboard-response", "trial_index": 182, "time_elapsed": 508475, "internal_node_id": "0.0-6.0-87.0"}}, {"uniqueid": "w35324835:a72872978", "current_trial": 183, "dateTime": 1664464422853, "trialdata": {"rt": 1169, "stimulus": "<p id='stroop-text' class='stroop-yellow'>YELLOW</p>", "response": "y", "stimulus-type": "congruent", "word": "yellow", "color": "yellow", "correct_response": "y", "trial_id": "stroop-trial-1-congruent-27", "trial_type": "html-keyboard-response", "trial_index": 183, "time_elapsed": 510147, "internal_node_id": "0.0-6.0-88.0"}}, {"uniqueid": "w35324835:a72872978", "current_trial": 184, "dateTime": 1664464424277, "trialdata": {"rt": 921, "stimulus": "<p id='stroop-text' class='stroop-red'>YELLOW</p>", "response": "r", "stimulus-type": "incongruent", "word": "yellow", "color": "red", "correct_response": "r", "trial_id": "stroop-trial-1-incongruent-9", "trial_type": "html-keyboard-response", "trial_index": 184, "time_elapsed": 511571, "internal_node_id": "0.0-6.0-89.0"}}, {"uniqueid": "w35324835:a72872978", "current_trial": 185, "dateTime": 1664464454485, "trialdata": {"rt": 29706, "stimulus": "  <h1> End of block! </h1>\n\n  You have reached the end of the block 2/5. If you need a short break, feel free to take one now before moving on.\n\n  <br><br>\n  In the next block, you will complete another 90 rounds of this game.\n\n  <br><br>\n  <div style='text-align: center;'>Press <code>space</code> to begin.</div>\n  <br><br>\n<div style='text-align: center;'>(If the experiment doesn't continue, try clicking on the text and then pressing <code>space</code>.)</div>", "response": " ", "trial_id": "stroop_1_ready_3", "trial_type": "html-keyboard-response", "trial_index": 185, "time_elapsed": 541779, "internal_node_id": "0.0-7.0"}}, {"uniqueid": "w35324835:a72872978", "current_trial": 186, "dateTime": 1664464455773, "trialdata": {"rt": 1286, "stimulus": "<p id='stroop-text' class='stroop-red'>YELLOW</p>", "response": "r", "stimulus-type": "incongruent", "word": "yellow", "color": "red", "correct_response": "r", "trial_id": "stroop-trial-1-incongruent-20", "trial_type": "html-keyboard-response", "trial_index": 186, "time_elapsed": 543067, "internal_node_id": "0.0-8.0-0.0"}}, {"uniqueid": "w35324835:a72872978", "current_trial": 187, "dateTime": 1664464457621, "trialdata": {"rt": 1346, "stimulus": "<p id='stroop-text' class='stroop-green'>YELLOW</p>", "response": "g", "stimulus-type": "incongruent", "word": "yellow", "color": "green", "correct_response": "g", "trial_id": "stroop-trial-1-incongruent-28", "trial_type": "html-keyboard-response", "trial_index": 187, "time_elapsed": 544915, "internal_node_id": "0.0-8.0-1.0"}}, {"uniqueid": "w35324835:a72872978", "current_trial": 188, "dateTime": 1664464459429, "trialdata": {"rt": 1306, "stimulus": "<p id='stroop-text' class='stroop-blue'>BLUE</p>", "response": "b", "stimulus-type": "congruent", "word": "blue", "color": "blue", "correct_response": "b", "trial_id": "stroop-trial-1-congruent-24", "trial_type": "html-keyboard-response", "trial_index": 188, "time_elapsed": 546723, "internal_node_id": "0.0-8.0-2.0"}}, {"uniqueid": "w35324835:a72872978", "current_trial": 189, "dateTime": 1664464460901, "trialdata": {"rt": 970, "stimulus": "<p id='stroop-text' class='stroop-red'>YELLOW</p>", "response": "r", "stimulus-type": "incongruent", "word": "yellow", "color": "red", "correct_response": "r", "trial_id": "stroop-trial-1-incongruent-9", "trial_type": "html-keyboard-response", "trial_index": 189, "time_elapsed": 548195, "internal_node_id": "0.0-8.0-3.0"}}, {"uniqueid": "w35324835:a72872978", "current_trial": 190, "dateTime": 1664464462413, "trialdata": {"rt": 1010, "stimulus": "<p id='stroop-text' class='stroop-blue'>MONKEY</p>", "response": "b", "stimulus-type": "unrelated", "word": "MONKEY", "color": "blue", "correct_response": "b", "trial_id": "stroop-trial-1-unrelated-15", "trial_type": "html-keyboard-response", "trial_index": 190, "time_elapsed": 549707, "internal_node_id": "0.0-8.0-4.0"}}, {"uniqueid": "w35324835:a72872978", "current_trial": 191, "dateTime": 1664464464133, "trialdata": {"rt": 1218, "stimulus": "<p id='stroop-text' class='stroop-yellow'>YELLOW</p>", "response": "y", "stimulus-type": "congruent", "word": "yellow", "color": "yellow", "correct_response": "y", "trial_id": "stroop-trial-1-congruent-10", "trial_type": "html-keyboard-response", "trial_index": 191, "time_elapsed": 551427, "internal_node_id": "0.0-8.0-5.0"}}, {"uniqueid": "w35324835:a72872978", "current_trial": 192, "dateTime": 1664464465573, "trialdata": {"rt": 931, "stimulus": "<p id='stroop-text' class='stroop-red'>RED</p>", "response": "r", "stimulus-type": "congruent", "word": "red", "color": "red", "correct_response": "r", "trial_id": "stroop-trial-1-congruent-12", "trial_type": "html-keyboard-response", "trial_index": 192, "time_elapsed": 552867, "internal_node_id": "0.0-8.0-6.0"}}, {"uniqueid": "w35324835:a72872978", "current_trial": 193, "dateTime": 1664464466645, "trialdata": {"rt": 569, "stimulus": "<p id='stroop-text' class='stroop-red'>RED</p>", "response": "r", "stimulus-type": "congruent", "word": "red", "color": "red", "correct_response": "r", "trial_id": "stroop-trial-1-congruent-5", "trial_type": "html-keyboard-response", "trial_index": 193, "time_elapsed": 553939, "internal_node_id": "0.0-8.0-7.0"}}, {"uniqueid": "w35324835:a72872978", "current_trial": 194, "dateTime": 1664464468133, "trialdata": {"rt": 986, "stimulus": "<p id='stroop-text' class='stroop-yellow'>YELLOW</p>", "response": "y", "stimulus-type": "congruent", "word": "yellow", "color": "yellow", "correct_response": "y", "trial_id": "stroop-trial-1-congruent-30", "trial_type": "html-keyboard-response", "trial_index": 194, "time_elapsed": 555427, "internal_node_id": "0.0-8.0-8.0"}}, {"uniqueid": "w35324835:a72872978", "current_trial": 195, "dateTime": 1664464470029, "trialdata": {"rt": 1393, "stimulus": "<p id='stroop-text' class='stroop-yellow'>GREEN</p>", "response": "y", "stimulus-type": "incongruent", "word": "green", "color": "yellow", "correct_response": "y", "trial_id": "stroop-trial-1-incongruent-17", "trial_type": "html-keyboard-response", "trial_index": 195, "time_elapsed": 557323, "internal_node_id": "0.0-8.0-9.0"}}, {"uniqueid": "w35324835:a72872978", "current_trial": 196, "dateTime": 1664464471477, "trialdata": {"rt": 945, "stimulus": "<p id='stroop-text' class='stroop-blue'>BLUE</p>", "response": "b", "stimulus-type": "congruent", "word": "blue", "color": "blue", "correct_response": "b", "trial_id": "stroop-trial-1-congruent-2", "trial_type": "html-keyboard-response", "trial_index": 196, "time_elapsed": 558771, "internal_node_id": "0.0-8.0-10.0"}}, {"uniqueid": "w35324835:a72872978", "current_trial": 197, "dateTime": 1664464473205, "trialdata": {"rt": 1226, "stimulus": "<p id='stroop-text' class='stroop-green'>BLUE</p>", "response": "g", "stimulus-type": "incongruent", "word": "blue", "color": "green", "correct_response": "g", "trial_id": "stroop-trial-1-incongruent-4", "trial_type": "html-keyboard-response", "trial_index": 197, "time_elapsed": 560499, "internal_node_id": "0.0-8.0-11.0"}}, {"uniqueid": "w35324835:a72872978", "current_trial": 198, "dateTime": 1664464474317, "trialdata": {"rt": 609, "stimulus": "<p id='stroop-text' class='stroop-green'>BOTTLE</p>", "response": "g", "stimulus-type": "unrelated", "word": "BOTTLE", "color": "green", "correct_response": "g", "trial_id": "stroop-trial-1-unrelated-21", "trial_type": "html-keyboard-response", "trial_index": 198, "time_elapsed": 561611, "internal_node_id": "0.0-8.0-12.0"}}, {"uniqueid": "w35324835:a72872978", "current_trial": 199, "dateTime": 1664464475693, "trialdata": {"rt": 874, "stimulus": "<p id='stroop-text' class='stroop-blue'>FORK</p>", "response": "b", "stimulus-type": "unrelated", "word": "FORK", "color": "blue", "correct_response": "b", "trial_id": "stroop-trial-1-unrelated-26", "trial_type": "html-keyboard-response", "trial_index": 199, "time_elapsed": 562987, "internal_node_id": "0.0-8.0-13.0"}}, {"uniqueid": "w35324835:a72872978", "current_trial": 200, "dateTime": 1664464477077, "trialdata": {"rt": 881, "stimulus": "<p id='stroop-text' class='stroop-red'>BOAT</p>", "response": "r", "stimulus-type": "unrelated", "word": "BOAT", "color": "red", "correct_response": "r", "trial_id": "stroop-trial-1-unrelated-5", "trial_type": "html-keyboard-response", "trial_index": 200, "time_elapsed": 564371, "internal_node_id": "0.0-8.0-14.0"}}, {"uniqueid": "w35324835:a72872978", "current_trial": 201, "dateTime": 1664464479053, "trialdata": {"rt": 1475, "stimulus": "<p id='stroop-text' class='stroop-green'>GREEN</p>", "response": "g", "stimulus-type": "congruent", "word": "green", "color": "green", "correct_response": "g", "trial_id": "stroop-trial-1-congruent-16", "trial_type": "html-keyboard-response", "trial_index": 201, "time_elapsed": 566347, "internal_node_id": "0.0-8.0-15.0"}}, {"uniqueid": "w35324835:a72872978", "current_trial": 202, "dateTime": 1664464480493, "trialdata": {"rt": 936, "stimulus": "<p id='stroop-text' class='stroop-blue'>DOG</p>", "response": "b", "stimulus-type": "unrelated", "word": "DOG", "color": "blue", "correct_response": "b", "trial_id": "stroop-trial-1-unrelated-11", "trial_type": "html-keyboard-response", "trial_index": 202, "time_elapsed": 567787, "internal_node_id": "0.0-8.0-16.0"}}, {"uniqueid": "w35324835:a72872978", "current_trial": 203, "dateTime": 1664464481925, "trialdata": {"rt": 929, "stimulus": "<p id='stroop-text' class='stroop-red'>STONE</p>", "response": "r", "stimulus-type": "unrelated", "word": "STONE", "color": "red", "correct_response": "r", "trial_id": "stroop-trial-1-unrelated-3", "trial_type": "html-keyboard-response", "trial_index": 203, "time_elapsed": 569219, "internal_node_id": "0.0-8.0-17.0"}}, {"uniqueid": "w35324835:a72872978", "current_trial": 204, "dateTime": 1664464483221, "trialdata": {"rt": 794, "stimulus": "<p id='stroop-text' class='stroop-red'>BLUE</p>", "response": "r", "stimulus-type": "incongruent", "word": "blue", "color": "red", "correct_response": "r", "trial_id": "stroop-trial-1-incongruent-3", "trial_type": "html-keyboard-response", "trial_index": 204, "time_elapsed": 570515, "internal_node_id": "0.0-8.0-18.0"}}, {"uniqueid": "w35324835:a72872978", "current_trial": 205, "dateTime": 1664464484589, "trialdata": {"rt": 866, "stimulus": "<p id='stroop-text' class='stroop-green'>YELLOW</p>", "response": "g", "stimulus-type": "incongruent", "word": "yellow", "color": "green", "correct_response": "g", "trial_id": "stroop-trial-1-incongruent-26", "trial_type": "html-keyboard-response", "trial_index": 205, "time_elapsed": 571883, "internal_node_id": "0.0-8.0-19.0"}}, {"uniqueid": "w35324835:a72872978", "current_trial": 206, "dateTime": 1664464485861, "trialdata": {"rt": 770, "stimulus": "<p id='stroop-text' class='stroop-blue'>BLUE</p>", "response": "b", "stimulus-type": "congruent", "word": "blue", "color": "blue", "correct_response": "b", "trial_id": "stroop-trial-1-congruent-6", "trial_type": "html-keyboard-response", "trial_index": 206, "time_elapsed": 573155, "internal_node_id": "0.0-8.0-20.0"}}, {"uniqueid": "w35324835:a72872978", "current_trial": 207, "dateTime": 1664464487261, "trialdata": {"rt": 898, "stimulus": "<p id='stroop-text' class='stroop-red'>GREEN</p>", "response": "r", "stimulus-type": "incongruent", "word": "green", "color": "red", "correct_response": "r", "trial_id": "stroop-trial-1-incongruent-25", "trial_type": "html-keyboard-response", "trial_index": 207, "time_elapsed": 574555, "internal_node_id": "0.0-8.0-21.0"}}, {"uniqueid": "w35324835:a72872978", "current_trial": 208, "dateTime": 1664464488685, "trialdata": {"rt": 922, "stimulus": "<p id='stroop-text' class='stroop-green'>YELLOW</p>", "response": "g", "stimulus-type": "incongruent", "word": "yellow", "color": "green", "correct_response": "g", "trial_id": "stroop-trial-1-incongruent-7", "trial_type": "html-keyboard-response", "trial_index": 208, "time_elapsed": 575979, "internal_node_id": "0.0-8.0-22.0"}}, {"uniqueid": "w35324835:a72872978", "current_trial": 209, "dateTime": 1664464490277, "trialdata": {"rt": 1089, "stimulus": "<p id='stroop-text' class='stroop-yellow'>STONE</p>", "response": "y", "stimulus-type": "unrelated", "word": "STONE", "color": "yellow", "correct_response": "y", "trial_id": "stroop-trial-1-unrelated-29", "trial_type": "html-keyboard-response", "trial_index": 209, "time_elapsed": 577570, "internal_node_id": "0.0-8.0-23.0"}}, {"uniqueid": "w35324835:a72872978", "current_trial": 210, "dateTime": 1664464491757, "trialdata": {"rt": 978, "stimulus": "<p id='stroop-text' class='stroop-red'>BLUE</p>", "response": "r", "stimulus-type": "incongruent", "word": "blue", "color": "red", "correct_response": "r", "trial_id": "stroop-trial-1-incongruent-22", "trial_type": "html-keyboard-response", "trial_index": 210, "time_elapsed": 579051, "internal_node_id": "0.0-8.0-24.0"}}, {"uniqueid": "w35324835:a72872978", "current_trial": 211, "dateTime": 1664464493037, "trialdata": {"rt": 778, "stimulus": "<p id='stroop-text' class='stroop-blue'>BLUE</p>", "response": "b", "stimulus-type": "congruent", "word": "blue", "color": "blue", "correct_response": "b", "trial_id": "stroop-trial-1-congruent-20", "trial_type": "html-keyboard-response", "trial_index": 211, "time_elapsed": 580331, "internal_node_id": "0.0-8.0-25.0"}}, {"uniqueid": "w35324835:a72872978", "current_trial": 212, "dateTime": 1664464494669, "trialdata": {"rt": 1130, "stimulus": "<p id='stroop-text' class='stroop-yellow'>SHIP</p>", "response": "y", "stimulus-type": "unrelated", "word": "SHIP", "color": "yellow", "correct_response": "y", "trial_id": "stroop-trial-1-unrelated-4", "trial_type": "html-keyboard-response", "trial_index": 212, "time_elapsed": 581963, "internal_node_id": "0.0-8.0-26.0"}}, {"uniqueid": "w35324835:a72872978", "current_trial": 213, "dateTime": 1664464496037, "trialdata": {"rt": 865, "stimulus": "<p id='stroop-text' class='stroop-red'>SHIP</p>", "response": "r", "stimulus-type": "unrelated", "word": "SHIP", "color": "red", "correct_response": "r", "trial_id": "stroop-trial-1-unrelated-1", "trial_type": "html-keyboard-response", "trial_index": 213, "time_elapsed": 583330, "internal_node_id": "0.0-8.0-27.0"}}, {"uniqueid": "w35324835:a72872978", "current_trial": 214, "dateTime": 1664464497349, "trialdata": {"rt": 806, "stimulus": "<p id='stroop-text' class='stroop-blue'>GREEN</p>", "response": "b", "stimulus-type": "incongruent", "word": "green", "color": "blue", "correct_response": "b", "trial_id": "stroop-trial-1-incongruent-23", "trial_type": "html-keyboard-response", "trial_index": 214, "time_elapsed": 584643, "internal_node_id": "0.0-8.0-28.0"}}, {"uniqueid": "w35324835:a72872978", "current_trial": 215, "dateTime": 1664464498709, "trialdata": {"rt": 858, "stimulus": "<p id='stroop-text' class='stroop-red'>WINDOW</p>", "response": "r", "stimulus-type": "unrelated", "word": "WINDOW", "color": "red", "correct_response": "r", "trial_id": "stroop-trial-1-unrelated-23", "trial_type": "html-keyboard-response", "trial_index": 215, "time_elapsed": 586003, "internal_node_id": "0.0-8.0-29.0"}}, {"uniqueid": "w35324835:a72872978", "current_trial": 216, "dateTime": 1664464500205, "trialdata": {"rt": 993, "stimulus": "<p id='stroop-text' class='stroop-yellow'>BRAIN</p>", "response": "y", "stimulus-type": "unrelated", "word": "BRAIN", "color": "yellow", "correct_response": "y", "trial_id": "stroop-trial-1-unrelated-19", "trial_type": "html-keyboard-response", "trial_index": 216, "time_elapsed": 587498, "internal_node_id": "0.0-8.0-30.0"}}, {"uniqueid": "w35324835:a72872978", "current_trial": 217, "dateTime": 1664464501701, "trialdata": {"rt": 994, "stimulus": "<p id='stroop-text' class='stroop-blue'>YELLOW</p>", "response": "b", "stimulus-type": "incongruent", "word": "yellow", "color": "blue", "correct_response": "b", "trial_id": "stroop-trial-1-incongruent-10", "trial_type": "html-keyboard-response", "trial_index": 217, "time_elapsed": 588995, "internal_node_id": "0.0-8.0-31.0"}}, {"uniqueid": "w35324835:a72872978", "current_trial": 218, "dateTime": 1664464503285, "trialdata": {"rt": 1082, "stimulus": "<p id='stroop-text' class='stroop-yellow'>RED</p>", "response": "y", "stimulus-type": "incongruent", "word": "red", "color": "yellow", "correct_response": "y", "trial_id": "stroop-trial-1-incongruent-24", "trial_type": "html-keyboard-response", "trial_index": 218, "time_elapsed": 590579, "internal_node_id": "0.0-8.0-32.0"}}, {"uniqueid": "w35324835:a72872978", "current_trial": 219, "dateTime": 1664464504517, "trialdata": {"rt": 716, "stimulus": "<p id='stroop-text' class='stroop-green'>GREEN</p>", "response": "g", "stimulus-type": "congruent", "word": "green", "color": "green", "correct_response": "g", "trial_id": "stroop-trial-1-congruent-8", "trial_type": "html-keyboard-response", "trial_index": 219, "time_elapsed": 591811, "internal_node_id": "0.0-8.0-33.0"}}, {"uniqueid": "w35324835:a72872978", "current_trial": 220, "dateTime": 1664464505869, "trialdata": {"rt": 850, "stimulus": "<p id='stroop-text' class='stroop-red'>RED</p>", "response": "r", "stimulus-type": "congruent", "word": "red", "color": "red", "correct_response": "r", "trial_id": "stroop-trial-1-congruent-13", "trial_type": "html-keyboard-response", "trial_index": 220, "time_elapsed": 593163, "internal_node_id": "0.0-8.0-34.0"}}, {"uniqueid": "w35324835:a72872978", "current_trial": 221, "dateTime": 1664464507173, "trialdata": {"rt": 801, "stimulus": "<p id='stroop-text' class='stroop-red'>RED</p>", "response": "r", "stimulus-type": "congruent", "word": "red", "color": "red", "correct_response": "r", "trial_id": "stroop-trial-1-congruent-23", "trial_type": "html-keyboard-response", "trial_index": 221, "time_elapsed": 594467, "internal_node_id": "0.0-8.0-35.0"}}, {"uniqueid": "w35324835:a72872978", "current_trial": 222, "dateTime": 1664464508517, "trialdata": {"rt": 841, "stimulus": "<p id='stroop-text' class='stroop-green'>GREEN</p>", "response": "g", "stimulus-type": "congruent", "word": "green", "color": "green", "correct_