{"condition": 1, "counterbalance": 0, "assignmentId": "a17233909", "workerId": "w11269814", "hitId": "h63271752", "currenttrial": 155, "bonus": 0, "data": [{"uniqueid": "w11269814:a17233909", "current_trial": 0, "dateTime": 1664464066326, "trialdata": {"success": true, "trial_type": "fullscreen", "trial_index": 0, "time_elapsed": 6548, "internal_node_id": "0.0-0.0"}}, {"uniqueid": "w11269814:a17233909", "current_trial": 1, "dateTime": 1664464171794, "trialdata": {"view_history": [{"page_index": 0, "viewing_time": 105464}], "rt": 105466, "trial_id": "exp_instructions_no_distractor", "trial_type": "instructions", "trial_index": 1, "time_elapsed": 112017, "internal_node_id": "0.0-1.0"}}, {"uniqueid": "w11269814:a17233909", "current_trial": 2, "dateTime": 1664464174663, "trialdata": {"success": true, "trial_type": "fullscreen", "trial_index": 2, "time_elapsed": 114886, "internal_node_id": "0.0-2.0-0.0"}}, {"uniqueid": "w11269814:a17233909", "current_trial": 3, "dateTime": 1664464293319, "trialdata": {"view_history": [{"page_index": 0, "viewing_time": 71123}, {"page_index": 1, "viewing_time": 19511}, {"page_index": 2, "viewing_time": 7473}, {"page_index": 3, "viewing_time": 5868}, {"page_index": 4, "viewing_time": 14674}], "rt": 118649, "trial_id": "mouselab_instructions_1", "trial_type": "instructions", "trial_index": 3, "time_elapsed": 233542, "internal_node_id": "0.0-2.0-1.0"}}, {"uniqueid": "w11269814:a17233909", "current_trial": 4, "dateTime": 1664464309253, "trialdata": {"revealed_states": [], "num_clicks_accrued": [0, 0, 0, 0, 0, 0, 0, 0, 0, 0, 0, 0, 0], "stateRewards": ["", 10, -10, -10, 10, -10, 10, 10, -10, -10, 10, 10, 10], "withholdReward": false, "trial_id": "practice_1", "block": "test", "trialIndex": 0, "score": 1.75, "costs": -0.25, "simulationMode": [null, null, null, null, null, null, null], "rewards": [10, 10, -10, -10], "path": ["0", "0", "1", "1", "2", "3"], "rt": [7939, 3184, 1932, 1433, 947, 445, 511], "actions": ["up", "up", "up", "up", "up", "up", "right"], "actionTimes": [3183, 3186, 5123, 5125, 6076, 6078, 7098], "queries": {"click": {"state": {"target": ["1"], "time": [1977]}, "edge": {"target": [], "time": []}}, "mouseover": {"state": {"target": ["1", "3"], "time": [771, 2476]}, "edge": {"target": [], "time": []}}, "mouseout": {"state": {"target": ["0", "1"], "time": [580, 2443]}, "edge": {"target": [], "time": []}}}, "displayed_time": "7.61", "trialTime": 9197, "trial_type": "mouselab-mdp", "trial_index": 4, "time_elapsed": 249476, "internal_node_id": "0.0-2.0-2.0-0.0"}}, {"uniqueid": "w11269814:a17233909", "current_trial": 5, "dateTime": 1664464318391, "trialdata": {"revealed_states": [], "num_clicks_accrued": [0, 0, 0, 0, 0, 0, 0, 0, 0, 0, 0, 0, 0], "stateRewards": ["", -10, 10, 10, -10, 10, -10, -10, -10, 10, -10, 10, -10], "withholdReward": false, "trial_id": "practice_2", "block": "test", "trialIndex": 1, "score": 11.75, "costs": -0.25, "simulationMode": [null, null, null], "rewards": [10, -10, 10], "path": ["0", "0", "9", "10", "11"], "rt": [2217, 341, 374], "actions": ["left", "left", "up"], "actionTimes": [4502, 5354, 6231], "queries": {"click": {"state": {"target": ["9"], "time": [3662]}, "edge": {"target": [], "time": []}}, "mouseover": {"state": {"target": ["1", "9"], "time": [2859, 3432]}, "edge": {"target": [], "time": []}}, "mouseout": {"state": {"target": ["3", "1", "9"], "time": [1735, 3206, 3950]}, "edge": {"target": [], "time": []}}}, "displayed_time": "6.74", "trialTime": 9053, "trial_type": "mouselab-mdp", "trial_index": 5, "time_elapsed": 258613, "internal_node_id": "0.0-2.0-2.0-1.0"}}, {"uniqueid": "w11269814:a17233909", "current_trial": 6, "dateTime": 1664464369800, "trialdata": {"view_history": [{"page_index": 0, "viewing_time": 30258}, {"page_index": 1, "viewing_time": 14533}, {"page_index": 2, "viewing_time": 6616}], "rt": 51408, "trial_id": "mouselab_instructions_2_scarce", "trial_type": "instructions", "trial_index": 6, "time_elapsed": 310023, "internal_node_id": "0.0-2.0-3.0"}}, {"uniqueid": "w11269814:a17233909", "current_trial": 7, "dateTime": 1664464401811, "trialdata": {"rt": 32000, "response": {"Q0": "$-48 to $48", "Q1": "The cost is always $0.25.", "Q2": "The better I perform the higher my bonus will be.", "Q3": "No, the structure of the web will be different each time.", "Q4": "The values of the nodes walked through from start to finish.", "Q5": "No, the spider might forget to count the money on some rounds."}, "question_order": [0, 1, 2, 3, 4, 5], "correct": {"Q0": "$-48 to $48", "Q1": "The cost is always $0.25.", "Q2": "The better I perform the higher my bonus will be.", "Q3": "No, the amount of cash at each node of the web may be different each time.", "Q4": "The values of the nodes walked through from start to finish.", "Q5": "No, the spider might forget to count the money on some rounds."}, "trial_id": "mouselab_quiz_scarce", "trial_type": "survey-multi-choice", "trial_index": 7, "time_elapsed": 342034, "internal_node_id": "0.0-2.0-4.0"}}, {"uniqueid": "w11269814:a17233909", "current_trial": 8, "dateTime": 1664464408256, "trialdata": {"success": true, "trial_type": "fullscreen", "trial_index": 8, "time_elapsed": 348479, "internal_node_id": "0.0-2.1-0.1"}}, {"uniqueid": "w11269814:a17233909", "current_trial": 9, "dateTime": 1664464463223, "trialdata": {"view_history": [{"page_index": 0, "viewing_time": 47924}, {"page_index": 1, "viewing_time": 1239}, {"page_index": 2, "viewing_time": 1090}, {"page_index": 3, "viewing_time": 1377}, {"page_index": 2, "viewing_time": 948}, {"page_index": 3, "viewing_time": 1431}, {"page_index": 4, "viewing_time": 957}], "rt": 54966, "trial_id": "mouselab_instructions_1", "trial_type": "instructions", "trial_index": 9, "time_elapsed": 403446, "internal_node_id": "0.0-2.1-1.1"}}, {"uniqueid": "w11269814:a17233909", "current_trial": 10, "dateTime": 1664464470512, "trialdata": {"revealed_states": [], "num_clicks_accrued": [0, 0, 0, 0, 0, 0, 0, 0, 0, 0, 0, 0, 0], "stateRewards": ["", 10, -10, -10, 10, -10, 10, 10, -10, -10, 10, 10, 10], "withholdReward": false, "trial_id": "practice_1", "block": "test", "trialIndex": 2, "score": -8.25, "costs": -0.25, "simulationMode": [null, null, null], "rewards": [10, -10, -10], "path": ["0", "0", "1", "2", "3"], "rt": [2354, 56, 52], "actions": ["up", "up", "right"], "actionTimes": [4007, 4572, 5149], "queries": {"click": {"state": {"target": ["1"], "time": [3110]}, "edge": {"target": [], "time": []}}, "mouseover": {"state": {"target": ["1"], "time": [2966]}, "edge": {"target": [], "time": []}}, "mouseout": {"state": {"target": ["5", "0"], "time": [633, 2817]}, "edge": {"target": [], "time": []}}}, "displayed_time": "5.65", "trialTime": 7170, "trial_type": "mouselab-mdp", "trial_index": 10, "time_elapsed": 410735, "internal_node_id": "0.0-2.1-2.1-0.1"}}, {"uniqueid": "w11269814:a17233909", "current_trial": 11, "dateTime": 1664464477252, "trialdata": {"revealed_states": [], "num_clicks_accrued": [0, 0, 0, 0, 0, 0, 0, 0, 0, 0, 0, 0, 0], "stateRewards": ["", -10, 10, 10, -10, 10, -10, -10, -10, 10, -10, 10, -10], "withholdReward": false, "trial_id": "practice_2", "block": "test", "trialIndex": 3, "score": 11.75, "costs": -0.25, "simulationMode": [null, null, null], "rewards": [10, -10, 10], "path": ["0", "0", "9", "10", "11"], "rt": [1688, 490, 77], "actions": ["left", "left", "up"], "actionTimes": [3758, 4755, 5337], "queries": {"click": {"state": {"target": ["9"], "time": [3352]}, "edge": {"target": [], "time": []}}, "mouseover": {"state": {"target": ["9", "0", "9"], "time": [2694, 2881, 3231]}, "edge": {"target": [], "time": []}}, "mouseout": {"state": {"target": ["1", "0", "0", "9", "0"], "time": [1576, 1677, 2626, 2846, 3044]}, "edge": {"target": [], "time": []}}}, "displayed_time": "5.85", "trialTime": 6655, "trial_type": "mouselab-mdp", "trial_index": 11, "time_elapsed": 417475, "internal_node_id": "0.0-2.1-2.1-1.1"}}, {"uniqueid": "w11269814:a17233909", "current_trial": 12, "dateTime": 1664464666257, "trialdata": {"view_history": [{"page_index": 0, "viewing_time": 24440}, {"page_index": 1, "viewing_time": 162065}, {"page_index": 2, "viewing_time": 2504}], "rt": 189009, "trial_id": "mouselab_instructions_2_scarce", "trial_type": "instructions", "trial_index": 12, "time_elapsed": 606480, "internal_node_id": "0.0-2.1-3.1"}}, {"uniqueid": "w11269814:a17233909", "current_trial": 13, "dateTime": 1664464713437, "trialdata": {"rt": 47175, "response": {"Q0": "$-48 to $48", "Q1": "It is more costly to inspect further nodes.", "Q2": "The better I perform the higher my bonus will be.", "Q3": "No, the structure of the web will be different each time.", "Q4": "The values of the nodes walked through from start to finish.", "Q5": "No, the spider might forget to count the money on some rounds."}, "question_order": [0, 1, 2, 3, 4, 5], "correct": {"Q0": "$-48 to $48", "Q1": "The cost is always $0.25.", "Q2": "The better I perform the higher my bonus will be.", "Q3": "No, the amount of cash at each node of the web may be different each time.", "Q4": "The values of the nodes walked through from start to finish.", "Q5": "No, the spider might forget to count the money on some rounds."}, "trial_id": "mouselab_quiz_scarce", "trial_type": "survey-multi-choice", "trial_index": 13, "time_elapsed": 653660, "internal_node_id": "0.0-2.1-4.1"}}, {"uniqueid": "w11269814:a17233909", "current_trial": 14, "dateTime": 1664464732743, "trialdata": {"success": true, "trial_type": "fullscreen", "trial_index": 14, "time_elapsed": 672966, "internal_node_id": "0.0-2.2-0.2"}}, {"uniqueid": "w11269814:a17233909", "current_trial": 15, "dateTime": 1664464829347, "trialdata": {"view_history": [{"page_index": 0, "viewing_time": 39962}, {"page_index": 1, "viewing_time": 37114}, {"page_index": 2, "viewing_time": 11258}, {"page_index": 3, "viewing_time": 4891}, {"page_index": 4, "viewing_time": 3369}], "rt": 96595, "trial_id": "mouselab_instructions_1", "trial_type": "instructions", "trial_index": 15, "time_elapsed": 769570, "internal_node_id": "0.0-2.2-1.2"}}, {"uniqueid": "w11269814:a17233909", "current_trial": 16, "dateTime": 1664464838168, "trialdata": {"revealed_states": [], "num_clicks_accrued": [0, 0, 0, 0, 0, 0, 0, 0, 0, 0, 0, 0, 0], "stateRewards": ["", 10, -10, -10, 10, -10, 10, 10, -10, -10, 10, 10, 10], "withholdReward": false, "trial_id": "practice_1", "block": "test", "trialIndex": 4, "score": 11.75, "costs": -0.25, "simulationMode": [null, null, null], "rewards": [10, -10, 10], "path": ["0", "0", "1", "2", "4"], "rt": [3950, 200, 86], "actions": ["up", "up", "left"], "actionTimes": [5161, 5872, 6464], "queries": {"click": {"state": {"target": ["1"], "time": [3211]}, "edge": {"target": [], "time": []}}, "mouseover": {"state": {"target": ["1", "2"], "time": [2703, 4301]}, "edge": {"target": [], "time": []}}, "mouseout": {"state": {"target": ["0", "1", "2", "10"], "time": [2584, 4286, 4322, 7745]}, "edge": {"target": [], "time": []}}}, "displayed_time": "6.98", "trialTime": 8738, "trial_type": "mouselab-mdp", "trial_index": 16, "time_elapsed": 778391, "internal_node_id": "0.0-2.2-2.2-0.2"}}, {"uniqueid": "w11269814:a17233909", "current_trial": 17, "dateTime": 1664464845771, "trialdata": {"revealed_states": [], "num_clicks_accrued": [0, 0, 0, 0, 0, 0, 0, 0, 0, 0, 0, 0, 0], "stateRewards": ["", -10, 10, 10, -10, 10, -10, -10, -10, 10, -10, 10, -10], "withholdReward": false, "trial_id": "practice_2", "block": "test", "trialIndex": 5, "score": 11.75, "costs": -0.25, "simulationMode": [null, null, null], "rewards": [10, -10, 10], "path": ["0", "0", "9", "10", "11"], "rt": [1997, 434, 51], "actions": ["left", "left", "up"], "actionTimes": [3141, 4082, 4643], "queries": {"click": {"state": {"target": ["9"], "time": [2539]}, "edge": {"target": [], "time": []}}, "mouseover": {"state": {"target": ["9"], "time": [2283]}, "edge": {"target": [], "time": []}}, "mouseout": {"state": {"target": ["0", "9"], "time": [2257, 5796]}, "edge": {"target": [], "time": []}}}, "displayed_time": "5.14", "trialTime": 7520, "trial_type": "mouselab-mdp", "trial_index": 17, "time_elapsed": 785994, "internal_node_id": "0.0-2.2-2.2-1.2"}}, {"uniqueid": "w11269814:a17233909", "current_trial": 18, "dateTime": 1664464901306, "trialdata": {"view_history": [{"page_index": 0, "viewing_time": 37794}, {"page_index": 1, "viewing_time": 15957}, {"page_index": 2, "viewing_time": 1779}], "rt": 55531, "trial_id": "mouselab_instructions_2_scarce", "trial_type": "instructions", "trial_index": 18, "time_elapsed": 841529, "internal_node_id": "0.0-2.2-3.2"}}, {"uniqueid": "w11269814:a17233909", "current_trial": 19, "dateTime": 1664464987995, "trialdata": {"rt": 86683, "response": {"Q0": "$-48 to $48", "Q1": "It is more costly to inspect further nodes.", "Q2": "The better I perform the higher my bonus will be.", "Q3": "No, the amount of cash at each node of the web may be different each time.", "Q4": "The values of the nodes walked through from start to finish.", "Q5": "No, the spider might forget to count the money on some rounds."}, "question_order": [0, 1, 2, 3, 4, 5], "correct": {"Q0": "$-48 to $48", "Q1": "The cost is always $0.25.", "Q2": "The better I perform the higher my bonus will be.", "Q3": "No, the amount of cash at each node of the web may be different each time.", "Q4": "The values of the nodes walked through from start to finish.", "Q5": "No, the spider might forget to count the money on some rounds."}, "trial_id": "mouselab_quiz_scarce", "trial_type": "survey-multi-choice", "trial_index": 19, "time_elapsed": 928218, "internal_node_id": "0.0-2.2-4.2"}}, {"uniqueid": "w11269814:a17233909", "current_trial": 20, "dateTime": 1664465037497, "trialdata": {"success": true, "trial_type": "fullscreen", "trial_index": 20, "time_elapsed": 977720, "internal_node_id": "0.0-2.3-0.3"}}, {"uniqueid": "w11269814:a17233909", "current_trial": 21, "dateTime": 1664465054925, "trialdata": {"view_history": [{"page_index": 0, "viewing_time": 4746}, {"page_index": 1, "viewing_time": 7962}, {"page_index": 2, "viewing_time": 2462}, {"page_index": 3, "viewing_time": 1181}, {"page_index": 4, "viewing_time": 1073}], "rt": 17425, "trial_id": "mouselab_instructions_1", "trial_type": "instructions", "trial_index": 21, "time_elapsed": 995148, "internal_node_id": "0.0-2.3-1.3"}}, {"uniqueid": "w11269814:a17233909", "current_trial": 22, "dateTime": 1664465061038, "trialdata": {"revealed_states": [], "num_clicks_accrued": [0, 0, 0, 0, 0, 0, 0, 0, 0, 0, 0, 0, 0], "stateRewards": ["", 10, -10, -10, 10, -10, 10, 10, -10, -10, 10, 10, 10], "withholdReward": false, "trial_id": "practice_1", "block": "test", "trialIndex": 6, "score": 11.75, "costs": -0.25, "simulationMode": [null, null, null], "rewards": [10, -10, 10], "path": ["0", "0", "1", "2", "4"], "rt": [1686, 341, 143], "actions": ["up", "up", "left"], "actionTimes": [3060, 3928, 4579], "queries": {"click": {"state": {"target": ["1"], "time": [2378]}, "edge": {"target": [], "time": []}}, "mouseover": {"state": {"target": ["1"], "time": [1945]}, "edge": {"target": [], "time": []}}, "mouseout": {"state": {"target": ["1", "0"], "time": [5758, 5802]}, "edge": {"target": [], "time": []}}}, "displayed_time": "5.10", "trialTime": 6026, "trial_type": "mouselab-mdp", "trial_index": 22, "time_elapsed": 1001260, "internal_node_id": "0.0-2.3-2.3-0.3"}}, {"uniqueid": "w11269814:a17233909", "current_trial": 23, "dateTime": 1664465067244, "trialdata": {"revealed_states": [], "num_clicks_accrued": [0, 0, 0, 0, 0, 0, 0, 0, 0, 0, 0, 0, 0], "stateRewards": ["", -10, 10, 10, -10, 10, -10, -10, -10, 10, -10, 10, -10], "withholdReward": false, "trial_id": "practice_2", "block": "test", "trialIndex": 7, "score": 11.75, "costs": -0.25, "simulationMode": [null, null, null], "rewards": [10, -10, 10], "path": ["0", "0", "9", "10", "11"], "rt": [2018, 430, 138], "actions": ["left", "left", "up"], "actionTimes": [3233, 4177, 4818], "queries": {"click": {"state": {"target": ["9"], "time": [2534]}, "edge": {"target": [], "time": []}}, "mouseover": {"state": {"target": ["9"], "time": [2281]}, "edge": {"target": [], "time": []}}, "mouseout": {"state": {"target": ["0", "9"], "time": [2232, 5809]}, "edge": {"target": [], "time": []}}}, "displayed_time": "5.31", "trialTime": 6126, "trial_type": "mouselab-mdp", "trial_index": 23, "time_elapsed": 1007466, "internal_node_id": "0.0-2.3-2.3-1.3"}}, {"uniqueid": "w11269814:a17233909", "current_trial": 24, "dateTime": 1664465071507, "trialdata": {"view_history": [{"page_index": 0, "viewing_time": 1492}, {"page_index": 1, "viewing_time": 1399}, {"page_index": 2, "viewing_time": 1369}], "rt": 4260, "trial_id": "mouselab_instructions_2_scarce", "trial_type": "instructions", "trial_index": 24, "time_elapsed": 1011730, "internal_node_id": "0.0-2.3-3.3"}}, {"uniqueid": "w11269814:a17233909", "current_trial": 25, "dateTime": 1664465125493, "trialdata": {"rt": 53983, "response": {"Q0": "$-48 to $48", "Q1": "The cost is always $0.25.", "Q2": "The better I perform the higher my bonus will be.", "Q3": "No, the amount of cash at each node of the web may be different each time.", "Q4": "The values of the nodes walked through from start to finish.", "Q5": "No, the spider might forget to count the money on some rounds."}, "question_order": [0, 1, 2, 3, 4, 5], "correct": {"Q0": "$-48 to $48", "Q1": "The cost is always $0.25.", "Q2": "The better I perform the higher my bonus will be.", "Q3": "No, the amount of cash at each node of the web may be different each time.", "Q4": "The values of the nodes walked through from start to finish.", "Q5": "No, the spider might forget to count the money on some rounds."}, "trial_id": "mouselab_quiz_scarce", "trial_type": "survey-multi-choice", "trial_index": 25, "time_elapsed": 1065716, "internal_node_id": "0.0-2.3-4.3"}}, {"uniqueid": "w11269814:a17233909", "current_trial": 26, "dateTime": 1664465347369, "trialdata": {"rt": 221856, "stimulus": "\n<h1> Get ready to start the game! </h1>\n\nThank you for reading the instructions. Get ready start with the first of 4 block(s) of this game.\n<br><br>\nIn this first block, you will complete 30 rounds of this game before moving on.\n<br><br>\nRemember, the more money the spider gets, the bigger your bonus will be!\n<br><br>\n<div style='text-align: center;'>Press <code>space</code> to begin.</div>\n\n<br><br>\n(If, at any point, the <code>space</code> key does not take you to the next page, click once on the text and try again.)", "response": " ", "trial_id": "mdp_ready_1", "trial_type": "html-keyboard-response", "trial_index": 26, "time_elapsed": 1287592, "internal_node_id": "0.0-4.0-0.0"}}, {"uniqueid": "w11269814:a17233909", "current_trial": 27, "dateTime": 1664465360108, "trialdata": {"revealed_states": [], "num_clicks_accrued": [0, 0, 0, 0, 0, 0, 0, 0, 0, 0, 0, 0, 0], "stateRewards": ["", -4, 4, -48, -48, -4, 8, -24, 24, 2, -4, 48, 48], "withholdReward": true, "trial_id": "mdp_821566905048", "block": "test1", "trialIndex": 8, "score": -15.25, "costs": -0.25, "simulationMode": [null, null, null], "rewards": [-4, 8, -24], "path": ["0", "0", "5", "6", "7"], "rt": [2815, 261, 277], "actions": ["right", "right", "up"], "actionTimes": [4700, 5467, 6235], "queries": {"click": {"state": {"target": ["1"], "time": [3048]}, "edge": {"target": [], "time": []}}, "mouseover": {"state": {"target": ["1", "1"], "time": [2505, 2806]}, "edge": {"target": [], "time": []}}, "mouseout": {"state": {"target": ["0", "1", "1", "5"], "time": [2475, 2676, 4225, 11295]}, "edge": {"target": [], "time": []}}}, "displayed_time": "10.89", "trialTime": 12665, "trial_type": "mouselab-mdp", "trial_index": 27, "time_elapsed": 1300330, "internal_node_id": "0.0-4.0-1.0-0.0"}}, {"uniqueid": "w11269814:a17233909", "current_trial": 28, "dateTime": 1664465373698, "trialdata": {"revealed_states": [], "num_clicks_accrued": [0, 0, 0, 0, 0, 0, 0, 0, 0, 0, 0, 0, 0], "stateRewards": ["", 4, -4, 48, -48, 2, 8, -48, 24, -2, -4, -24, 48], "withholdReward": true, "trial_id": "mdp_937564992306", "block": "test1", "trialIndex": 9, "score": 38.75, "costs": -0.25, "simulationMode": [null, null, null], "rewards": [2, 8, 24], "path": ["0", "0", "5", "6", "8"], "rt": [2113, 343, 203], "actions": ["right", "right", "down"], "actionTimes": [5341, 6187, 6899], "queries": {"click": {"state": {"target": ["5"], "time": [4166]}, "edge": {"target": [], "time": []}}, "mouseover": {"state": {"target": ["5"], "time": [3958]}, "edge": {"target": [], "time": []}}, "mouseout": {"state": {"target": ["0", "5", "0"], "time": [3027, 10759, 11586]}, "edge": {"target": [], "time": []}}}, "displayed_time": "12.23", "trialTime": 13502, "trial_type": "mouselab-mdp", "trial_index": 28, "time_elapsed": 1313921, "internal_node_id": "0.0-4.0-1.0-1.0"}}, {"uniqueid": "w11269814:a17233909", "current_trial": 29, "dateTime": 1664465384980, "trialdata": {"revealed_states": [], "num_clicks_accrued": [0, 0, 0, 0, 0, 0, 0, 0, 0, 0, 0, 0, 0], "stateRewards": ["", 4, -8, 24, 48, 2, 4, 48, 48, 2, 8, -48, -48], "withholdReward": true, "trial_id": "mdp_783704746330", "block": "test1", "trialIndex": 10, "score": 48.75, "costs": -0.25, "simulationMode": [null, null, null], "rewards": [4, -8, 48], "path": ["0", "0", "1", "2", "4"], "rt": [1961, 315, 165], "actions": ["up", "up", "left"], "actionTimes": [3383, 4204, 4882], "queries": {"click": {"state": {"target": ["1"], "time": [2447]}, "edge": {"target": [], "time": []}}, "mouseover": {"state": {"target": ["1", "1"], "time": [1928, 2117]}, "edge": {"target": [], "time": []}}, "mouseout": {"state": {"target": ["0", "1", "1", "1", "10"], "time": [667, 943, 1996, 3101, 9167]}, "edge": {"target": [], "time": []}}}, "displayed_time": "10.43", "trialTime": 11197, "trial_type": "mouselab-mdp", "trial_index": 29, "time_elapsed": 1325202, "internal_node_id": "0.0-4.0-1.0-2.0"}}, {"uniqueid": "w11269814:a17233909", "current_trial": 30, "dateTime": 1664465397365, "trialdata": {"revealed_states": [], "num_clicks_accrued": [0, 0, 0, 0, 0, 0, 0, 0, 0, 0, 0, 0, 0], "stateRewards": ["", -2, -4, -24, -48, -4, -8, -48, 24, -4, -8, -24, -48], "withholdReward": true, "trial_id": "mdp_475782454549", "block": "test1", "trialIndex": 11, "score": 16.75, "costs": -0.25, "simulationMode": [null, null, null], "rewards": [-4, -8, 24], "path": ["0", "0", "5", "6", "8"], "rt": [2061, 122, 48], "actions": ["right", "right", "down"], "actionTimes": [5166, 5803, 6344], "queries": {"click": {"state": {"target": ["9"], "time": [4078]}, "edge": {"target": [], "time": []}}, "mouseover": {"state": {"target": ["9"], "time": [3693]}, "edge": {"target": [], "time": []}}, "mouseout": {"state": {"target": ["9", "9"], "time": [526, 614]}, "edge": {"target": [], "time": []}}}, "displayed_time": "11.12", "trialTime": 12293, "trial_type": "mouselab-mdp", "trial_index": 30, "time_elapsed": 1337588, "internal_node_id": "0.0-4.0-1.0-3.0"}}, {"uniqueid": "w11269814:a17233909", "current_trial": 31, "dateTime": 1664465411041, "trialdata": {"revealed_states": [], "num_clicks_accrued": [0, 0, 0, 0, 0, 0, 0, 0, 0, 0, 0, 0, 0], "stateRewards": ["", -4, 4, -24, 48, 2, 4, -48, 24, 4, -8, -24, 24], "withholdReward": true, "trial_id": "mdp_740130150937", "block": "test1", "trialIndex": 12, "score": -23.5, "costs": -0.5, "simulationMode": [null, null, null], "rewards": [4, -8, -24], "path": ["0", "0", "9", "10", "11"], "rt": [5842, 254, 144], "actions": ["left", "left", "up"], "actionTimes": [7958, 8718, 9357], "queries": {"click": {"state": {"target": ["1", "9"], "time": [3042, 6865]}, "edge": {"target": [], "time": []}}, "mouseover": {"state": {"target": ["1", "5", "7", "8", "9", "5", "6", "8", "5", "0", "9"], "time": [2693, 4103, 4315, 4568, 4735, 4931, 4950, 5222, 5338, 6064, 6167]}, "edge": {"target": [], "time": []}}, "mouseout": {"state": {"target": ["9", "0", "1", "5", "7", "8", "9", "5", "6", "8", "5", "0", "9", "0"], "time": [723, 2532, 3993, 4281, 4331, 4590, 4752, 4948, 4965, 5248, 6054, 6099, 7288, 12731]}, "edge": {"target": [], "time": []}}}, "displayed_time": "11.12", "trialTime": 13596, "trial_type": "mouselab-mdp", "trial_index": 31, "time_elapsed": 1351264, "internal_node_id": "0.0-4.0-1.0-4.0"}}, {"uniqueid": "w11269814:a17233909", "current_trial": 32, "dateTime": 1664465422614, "trialdata": {"revealed_states": [], "num_clicks_accrued": [0, 0, 0, 0, 0, 0, 0, 0, 0, 0, 0, 0, 0], "stateRewards": ["", 2, -8, -24, -48, -2, -4, 48, 48, 4, 8, 48, 48], "withholdReward": true, "trial_id": "mdp_347285045422", "block": "test1", "trialIndex": 13, "score": 64.25, "costs": -0.75, "simulationMode": [null, null, null], "rewards": [4, 8, 48], "path": ["0", "0", "9", "10", "12"], "rt": [5154, 151, 125], "actions": ["left", "left", "down"], "actionTimes": [7221, 7877, 8503], "queries": {"click": {"state": {"target": ["9", "10", "12"], "time": [4024, 5226, 6035]}, "edge": {"target": [], "time": []}}, "mouseover": {"state": {"target": ["1", "9", "10", "12"], "time": [3171, 3672, 4341, 5682]}, "edge": {"target": [], "time": []}}, "mouseout": {"state": {"target": ["0", "1", "9", "10", "12"], "time": [1267, 3542, 4325, 5465, 6265]}, "edge": {"target": [], "time": []}}}, "displayed_time": "10.07", "trialTime": 11490, "trial_type": "mouselab-mdp", "trial_index": 32, "time_elapsed": 1362837, "internal_node_id": "0.0-4.0-1.0-5.0"}}, {"uniqueid": "w11269814:a17233909", "current_trial": 33, "dateTime": 1664465434569, "trialdata": {"revealed_states": [], "num_clicks_accrued": [0, 0, 0, 0, 0, 0, 0, 0, 0, 0, 0, 0, 0], "stateRewards": ["", 4, 8, 24, 24, 2, -4, 48, -24, -4, 8, -24, 24], "withholdReward": true, "trial_id": "mdp_932292142091", "block": "test1", "trialIndex": 14, "score": 39.75, "costs": -1.25, "simulationMode": [null, null, null], "rewards": [4, 8, 24], "path": ["0", "0", "1", "2", "3"], "rt": [5062, 490, 159], "actions": ["up", "up", "right"], "actionTimes": [6189, 7192, 7858], "queries": {"click": {"state": {"target": ["5", "6", "1", "2", "3"], "time": [1709, 2546, 4164, 4702, 5337]}, "edge": {"target": [], "time": []}}, "mouseover": {"state": {"target": ["5", "6", "1", "1", "1", "2", "3"], "time": [1533, 2031, 3135, 3413, 3916, 4531, 5105]}, "edge": {"target": [], "time": []}}, "mouseout": {"state": {"target": ["0", "5", "6", "1", "1", "1", "2", "3", "3", "1"], "time": [642, 2000, 2956, 3314, 3451, 4484, 5042, 10548, 10587, 10686]}, "edge": {"target": [], "time": []}}}, "displayed_time": "9.13", "trialTime": 11878, "trial_type": "mouselab-mdp", "trial_index": 33, "time_elapsed": 1374792, "internal_node_id": "0.0-4.0-1.0-6.0"}}, {"uniqueid": "w11269814:a17233909", "current_trial": 34, "dateTime": 1664465449927, "trialdata": {"revealed_states": [], "num_clicks_accrued": [0, 0, 0, 0, 0, 0, 0, 0, 0, 0, 0, 0, 0], "stateRewards": ["", -2, 4, 48, -24, 2, 8, 24, 48, 2, 4, -24, -48], "withholdReward": true, "trial_id": "mdp_892412058587", "block": "test1", "trialIndex": 15, "score": 37.75, "costs": -1.25, "simulationMode": [null, null, null], "rewards": [2, 8, 24], "path": ["0", "0", "5", "6", "7"], "rt": [5515, 457, 122], "actions": ["right", "right", "up"], "actionTimes": [6576, 7553, 8185], "queries": {"click": {"state": {"target": ["1", "9", "5", "6", "7"], "time": [1907, 3253, 4193, 4992, 5724]}, "edge": {"target": [], "time": []}}, "mouseover": {"state": {"target": ["1", "9", "9", "10", "5", "6", "5", "6", "7"], "time": [1735, 2617, 3115, 3662, 3798, 3831, 4018, 4824, 5547]}, "edge": {"target": [], "time": []}}, "mouseout": {"state": {"target": ["9", "0", "1", "9", "9", "10", "5", "6", "5", "6", "7", "6", "8"], "time": [653, 1456, 2544, 2719, 3622, 3780, 3815, 3977, 4743, 5397, 6127, 6209, 13693]}, "edge": {"target": [], "time": []}}}, "displayed_time": "9.07", "trialTime": 15273, "trial_type": "mouselab-mdp", "trial_index": 34, "time_elapsed": 1390150, "internal_node_id": "0.0-4.0-1.0-7.0"}}, {"uniqueid": "w11269814:a17233909", "current_trial": 35, "dateTime": 1664465472811, "trialdata": {"revealed_states": [], "num_clicks_accrued": [0, 0, 0, 0, 0, 0, 0, 0, 0, 0, 0, 0, 0], "stateRewards": ["", 4, -8, -48, 24, 4, 4, -24, -24, 2, 4, -48, 24], "withholdReward": true, "trial_id": "mdp_626971397185", "block": "test1", "trialIndex": 16, "score": 32.5, "costs": -2.5, "simulationMode": [null, null, null], "rewards": [2, 4, 24], "path": ["0", "0", "9", "10", "12"], "rt": [11467, 231, 361], "actions": ["left", "left", "down"], "actionTimes": [13231, 13971, 14830], "queries": {"click": {"state": {"target": ["1", "9", "5", "2", "6", "7", "8", "10", "11", "12"], "time": [3434, 4743, 5463, 6098, 7290, 8010, 9405, 10689, 11227, 12161]}, "edge": {"target": [], "time": []}}, "mouseover": {"state": {"target": ["1", "9", "5", "2", "3", "6", "7", "8", "10", "11", "12", "0"], "time": [2317, 4437, 5374, 5783, 6350, 7095, 7836, 9238, 10506, 10968, 11927, 12495]}, "edge": {"target": [], "time": []}}, "mouseout": {"state": {"target": ["0", "1", "1", "9", "5", "2", "3", "6", "7", "6", "8", "9", "10", "11", "10", "12", "0", "0"], "time": [2202, 3820, 4429, 4980, 5735, 6322, 6933, 7709, 8434, 8534, 9769, 10169, 10905, 11685, 11760, 12461, 12511, 21954]}, "edge": {"target": [], "time": []}}}, "displayed_time": "15.34", "trialTime": 22792, "trial_type": "mouselab-mdp", "trial_index": 35, "time_elapsed": 1413033, "internal_node_id": "0.0-4.0-1.0-8.0"}}, {"uniqueid": "w11269814:a17233909", "current_trial": 36, "dateTime": 1664465486695, "trialdata": {"revealed_states": [], "num_clicks_accrued": [0, 0, 0, 0, 0, 0, 0, 0, 0, 0, 0, 0, 0], "stateRewards": ["", -2, -8, 48, 24, -2, 8, -48, -24, -2, 4, -48, 48], "withholdReward": true, "trial_id": "mdp_295220852217", "block": "test1", "trialIndex": 17, "score": -14.25, "costs": -1.25, "simulationMode": [null, null, null], "rewards": [-2, 8, -24], "path": ["0", "0", "5", "6", "8"], "rt": [7601, 96, 1808], "actions": ["right", "right", "down"], "actionTimes": [9282, 9888, 12214], "queries": {"click": {"state": {"target": ["1", "5", "9", "2", "6"], "time": [2407, 3412, 4235, 7137, 8266]}, "edge": {"target": [], "time": []}}, "mouseover": {"state": {"target": ["1", "2", "5", "6", "9", "2", "4", "2", "3", "6"], "time": [2155, 2809, 3164, 3776, 3891, 4895, 5494, 5892, 7403, 8040]}, "edge": {"target": [], "time": []}}, "mouseout": {"state": {"target": ["0", "1", "2", "5", "6", "5", "9", "2", "4", "2", "3", "6", "5"], "time": [872, 2764, 3014, 3660, 3825, 3858, 4567, 5395, 5734, 7395, 7759, 8540, 8577]}, "edge": {"target": [], "time": []}}}, "displayed_time": "12.72", "trialTime": 13799, "trial_type": "mouselab-mdp", "trial_index": 36, "time_elapsed": 1426918, "internal_node_id": "0.0-4.0-1.0-9.0"}}, {"uniqueid": "w11269814:a17233909", "current_trial": 37, "dateTime": 1664465499247, "trialdata": {"revealed_states": [], "num_clicks_accrued": [0, 0, 0, 0, 0, 0, 0, 0, 0, 0, 0, 0, 0], "stateRewards": ["", 2, 4, 48, -48, 2, 4, 24, -24, 2, -4, -24, -48], "withholdReward": true, "trial_id": "mdp_706591889062", "block": "test1", "trialIndex": 18, "score": 58.25, "costs": -0.75, "simulationMode": [null, null, null], "rewards": [2, 4, 48], "path": ["0", "0", "1", "2", "3"], "rt": [3255, 113, 45], "actions": ["up", "up", "right"], "actionTimes": [6468, 7086, 7640], "queries": {"click": {"state": {"target": ["1", "2", "3"], "time": [4470, 5090, 5586]}, "edge": {"target": [], "time": []}}, "mouseover": {"state": {"target": ["1", "2", "3"], "time": [4123, 4821, 5349]}, "edge": {"target": [], "time": []}}, "mouseout": {"state": {"target": ["8", "5", "0", "1", "2", "3", "7", "6"], "time": [1155, 1354, 4038, 4769, 5347, 5873, 8621, 8655]}, "edge": {"target": [], "time": []}}}, "displayed_time": "11.22", "trialTime": 12478, "trial_type": "mouselab-mdp", "trial_index": 37, "time_elapsed": 1439469, "internal_node_id": "0.0-4.0-1.0-10.0"}}, {"uniqueid": "w11269814:a17233909", "current_trial": 38, "dateTime": 1664465511447, "trialdata": {"revealed_states": [], "num_clicks_accrued": [0, 0, 0, 0, 0, 0, 0, 0, 0, 0, 0, 0, 0], "stateRewards": ["", 2, -8, -24, 48, 4, -8, -24, -24, 2, 8, -24, 24], "withholdReward": false, "trial_id": "mdp_480787552818", "block": "test1", "trialIndex": 19, "score": 46.25, "costs": -0.75, "simulationMode": [null, null, null], "rewards": [2, -8, 48], "path": ["0", "0", "1", "2", "4"], "rt": [3537, 88, 91], "actions": ["up", "up", "left"], "actionTimes": [4881, 5473, 6064], "queries": {"click": {"state": {"target": ["1", "2", "4"], "time": [2120, 2900, 3752]}, "edge": {"target": [], "time": []}}, "mouseover": {"state": {"target": ["1", "2", "2", "4", "4"], "time": [1837, 2493, 2752, 3202, 3574]}, "edge": {"target": [], "time": []}}, "mouseout": {"state": {"target": ["0", "0", "1", "2", "2", "4", "4", "2"], "time": [893, 1721, 2475, 2553, 3176, 3453, 4289, 4377]}, "edge": {"target": [], "time": []}}}, "displayed_time": "10.35", "trialTime": 12114, "trial_type": "mouselab-mdp", "trial_index": 38, "time_elapsed": 1451669, "internal_node_id": "0.0-4.0-1.0-11.0"}}, {"uniqueid": "w11269814:a17233909", "current_trial": 39, "dateTime": 1664465521576, "trialdata": {"revealed_states": [], "num_clicks_accrued": [0, 0, 0, 0, 0, 0, 0, 0, 0, 0, 0, 0, 0], "stateRewards": ["", 2, 8, 24, -48, 4, 8, 24, 24, 4, -8, 48, 48], "withholdReward": true, "trial_id": "mdp_646103824875", "block": "test1", "trialIndex": 20, "score": 38.25, "costs": -0.75, "simulationMode": [null, null, null], "rewards": [2, 8, 24], "path": ["0", "0", "1", "2", "3"], "rt": [3288, 69, 50], "actions": ["up", "up", "right"], "actionTimes": [4529, 5110, 5655], "queries": {"click": {"state": {"target": ["1", "2", "3"], "time": [2226, 3105, 3550]}, "edge": {"target": [], "time": []}}, "mouseover": {"state": {"target": ["1", "2", "3"], "time": [1687, 2829, 3427]}, "edge": {"target": [], "time": []}}, "mouseout": {"state": {"target": ["1", "1", "2", "3", "3"], "time": [824, 2532, 3362, 3873, 6654]}, "edge": {"target": [], "time": []}}}, "displayed_time": "9.24", "trialTime": 10035, "trial_type": "mouselab-mdp", "trial_index": 39, "time_elapsed": 1461799, "internal_node_id": "0.0-4.0-1.0-12.0"}}, {"uniqueid": "w11269814:a17233909", "current_trial": 40, "dateTime": 1664465536032, "trialdata": {"revealed_states": [], "num_clicks_accrued": [0, 0, 0, 0, 0, 0, 0, 0, 0, 0, 0, 0, 0], "stateRewards": ["", -4, 8, 24, -48, -4, -8, -24, 24, 2, -4, -48, 24], "withholdReward": false, "trial_id": "mdp_898449441629", "block": "test1", "trialIndex": 21, "score": 26.25, "costs": -0.75, "simulationMode": [null, null, null], "rewards": [2, -4, 24], "path": ["0", "0", "9", "10", "12"], "rt": [3660, 69, 345], "actions": ["left", "left", "down"], "actionTimes": [4571, 5152, 5989], "queries": {"click": {"state": {"target": ["9", "10", "12"], "time": [1510, 2024, 3720]}, "edge": {"target": [], "time": []}}, "mouseover": {"state": {"target": ["9", "10", "12", "0", "6", "5", "0", "12"], "time": [1366, 1838, 2353, 2731, 2955, 3114, 3307, 3603]}, "edge": {"target": [], "time": []}}, "mouseout": {"state": {"target": ["0", "9", "10", "12", "0", "6", "5", "0", "9", "12", "9", "12"], "time": [1356, 1803, 2282, 2721, 2750, 2981, 3255, 3315, 3416, 4020, 13600, 13863]}, "edge": {"target": [], "time": []}}}, "displayed_time": "8.92", "trialTime": 14370, "trial_type": "mouselab-mdp", "trial_index": 40, "time_elapsed": 1476255, "internal_node_id": "0.0-4.0-1.0-13.0"}}, {"uniqueid": "w11269814:a17233909", "current_trial": 41, "dateTime": 1664465547660, "trialdata": {"revealed_states": [], "num_clicks_accrued": [0, 0, 0, 0, 0, 0, 0, 0, 0, 0, 0, 0, 0], "stateRewards": ["", -2, -4, 48, -24, -4, -4, -24, -24, -2, 4, -48, -24], "withholdReward": false, "trial_id": "mdp_410467837196", "block": "test1", "trialIndex": 22, "score": 45, "costs": -2, "simulationMode": [null, null, null], "rewards": [-2, -4, 48], "path": ["0", "0", "1", "2", "3"], "rt": [7390, 439, 81], "actions": ["up", "up", "right"], "actionTimes": [8406, 9348, 9934], "queries": {"click": {"state": {"target": ["5", "6", "7", "1", "9", "12", "11", "3"], "time": [1671, 2244, 2761, 3785, 4712, 5266, 6219, 7099]}, "edge": {"target": [], "time": []}}, "mouseover": {"state": {"target": ["5", "6", "7", "1", "2", "9", "9", "12", "10", "11", "2", "3", "2"], "time": [1518, 2051, 2639, 3631, 4085, 4385, 4565, 4986, 5604, 5701, 6578, 6834, 7645]}, "edge": {"target": [], "time": []}}, "mouseout": {"state": {"target": ["0", "5", "6", "7", "5", "1", "2", "9", "9", "12", "10", "11", "2", "3", "2", "1", "0"], "time": [1447, 1970, 2522, 3239, 3282, 4013, 4319, 4450, 4941, 5557, 5647, 6499, 6751, 7532, 11074, 11103, 11215]}, "edge": {"target": [], "time": []}}}, "displayed_time": "10.46", "trialTime": 11542, "trial_type": "mouselab-mdp", "trial_index": 41, "time_elapsed": 1487883, "internal_node_id": "0.0-4.0-1.0-14.0"}}, {"uniqueid": "w11269814:a17233909", "current_trial": 42, "dateTime": 1664465559941, "trialdata": {"revealed_states": [], "num_clicks_accrued": [0, 0, 0, 0, 0, 0, 0, 0, 0, 0, 0, 0, 0], "stateRewards": ["", 2, 4, -48, -24, -4, 4, -24, 24, -2, -8, -24, 24], "withholdReward": true, "trial_id": "mdp_640720803523", "block": "test1", "trialIndex": 23, "score": 27.25, "costs": -1.75, "simulationMode": [null, null, null], "rewards": [-4, 4, 24], "path": ["0", "0", "5", "6", "8"], "rt": [5875, 129, 4], "actions": ["right", "right", "down"], "actionTimes": [8015, 8651, 9176], "queries": {"click": {"state": {"target": ["1", "2", "3", "4", "6", "7", "8"], "time": [2861, 3558, 3948, 4784, 5705, 6257, 7093]}, "edge": {"target": [], "time": []}}, "mouseover": {"state": {"target": ["1", "2", "3", "4", "5", "6", "7", "8", "9", "9", "0"], "time": [2601, 3287, 3805, 4648, 5297, 5528, 5999, 6865, 7430, 7582, 7613]}, "edge": {"target": [], "time": []}}, "mouseout": {"state": {"target": ["0", "1", "2", "3", "2", "4", "1", "5", "6", "7", "6", "8", "9", "9", "0"], "time": [2534, 3159, 3772, 4423, 4475, 5126, 5191, 5443, 5960, 6580, 6695, 7379, 7481, 7612, 7631]}, "edge": {"target": [], "time": []}}}, "displayed_time": "11.14", "trialTime": 12196, "trial_type": "mouselab-mdp", "trial_index": 42, "time_elapsed": 1500164, "internal_node_id": "0.0-4.0-1.0-15.0"}}, {"uniqueid": "w11269814:a17233909", "current_trial": 43, "dateTime": 1664465569991, "trialdata": {"revealed_states": [], "num_clicks_accrued": [0, 0, 0, 0, 0, 0, 0, 0, 0, 0, 0, 0, 0], "stateRewards": ["", 4, 8, 48, 48, 4, 4, -24, -48, 4, 8, -48, -48], "withholdReward": true, "trial_id": "mdp_984548726931", "block": "test1", "trialIndex": 24, "score": 64.25, "costs": -0.75, "simulationMode": [null, null, null], "rewards": [4, 8, 48], "path": ["0", "0", "1", "2", "4"], "rt": [3373, 435, 86], "actions": ["up", "up", "left"], "actionTimes": [4367, 5315, 5911], "queries": {"click": {"state": {"target": ["5", "7", "4"], "time": [1547, 2168, 3214]}, "edge": {"target": [], "time": []}}, "mouseover": {"state": {"target": ["5", "7", "6", "1", "2", "4"], "time": [1339, 1950, 2517, 2787, 2817, 3038]}, "edge": {"target": [], "time": []}}, "mouseout": {"state": {"target": ["0", "5", "7", "6", "5", "1", "2", "4"], "time": [1330, 1840, 2500, 2603, 2770, 2809, 2834, 3536]}, "edge": {"target": [], "time": []}}}, "displayed_time": "9.00", "trialTime": 9971, "trial_type": "mouselab-mdp", "trial_index": 43, "time_elapsed": 1510213, "internal_node_id": "0.0-4.0-1.0-16.0"}}, {"uniqueid": "w11269814:a17233909", "current_trial": 44, "dateTime": 1664465582020, "trialdata": {"revealed_states": [], "num_clicks_accrued": [0, 0, 0, 0, 0, 0, 0, 0, 0, 0, 0, 0, 0], "stateRewards": ["", 4, 4, 24, 24, 4, -4, 48, 48, 4, 4, 24, -48], "withholdReward": true, "trial_id": "mdp_454251689008", "block": "test1", "trialIndex": 25, "score": 36.75, "costs": -0.25, "simulationMode": [null, null, null], "rewards": [4, 4, 24], "path": ["0", "0", "1", "2", "4"], "rt": [2649, 100, 69], "actions": ["up", "up", "left"], "actionTimes": [4432, 5048, 5614], "queries": {"click": {"state": {"target": ["4"], "time": [2792]}, "edge": {"target": [], "time": []}}, "mouseover": {"state": {"target": ["1", "4", "4", "2", "3", "3"], "time": [1978, 2129, 2663, 3134, 3162, 3879]}, "edge": {"target": [], "time": []}}, "mouseout": {"state": {"target": ["1", "1", "4", "4", "2", "3", "3", "2", "9"], "time": [1512, 2011, 2162, 3126, 3160, 3182, 3905, 6742, 6877]}, "edge": {"target": [], "time": []}}}, "displayed_time": "10.79", "trialTime": 11950, "trial_type": "mouselab-mdp", "trial_index": 44, "time_elapsed": 1522243, "internal_node_id": "0.0-4.0-1.0-17.0"}}, {"uniqueid": "w11269814:a17233909", "current_trial": 45, "dateTime": 1664465593248, "trialdata": {"revealed_states": [], "num_clicks_accrued": [0, 0, 0, 0, 0, 0, 0, 0, 0, 0, 0, 0, 0], "stateRewards": ["", 2, -4, -48, -48, -2, -4, -24, -48, -2, 8, 24, 24], "withholdReward": false, "trial_id": "mdp_656069446729", "block": "test1", "trialIndex": 26, "score": 33.75, "costs": -1.25, "simulationMode": [null, null, null], "rewards": [-2, 8, 24], "path": ["0", "0", "9", "10", "11"], "rt": [4509, 121, 47], "actions": ["left", "left", "up"], "actionTimes": [5478, 6111, 6651], "queries": {"click": {"state": {"target": ["5", "7", "4", "3", "11"], "time": [1676, 2402, 3158, 3868, 4538]}, "edge": {"target": [], "time": []}}, "mouseover": {"state": {"target": ["5", "7", "2", "4", "2", "3", "11"], "time": [1529, 2159, 2773, 2958, 3511, 3696, 4244]}, "edge": {"target": [], "time": []}}, "mouseout": {"state": {"target": ["0", "5", "7", "2", "4", "2", "3", "11"], "time": [1324, 2124, 2722, 2927, 3491, 3614, 4166, 4935]}, "edge": {"target": [], "time": []}}}, "displayed_time": "9.97", "trialTime": 11152, "trial_type": "mouselab-mdp", "trial_index": 45, "time_elapsed": 1533470, "internal_node_id": "0.0-4.0-1.0-18.0"}}, {"uniqueid": "w11269814:a17233909", "current_trial": 46, "dateTime": 1664465607718, "trialdata": {"revealed_states": [], "num_clicks_accrued": [0, 0, 0, 0, 0, 0, 0, 0, 0, 0, 0, 0, 0], "stateRewards": ["", -4, -4, -24, 24, -4, 4, -24, 48, -2, 4, 48, -48], "withholdReward": true, "trial_id": "mdp_774757609669", "block": "test1", "trialIndex": 27, "score": 54.75, "costs": -0.25, "simulationMode": [null, null, null], "rewards": [-2, 4, 48], "path": ["0", "0", "9", "10", "11"], "rt": [1502, 78, 123], "actions": ["left", "left", "up"], "actionTimes": [2453, 3040, 3667], "queries": {"click": {"state": {"target": ["11"], "time": [1505]}, "edge": {"target": [], "time": []}}, "mouseover": {"state": {"target": ["9", "11", "9"], "time": [1179, 1370, 2082]}, "edge": {"target": [], "time": []}}, "mouseout": {"state": {"target": ["0", "9", "11", "9"], "time": [1155, 1188, 1926, 4558]}, "edge": {"target": [], "time": []}}}, "displayed_time": "9.95", "trialTime": 14392, "trial_type": "mouselab-mdp", "trial_index": 46, "time_elapsed": 1547941, "internal_node_id": "0.0-4.0-1.0-19.0"}}, {"uniqueid": "w11269814:a17233909", "current_trial": 47, "dateTime": 1664465617287, "trialdata": {"revealed_states": [], "num_clicks_accrued": [0, 0, 0, 0, 0, 0, 0, 0, 0, 0, 0, 0, 0], "stateRewards": ["", -4, -8, -24, 24, 2, 8, 24, 48, 2, 4, 24, -48], "withholdReward": true, "trial_id": "mdp_122352383932", "block": "test1", "trialIndex": 28, "score": 16.5, "costs": -0.5, "simulationMode": [null, null, null], "rewards": [-4, -8, 24], "path": ["0", "0", "1", "2", "4"], "rt": [2709, 50, 411], "actions": ["up", "up", "left"], "actionTimes": [3903, 4464, 5402], "queries": {"click": {"state": {"target": ["1", "4"], "time": [2330, 3104]}, "edge": {"target": [], "time": []}}, "mouseover": {"state": {"target": ["1", "4", "2", "3"], "time": [1983, 2807, 3462, 3499]}, "edge": {"target": [], "time": []}}, "mouseout": {"state": {"target": ["0", "1", "4", "2"], "time": [1919, 2703, 3453, 3481]}, "edge": {"target": [], "time": []}}}, "displayed_time": "9.20", "trialTime": 9483, "trial_type": "mouselab-mdp", "trial_index": 47, "time_elapsed": 1557510, "internal_node_id": "0.0-4.0-1.0-20.0"}}, {"uniqueid": "w11269814:a17233909", "current_trial": 48, "dateTime": 1664465631025, "trialdata": {"revealed_states": [], "num_clicks_accrued": [0, 0, 0, 0, 0, 0, 0, 0, 0, 0, 0, 0, 0], "stateRewards": ["", -4, -8, -24, -48, -2, -8, 24, -48, -4, -8, 24, -48], "withholdReward": true, "trial_id": "mdp_621812384092", "block": "test1", "trialIndex": 29, "score": 18.5, "costs": -0.5, "simulationMode": [null, null, null], "rewards": [-2, -8, 24], "path": ["0", "0", "5", "6", "7"], "rt": [2996, 34, 50], "actions": ["right", "right", "up"], "actionTimes": [4181, 4721, 5302], "queries": {"click": {"state": {"target": ["4", "7"], "time": [2371, 3256]}, "edge": {"target": [], "time": []}}, "mouseover": {"state": {"target": ["1", "4", "7"], "time": [1618, 2085, 2917]}, "edge": {"target": [], "time": []}}, "mouseout": {"state": {"target": ["3", "1", "1", "4"], "time": [577, 815, 1880, 2850]}, "edge": {"target": [], "time": []}}}, "displayed_time": "10.20", "trialTime": 13648, "trial_type": "mouselab-mdp", "trial_index": 48, "time_elapsed": 1571248, "internal_node_id": "0.0-4.0-1.0-21.0"}}, {"uniqueid": "w11269814:a17233909", "current_trial": 49, "dateTime": 1664465641144, "trialdata": {"revealed_states": [], "num_clicks_accrued": [0, 0, 0, 0, 0, 0, 0, 0, 0, 0, 0, 0, 0], "stateRewards": ["", -2, 8, 48, -24, 2, 4, -48, -24, -4, 8, -48, -48], "withholdReward": false, "trial_id": "mdp_539167561933", "block": "test1", "trialIndex": 30, "score": 58.75, "costs": -0.25, "simulationMode": [null, null, null], "rewards": [-2, 8, 48], "path": ["0", "0", "1", "2", "3"], "rt": [2418, 337, 712], "actions": ["up", "up", "right"], "actionTimes": [4654, 5496, 6718], "queries": {"click": {"state": {"target": ["3"], "time": [3263]}, "edge": {"target": [], "time": []}}, "mouseover": {"state": {"target": ["2", "3"], "time": [3005, 3048]}, "edge": {"target": [], "time": []}}, "mouseout": {"state": {"target": ["7", "0", "2", "3", "3"], "time": [1419, 2705, 3022, 3736, 3870]}, "edge": {"target": [], "time": []}}}, "displayed_time": "9.24", "trialTime": 10031, "trial_type": "mouselab-mdp", "trial_index": 49, "time_elapsed": 1581367, "internal_node_id": "0.0-4.0-1.0-22.0"}}, {"uniqueid": "w11269814:a17233909", "current_trial": 50, "dateTime": 1664465652056, "trialdata": {"revealed_states": [], "num_clicks_accrued": [0, 0, 0, 0, 0, 0, 0, 0, 0, 0, 0, 0, 0], "stateRewards": ["", 2, -4, -24, -48, -2, 8, -24, 48, -2, 8, 24, -48], "withholdReward": false, "trial_id": "mdp_566582551557", "block": "test1", "trialIndex": 31, "score": 58.25, "costs": -0.75, "simulationMode": [null, null, null], "rewards": [-2, 8, 48], "path": ["0", "0", "5", "6", "8"], "rt": [4466, 158, 54], "actions": ["right", "right", "down"], "actionTimes": [5921, 6586, 7147], "queries": {"click": {"state": {"target": ["3", "7", "8"], "time": [2236, 3388, 4392]}, "edge": {"target": [], "time": []}}, "mouseover": {"state": {"target": ["3", "3", "7", "7", "6", "8", "12"], "time": [1798, 1995, 2850, 3184, 3900, 3936, 4865]}, "edge": {"target": [], "time": []}}, "mouseout": {"state": {"target": ["2", "1", "0", "3", "3", "7", "7", "6", "8", "12"], "time": [855, 1081, 1749, 1879, 2603, 2915, 3891, 3919, 4750, 4900]}, "edge": {"target": [], "time": []}}}, "displayed_time": "9.47", "trialTime": 10821, "trial_type": "mouselab-mdp", "trial_index": 50, "time_elapsed": 1592278, "internal_node_id": "0.0-4.0-1.0-23.0"}}, {"uniqueid": "w11269814:a17233909", "current_trial": 51, "dateTime": 1664465669743, "trialdata": {"revealed_states": [], "num_clicks_accrued": [0, 0, 0, 0, 0, 0, 0, 0, 0, 0, 0, 0, 0], "stateRewards": ["", -2, 4, 24, 48, 2, 4, -48, -48, 2, 8, 48, -48], "withholdReward": true, "trial_id": "mdp_409609775558", "block": "test1", "trialIndex": 32, "score": 54.75, "costs": -0.25, "simulationMode": [null, null, null], "rewards": [-2, 4, 48], "path": ["0", "0", "1", "2", "4"], "rt": [1753, 248, 322], "actions": ["up", "up", "left"], "actionTimes": [4541, 5295, 6135], "queries": {"click": {"state": {"target": ["4"], "time": [3607]}, "edge": {"target": [], "time": []}}, "mouseover": {"state": {"target": ["1", "4"], "time": [3207, 3361]}, "edge": {"target": [], "time": []}}, "mouseout": {"state": {"target": ["9", "0", "1", "4", "9"], "time": [1523, 3166, 3240, 16156, 16272]}, "edge": {"target": [], "time": []}}}, "displayed_time": "11.79", "trialTime": 17608, "trial_type": "mouselab-mdp", "trial_index": 51, "time_elapsed": 1609965, "internal_node_id": "0.0-4.0-1.0-24.0"}}, {"uniqueid": "w11269814:a17233909", "current_trial": 52, "dateTime": 1664465685527, "trialdata": {"revealed_states": [], "num_clicks_accrued": [0, 0, 0, 0, 0, 0, 0, 0, 0, 0, 0, 0, 0], "stateRewards": ["", -2, -8, 48, 24, 2, 4, 24, -24, -2, -4, 48, -48], "withholdReward": true, "trial_id": "mdp_411152402386", "block": "test1", "trialIndex": 33, "score": 18.75, "costs": -0.25, "simulationMode": [null, null, null], "rewards": [-2, -8, 24], "path": ["0", "0", "1", "2", "4"], "rt": [1962, 99, 55], "actions": ["up", "up", "left"], "actionTimes": [7663, 8263, 8824], "queries": {"click": {"state": {"target": ["4"], "time": [6650]}, "edge": {"target": [], "time": []}}, "mouseover": {"state": {"target": ["1", "2", "4", "3"], "time": [6185, 6270, 6425, 7070]}, "edge": {"target": [], "time": []}}, "mouseout": {"state": {"target": ["0", "0", "1", "2", "4", "3", "0", "0", "1", "5", "0", "9"], "time": [5298, 5501, 6235, 6383, 7040, 7079, 10134, 13912, 13963, 14380, 14974, 15219]}, "edge": {"target": [], "time": []}}}, "displayed_time": "14.70", "trialTime": 15693, "trial_type": "mouselab-mdp", "trial_index": 52, "time_elapsed": 1625750, "internal_node_id": "0.0-4.0-1.0-25.0"}}, {"uniqueid": "w11269814:a17233909", "current_trial": 53, "dateTime": 1664465697389, "trialdata": {"revealed_states": [], "num_clicks_accrued": [0, 0, 0, 0, 0, 0, 0, 0, 0, 0, 0, 0, 0], "stateRewards": ["", 2, 4, 48, 48, -2, 4, 48, -24, -4, 8, -48, 48], "withholdReward": true, "trial_id": "mdp_407586865939", "block": "test1", "trialIndex": 34, "score": 54.75, "costs": -0.25, "simulationMode": [null, null, null], "rewards": [-2, 4, 48], "path": ["0", "0", "5", "6", "7"], "rt": [1749, 140, 167], "actions": ["right", "right", "up"], "actionTimes": [2887, 3538, 4215], "queries": {"click": {"state": {"target": ["7"], "time": [2159]}, "edge": {"target": [], "time": []}}, "mouseover": {"state": {"target": ["5", "7"], "time": [1544, 1860]}, "edge": {"target": [], "time": []}}, "mouseout": {"state": {"target": ["0", "5", "7"], "time": [1460, 1595, 5262]}, "edge": {"target": [], "time": []}}}, "displayed_time": "9.15", "trialTime": 11772, "trial_type": "mouselab-mdp", "trial_index": 53, "time_elapsed": 1637611, "internal_node_id": "0.0-4.0-1.0-26.0"}}, {"uniqueid": "w11269814:a17233909", "current_trial": 54, "dateTime": 1664465711810, "trialdata": {"revealed_states": [], "num_clicks_accrued": [0, 0, 0, 0, 0, 0, 0, 0, 0, 0, 0, 0, 0], "stateRewards": ["", -2, 4, -48, -48, 4, 4, 48, -48, 2, 8, 24, 48], "withholdReward": false, "trial_id": "mdp_686771069745", "block": "test1", "trialIndex": 35, "score": 38.5, "costs": -0.5, "simulationMode": [null, null, null], "rewards": [2, 8, 24], "path": ["0", "0", "9", "10", "11"], "rt": [3878, 108, 93], "actions": ["left", "left", "up"], "actionTimes": [9887, 10514, 11101], "queries": {"click": {"state": {"target": ["4", "11"], "time": [7860, 8816]}, "edge": {"target": [], "time": []}}, "mouseover": {"state": {"target": ["1", "2", "4", "11", "1"], "time": [7131, 7334, 7524, 8618, 9284]}, "edge": {"target": [], "time": []}}, "mouseout": {"state": {"target": ["0", "0", "1", "2", "4", "11"], "time": [5557, 5782, 7288, 7489, 8357, 9215]}, "edge": {"target": [], "time": []}}}, "displayed_time": "14.02", "trialTime": 14333, "trial_type": "mouselab-mdp", "trial_index": 54, "time_elapsed": 1652033, "internal_node_id": "0.0-4.0-1.0-27.0"}}, {"uniqueid": "w11269814:a17233909", "current_trial": 55, "dateTime": 1664465722782, "trialdata": {"revealed_states": [], "num_clicks_accrued": [0, 0, 0, 0, 0, 0, 0, 0, 0, 0, 0, 0, 0], "stateRewards": ["", 4, 4, 24, -48, 2, -8, -24, -48, 4, 8, 48, 48], "withholdReward": true, "trial_id": "mdp_592471239511", "block": "test1", "trialIndex": 36, "score": 64.5, "costs": -0.5, "simulationMode": [null, null, null], "rewards": [4, 8, 48], "path": ["0", "0", "9", "10", "11"], "rt": [3819, 47, 31], "actions": ["left", "left", "up"], "actionTimes": [5196, 5748, 6299], "queries": {"click": {"state": {"target": ["4", "11"], "time": [3294, 4068]}, "edge": {"target": [], "time": []}}, "mouseover": {"state": {"target": ["4", "11", "10", "12"], "time": [3196, 3874, 4375, 4526]}, "edge": {"target": [], "time": []}}, "mouseout": {"state": {"target": ["1", "0", "0", "4", "11", "10", "12"], "time": [725, 820, 1723, 3631, 4362, 4423, 7405]}, "edge": {"target": [], "time": []}}}, "displayed_time": "10.38", "trialTime": 10880, "trial_type": "mouselab-mdp", "trial_index": 55, "time_elapsed": 1663004, "internal_node_id": "0.0-4.0-1.0-28.0"}}, {"uniqueid": "w11269814:a17233909", "current_trial": 56, "dateTime": 1664465733030, "trialdata": {"revealed_states": [], "num_clicks_accrued": [0, 0, 0, 0, 0, 0, 0, 0, 0, 0, 0, 0, 0], "stateRewards": ["", -2, -4, -24, -48, 2, -8, -24, -24, 4, -8, 48, 48], "withholdReward": false, "trial_id": "mdp_950599994674", "block": "test1", "trialIndex": 37, "score": 48, "costs": -1, "simulationMode": [null, null, null], "rewards": [4, -8, 48], "path": ["0", "0", "9", "10", "12"], "rt": [4044, 24, 74], "actions": ["left", "left", "down"], "actionTimes": [4893, 5430, 6011], "queries": {"click": {"state": {"target": ["4", "7", "8", "12"], "time": [1423, 2196, 2958, 3719]}, "edge": {"target": [], "time": []}}, "mouseover": {"state": {"target": ["4", "2", "3", "7", "6", "8", "8", "12", "10", "11"], "time": [1210, 1667, 1710, 2065, 2485, 2529, 2783, 3593, 4012, 4102]}, "edge": {"target": [], "time": []}}, "mouseout": {"state": {"target": ["0", "4", "2", "3", "7", "6", "8", "8", "12", "10", "11", "0"], "time": [634, 1645, 1700, 1852, 2451, 2512, 2649, 3219, 4004, 4069, 7027, 8664]}, "edge": {"target": [], "time": []}}}, "displayed_time": "8.85", "trialTime": 10165, "trial_type": "mouselab-mdp", "trial_index": 56, "time_elapsed": 1673253, "internal_node_id": "0.0-4.0-1.0-29.0"}}, {"uniqueid": "w11269814:a17233909", "current_trial": 57, "dateTime": 1664465744530, "trialdata": {"rt": 11493, "stimulus": "<h1> End of block! </h1>\n\nYou have reached the end of the block 1/4. If you need a short break, feel free to take one now before moving on.\n\n<br><br>\nIn the next block, you will complete another 30 rounds of this game.\n\n<br><br>\n<div style='text-align: center;'>Press <code>space</code> to begin.</div>\n<br><br>\n<div style='text-align: center;'>(If the experiment doesn't continue, try clicking on the text and then pressing <code>space</code>.)</div>", "response": " ", "trial_id": "mdp_ready_2", "trial_type": "html-keyboard-response", "trial_index": 57, "time_elapsed": 1684753, "internal_node_id": "0.0-4.0-2.0"}}, {"uniqueid": "w11269814:a17233909", "current_trial": 58, "dateTime": 1664465755720, "trialdata": {"revealed_states": [], "num_clicks_accrued": [0, 0, 0, 0, 0, 0, 0, 0, 0, 0, 0, 0, 0], "stateRewards": ["", 4, -4, 48, -48, 4, -4, 24, -24, 4, 8, -24, -48], "withholdReward": true, "trial_id": "mdp_433630527224", "block": "test2", "trialIndex": 38, "score": 51.5, "costs": -1.5, "simulationMode": [null, null, null], "rewards": [4, -4, 48], "path": ["0", "0", "1", "2", "3"], "rt": [4902, 95, 7], "actions": ["up", "up", "right"], "actionTimes": [6315, 6921, 7447], "queries": {"click": {"state": {"target": ["4", "7", "8", "12", "11", "3"], "time": [2044, 2837, 3543, 4205, 4693, 5385]}, "edge": {"target": [], "time": []}}, "mouseover": {"state": {"target": ["4", "4", "2", "3", "7", "6", "8", "12", "10", "11", "2", "3"], "time": [1862, 1966, 2440, 2454, 2777, 3169, 3237, 4037, 4436, 4606, 5052, 5302]}, "edge": {"target": [], "time": []}}, "mouseout": {"state": {"target": ["5", "4", "4", "2", "3", "7", "6", "8", "12", "10", "11", "2", "3", "6", "8"], "time": [948, 1918, 2419, 2452, 2505, 3144, 3204, 3807, 4428, 4508, 5020, 5077, 5693, 8635, 8701]}, "edge": {"target": [], "time": []}}}, "displayed_time": "10.41", "trialTime": 11106, "trial_type": "mouselab-mdp", "trial_index": 58, "time_elapsed": 1695943, "internal_node_id": "0.0-4.0-3.0-0.0"}}, {"uniqueid": "w11269814:a17233909", "current_trial": 59, "dateTime": 1664465768360, "trialdata": {"revealed_states": [], "num_clicks_accrued": [0, 0, 0, 0, 0, 0, 0, 0, 0, 0, 0, 0, 0], "stateRewards": ["", 4, 4, 24, 24, 4, -4, 48, 48, 4, 4, 24, -48], "withholdReward": false, "trial_id": "mdp_454251689008", "block": "test2", "trialIndex": 39, "score": 52.25, "costs": -0.75, "simulationMode": [null, null, null], "rewards": [4, -4, 48], "path": ["0", "0", "5", "6", "7"], "rt": [3686, 478, 86], "actions": ["right", "right", "up"], "actionTimes": [4615, 5587, 6193], "queries": {"click": {"state": {"target": ["3", "11", "7"], "time": [1593, 2655, 3631]}, "edge": {"target": [], "time": []}}, "mouseover": {"state": {"target": ["1", "3", "2", "4", "11", "11", "1", "7", "7", "6"], "time": [1120, 1426, 2007, 2043, 2278, 2499, 3078, 3192, 3495, 3948]}, "edge": {"target": [], "time": []}}, "mouseout": {"state": {"target": ["0", "1", "3", "2", "4", "11", "11", "1", "7", "7", "6", "5"], "time": [1084, 1156, 1984, 2025, 2258, 2313, 2975, 3126, 3242, 3925, 3957, 7160]}, "edge": {"target": [], "time": []}}}, "displayed_time": "9.94", "trialTime": 12553, "trial_type": "mouselab-mdp", "trial_index": 59, "time_elapsed": 1708582, "internal_node_id": "0.0-4.0-3.0-1.0"}}, {"uniqueid": "w11269814:a17233909", "current_trial": 60, "dateTime": 1664465777712, "trialdata": {"revealed_states": [], "num_clicks_accrued": [0, 0, 0, 0, 0, 0, 0, 0, 0, 0, 0, 0, 0], "stateRewards": ["", 2, -8, -48, 24, 4, 8, 48, -48, 2, -4, 24, 24], "withholdReward": true, "trial_id": "mdp_130475327289", "block": "test2", "trialIndex": 40, "score": 64.5, "costs": -0.5, "simulationMode": [null, null, null], "rewards": [4, 8, 48], "path": ["0", "0", "5", "6", "7"], "rt": [2166, 91, 68], "actions": ["right", "right", "up"], "actionTimes": [3173, 3774, 4346], "queries": {"click": {"state": {"target": ["4", "7"], "time": [1522, 2214]}, "edge": {"target": [], "time": []}}, "mouseover": {"state": {"target": ["4", "7", "7", "8"], "time": [1379, 1873, 2057, 2515]}, "edge": {"target": [], "time": []}}, "mouseout": {"state": {"target": ["0", "4", "7", "7", "8", "8"], "time": [591, 1794, 1911, 2472, 2780, 5277]}, "edge": {"target": [], "time": []}}}, "displayed_time": "9.01", "trialTime": 9263, "trial_type": "mouselab-mdp", "trial_index": 60, "time_elapsed": 1717935, "internal_node_id": "0.0-4.0-3.0-2.0"}}, {"uniqueid": "w11269814:a17233909", "current_trial": 61, "dateTime": 1664465805646, "trialdata": {"revealed_states": [], "num_clicks_accrued": [0, 0, 0, 0, 0, 0, 0, 0, 0, 0, 0, 0, 0], "stateRewards": ["", -4, 4, -24, -24, -4, -8, 24, 48, 4, -4, 24, 48], "withholdReward": false, "trial_id": "mdp_175395325183", "block": "test2", "trialIndex": 41, "score": 52, "costs": -1, "simulationMode": [null, null, null], "rewards": [4, -4, 48], "path": ["0", "0", "9", "10", "12"], "rt": [3551, 68, 41], "actions": ["left", "left", "down"], "actionTimes": [4727, 5298, 5845], "queries": {"click": {"state": {"target": ["7", "4", "3", "12"], "time": [1691, 2345, 2857, 3679]}, "edge": {"target": [], "time": []}}, "mouseover": {"state": {"target": ["7", "1", "4", "2", "3", "11", "10", "12"], "time": [1464, 2032, 2082, 2584, 2650, 3171, 3462, 3498]}, "edge": {"target": [], "time": []}}, "mouseout": {"state": {"target": ["0", "7", "1", "4", "2", "3", "11", "10", "12", "12"], "time": [1397, 1984, 2055, 2558, 2617, 3121, 3199, 3480, 3930, 8415]}, "edge": {"target": [], "time": []}}}, "displayed_time": "10.18", "trialTime": 27855, "trial_type": "mouselab-mdp", "trial_index": 61, "time_elapsed": 1745869, "internal_node_id": "0.0-4.0-3.0-3.0"}}, {"uniqueid": "w11269814:a17233909", "current_trial": 62, "dateTime": 1664465816162, "trialdata": {"revealed_states": [], "num_clicks_accrued": [0, 0, 0, 0, 0, 0, 0, 0, 0, 0, 0, 0, 0], "stateRewards": ["", 4, 4, -48, -24, -2, -4, 48, 24, -4, 4, 24, -48], "withholdReward": false, "trial_id": "mdp_617383046444", "block": "test2", "trialIndex": 42, "score": 46.25, "costs": -0.75, "simulationMode": [null, null, null], "rewards": [-2, -4, 48], "path": ["0", "0", "5", "6", "7"], "rt": [2804, 22, 63], "actions": ["right", "right", "up"], "actionTimes": [3774, 4305, 4877], "queries": {"click": {"state": {"target": ["4", "3", "7"], "time": [1597, 2161, 2720]}, "edge": {"target": [], "time": []}}, "mouseover": {"state": {"target": ["4", "4", "2", "3", "7", "6", "8", "6"], "time": [1193, 1507, 1820, 1877, 2385, 2903, 2976, 3372]}, "edge": {"target": [], "time": []}}, "mouseout": {"state": {"target": ["0", "0", "4", "4", "2", "3", "7", "6", "8"], "time": [763, 1121, 1203, 1792, 1837, 2356, 2894, 2922, 3252]}, "edge": {"target": [], "time": []}}}, "displayed_time": "9.98", "trialTime": 10426, "trial_type": "mouselab-mdp", "trial_index": 62, "time_elapsed": 1756385, "internal_node_id": "0.0-4.0-3.0-4.0"}}, {"uniqueid": "w11269814:a17233909", "current_trial": 63, "dateTime": 1664465826274, "trialdata": {"revealed_states": [], "num_clicks_accrued": [0, 0, 0, 0, 0, 0, 0, 0, 0, 0, 0, 0, 0], "stateRewards": ["", 2, 8, -48, 24, -2, 4, 48, 48, -2, -8, 48, 24], "withholdReward": true, "trial_id": "mdp_157355418411", "block": "test2", "trialIndex": 43, "score": 54.5, "costs": -0.5, "simulationMode": [null, null, null], "rewards": [-2, 4, 48], "path": ["0", "0", "5", "6", "7"], "rt": [2172, 89, 78], "actions": ["right", "right", "up"], "actionTimes": [3420, 4037, 4623], "queries": {"click": {"state": {"target": ["4", "7"], "time": [1906, 2546]}, "edge": {"target": [], "time": []}}, "mouseover": {"state": {"target": ["1", "4", "2", "7", "6", "8"], "time": [1527, 1714, 2139, 2355, 2824, 2931]}, "edge": {"target": [], "time": []}}, "mouseout": {"state": {"target": ["6", "5", "0", "1", "4", "2", "7", "6", "8"], "time": [731, 762, 1481, 1564, 2122, 2173, 2811, 2845, 5596]}, "edge": {"target": [], "time": []}}}, "displayed_time": "9.26", "trialTime": 10035, "trial_type": "mouselab-mdp", "trial_index": 63, "time_elapsed": 1766497, "internal_node_id": "0.0-4.0-3.0-5.0"}}, {"uniqueid": "w11269814:a17233909", "current_trial": 64, "dateTime": 1664465839536, "trialdata": {"revealed_states": [], "num_clicks_accrued": [0, 0, 0, 0, 0, 0, 0, 0, 0, 0, 0, 0, 0], "stateRewards": ["", 2, -4, 24, 48, -2, 4, -48, -48, -4, 4, 24, -24], "withholdReward": true, "trial_id": "mdp_900363662757", "block": "test2", "trialIndex": 44, "score": 49.75, "costs": -1.25, "simulationMode": [null, null, null], "rewards": [2, -4, 48], "path": ["0", "0", "1", "2", "4"], "rt": [8757, 436, 110], "actions": ["up", "up", "left"], "actionTimes": [10311, 11257, 11878], "queries": {"click": {"state": {"target": ["7", "8", "12", "11", "4"], "time": [5900, 6619, 7239, 7735, 8410]}, "edge": {"target": [], "time": []}}, "mouseover": {"state": {"target": ["7", "7", "6", "8", "12", "10", "11", "4", "4", "2", "3"], "time": [5667, 5844, 6278, 6297, 6958, 7484, 7513, 8056, 8331, 8664, 8763]}, "edge": {"target": [], "time": []}}, "mouseout": {"state": {"target": ["0", "7", "7", "6", "8", "12", "10", "11", "4", "4", "2"], "time": [1250, 5790, 6255, 6296, 6897, 7483, 7493, 8006, 8196, 8628, 8673]}, "edge": {"target": [], "time": []}}}, "displayed_time": "12.38", "trialTime": 13165, "trial_type": "mouselab-mdp", "trial_index": 64, "time_elapsed": 1779759, "internal_node_id": "0.0-4.0-3.0-6.0"}}, {"uniqueid": "w11269814:a17233909", "current_trial": 65, "dateTime": 1664465849585, "trialdata": {"revealed_states": [], "num_clicks_accrued": [0, 0, 0, 0, 0, 0, 0, 0, 0, 0, 0, 0, 0], "stateRewards": ["", 2, -8, 48, -24, 2, 8, 24, -24, 4, -4, -48, -48], "withholdReward": true, "trial_id": "mdp_130946197263", "block": "test2", "trialIndex": 45, "score": 45.75, "costs": -1.25, "simulationMode": [null, null, null], "rewards": [2, -8, 48], "path": ["0", "0", "1", "2", "3"], "rt": [5082, 85, 64], "actions": ["up", "up", "right"], "actionTimes": [6260, 6841, 7402], "queries": {"click": {"state": {"target": ["4", "7", "8", "11", "3"], "time": [1699, 2394, 3072, 4125, 5382]}, "edge": {"target": [], "time": []}}, "mouseover": {"state": {"target": ["1", "4", "2", "3", "7", "6", "8", "9", "11", "11", "2", "3", "1"], "time": [1402, 1510, 1937, 2019, 2237, 2634, 2862, 3349, 3657, 3840, 4587, 5234, 5691]}, "edge": {"target": [], "time": []}}, "mouseout": {"state": {"target": ["3", "0", "1", "4", "2", "3", "7", "6", "8", "9", "11", "11", "2", "3", "1"], "time": [731, 1377, 1469, 1906, 1969, 2204, 2618, 2651, 3288, 3373, 3683, 4523, 4723, 5682, 5733]}, "edge": {"target": [], "time": []}}}, "displayed_time": "9.18", "trialTime": 9963, "trial_type": "mouselab-mdp", "trial_index": 65, "time_elapsed": 1789808, "internal_node_id": "0.0-4.0-3.0-7.0"}}, {"uniqueid": "w11269814:a17233909", "current_trial": 66, "dateTime": 1664465859038, "trialdata": {"revealed_states": [], "num_clicks_accrued": [0, 0, 0, 0, 0, 0, 0, 0, 0, 0, 0, 0, 0], "stateRewards": ["", -4, 8, 24, 24, -2, 8, -48, 48, 4, -8, 48, -48], "withholdReward": true, "trial_id": "mdp_295249220524", "block": "test2", "trialIndex": 46, "score": 58.25, "costs": -0.75, "simulationMode": [null, null, null], "rewards": [-2, 8, 48], "path": ["0", "0", "5", "6", "8"], "rt": [3451, 116, 152], "actions": ["right", "right", "down"], "actionTimes": [4458, 5080, 5752], "queries": {"click": {"state": {"target": ["4", "7", "8"], "time": [1473, 2560, 3405]}, "edge": {"target": [], "time": []}}, "mouseover": {"state": {"target": ["4", "2", "3", "3", "7", "8"], "time": [1304, 1883, 1943, 2183, 2332, 3106]}, "edge": {"target": [], "time": []}}, "mouseout": {"state": {"target": ["0", "4", "2", "3", "3", "7", "8"], "time": [1187, 1881, 1908, 2034, 2289, 2946, 3760]}, "edge": {"target": [], "time": []}}}, "displayed_time": "9.02", "trialTime": 9360, "trial_type": "mouselab-mdp", "trial_index": 66, "time_elapsed": 1799260, "internal_node_id": "0.0-4.0-3.0-8.0"}}, {"uniqueid": "w11269814:a17233909", "current_trial": 67, "dateTime": 1664465869130, "trialdata": {"revealed_states": [], "num_clicks_accrued": [0, 0, 0, 0, 0, 0, 0, 0, 0, 0, 0, 0, 0], "stateRewards": ["", -2, -4, -24, 48, -4, 8, 48, 48, 2, 8, -48, -24], "withholdReward": true, "trial_id": "mdp_136376573354", "block": "test2", "trialIndex": 47, "score": 56, "costs": -1, "simulationMode": [null, null, null], "rewards": [-4, 8, 48], "path": ["0", "0", "5", "6", "7"], "rt": [4575, 80, 83], "actions": ["right", "right", "up"], "actionTimes": [5422, 6014, 6594], "queries": {"click": {"state": {"target": ["12", "3", "11", "7"], "time": [1916, 2785, 3552, 4537]}, "edge": {"target": [], "time": []}}, "mouseover": {"state": {"target": ["12", "9", "3", "11", "11", "1", "7", "6"], "time": [1782, 2192, 2642, 3191, 3414, 3862, 4279, 4816]}, "edge": {"target": [], "time": []}}, "mouseout": {"state": {"target": ["0", "12", "9", "3", "11", "11", "1", "7", "6", "8"], "time": [1091, 2172, 2211, 3160, 3276, 3831, 3898, 4815, 4826, 7714]}, "edge": {"target": [], "time": []}}}, "displayed_time": "9.85", "trialTime": 10043, "trial_type": "mouselab-mdp", "trial_index": 67, "time_elapsed": 1809353, "internal_node_id": "0.0-4.0-3.0-9.0"}}, {"uniqueid": "w11269814:a17233909", "current_trial": 68, "dateTime": 1664465883373, "trialdata": {"revealed_states": [], "num_clicks_accrued": [0, 0, 0, 0, 0, 0, 0, 0, 0, 0, 0, 0, 0], "stateRewards": ["", -4, 8, 24, -24, 4, 8, -24, -48, 2, 4, 24, -24], "withholdReward": false, "trial_id": "mdp_782187007008", "block": "test2", "trialIndex": 48, "score": 31.25, "costs": -1.75, "simulationMode": [null, null, null], "rewards": [-4, 8, 24], "path": ["0", "0", "1", "2", "3"], "rt": [10673, 267, 55], "actions": ["up", "up", "right"], "actionTimes": [11572, 12354, 12920], "queries": {"click": {"state": {"target": ["3", "7", "8", "11", "4", "12", "2"], "time": [1497, 2529, 3227, 4072, 5022, 5697, 10461]}, "edge": {"target": [], "time": []}}, "mouseover": {"state": {"target": ["3", "7", "6", "8", "9", "10", "11", "4", "4", "12", "9", "1", "6", "2", "1"], "time": [1355, 2254, 2927, 3144, 3562, 3574, 3884, 4381, 4826, 5419, 7191, 8660, 8929, 10170, 11011]}, "edge": {"target": [], "time": []}}, "mouseout": {"state": {"target": ["0", "3", "7", "6", "8", "9", "10", "11", "4", "4", "12", "9", "1", "6", "3", "2", "1", "0"], "time": [681, 1895, 2906, 2977, 3519, 3572, 3587, 4348, 4442, 5312, 7162, 7207, 8676, 9823, 10071, 10732, 13846, 13897]}, "edge": {"target": [], "time": []}}}, "displayed_time": "13.43", "trialTime": 14157, "trial_type": "mouselab-mdp", "trial_index": 68, "time_elapsed": 1823595, "internal_node_id": "0.0-4.0-3.0-10.0"}}, {"uniqueid": "w11269814:a17233909", "current_trial": 69, "dateTime": 1664465894825, "trialdata": {"revealed_states": [], "num_clicks_accrued": [0, 0, 0, 0, 0, 0, 0, 0, 0, 0, 0, 0, 0], "stateRewards": ["", -4, -8, 24, -48, 2, 4, -48, -48, 2, -8, 24, 48], "withholdReward": true, "trial_id": "mdp_111262146724", "block": "test2", "trialIndex": 49, "score": 45.5, "costs": -1.5, "simulationMode": [null, null, null], "rewards": [2, -8, 48], "path": ["0", "0", "9", "10", "12"], "rt": [5000, 52, 58], "actions": ["left", "left", "down"], "actionTimes": [6587, 7141, 7732], "queries": {"click": {"state": {"target": ["4", "3", "7", "8", "11", "12"], "time": [2278, 2920, 3617, 4309, 5139, 5794]}, "edge": {"target": [], "time": []}}, "mouseover": {"state": {"target": ["4", "2", "3", "7", "6", "8", "11", "10", "12"], "time": [2130, 2527, 2577, 3463, 3931, 3997, 4880, 5383, 5500]}, "edge": {"target": [], "time": []}}, "mouseout": {"state": {"target": ["0", "4", "2", "3", "7", "6", "8", "11", "10", "12"], "time": [1768, 2515, 2544, 3220, 3898, 3961, 4581, 5362, 5417, 6030]}, "edge": {"target": [], "time": []}}}, "displayed_time": "10.59", "trialTime": 11371, "trial_type": "mouselab-mdp", "trial_index": 69, "time_elapsed": 1835048, "internal_node_id": "0.0-4.0-3.0-11.0"}}, {"uniqueid": "w11269814:a17233909", "current_trial": 70, "dateTime": 1664465905907, "trialdata": {"revealed_states": [], "num_clicks_accrued": [0, 0, 0, 0, 0, 0, 0, 0, 0, 0, 0, 0, 0], "stateRewards": ["", -4, -8, -48, 24, -4, -4, -24, -48, 2, -8, -24, -48], "withholdReward": true, "trial_id": "mdp_628181832088", "block": "test2", "trialIndex": 50, "score": 15.5, "costs": -1.5, "simulationMode": [null, null, null], "rewards": [-4, -8, 24], "path": ["0", "0", "1", "2", "4"], "rt": [6202, 136, 96], "actions": ["up", "up", "left"], "actionTimes": [8467, 9114, 9719], "queries": {"click": {"state": {"target": ["4", "11", "12", "3", "7", "8"], "time": [2790, 3480, 4393, 4996, 5552, 6237]}, "edge": {"target": [], "time": []}}, "mouseover": {"state": {"target": ["1", "4", "11", "10", "12", "12", "9", "3", "7", "6", "8"], "time": [2476, 2603, 3352, 3811, 3899, 4132, 4632, 4709, 5232, 5891, 6106]}, "edge": {"target": [], "time": []}}, "mouseout": {"state": {"target": ["0", "1", "1", "0", "0", "1", "4", "11", "10", "12", "12", "9", "3", "7", "6", "8"], "time": [622, 1229, 1386, 1610, 2440, 2508, 3098, 3802, 3859, 3975, 4631, 4641, 5223, 5875, 5923, 10665]}, "edge": {"target": [], "time": []}}}, "displayed_time": "10.27", "trialTime": 10998, "trial_type": "mouselab-mdp", "trial_index": 70, "time_elapsed": 1846130, "internal_node_id": "0.0-4.0-3.0-12.0"}}, {"uniqueid": "w11269814:a17233909", "current_trial": 71, "dateTime": 1664465917754, "trialdata": {"revealed_states": [], "num_clicks_accrued": [0, 0, 0, 0, 0, 0, 0, 0, 0, 0, 0, 0, 0], "stateRewards": ["", 2, 4, 48, -24, 2, -8, -24, -24, 2, -8, -24, -48], "withholdReward": true, "trial_id": "mdp_274832552938", "block": "test2", "trialIndex": 51, "score": 57.5, "costs": -1.5, "simulationMode": [null, null, null], "rewards": [2, 4, 48], "path": ["0", "0", "1", "2", "3"], "rt": [5384, 84, 63], "actions": ["up", "up", "right"], "actionTimes": [6391, 6979, 7544], "queries": {"click": {"state": {"target": ["4", "7", "8", "12", "11", "3"], "time": [1637, 2349, 2968, 4142, 4728, 5362]}, "edge": {"target": [], "time": []}}, "mouseover": {"state": {"target": ["4", "7", "7", "6", "8", "12", "12", "12", "10", "11", "3", "3"], "time": [1439, 1991, 2206, 2592, 2658, 3305, 3757, 4025, 4350, 4420, 5018, 5224]}, "edge": {"target": [], "time": []}}, "mouseout": {"state": {"target": ["0", "4", "7", "7", "6", "8", "12", "12", "12", "10", "11", "3", "3"], "time": [1280, 1916, 2035, 2591, 2641, 3224, 3444, 3767, 4342, 4403, 4964, 5041, 5647]}, "edge": {"target": [], "time": []}}}, "displayed_time": "10.01", "trialTime": 11759, "trial_type": "mouselab-mdp", "trial_index": 71, "time_elapsed": 1857977, "internal_node_id": "0.0-4.0-3.0-13.0"}}, {"uniqueid": "w11269814:a17233909", "current_trial": 72, "dateTime": 1664465927994, "trialdata": {"revealed_states": [], "num_clicks_accrued": [0, 0, 0, 0, 0, 0, 0, 0, 0, 0, 0, 0, 0], "stateRewards": ["", 2, -8, -24, 48, -4, -8, 24, -48, 4, -8, -24, -24], "withholdReward": true, "trial_id": "mdp_928911266656", "block": "test2", "trialIndex": 52, "score": 45.75, "costs": -1.25, "simulationMode": [null, null, null], "rewards": [2, -8, 48], "path": ["0", "0", "1", "2", "4"], "rt": [4158, 96, 44], "actions": ["up", "up", "left"], "actionTimes": [5619, 6220, 6770], "queries": {"click": {"state": {"target": ["3", "7", "8", "11", "4"], "time": [2177, 2812, 3465, 4234, 4731]}, "edge": {"target": [], "time": []}}, "mouseover": {"state": {"target": ["1", "3", "7", "6", "8", "0", "9", "11", "4", "10"], "time": [1764, 1961, 2614, 3099, 3316, 3835, 3847, 4159, 4647, 5118]}, "edge": {"target": [], "time": []}}, "mouseout": {"state": {"target": ["1", "0", "1", "3", "7", "6", "8", "0", "9", "11", "4", "10", "9"], "time": [1006, 1725, 1846, 2566, 3068, 3135, 3802, 3845, 3884, 4485, 5012, 5211, 7571]}, "edge": {"target": [], "time": []}}}, "displayed_time": "9.47", "trialTime": 10164, "trial_type": "mouselab-mdp", "trial_index": 72, "time_elapsed": 1868216, "internal_node_id": "0.0-4.0-3.0-14.0"}}, {"uniqueid": "w11269814:a17233909", "current_trial": 73, "dateTime": 1664465937776, "trialdata": {"revealed_states": [], "num_clicks_accrued": [0, 0, 0, 0, 0, 0, 0, 0, 0, 0, 0, 0, 0], "stateRewards": ["", 2, -4, -48, -48, -2, -4, -24, -48, -2, 8, 24, 24], "withholdReward": false, "trial_id": "mdp_656069446729", "block": "test2", "trialIndex": 53, "score": 33.5, "costs": -1.5, "simulationMode": [null, null, null], "rewards": [-2, 8, 24], "path": ["0", "0", "9", "10", "11"], "rt": [4600, 363, 111], "actions": ["left", "left", "up"], "actionTimes": [5743, 6615, 7232], "queries": {"click": {"state": {"target": ["4", "7", "8", "11", "3", "12"], "time": [1621, 2353, 3073, 3659, 4321, 5040]}, "edge": {"target": [], "time": []}}, "mouseover": {"state": {"target": ["4", "2", "3", "7", "6", "8", "11", "3", "9", "12", "12"], "time": [1470, 1845, 1918, 2221, 2660, 2920, 3403, 4181, 4558, 4602, 4902]}, "edge": {"target": [], "time": []}}, "mouseout": {"state": {"target": ["0", "1", "1", "0", "4", "2", "3", "7", "6", "8", "11", "3", "9", "12"], "time": [592, 741, 901, 1286, 1844, 1874, 1952, 2626, 2668, 3317, 3853, 4523, 4566, 4650]}, "edge": {"target": [], "time": []}}}, "displayed_time": "9.14", "trialTime": 9702, "trial_type": "mouselab-mdp", "trial_index": 73, "time_elapsed": 1877999, "internal_node_id": "0.0-4.0-3.0-15.0"}}, {"uniqueid": "w11269814:a17233909", "current_trial": 74, "dateTime": 1664465947995, "trialdata": {"revealed_states": [], "num_clicks_accrued": [0, 0, 0, 0, 0, 0, 0, 0, 0, 0, 0, 0, 0], "stateRewards": ["", -4, 8, 48, -48, 2, -4, 24, -24, -2, 4, -24, -24], "withholdReward": true, "trial_id": "mdp_804988042722", "block": "test2", "trialIndex": 54, "score": 55.5, "costs": -1.5, "simulationMode": [null, null, null], "rewards": [-4, 8, 48], "path": ["0", "0", "1", "2", "3"], "rt": [5359, 167, 105], "actions": ["up", "up", "right"], "actionTimes": [6679, 7356, 7971], "queries": {"click": {"state": {"target": ["4", "7", "8", "11", "12", "3"], "time": [2080, 2823, 3484, 4255, 4856, 5566]}, "edge": {"target": [], "time": []}}, "mouseover": {"state": {"target": ["1", "2", "4", "2", "3", "7", "6", "8", "11", "10", "12", "9", "1", "3"], "time": [1589, 1769, 1920, 2324, 2403, 2703, 3125, 3269, 4110, 4520, 4643, 5108, 5203, 5419]}, "edge": {"target": [], "time": []}}, "mouseout": {"state": {"target": ["12", "5", "1", "2", "4", "2", "3", "7", "6", "8", "11", "10", "12", "9", "1", "3", "1", "0"], "time": [824, 1086, 1736, 1860, 2303, 2370, 2575, 3104, 3158, 3767, 4506, 4560, 5071, 5143, 5235, 6086, 8800, 8824]}, "edge": {"target": [], "time": []}}}, "displayed_time": "9.32", "trialTime": 10151, "trial_type": "mouselab-mdp", "trial_index": 74, "time_elapsed": 1888218, "internal_node_id": "0.0-4.0-3.0-16.0"}}, {"uniqueid": "w11269814:a17233909", "current_trial": 75, "dateTime": 1664465965537, "trialdata": {"revealed_states": [], "num_clicks_accrued": [0, 0, 0, 0, 0, 0, 0, 0, 0, 0, 0, 0, 0], "stateRewards": ["", 2, -4, 48, -48, -2, 8, -48, 24, -2, -8, 48, 48], "withholdReward": true, "trial_id": "mdp_949326095747", "block": "test2", "trialIndex": 55, "score": 50.75, "costs": -0.25, "simulationMode": [null, null, null], "rewards": [2, -4, 48], "path": ["0", "0", "1", "2", "3"], "rt": [1500, 232, 98], "actions": ["up", "up", "right"], "actionTimes": [2581, 3323, 3933], "queries": {"click": {"state": {"target": ["3"], "time": [1681]}, "edge": {"target": [], "time": []}}, "mouseover": {"state": {"target": ["3"], "time": [1528]}, "edge": {"target": [], "time": []}}, "mouseout": {"state": {"target": ["0", "3", "3", "2"], "time": [897, 1977, 16807, 17134]}, "edge": {"target": [], "time": []}}}, "displayed_time": "10.09", "trialTime": 17467, "trial_type": "mouselab-mdp", "trial_index": 75, "time_elapsed": 1905760, "internal_node_id": "0.0-4.0-3.0-17.0"}}, {"uniqueid": "w11269814:a17233909", "current_trial": 76, "dateTime": 1664465975065, "trialdata": {"revealed_states": [], "num_clicks_accrued": [0, 0, 0, 0, 0, 0, 0, 0, 0, 0, 0, 0, 0], "stateRewards": ["", 2, -4, 48, -48, 2, 4, -24, 24, -4, -8, 24, -48], "withholdReward": false, "trial_id": "mdp_238810765895", "block": "test2", "trialIndex": 56, "score": 49.75, "costs": -1.25, "simulationMode": [null, null, null], "rewards": [2, -4, 48], "path": ["0", "0", "1", "2", "3"], "rt": [5082, 69, 126], "actions": ["up", "up", "right"], "actionTimes": [6152, 6724, 7351], "queries": {"click": {"state": {"target": ["4", "11", "12", "7", "3"], "time": [1600, 2723, 3687, 4579, 5123]}, "edge": {"target": [], "time": []}}, "mouseover": {"state": {"target": ["4", "11", "11", "10", "12", "12", "7", "7", "3", "6", "8"], "time": [1486, 1986, 2569, 2968, 3050, 3538, 4191, 4423, 4886, 5341, 5375]}, "edge": {"target": [], "time": []}}, "mouseout": {"state": {"target": ["1", "4", "11", "11", "10", "12", "12", "7", "7", "3", "6", "8"], "time": [630, 1907, 2235, 2952, 3017, 3090, 3923, 4218, 4816, 5303, 5350, 5755]}, "edge": {"target": [], "time": []}}}, "displayed_time": "9.08", "trialTime": 9460, "trial_type": "mouselab-mdp", "trial_index": 76, "time_elapsed": 1915287, "internal_node_id": "0.0-4.0-3.0-18.0"}}, {"uniqueid": "w11269814:a17233909", "current_trial": 77, "dateTime": 1664465986286, "trialdata": {"revealed_states": [], "num_clicks_accrued": [0, 0, 0, 0, 0, 0, 0, 0, 0, 0, 0, 0, 0], "stateRewards": ["", 2, -4, 48, -48, -4, -8, -48, 24, -4, 4, 48, 48], "withholdReward": true, "trial_id": "mdp_544803968425", "block": "test2", "trialIndex": 57, "score": 50.75, "costs": -0.25, "simulationMode": [null, null, null], "rewards": [2, -4, 48], "path": ["0", "0", "1", "2", "3"], "rt": [1971, 65, 46], "actions": ["up", "up", "right"], "actionTimes": [2978, 3548, 4096], "queries": {"click": {"state": {"target": ["3"], "time": [2109]}, "edge": {"target": [], "time": []}}, "mouseover": {"state": {"target": ["3", "3", "7"], "time": [1392, 1794, 2551]}, "edge": {"target": [], "time": []}}, "mouseout": {"state": {"target": ["5", "0", "3", "3", "7", "5"], "time": [712, 1155, 1435, 2339, 2569, 5016]}, "edge": {"target": [], "time": []}}}, "displayed_time": "10.01", "trialTime": 11136, "trial_type": "mouselab-mdp", "trial_index": 77, "time_elapsed": 1926509, "internal_node_id": "0.0-4.0-3.0-19.0"}}, {"uniqueid": "w11269814:a17233909", "current_trial": 78, "dateTime": 1664465996767, "trialdata": {"revealed_states": [], "num_clicks_accrued": [0, 0, 0, 0, 0, 0, 0, 0, 0, 0, 0, 0, 0], "stateRewards": ["", -4, -8, 24, 48, 2, -4, -24, 24, -4, 8, 48, 48], "withholdReward": true, "trial_id": "mdp_496672670022", "block": "test2", "trialIndex": 58, "score": 56.25, "costs": -0.75, "simulationMode": [null, null, null], "rewards": [-4, 8, 48], "path": ["0", "0", "9", "10", "11"], "rt": [3801, 62, 4], "actions": ["left", "left", "up"], "actionTimes": [4799, 5370, 5874], "queries": {"click": {"state": {"target": ["3", "7", "11"], "time": [1605, 2275, 3913]}, "edge": {"target": [], "time": []}}, "mouseover": {"state": {"target": ["3", "7", "7", "6", "8", "11", "11", "4"], "time": [1447, 1915, 2126, 2474, 2494, 3509, 3796, 4278]}, "edge": {"target": [], "time": []}}, "mouseout": {"state": {"target": ["0", "3", "7", "7", "6", "8", "11", "11", "4", "9"], "time": [901, 1875, 1940, 2462, 2492, 2510, 3525, 4228, 6635, 6742]}, "edge": {"target": [], "time": []}}}, "displayed_time": "10.01", "trialTime": 10403, "trial_type": "mouselab-mdp", "trial_index": 78, "time_elapsed": 1936989, "internal_node_id": "0.0-4.0-3.0-20.0"}}, {"uniqueid": "w11269814:a17233909", "current_trial": 79, "dateTime": 1664466008233, "trialdata": {"revealed_states": [], "num_clicks_accrued": [0, 0, 0, 0, 0, 0, 0, 0, 0, 0, 0, 0, 0], "stateRewards": ["", 4, 8, -48, 24, -2, 8, -48, -48, -4, 4, 48, -48], "withholdReward": true, "trial_id": "mdp_693807815190", "block": "test2", "trialIndex": 59, "score": 51.75, "costs": -1.25, "simulationMode": [null, null, null], "rewards": [-4, 4, 48], "path": ["0", "0", "9", "10", "11"], "rt": [4002, 374, 727], "actions": ["left", "left", "up"], "actionTimes": [4854, 5747, 6985], "queries": {"click": {"state": {"target": ["4", "7", "8", "12", "11"], "time": [1356, 2045, 2639, 3336, 3847]}, "edge": {"target": [], "time": []}}, "mouseover": {"state": {"target": ["4", "2", "7", "6", "8", "12", "10", "11", "2", "3"], "time": [1235, 1646, 1957, 2307, 2357, 3191, 3579, 3644, 4110, 4212]}, "edge": {"target": [], "time": []}}, "mouseout": {"state": {"target": ["0", "4", "2", "7", "6", "8", "12", "10", "11", "2", "3"], "time": [556, 1628, 1674, 2291, 2348, 2862, 3559, 3616, 4076, 4143, 4246]}, "edge": {"target": [], "time": []}}}, "displayed_time": "9.86", "trialTime": 11370, "trial_type": "mouselab-mdp", "trial_index": 79, "time_elapsed": 1948455, "internal_node_id": "0.0-4.0-3.0-21.0"}}, {"uniqueid": "w11269814:a17233909", "current_trial": 80, "dateTime": 1664466020202, "trialdata": {"revealed_states": [], "num_clicks_accrued": [0, 0, 0, 0, 0, 0, 0, 0, 0, 0, 0, 0, 0], "stateRewards": ["", -2, -4, -24, -48, -4, -8, -48, 24, -4, -8, -24, -48], "withholdReward": true, "trial_id": "mdp_475782454549", "block": "test2", "trialIndex": 60, "score": 15.5, "costs": -1.5, "simulationMode": [null, null, null], "rewards": [-4, -8, 24], "path": ["0", "0", "5", "6", "8"], "rt": [6503, 114, 57], "actions": ["right", "right", "down"], "actionTimes": [8676, 9298, 9854], "queries": {"click": {"state": {"target": ["3", "11", "4", "12", "7", "8"], "time": [3220, 4119, 4880, 5711, 6694, 7553]}, "edge": {"target": [], "time": []}}, "mouseover": {"state": {"target": ["2", "3", "2", "11", "4", "12", "7", "7", "6", "8"], "time": [2744, 3034, 3672, 3917, 4673, 5354, 6061, 6407, 7116, 7309]}, "edge": {"target": [], "time": []}}, "mouseout": {"state": {"target": ["3", "0", "0", "2", "3", "2", "11", "4", "12", "7", "7", "6", "8"], "time": [579, 1225, 2702, 2753, 3651, 3683, 4498, 5292, 5997, 6071, 7086, 7156, 8019]}, "edge": {"target": [], "time": []}}}, "displayed_time": "11.18", "trialTime": 11920, "trial_type": "mouselab-mdp", "trial_index": 80, "time_elapsed": 1960425, "internal_node_id": "0.0-4.0-3.0-22.0"}}, {"uniqueid": "w11269814:a17233909", "current_trial": 81, "dateTime": 1664466031488, "trialdata": {"revealed_states": [], "num_clicks_accrued": [0, 0, 0, 0, 0, 0, 0, 0, 0, 0, 0, 0, 0], "stateRewards": ["", 4, 4, 48, -24, -4, -8, 24, -24, 2, -8, -24, 24], "withholdReward": false, "trial_id": "mdp_933201675789", "block": "test2", "trialIndex": 61, "score": 60.75, "costs": -0.25, "simulationMode": [null, null, null], "rewards": [4, 4, 48], "path": ["0", "0", "1", "2", "3"], "rt": [4415, 105, 45], "actions": ["up", "up", "right"], "actionTimes": [5475, 6090, 6646], "queries": {"click": {"state": {"target": ["3"], "time": [4509]}, "edge": {"target": [], "time": []}}, "mouseover": {"state": {"target": ["1", "2", "3"], "time": [3698, 3761, 4294]}, "edge": {"target": [], "time": []}}, "mouseout": {"state": {"target": ["6", "5", "0", "1", "2", "3"], "time": [574, 640, 3676, 3727, 4138, 5044]}, "edge": {"target": [], "time": []}}}, "displayed_time": "9.06", "trialTime": 11208, "trial_type": "mouselab-mdp", "trial_index": 81, "time_elapsed": 1971710, "internal_node_id": "0.0-4.0-3.0-23.0"}}, {"uniqueid": "w11269814:a17233909", "current_trial": 82, "dateTime": 1664466043866, "trialdata": {"revealed_states": [], "num_clicks_accrued": [0, 0, 0, 0, 0, 0, 0, 0, 0, 0, 0, 0, 0], "stateRewards": ["", 2, -8, 24, 24, 4, -4, -24, -48, 4, 8, 24, 24], "withholdReward": true, "trial_id": "mdp_249803813713", "block": "test2", "trialIndex": 62, "score": 39, "costs": -2, "simulationMode": [null, null, null], "rewards": [4, 8, 24], "path": ["0", "0", "9", "10", "11"], "rt": [8579, 31, 298], "actions": ["left", "left", "up"], "actionTimes": [9754, 10289, 11090], "queries": {"click": {"state": {"target": ["3", "7", "8", "4", "11", "12", "2", "10"], "time": [2708, 3489, 4291, 5129, 6113, 6845, 7772, 8608]}, "edge": {"target": [], "time": []}}, "mouseover": {"state": {"target": ["1", "3", "3", "7", "6", "8", "8", "5", "1", "2", "4", "11", "10", "12", "10", "2", "10"], "time": [2017, 2242, 2379, 3196, 3834, 3868, 4080, 4623, 4647, 4701, 4966, 5584, 6431, 6535, 7198, 7470, 8421]}, "edge": {"target": [], "time": []}}, "mouseout": {"state": {"target": ["2", "1", "1", "3", "3", "7", "6", "8", "8", "5", "1", "2", "4", "11", "10", "12", "10", "2", "10"], "time": [564, 734, 2028, 2292, 3147, 3825, 3851, 3902, 4604, 4632, 4669, 4713, 5462, 6430, 6465, 7166, 7214, 8149, 9020]}, "edge": {"target": [], "time": []}}}, "displayed_time": "11.60", "trialTime": 12298, "trial_type": "mouselab-mdp", "trial_index": 82, "time_elapsed": 1984089, "internal_node_id": "0.0-4.0-3.0-24.0"}}, {"uniqueid": "w11269814:a17233909", "current_trial": 83, "dateTime": 1664466059863, "trialdata": {"revealed_states": [], "num_clicks_accrued": [0, 0, 0, 0, 0, 0, 0, 0, 0, 0, 0, 0, 0], "stateRewards": ["", 4, -4, 48, -48, -2, -8, -24, 48, -2, 4, 24, -24], "withholdReward": true, "trial_id": "mdp_507290896735", "block": "test2", "trialIndex": 63, "score": 52, "costs": -1, "simulationMode": [null, null, null], "rewards": [4, -4, 48], "path": ["0", "0", "1", "2", "3"], "rt": [4105, 64, 29], "actions": ["up", "up", "right"], "actionTimes": [7140, 7712, 8242], "queries": {"click": {"state": {"target": ["4", "12", "7", "3"], "time": [3883, 4886, 5710, 6289]}, "edge": {"target": [], "time": []}}, "mouseover": {"state": {"target": ["1", "4", "4", "11", "10", "12", "0", "5", "7", "3"], "time": [3323, 3346, 3695, 4233, 4366, 4587, 5256, 5268, 5533, 6070]}, "edge": {"target": [], "time": []}}, "mouseout": {"state": {"target": ["1", "4", "4", "11", "10", "12", "0", "5", "7", "3", "1", "0"], "time": [3345, 3356, 4190, 4249, 4384, 5228, 5267, 5282, 6037, 15483, 15567, 15599]}, "edge": {"target": [], "time": []}}}, "displayed_time": "11.04", "trialTime": 15909, "trial_type": "mouselab-mdp", "trial_index": 83, "time_elapsed": 2000086, "internal_node_id": "0.0-4.0-3.0-25.0"}}, {"uniqueid": "w11269814:a17233909", "current_trial": 84, "dateTime": 1664466069502, "trialdata": {"revealed_states": [], "num_clicks_accrued": [0, 0, 0, 0, 0, 0, 0, 0, 0, 0, 0, 0, 0], "stateRewards": ["", -4, -4, -24, 24, -4, 4, -24, 48, -2, 4, 48, -48], "withholdReward": true, "trial_id": "mdp_774757609669", "block": "test2", "trialIndex": 64, "score": 54.25, "costs": -0.75, "simulationMode": [null, null, null], "rewards": [-2, 4, 48], "path": ["0", "0", "9", "10", "11"], "rt": [4016, 19, 30], "actions": ["left", "left", "up"], "actionTimes": [4958, 5484, 6031], "queries": {"click": {"state": {"target": ["3", "4", "11"], "time": [2217, 3043, 3921]}, "edge": {"target": [], "time": []}}, "mouseover": {"state": {"target": ["1", "4", "2", "3", "2", "4", "11", "11", "10", "12"], "time": [1488, 1741, 1881, 2020, 2776, 2804, 3420, 3656, 4247, 4314]}, "edge": {"target": [], "time": []}}, "mouseout": {"state": {"target": ["0", "1", "4", "2", "3", "2", "4", "11", "11", "10"], "time": [706, 1543, 1880, 1913, 2755, 2787, 3381, 3523, 4238, 4282]}, "edge": {"target": [], "time": []}}}, "displayed_time": "8.95", "trialTime": 9549, "trial_type": "mouselab-mdp", "trial_index": 84, "time_elapsed": 2009724, "internal_node_id": "0.0-4.0-3.0-26.0"}}, {"uniqueid": "w11269814:a17233909", "current_trial": 85, "dateTime": 1664466083862, "trialdata": {"revealed_states": [], "num_clicks_accrued": [0, 0, 0, 0, 0, 0, 0, 0, 0, 0, 0, 0, 0], "stateRewards": ["", 4, 4, 24, -48, 2, -8, -24, -48, 4, 8, 48, 48], "withholdReward": true, "trial_id": "mdp_592471239511", "block": "test2", "trialIndex": 65, "score": 64.5, "costs": -0.5, "simulationMode": [null, null, null], "rewards": [4, 8, 48], "path": ["0", "0", "9", "10", "11"], "rt": [7742, 128, 71], "actions": ["left", "left", "up"], "actionTimes": [9064, 9699, 10275], "queries": {"click": {"state": {"target": ["3", "11"], "time": [6897, 8118]}, "edge": {"target": [], "time": []}}, "mouseover": {"state": {"target": ["1", "2", "3", "2", "10", "11"], "time": [6489, 6548, 6638, 7306, 7836, 7891]}, "edge": {"target": [], "time": []}}, "mouseout": {"state": {"target": ["12", "0", "1", "2", "3", "2", "10"], "time": [730, 6079, 6523, 6598, 7304, 7315, 7869]}, "edge": {"target": [], "time": []}}}, "displayed_time": "10.77", "trialTime": 14300, "trial_type": "mouselab-mdp", "trial_index": 85, "time_elapsed": 2024085, "internal_node_id": "0.0-4.0-3.0-27.0"}}, {"uniqueid": "w11269814:a17233909", "current_trial": 86, "dateTime": 1664466095029, "trialdata": {"revealed_states": [], "num_clicks_accrued": [0, 0, 0, 0, 0, 0, 0, 0, 0, 0, 0, 0, 0], "stateRewards": ["", -2, -4, -48, 48, -4, 4, -48, 24, -4, -8, 24, 48], "withholdReward": false, "trial_id": "mdp_264482284450", "block": "test2", "trialIndex": 66, "score": 40.25, "costs": -0.75, "simulationMode": [null, null, null], "rewards": [-4, -8, 48], "path": ["0", "0", "9", "10", "12"], "rt": [3178, 117, 234], "actions": ["left", "left", "down"], "actionTimes": [4969, 5590, 6327], "queries": {"click": {"state": {"target": ["11", "3", "12"], "time": [2407, 3119, 4033]}, "edge": {"target": [], "time": []}}, "mouseover": {"state": {"target": ["9", "11", "3", "1", "10", "12", "10"], "time": [2062, 2147, 2778, 3561, 3661, 3761, 4354]}, "edge": {"target": [], "time": []}}, "mouseout": {"state": {"target": ["11", "9", "0", "9", "11", "3", "1", "10", "12", "10"], "time": [949, 1097, 2045, 2096, 2727, 3550, 3579, 3678, 4313, 8137]}, "edge": {"target": [], "time": []}}}, "displayed_time": "10.79", "trialTime": 11078, "trial_type": "mouselab-mdp", "trial_index": 86, "time_elapsed": 2035251, "internal_node_id": "0.0-4.0-3.0-28.0"}}, {"uniqueid": "w11269814:a17233909", "current_trial": 87, "dateTime": 1664466106269, "trialdata": {"revealed_states": [], "num_clicks_accrued": [0, 0, 0, 0, 0, 0, 0, 0, 0, 0, 0, 0, 0], "stateRewards": ["", -4, -8, -48, 48, -2, 8, 48, 48, -2, -4, -48, -48], "withholdReward": true, "trial_id": "mdp_752833580638", "block": "test2", "trialIndex": 67, "score": 58, "costs": -1, "simulationMode": [null, null, null], "rewards": [-2, 8, 48], "path": ["0", "0", "5", "6", "7"], "rt": [3699, 50, 378], "actions": ["right", "right", "up"], "actionTimes": [6039, 6595, 7487], "queries": {"click": {"state": {"target": ["12", "11", "3", "7"], "time": [3162, 3944, 4586, 5215]}, "edge": {"target": [], "time": []}}, "mouseover": {"state": {"target": ["12", "10", "11", "11", "4", "3", "7", "6", "8"], "time": [3072, 3466, 3501, 3815, 4182, 4454, 5096, 5499, 5562]}, "edge": {"target": [], "time": []}}, "mouseout": {"state": {"target": ["9", "0", "0", "0", "12", "10", "11", "11", "4", "3", "7", "6", "8"], "time": [644, 778, 1343, 2715, 3456, 3486, 3565, 4161, 4272, 4948, 5478, 5529, 8608]}, "edge": {"target": [], "time": []}}}, "displayed_time": "10.35", "trialTime": 11160, "trial_type": "mouselab-mdp", "trial_index": 87, "time_elapsed": 2046492, "internal_node_id": "0.0-4.0-3.0-29.0"}}, {"uniqueid": "w11269814:a17233909", "current_trial": 88, "dateTime": 1664466116304, "trialdata": {"rt": 10027, "stimulus": "<h1> End of block! </h1>\n\nYou have reached the end of the block 2/4. If you need a short break, feel free to take one now before moving on.\n\n<br><br>\nIn the next block, you will complete another 30 rounds of this game.\n\n<br><br>\n<div style='text-align: center;'>Press <code>space</code> to begin.</div>\n<br><br>\n<div style='text-align: center;'>(If the experiment doesn't continue, try clicking on the text and then pressing <code>space</code>.)</div>", "response": " ", "trial_id": "mdp_ready_3", "trial_type": "html-keyboard-response", "trial_index": 88, "time_elapsed": 2056527, "internal_node_id": "0.0-4.0-4.0"}}, {"uniqueid": "w11269814:a17233909", "current_trial": 89, "dateTime": 1664466126838, "trialdata": {"revealed_states": [], "num_clicks_accrued": [0, 0, 0, 0, 0, 0, 0, 0, 0, 0, 0, 0, 0], "stateRewards": ["", -2, 8, 48, -48, 4, -8, 24, 24, 4, 4, -48, -24], "withholdReward": false, "trial_id": "mdp_746937869927", "block": "test3", "trialIndex": 68, "score": 57.5, "costs": -1.5, "simulationMode": [null, null, null], "rewards": [-2, 8, 48], "path": ["0", "0", "1", "2", "3"], "rt": [5158, 198, 348], "actions": ["up", "up", "right"], "actionTimes": [6347, 7054, 7900], "queries": {"click": {"state": {"target": ["4", "7", "8", "12", "11", "3"], "time": [1846, 2646, 3163, 3804, 4704, 5325]}, "edge": {"target": [], "time": []}}, "mouseover": {"state": {"target": ["4", "2", "3", "7", "6", "8", "12", "10", "11", "11", "3"], "time": [1617, 2102, 2147, 2500, 2869, 2931, 3665, 4035, 4115, 4571, 5067]}, "edge": {"target": [], "time": []}}, "mouseout": {"state": {"target": ["0", "0", "4", "2", "3", "7", "6", "8", "12", "10", "11", "11", "3"], "time": [972, 1530, 2080, 2130, 2163, 2847, 2897, 3482, 4034, 4081, 4199, 5031, 5630]}, "edge": {"target": [], "time": []}}}, "displayed_time": "10.20", "trialTime": 10452, "trial_type": "mouselab-mdp", "trial_index": 89, "time_elapsed": 2067061, "internal_node_id": "0.0-4.0-5.0-0.0"}}, {"uniqueid": "w11269814:a17233909", "current_trial": 90, "dateTime": 1664466136541, "trialdata": {"revealed_states": [], "num_clicks_accrued": [0, 0, 0, 0, 0, 0, 0, 0, 0, 0, 0, 0, 0], "stateRewards": ["", -4, -8, 48, 24, 4, -8, 24, -48, -2, -8, 24, -48], "withholdReward": true, "trial_id": "mdp_952038635544", "block": "test3", "trialIndex": 69, "score": 40.75, "costs": -0.25, "simulationMode": [null, null, null], "rewards": [-4, -8, 48], "path": ["0", "0", "1", "2", "3"], "rt": [2489, 70, 110], "actions": ["up", "up", "right"], "actionTimes": [3285, 3866, 4468], "queries": {"click": {"state": {"target": ["3"], "time": [2257]}, "edge": {"target": [], "time": []}}, "mouseover": {"state": {"target": ["1", "2", "3", "3"], "time": [1092, 1243, 1444, 2106]}, "edge": {"target": [], "time": []}}, "mouseout": {"state": {"target": ["0", "0", "1", "2", "3", "3", "0"], "time": [606, 1043, 1125, 1442, 1640, 2777, 9199]}, "edge": {"target": [], "time": []}}}, "displayed_time": "8.81", "trialTime": 9616, "trial_type": "mouselab-mdp", "trial_index": 90, "time_elapsed": 2076764, "internal_node_id": "0.0-4.0-5.0-1.0"}}, {"uniqueid": "w11269814:a17233909", "current_trial": 91, "dateTime": 1664466146944, "trialdata": {"revealed_states": [], "num_clicks_accrued": [0, 0, 0, 0, 0, 0, 0, 0, 0, 0, 0, 0, 0], "stateRewards": ["", -4, -4, -48, 48, -4, -8, -24, -48, -2, 8, 48, 24], "withholdReward": true, "trial_id": "mdp_365393526663", "block": "test3", "trialIndex": 70, "score": 44.5, "costs": -0.5, "simulationMode": [null, null, null], "rewards": [-4, -4, 48], "path": ["0", "0", "1", "2", "4"], "rt": [3160, 25, 118], "actions": ["up", "up", "left"], "actionTimes": [4759, 5294, 5933], "queries": {"click": {"state": {"target": ["3", "4"], "time": [2549, 3861]}, "edge": {"target": [], "time": []}}, "mouseover": {"state": {"target": ["3", "2", "4", "11"], "time": [2430, 3127, 3728, 4199]}, "edge": {"target": [], "time": []}}, "mouseout": {"state": {"target": ["0", "3", "2", "4", "11", "9"], "time": [1808, 3126, 3156, 4166, 4404, 6784]}, "edge": {"target": [], "time": []}}}, "displayed_time": "9.61", "trialTime": 10312, "trial_type": "mouselab-mdp", "trial_index": 91, "time_elapsed": 2087167, "internal_node_id": "0.0-4.0-5.0-2.0"}}, {"uniqueid": "w11269814:a17233909", "current_trial": 92, "dateTime": 1664466158491, "trialdata": {"revealed_states": [], "num_clicks_accrued": [0, 0, 0, 0, 0, 0, 0, 0, 0, 0, 0, 0, 0], "stateRewards": ["", 2, -8, -24, 48, 4, -8, -24, -24, 2, 8, -24, 24], "withholdReward": true, "trial_id": "mdp_480787552818", "block": "test3", "trialIndex": 71, "score": 46.75, "costs": -0.25, "simulationMode": [null, null, null], "rewards": [2, -8, 48], "path": ["0", "0", "1", "2", "4"], "rt": [4835, 210, 76], "actions": ["up", "up", "left"], "actionTimes": [5957, 6679, 7261], "queries": {"click": {"state": {"target": ["4"], "time": [5039]}, "edge": {"target": [], "time": []}}, "mouseover": {"state": {"target": ["4", "2"], "time": [4761, 5346]}, "edge": {"target": [], "time": []}}, "mouseout": {"state": {"target": ["0", "4", "2", "0"], "time": [4662, 5304, 5522, 10774]}, "edge": {"target": [], "time": []}}}, "displayed_time": "10.13", "trialTime": 11450, "trial_type": "mouselab-mdp", "trial_index": 92, "time_elapsed": 2098714, "internal_node_id": "0.0-4.0-5.0-3.0"}}, {"uniqueid": "w11269814:a17233909", "current_trial": 93, "dateTime": 1664466168869, "trialdata": {"revealed_states": [], "num_clicks_accrued": [0, 0, 0, 0, 0, 0, 0, 0, 0, 0, 0, 0, 0], "stateRewards": ["", 2, 4, 48, 24, -4, 8, 48, 48, 2, -4, -48, -24], "withholdReward": true, "trial_id": "mdp_822099887466", "block": "test3", "trialIndex": 72, "score": 58.5, "costs": -0.5, "simulationMode": [null, null, null], "rewards": [2, 4, 48], "path": ["0", "0", "1", "2", "3"], "rt": [2378, 128, 10], "actions": ["up", "up", "right"], "actionTimes": [3941, 4582, 5098], "queries": {"click": {"state": {"target": ["4", "3"], "time": [2040, 3058]}, "edge": {"target": [], "time": []}}, "mouseover": {"state": {"target": ["4", "2", "3"], "time": [1841, 2273, 2901]}, "edge": {"target": [], "time": []}}, "mouseout": {"state": {"target": ["0", "4", "2", "3", "5"], "time": [1422, 2263, 2362, 3421, 8829]}, "edge": {"target": [], "time": []}}}, "displayed_time": "9.57", "trialTime": 10304, "trial_type": "mouselab-mdp", "trial_index": 93, "time_elapsed": 2109092, "internal_node_id": "0.0-4.0-5.0-4.0"}}, {"uniqueid": "w11269814:a17233909", "current_trial": 94, "dateTime": 1664466181124, "trialdata": {"revealed_states": [], "num_clicks_accrued": [0, 0, 0, 0, 0, 0, 0, 0, 0, 0, 0, 0, 0], "stateRewards": ["", -4, 8, 24, 24, 2, 4, -48, 24, -2, -4, -24, -24], "withholdReward": true, "trial_id": "mdp_752328329546", "block": "test3", "trialIndex": 73, "score": 32.5, "costs": -2.5, "simulationMode": [null, null, null], "rewards": [2, 4, 24], "path": ["0", "0", "5", "6", "8"], "rt": [8431, 26, 360], "actions": ["right", "right", "down"], "actionTimes": [9366, 9902, 10784], "queries": {"click": {"state": {"target": ["3", "12", "4", "11", "7", "8", "2", "6", "5", "1"], "time": [1425, 2317, 3093, 3625, 4300, 4960, 6441, 7216, 7899, 8514]}, "edge": {"target": [], "time": []}}, "mouseover": {"state": {"target": ["3", "1", "10", "12",