{"condition": 1, "counterbalance": 0, "assignmentId": "a41021582", "workerId": "w10867838", "hitId": "h48184437", "currenttrial": 137, "bonus": 0, "data": [{"uniqueid": "w10867838:a41021582", "current_trial": 0, "dateTime": 1664873453953, "trialdata": {"success": true, "trial_type": "fullscreen", "trial_index": 0, "time_elapsed": 42205, "internal_node_id": "0.0-0.0"}}, {"uniqueid": "w10867838:a41021582", "current_trial": 1, "dateTime": 1664873495610, "trialdata": {"view_history": [{"page_index": 0, "viewing_time": 41650}], "rt": 41654, "trial_id": "exp_instructions_no_distractor", "trial_type": "instructions", "trial_index": 1, "time_elapsed": 83868, "internal_node_id": "0.0-1.0"}}, {"uniqueid": "w10867838:a41021582", "current_trial": 2, "dateTime": 1664873499707, "trialdata": {"success": true, "trial_type": "fullscreen", "trial_index": 2, "time_elapsed": 87964, "internal_node_id": "0.0-2.0-0.0"}}, {"uniqueid": "w10867838:a41021582", "current_trial": 3, "dateTime": 1664873746796, "trialdata": {"view_history": [{"page_index": 0, "viewing_time": 180659}, {"page_index": 1, "viewing_time": 29848}, {"page_index": 2, "viewing_time": 9400}, {"page_index": 3, "viewing_time": 13866}, {"page_index": 4, "viewing_time": 13316}], "rt": 247091, "trial_id": "mouselab_instructions_1", "trial_type": "instructions", "trial_index": 3, "time_elapsed": 335054, "internal_node_id": "0.0-2.0-1.0"}}, {"uniqueid": "w10867838:a41021582", "current_trial": 4, "dateTime": 1664873785326, "trialdata": {"revealed_states": [], "num_clicks_accrued": [0, 0, 0, 0, 0, 0, 0, 0, 0, 0, 0, 0, 0], "stateRewards": ["", -10, 10, -10, -10, 10, 10, 10, -10, 10, -10, 10, -10], "withholdReward": false, "trial_id": "practice_1", "block": "test", "trialIndex": 0, "score": 29, "costs": -3, "simulationMode": [null, null, null], "rewards": [10, 10, 10], "path": ["0", "0", "5", "6", "7"], "rt": [27220, 1301, 1033], "actions": ["right", "right", "up"], "actionTimes": [28951, 30753, 32301], "queries": {"click": {"state": {"target": ["9", "10", "11", "12", "5", "6", "8", "7", "1", "2", "3", "4"], "time": [7608, 8658, 9925, 10907, 12158, 12790, 13591, 14258, 15241, 15858, 16425, 17874]}, "edge": {"target": [], "time": []}}, "mouseover": {"state": {"target": ["9", "10", "11", "12", "0", "5", "6", "8", "7", "1", "2", "3", "4"], "time": [6703, 8419, 9236, 10436, 11369, 11803, 12553, 13020, 13902, 14686, 15552, 16119, 17020]}, "edge": {"target": [], "time": []}}, "mouseout": {"state": {"target": ["0", "9", "10", "11", "10", "12", "0", "5", "6", "8", "6", "7", "1", "2", "3", "2", "4"], "time": [6670, 8120, 9203, 10336, 10385, 11302, 11534, 12503, 13003, 13837, 13887, 14652, 15520, 16052, 16686, 16718, 18402]}, "edge": {"target": [], "time": []}}}, "displayed_time": "32.82", "trialTime": 38385, "trial_type": "mouselab-mdp", "trial_index": 4, "time_elapsed": 373582, "internal_node_id": "0.0-2.0-2.0-0.0"}}, {"uniqueid": "w10867838:a41021582", "current_trial": 5, "dateTime": 1664874200557, "trialdata": {"revealed_states": [], "num_clicks_accrued": [0, 0, 0, 0, 0, 0, 0, 0, 0, 0, 0, 0, 0], "stateRewards": ["", -10, -10, -10, -10, 10, -10, -10, 10, -10, -10, 10, -10], "withholdReward": false, "trial_id": "practice_2", "block": "test", "trialIndex": 1, "score": 9, "costs": -3, "simulationMode": [null, null, null], "rewards": [10, -10, 10], "path": ["0", "0", "5", "6", "8"], "rt": [28987, 646, 1516], "actions": ["right", "right", "down"], "actionTimes": [408680, 409835, 411857], "queries": {"click": {"state": {"target": ["9", "10", "11", "12", "5", "6", "7", "8", "1", "2", "4", "3"], "time": [382212, 384063, 385579, 388295, 390496, 391246, 392212, 393146, 394212, 395795, 396463, 397246]}, "edge": {"target": [], "time": []}}, "mouseover": {"state": {"target": ["0", "9", "10", "11", "12", "0", "5", "6", "7", "8", "8", "1", "2", "4", "3"], "time": [381724, 381858, 383673, 385290, 387671, 388841, 389922, 390956, 391923, 392605, 392908, 394024, 394790, 396256, 396790]}, "edge": {"target": [], "time": []}}, "mouseout": {"state": {"target": ["0", "0", "9", "10", "11", "10", "12", "0", "5", "6", "7", "6", "8", "8", "5", "1", "2", "4", "2", "3", "5", "6", "8"], "time": [379493, 381756, 383306, 385090, 387073, 387657, 388806, 388873, 390923, 391891, 392558, 392590, 392724, 393623, 393673, 394740, 396225, 396674, 396723, 401824, 403257, 404040, 406107]}, "edge": {"target": [], "time": []}}}, "displayed_time": "412.36", "trialTime": 415199, "trial_type": "mouselab-mdp", "trial_index": 5, "time_elapsed": 788815, "internal_node_id": "0.0-2.0-2.0-1.0"}}, {"uniqueid": "w10867838:a41021582", "current_trial": 6, "dateTime": 1664874275116, "trialdata": {"view_history": [{"page_index": 0, "viewing_time": 49769}, {"page_index": 1, "viewing_time": 16967}, {"page_index": 2, "viewing_time": 7817}], "rt": 74553, "trial_id": "mouselab_instructions_2_scarce", "trial_type": "instructions", "trial_index": 6, "time_elapsed": 863374, "internal_node_id": "0.0-2.0-3.0"}}, {"uniqueid": "w10867838:a41021582", "current_trial": 7, "dateTime": 1664874310533, "trialdata": {"rt": 35410, "response": {"Q0": "$-48 to $48", "Q1": "The cost is always $0.25.", "Q2": "The better I perform the higher my bonus will be.", "Q3": "No, the amount of cash at each node of the web may be different each time.", "Q4": "The values of the nodes walked through from start to finish.", "Q5": "No, the spider might forget to count the money on some rounds."}, "question_order": [0, 1, 2, 3, 4, 5], "correct": {"Q0": "$-48 to $48", "Q1": "The cost is always $0.25.", "Q2": "The better I perform the higher my bonus will be.", "Q3": "No, the amount of cash at each node of the web may be different each time.", "Q4": "The values of the nodes walked through from start to finish.", "Q5": "No, the spider might forget to count the money on some rounds."}, "trial_id": "mouselab_quiz_scarce", "trial_type": "survey-multi-choice", "trial_index": 7, "time_elapsed": 898791, "internal_node_id": "0.0-2.0-4.0"}}, {"uniqueid": "w10867838:a41021582", "current_trial": 8, "dateTime": 1664874318364, "trialdata": {"rt": 7818, "stimulus": "\n<h1> Get ready to start the game! </h1>\n\nThank you for reading the instructions. Get ready start with the first of 4 block(s) of this game.\n<br><br>\nIn this first block, you will complete 30 rounds of this game before moving on.\n<br><br>\nRemember, the more money the spider gets, the bigger your bonus will be!\n<br><br>\n<div style='text-align: center;'>Press <code>space</code> to begin.</div>\n\n<br><br>\n(If, at any point, the <code>space</code> key does not take you to the next page, click once on the text and try again.)", "response": " ", "trial_id": "mdp_ready_1", "trial_type": "html-keyboard-response", "trial_index": 8, "time_elapsed": 906622, "internal_node_id": "0.0-4.0-0.0"}}, {"uniqueid": "w10867838:a41021582", "current_trial": 9, "dateTime": 1664874341865, "trialdata": {"revealed_states": [], "num_clicks_accrued": [0, 0, 0, 0, 0, 0, 0, 0, 0, 0, 0, 0, 0], "stateRewards": ["", 2, 8, 48, -48, -2, -4, -24, 24, 4, -4, 48, -48], "withholdReward": true, "trial_id": "mdp_105734044587", "block": "test1", "trialIndex": 2, "score": 51.25, "costs": -1.75, "simulationMode": [null, null, null], "rewards": [4, -4, 48], "path": ["0", "0", "9", "10", "11"], "rt": [15818, 649, 865], "actions": ["left", "left", "up"], "actionTimes": [17254, 18410, 19792], "queries": {"click": {"state": {"target": ["9", "10", "5", "6", "1", "12", "11"], "time": [2933, 4434, 6765, 7634, 9831, 12584, 13633]}, "edge": {"target": [], "time": []}}, "mouseover": {"state": {"target": ["9", "10", "0", "5", "6", "11", "1", "0", "12", "11"], "time": [2510, 3978, 6193, 6494, 7343, 8945, 9478, 10295, 12161, 13277]}, "edge": {"target": [], "time": []}}, "mouseout": {"state": {"target": ["0", "9", "10", "9", "0", "5", "6", "10", "11", "1", "0", "12", "10", "11", "0"], "time": [2478, 3812, 6144, 6177, 6227, 7310, 8527, 8863, 9361, 10243, 10311, 13211, 13244, 14343, 21894]}, "edge": {"target": [], "time": []}}}, "displayed_time": "20.31", "trialTime": 23465, "trial_type": "mouselab-mdp", "trial_index": 9, "time_elapsed": 930122, "internal_node_id": "0.0-4.0-1.0-0.0"}}, {"uniqueid": "w10867838:a41021582", "current_trial": 10, "dateTime": 1664874356055, "trialdata": {"revealed_states": [], "num_clicks_accrued": [0, 0, 0, 0, 0, 0, 0, 0, 0, 0, 0, 0, 0], "stateRewards": ["", -4, -4, -24, -24, -2, 4, 48, -24, -2, -4, -24, 48], "withholdReward": true, "trial_id": "mdp_855903341564", "block": "test1", "trialIndex": 3, "score": 53.75, "costs": -1.25, "simulationMode": [null, null, null], "rewards": [-2, 4, 48], "path": ["0", "0", "5", "6", "7"], "rt": [7787, 356, 547], "actions": ["right", "right", "up"], "actionTimes": [9388, 10265, 11307], "queries": {"click": {"state": {"target": ["9", "10", "5", "6", "7"], "time": [2947, 3831, 4866, 5614, 6946]}, "edge": {"target": [], "time": []}}, "mouseover": {"state": {"target": ["9", "10", "5", "5", "6", "7"], "time": [2492, 3510, 4375, 4727, 5275, 6409]}, "edge": {"target": [], "time": []}}, "mouseout": {"state": {"target": ["0", "9", "10", "9", "5", "5", "6"], "time": [2427, 3425, 4292, 4326, 4442, 5241, 6360]}, "edge": {"target": [], "time": []}}}, "displayed_time": "11.83", "trialTime": 14155, "trial_type": "mouselab-mdp", "trial_index": 10, "time_elapsed": 944313, "internal_node_id": "0.0-4.0-1.0-1.0"}}, {"uniqueid": "w10867838:a41021582", "current_trial": 11, "dateTime": 1664874380343, "trialdata": {"revealed_states": [], "num_clicks_accrued": [0, 0, 0, 0, 0, 0, 0, 0, 0, 0, 0, 0, 0], "stateRewards": ["", -2, -8, -24, 48, -2, -8, -48, -48, 2, -8, -48, 24], "withholdReward": false, "trial_id": "mdp_288324580942", "block": "test1", "trialIndex": 4, "score": 40.25, "costs": -2.75, "simulationMode": [null, null, null], "rewards": [-2, -8, 48], "path": ["0", "0", "1", "2", "4"], "rt": [18399, 378, 572], "actions": ["up", "up", "left"], "actionTimes": [19812, 20697, 21775], "queries": {"click": {"state": {"target": ["9", "10", "11", "12", "5", "6", "8", "7", "1", "2", "4"], "time": [3278, 4060, 5775, 6875, 8292, 9441, 11626, 12691, 14141, 15259, 16441]}, "edge": {"target": [], "time": []}}, "mouseover": {"state": {"target": ["9", "10", "11", "12", "5", "6", "8", "7", "1", "2", "4"], "time": [2320, 3835, 5119, 6487, 7786, 8736, 10469, 12336, 13837, 14819, 16236]}, "edge": {"target": [], "time": []}}, "mouseout": {"state": {"target": ["7", "5", "0", "0", "9", "10", "11", "12", "5", "6", "8", "6", "7", "1", "2", "4"], "time": [602, 652, 953, 2254, 3720, 5102, 6186, 7369, 8686, 10418, 12203, 12286, 13268, 14686, 16185, 16819]}, "edge": {"target": [], "time": []}}}, "displayed_time": "22.29", "trialTime": 24254, "trial_type": "mouselab-mdp", "trial_index": 11, "time_elapsed": 968601, "internal_node_id": "0.0-4.0-1.0-2.0"}}, {"uniqueid": "w10867838:a41021582", "current_trial": 12, "dateTime": 1664874397576, "trialdata": {"revealed_states": [], "num_clicks_accrued": [0, 0, 0, 0, 0, 0, 0, 0, 0, 0, 0, 0, 0], "stateRewards": ["", 4, 4, 48, -48, -2, 4, 48, -48, -4, 4, -24, -24], "withholdReward": true, "trial_id": "mdp_753324812898", "block": "test1", "trialIndex": 5, "score": 53.25, "costs": -1.75, "simulationMode": [null, null, null], "rewards": [-2, 4, 48], "path": ["0", "0", "5", "6", "7"], "rt": [10851, 521, 379], "actions": ["right", "right", "up"], "actionTimes": [12689, 13700, 14592], "queries": {"click": {"state": {"target": ["9", "10", "11", "12", "5", "6", "7"], "time": [3252, 4118, 6385, 7235, 8468, 9218, 10368]}, "edge": {"target": [], "time": []}}, "mouseover": {"state": {"target": ["9", "10", "11", "12", "5", "6", "7"], "time": [2730, 3947, 6112, 6946, 8080, 8979, 10029]}, "edge": {"target": [], "time": []}}, "mouseout": {"state": {"target": ["0", "9", "10", "11", "10", "12", "5", "6", "7"], "time": [2662, 3730, 6064, 6580, 6880, 7764, 8930, 9696, 10545]}, "edge": {"target": [], "time": []}}}, "displayed_time": "15.10", "trialTime": 17198, "trial_type": "mouselab-mdp", "trial_index": 12, "time_elapsed": 985833, "internal_node_id": "0.0-4.0-1.0-3.0"}}, {"uniqueid": "w10867838:a41021582", "current_trial": 13, "dateTime": 1664874413218, "trialdata": {"revealed_states": [], "num_clicks_accrued": [0, 0, 0, 0, 0, 0, 0, 0, 0, 0, 0, 0, 0], "stateRewards": ["", -2, 4, -48, 24, -4, 8, 48, 24, -2, 4, -48, -24], "withholdReward": false, "trial_id": "mdp_740882974347", "block": "test1", "trialIndex": 6, "score": 55.25, "costs": -1.75, "simulationMode": [null, null, null], "rewards": [-4, 8, 48], "path": ["0", "0", "5", "6", "7"], "rt": [8401, 1146, 793], "actions": ["right", "right", "up"], "actionTimes": [10222, 11876, 13188], "queries": {"click": {"state": {"target": ["9", "10", "11", "12", "5", "6", "7"], "time": [2902, 3584, 4684, 5551, 6535, 7268, 8218]}, "edge": {"target": [], "time": []}}, "mouseover": {"state": {"target": ["9", "10", "11", "12", "5", "6", "7"], "time": [2663, 3396, 4478, 5346, 6112, 7012, 7912]}, "edge": {"target": [], "time": []}}, "mouseout": {"state": {"target": ["0", "9", "10", "11", "10", "12", "5", "6", "7"], "time": [2613, 3346, 4279, 4946, 5179, 5979, 6979, 7830, 14730]}, "edge": {"target": [], "time": []}}}, "displayed_time": "13.70", "trialTime": 15607, "trial_type": "mouselab-mdp", "trial_index": 13, "time_elapsed": 1001475, "internal_node_id": "0.0-4.0-1.0-4.0"}}, {"uniqueid": "w10867838:a41021582", "current_trial": 14, "dateTime": 1664874430002, "trialdata": {"revealed_states": [], "num_clicks_accrued": [0, 0, 0, 0, 0, 0, 0, 0, 0, 0, 0, 0, 0], "stateRewards": ["", -2, 8, -48, 48, 4, -8, -48, 48, 4, -4, -24, 48], "withholdReward": false, "trial_id": "mdp_144739116828", "block": "test1", "trialIndex": 7, "score": 58.25, "costs": -0.75, "simulationMode": [null, null, null], "rewards": [-2, 8, 48], "path": ["0", "0", "1", "2", "4"], "rt": [5660, 472, 700], "actions": ["up", "up", "left"], "actionTimes": [7709, 8690, 9901], "queries": {"click": {"state": {"target": ["1", "2", "4"], "time": [3675, 4442, 5393]}, "edge": {"target": [], "time": []}}, "mouseover": {"state": {"target": ["1", "1", "2", "4"], "time": [3187, 3486, 4103, 5102]}, "edge": {"target": [], "time": []}}, "mouseout": {"state": {"target": ["0", "1", "1", "2"], "time": [2786, 3236, 4053, 5069]}, "edge": {"target": [], "time": []}}}, "displayed_time": "12.05", "trialTime": 16748, "trial_type": "mouselab-mdp", "trial_index": 14, "time_elapsed": 1018259, "internal_node_id": "0.0-4.0-1.0-5.0"}}, {"uniqueid": "w10867838:a41021582", "current_trial": 15, "dateTime": 1664874445115, "trialdata": {"revealed_states": [], "num_clicks_accrued": [0, 0, 0, 0, 0, 0, 0, 0, 0, 0, 0, 0, 0], "stateRewards": ["", -4, 4, -24, 48, -2, 8, -48, 24, 2, 4, 48, -48], "withholdReward": true, "trial_id": "mdp_366632183904", "block": "test1", "trialIndex": 8, "score": 58, "costs": -1, "simulationMode": [null, null, null], "rewards": [2, 4, 48], "path": ["0", "0", "9", "10", "11"], "rt": [7732, 373, 1123], "actions": ["left", "left", "up"], "actionTimes": [9415, 10308, 11942], "queries": {"click": {"state": {"target": ["9", "10", "12", "11"], "time": [3558, 4408, 5741, 6857]}, "edge": {"target": [], "time": []}}, "mouseover": {"state": {"target": ["9", "10", "12", "11"], "time": [3217, 4103, 5519, 6552]}, "edge": {"target": [], "time": []}}, "mouseout": {"state": {"target": ["4", "0", "0", "9", "10", "12", "10", "11"], "time": [968, 1301, 3185, 4069, 4818, 6486, 6518, 7253]}, "edge": {"target": [], "time": []}}}, "displayed_time": "12.45", "trialTime": 15078, "trial_type": "mouselab-mdp", "trial_index": 15, "time_elapsed": 1033373, "internal_node_id": "0.0-4.0-1.0-6.0"}}, {"uniqueid": "w10867838:a41021582", "current_trial": 16, "dateTime": 1664874457567, "trialdata": {"revealed_states": [], "num_clicks_accrued": [0, 0, 0, 0, 0, 0, 0, 0, 0, 0, 0, 0, 0], "stateRewards": ["", -4, -8, -48, -48, 4, -8, 48, 48, 2, 8, 48, 24], "withholdReward": false, "trial_id": "mdp_880437222492", "block": "test1", "trialIndex": 9, "score": 48.25, "costs": -0.75, "simulationMode": [null, null, null], "rewards": [4, -8, 48], "path": ["0", "0", "5", "6", "7"], "rt": [5097, 601, 933], "actions": ["right", "right", "up"], "actionTimes": [7197, 8304, 9753], "queries": {"click": {"state": {"target": ["5", "6", "7"], "time": [3475, 4276, 5276]}, "edge": {"target": [], "time": []}}, "mouseover": {"state": {"target": ["5", "6", "7"], "time": [3237, 3919, 5003]}, "edge": {"target": [], "time": []}}, "mouseout": {"state": {"target": ["5", "6", "7"], "time": [3887, 4987, 5453]}, "edge": {"target": [], "time": []}}}, "displayed_time": "10.27", "trialTime": 12415, "trial_type": "mouselab-mdp", "trial_index": 16, "time_elapsed": 1045824, "internal_node_id": "0.0-4.0-1.0-7.0"}}, {"uniqueid": "w10867838:a41021582", "current_trial": 17, "dateTime": 1664874470098, "trialdata": {"revealed_states": [], "num_clicks_accrued": [0, 0, 0, 0, 0, 0, 0, 0, 0, 0, 0, 0, 0], "stateRewards": ["", -2, -8, 48, 24, 2, 4, 24, -24, -2, -4, 48, -48], "withholdReward": true, "trial_id": "mdp_411152402386", "block": "test1", "trialIndex": 10, "score": 46.25, "costs": -0.75, "simulationMode": [null, null, null], "rewards": [-2, -4, 48], "path": ["0", "0", "9", "10", "11"], "rt": [6866, 452, 668], "actions": ["left", "left", "up"], "actionTimes": [8347, 9303, 10485], "queries": {"click": {"state": {"target": ["9", "10", "11"], "time": [2924, 3823, 5139]}, "edge": {"target": [], "time": []}}, "mouseover": {"state": {"target": ["9", "10", "11"], "time": [2567, 3500, 4650]}, "edge": {"target": [], "time": []}}, "mouseout": {"state": {"target": ["0", "9", "10", "11"], "time": [2384, 3400, 4568, 5434]}, "edge": {"target": [], "time": []}}}, "displayed_time": "11.00", "trialTime": 12494, "trial_type": "mouselab-mdp", "trial_index": 17, "time_elapsed": 1058355, "internal_node_id": "0.0-4.0-1.0-8.0"}}, {"uniqueid": "w10867838:a41021582", "current_trial": 18, "dateTime": 1664874488144, "trialdata": {"revealed_states": [], "num_clicks_accrued": [0, 0, 0, 0, 0, 0, 0, 0, 0, 0, 0, 0, 0], "stateRewards": ["", 4, -4, 48, -48, -2, -8, -24, 48, -2, 4, 24, -24], "withholdReward": true, "trial_id": "mdp_507290896735", "block": "test1", "trialIndex": 11, "score": 51.25, "costs": -1.75, "simulationMode": [null, null, null], "rewards": [4, -4, 48], "path": ["0", "0", "1", "2", "3"], "rt": [12390, 425, 1113], "actions": ["up", "up", "right"], "actionTimes": [13810, 14746, 16367], "queries": {"click": {"state": {"target": ["5", "6", "8", "1", "2", "4", "3"], "time": [2492, 3226, 3958, 7692, 8592, 9410, 10691]}, "edge": {"target": [], "time": []}}, "mouseover": {"state": {"target": ["5", "6", "8", "1", "2", "4", "3"], "time": [2054, 2953, 3587, 7404, 8320, 9170, 10421]}, "edge": {"target": [], "time": []}}, "mouseout": {"state": {"target": ["10", "9", "0", "5", "6", "8", "6", "1", "1", "2", "4", "2"], "time": [786, 854, 1254, 2920, 3519, 5686, 6888, 7903, 8270, 8771, 9904, 9988]}, "edge": {"target": [], "time": []}}}, "displayed_time": "16.89", "trialTime": 18010, "trial_type": "mouselab-mdp", "trial_index": 18, "time_elapsed": 1076402, "internal_node_id": "0.0-4.0-1.0-9.0"}}, {"uniqueid": "w10867838:a41021582", "current_trial": 19, "dateTime": 1664874509398, "trialdata": {"revealed_states": [], "num_clicks_accrued": [0, 0, 0, 0, 0, 0, 0, 0, 0, 0, 0, 0, 0], "stateRewards": ["", -4, -8, -48, 24, -4, -4, -24, -48, 2, -8, -24, -48], "withholdReward": true, "trial_id": "mdp_628181832088", "block": "test1", "trialIndex": 12, "score": 14, "costs": -3, "simulationMode": [null, null, null], "rewards": [-4, -8, 24], "path": ["0", "0", "1", "2", "4"], "rt": [15899, 407, 764], "actions": ["up", "up", "left"], "actionTimes": [17287, 18214, 19488], "queries": {"click": {"state": {"target": ["9", "10", "11", "12", "5", "6", "7", "8", "1", "2", "4", "3"], "time": [2446, 3278, 4464, 5846, 7245, 8446, 9430, 10330, 12212, 13229, 13945, 15279]}, "edge": {"target": [], "time": []}}, "mouseover": {"state": {"target": ["9", "10", "11", "12", "5", "6", "7", "8", "1", "2", "4", "3"], "time": [2241, 3074, 3956, 5374, 6824, 8190, 9223, 9974, 11356, 12907, 13740, 14957]}, "edge": {"target": [], "time": []}}, "mouseout": {"state": {"target": ["3", "1", "0", "9", "10", "11", "10", "12", "5", "6", "7", "6", "8", "5", "1", "2", "4", "2"], "time": [789, 874, 2041, 3006, 3924, 4857, 5341, 6406, 8157, 9158, 9823, 9906, 10906, 10957, 12841, 13690, 14840, 14907]}, "edge": {"target": [], "time": []}}}, "displayed_time": "20.01", "trialTime": 21218, "trial_type": "mouselab-mdp", "trial_index": 19, "time_elapsed": 1097655, "internal_node_id": "0.0-4.0-1.0-10.0"}}, {"uniqueid": "w10867838:a41021582", "current_trial": 20, "dateTime": 1664874533215, "trialdata": {"revealed_states": [], "num_clicks_accrued": [0, 0, 0, 0, 0, 0, 0, 0, 0, 0, 0, 0, 0], "stateRewards": ["", 4, 8, -24, 48, -2, -4, 24, -24, -2, 4, 24, 24], "withholdReward": false, "trial_id": "mdp_948713805479", "block": "test1", "trialIndex": 13, "score": 62.25, "costs": -2.75, "simulationMode": [null, null, null], "rewards": [4, 8, 48], "path": ["0", "0", "1", "2", "4"], "rt": [18007, 456, 503], "actions": ["up", "up", "left"], "actionTimes": [19426, 20391, 21404], "queries": {"click": {"state": {"target": ["9", "10", "11", "5", "6", "7", "8", "12", "1", "2", "4"], "time": [2958, 3775, 4774, 7074, 7758, 8858, 11675, 12875, 14857, 15595, 16374]}, "edge": {"target": [], "time": []}}, "mouseover": {"state": {"target": ["9", "10", "11", "12", "5", "6", "7", "7", "8", "12", "1", "2", "4"], "time": [2703, 3502, 4536, 5653, 6738, 7502, 8318, 8702, 9467, 12602, 14570, 15385, 16167]}, "edge": {"target": [], "time": []}}, "mouseout": {"state": {"target": ["3", "5", "0", "9", "10", "11", "10", "12", "5", "6", "7", "7", "6", "8", "12", "9", "1", "2", "4"], "time": [653, 1052, 2620, 3452, 4502, 5285, 5535, 6402, 7469, 8286, 8385, 9385, 9435, 12136, 14186, 14252, 15336, 16116, 16834]}, "edge": {"target": [], "time": []}}}, "displayed_time": "21.92", "trialTime": 23782, "trial_type": "mouselab-mdp", "trial_index": 20, "time_elapsed": 1121473, "internal_node_id": "0.0-4.0-1.0-11.0"}}, {"uniqueid": "w10867838:a41021582", "current_trial": 21, "dateTime": 1664874558265, "trialdata": {"revealed_states": [], "num_clicks_accrued": [0, 0, 0, 0, 0, 0, 0, 0, 0, 0, 0, 0, 0], "stateRewards": ["", 4, 8, -48, -48, 2, 4, -24, -48, 2, 8, 48, -48], "withholdReward": true, "trial_id": "mdp_902172716465", "block": "test1", "trialIndex": 14, "score": 62.25, "costs": -0.75, "simulationMode": [null, null, null], "rewards": [2, 8, 48], "path": ["0", "0", "9", "10", "11"], "rt": [18286, 362, 562], "actions": ["left", "left", "up"], "actionTimes": [20552, 21413, 22481], "queries": {"click": {"state": {"target": ["9", "10", "11"], "time": [7825, 13424, 15525]}, "edge": {"target": [], "time": []}}, "mouseover": {"state": {"target": ["9", "9", "10", "11"], "time": [7184, 7602, 12852, 14984]}, "edge": {"target": [], "time": []}}, "mouseout": {"state": {"target": ["2", "1", "0", "9", "9", "10"], "time": [1102, 1152, 7167, 7318, 12785, 14918]}, "edge": {"target": [], "time": []}}}, "displayed_time": "23.00", "trialTime": 25016, "trial_type": "mouselab-mdp", "trial_index": 21, "time_elapsed": 1146523, "internal_node_id": "0.0-4.0-1.0-12.0"}}, {"uniqueid": "w10867838:a41021582", "current_trial": 22, "dateTime": 1664874583592, "trialdata": {"revealed_states": [], "num_clicks_accrued": [0, 0, 0, 0, 0, 0, 0, 0, 0, 0, 0, 0, 0], "stateRewards": ["", -4, -4, -24, 48, 2, 4, -24, -48, -2, 4, 24, 24], "withholdReward": true, "trial_id": "mdp_360934723192", "block": "test1", "trialIndex": 15, "score": 42.25, "costs": -2.75, "simulationMode": [null, null, null], "rewards": [-4, -4, 48], "path": ["0", "0", "1", "2", "4"], "rt": [17187, 384, 640], "actions": ["up", "up", "left"], "actionTimes": [21434, 22332, 23489], "queries": {"click": {"state": {"target": ["5", "6", "7", "8", "9", "10", "11", "12", "1", "2", "4"], "time": [5789, 6504, 8055, 9154, 11171, 12021, 12970, 15171, 16738, 17505, 18271]}, "edge": {"target": [], "time": []}}, "mouseover": {"state": {"target": ["5", "6", "7", "8", "0", "9", "10", "11", "12", "1", "2", "4"], "time": [5600, 6250, 7198, 8983, 10249, 10583, 11866, 12615, 14632, 16564, 17250, 17915]}, "edge": {"target": [], "time": []}}, "mouseout": {"state": {"target": ["11", "1", "0", "5", "6", "7", "6", "8", "0", "9", "10", "11", "10", "12", "9", "1", "2", "4", "2", "1", "0"], "time": [3665, 3832, 5498, 6216, 7165, 8483, 8749, 9666, 10499, 11633, 12566, 14250, 14465, 15399, 16282, 17216, 17882, 18716, 24682, 24731, 24781]}, "edge": {"target": [], "time": []}}}, "displayed_time": "24.00", "trialTime": 25290, "trial_type": "mouselab-mdp", "trial_index": 22, "time_elapsed": 1171850, "internal_node_id": "0.0-4.0-1.0-13.0"}}, {"uniqueid": "w10867838:a41021582", "current_trial": 23, "dateTime": 1664874607221, "trialdata": {"revealed_states": [], "num_clicks_accrued": [0, 0, 0, 0, 0, 0, 0, 0, 0, 0, 0, 0, 0], "stateRewards": ["", 4, -8, -24, 48, -4, 8, -24, -48, -4, -4, 24, 48], "withholdReward": false, "trial_id": "mdp_282352776624", "block": "test1", "trialIndex": 16, "score": 46.25, "costs": -2.75, "simulationMode": [null, null, null], "rewards": [4, -8, 48], "path": ["0", "0", "1", "2", "4"], "rt": [18146, 390, 477], "actions": ["up", "up", "left"], "actionTimes": [19198, 20092, 21080], "queries": {"click": {"state": {"target": ["9", "10", "11", "12", "5", "6", "7", "8", "1", "2", "4"], "time": [2143, 2776, 3509, 4493, 6759, 7378, 8475, 9258, 10941, 13877, 15176]}, "edge": {"target": [], "time": []}}, "mouseover": {"state": {"target": ["9", "10", "11", "12", "5", "6", "5", "6", "7", "8", "1", "2", "4"], "time": [1904, 2620, 3237, 4104, 6188, 6236, 6570, 7204, 8070, 9020, 10636, 11486, 14885]}, "edge": {"target": [], "time": []}}, "mouseout": {"state": {"target": ["0", "9", "10", "11", "10", "12", "5", "6", "5", "6", "7", "6", "8", "5", "1", "2"], "time": [1737, 2570, 3188, 3988, 4054, 5036, 6203, 6504, 7154, 8037, 8919, 8969, 10319, 10353, 11435, 14837]}, "edge": {"target": [], "time": []}}}, "displayed_time": "21.59", "trialTime": 23591, "trial_type": "mouselab-mdp", "trial_index": 23, "time_elapsed": 1195478, "internal_node_id": "0.0-4.0-1.0-14.0"}}, {"uniqueid": "w10867838:a41021582", "current_trial": 24, "dateTime": 1664874618171, "trialdata": {"revealed_states": [], "num_clicks_accrued": [0, 0, 0, 0, 0, 0, 0, 0, 0, 0, 0, 0, 0], "stateRewards": ["", 2, -8, 24, 24, 2, 4, -48, -48, 4, 4, -24, 48], "withholdReward": true, "trial_id": "mdp_985707010949", "block": "test1", "trialIndex": 17, "score": 60.25, "costs": -0.75, "simulationMode": [null, null, null], "rewards": [4, 4, 48], "path": ["0", "0", "9", "10", "12"], "rt": [5158, 396, 593], "actions": ["left", "left", "down"], "actionTimes": [7230, 8136, 9232], "queries": {"click": {"state": {"target": ["9", "10", "12"], "time": [3063, 3912, 5347]}, "edge": {"target": [], "time": []}}, "mouseover": {"state": {"target": ["9", "10", "11", "12"], "time": [2808, 3706, 4757, 5107]}, "edge": {"target": [], "time": []}}, "mouseout": {"state": {"target": ["4", "1", "0", "9", "10", "11", "10", "12"], "time": [1189, 1240, 1673, 3572, 4607, 4941, 5073, 5757]}, "edge": {"target": [], "time": []}}}, "displayed_time": "9.74", "trialTime": 10912, "trial_type": "mouselab-mdp", "trial_index": 24, "time_elapsed": 1206429, "internal_node_id": "0.0-4.0-1.0-15.0"}}, {"uniqueid": "w10867838:a41021582", "current_trial": 25, "dateTime": 1664874630028, "trialdata": {"revealed_states": [], "num_clicks_accrued": [0, 0, 0, 0, 0, 0, 0, 0, 0, 0, 0, 0, 0], "stateRewards": ["", 2, -4, 48, -48, 2, 4, -24, 24, -4, -8, 24, -48], "withholdReward": true, "trial_id": "mdp_238810765895", "block": "test1", "trialIndex": 18, "score": 34, "costs": -1, "simulationMode": [null, null, null], "rewards": [2, 4, 24], "path": ["0", "0", "5", "6", "8"], "rt": [6589, 333, 490], "actions": ["right", "right", "down"], "actionTimes": [7646, 8483, 9490], "queries": {"click": {"state": {"target": ["5", "6", "8", "7"], "time": [2525, 3271, 4122, 5339]}, "edge": {"target": [], "time": []}}, "mouseover": {"state": {"target": ["5", "6", "8", "7"], "time": [2300, 2948, 3866, 5017]}, "edge": {"target": [], "time": []}}, "mouseout": {"state": {"target": ["0", "5", "6", "8", "6", "7", "6"], "time": [2250, 2900, 3784, 4966, 5016, 5533, 5783]}, "edge": {"target": [], "time": []}}}, "displayed_time": "10.00", "trialTime": 11828, "trial_type": "mouselab-mdp", "trial_index": 25, "time_elapsed": 1218285, "internal_node_id": "0.0-4.0-1.0-16.0"}}, {"uniqueid": "w10867838:a41021582", "current_trial": 26, "dateTime": 1664874649929, "trialdata": {"revealed_states": [], "num_clicks_accrued": [0, 0, 0, 0, 0, 0, 0, 0, 0, 0, 0, 0, 0], "stateRewards": ["", -2, -4, 48, 48, 2, 4, -48, 24, 4, -8, 24, -24], "withholdReward": true, "trial_id": "mdp_628613319495", "block": "test1", "trialIndex": 19, "score": 44.25, "costs": -2.75, "simulationMode": [null, null, null], "rewards": [-2, -4, 48], "path": ["0", "0", "1", "2", "4"], "rt": [14548, 343, 553], "actions": ["up", "up", "left"], "actionTimes": [15732, 16581, 17640], "queries": {"click": {"state": {"target": ["9", "10", "12", "11", "5", "6", "7", "8", "1", "2", "4"], "time": [2144, 2943, 3726, 4460, 6627, 7292, 8059, 8827, 11810, 12592, 13176]}, "edge": {"target": [], "time": []}}, "mouseover": {"state": {"target": ["9", "10", "12", "11", "5", "6", "7", "8", "1", "2", "4"], "time": [1971, 2753, 3402, 4220, 5887, 7104, 7804, 8604, 11687, 12303, 13037]}, "edge": {"target": [], "time": []}}, "mouseout": {"state": {"target": ["5", "0", "9", "10", "12", "10", "11", "5", "6", "7", "6", "8", "6", "1", "2", "4"], "time": [703, 986, 2671, 3387, 4137, 4187, 5005, 7038, 7771, 8521, 8570, 11320, 11336, 12203, 13004, 13721]}, "edge": {"target": [], "time": []}}}, "displayed_time": "18.15", "trialTime": 19851, "trial_type": "mouselab-mdp", "trial_index": 26, "time_elapsed": 1238187, "internal_node_id": "0.0-4.0-1.0-17.0"}}, {"uniqueid": "w10867838:a41021582", "current_trial": 27, "dateTime": 1664874662972, "trialdata": {"revealed_states": [], "num_clicks_accrued": [0, 0, 0, 0, 0, 0, 0, 0, 0, 0, 0, 0, 0], "stateRewards": ["", -4, -4, -24, 24, -4, 4, -24, 48, -2, 4, 48, -48], "withholdReward": true, "trial_id": "mdp_774757609669", "block": "test1", "trialIndex": 20, "score": 54.25, "costs": -0.75, "simulationMode": [null, null, null], "rewards": [-2, 4, 48], "path": ["0", "0", "9", "10", "11"], "rt": [5930, 430, 593], "actions": ["left", "left", "up"], "actionTimes": [7192, 8111, 9223], "queries": {"click": {"state": {"target": ["9", "10", "11"], "time": [2436, 3887, 4687]}, "edge": {"target": [], "time": []}}, "mouseover": {"state": {"target": ["9", "10", "11"], "time": [2265, 3231, 4396]}, "edge": {"target": [], "time": []}}, "mouseout": {"state": {"target": ["1", "0", "9", "10"], "time": [814, 2065, 3115, 4364]}, "edge": {"target": [], "time": []}}}, "displayed_time": "11.27", "trialTime": 13005, "trial_type": "mouselab-mdp", "trial_index": 27, "time_elapsed": 1251229, "internal_node_id": "0.0-4.0-1.0-18.0"}}, {"uniqueid": "w10867838:a41021582", "current_trial": 28, "dateTime": 1664874690986, "trialdata": {"revealed_states": [], "num_clicks_accrued": [0, 0, 0, 0, 0, 0, 0, 0, 0, 0, 0, 0, 0], "stateRewards": ["", -2, -4, -48, -48, -2, -8, 48, -48, 4, -8, -48, 24], "withholdReward": true, "trial_id": "mdp_468495641521", "block": "test1", "trialIndex": 21, "score": 40, "costs": -3, "simulationMode": [null, null, null], "rewards": [-2, -8, 48], "path": ["0", "0", "5", "6", "7"], "rt": [22140, 380, 429], "actions": ["right", "right", "up"], "actionTimes": [24220, 25108, 26056], "queries": {"click": {"state": {"target": ["9", "10", "11", "12", "5", "6", "7", "8", "1", "2", "4", "3"], "time": [3368, 4234, 5069, 6150, 7532, 8600, 9300, 10770, 12235, 12900, 13500, 14300]}, "edge": {"target": [], "time": []}}, "mouseover": {"state": {"target": ["9", "10", "11", "12", "5", "6", "7", "8", "1", "2", "4", "3"], "time": [3145, 3977, 4796, 5596, 7195, 7978, 9112, 10496, 11812, 12661, 13361, 14028]}, "edge": {"target": [], "time": []}}, "mouseout": {"state": {"target": ["11", "0", "0", "9", "10", "11", "10", "12", "5", "6", "7", "6", "8", "6", "1", "2", "4", "2"], "time": [1512, 1596, 2962, 3945, 4763, 5378, 5496, 6695, 7945, 8995, 9495, 10428, 11295, 11361, 12629, 13311, 13912, 13961]}, "edge": {"target": [], "time": []}}}, "displayed_time": "26.56", "trialTime": 27984, "trial_type": "mouselab-mdp", "trial_index": 28, "time_elapsed": 1279243, "internal_node_id": "0.0-4.0-1.0-19.0"}}, {"uniqueid": "w10867838:a41021582", "current_trial": 29, "dateTime": 1664874706192, "trialdata": {"revealed_states": [], "num_clicks_accrued": [0, 0, 0, 0, 0, 0, 0, 0, 0, 0, 0, 0, 0], "stateRewards": ["", -2, 4, 48, -24, 2, 8, 24, 48, 2, 4, -24, -48], "withholdReward": true, "trial_id": "mdp_892412058587", "block": "test1", "trialIndex": 22, "score": 61.25, "costs": -1.75, "simulationMode": [null, null, null], "rewards": [2, 8, 48], "path": ["0", "0", "5", "6", "8"], "rt": [9559, 317, 581], "actions": ["right", "right", "down"], "actionTimes": [11165, 11990, 13087], "queries": {"click": {"state": {"target": ["9", "10", "12", "11", "5", "6", "8"], "time": [2445, 3095, 4161, 5145, 6445, 7261, 9011]}, "edge": {"target": [], "time": []}}, "mouseover": {"state": {"target": ["9", "10", "12", "11", "0", "5", "6", "8"], "time": [2121, 2889, 3972, 4839, 5805, 5905, 6889, 8640]}, "edge": {"target": [], "time": []}}, "mouseout": {"state": {"target": ["3", "2", "0", "9", "10", "12", "11", "9", "0", "5", "6", "6", "8"], "time": [905, 1122, 2089, 2840, 3923, 4689, 5339, 5772, 5838, 6855, 7856, 8555, 14441]}, "edge": {"target": [], "time": []}}}, "displayed_time": "13.61", "trialTime": 15168, "trial_type": "mouselab-mdp", "trial_index": 29, "time_elapsed": 1294450, "internal_node_id": "0.0-4.0-1.0-20.0"}}, {"uniqueid": "w10867838:a41021582", "current_trial": 30, "dateTime": 1664874725628, "trialdata": {"revealed_states": [], "num_clicks_accrued": [0, 0, 0, 0, 0, 0, 0, 0, 0, 0, 0, 0, 0], "stateRewards": ["", 4, 4, -48, -24, -2, -4, 48, 24, -4, 4, 24, -48], "withholdReward": true, "trial_id": "mdp_617383046444", "block": "test1", "trialIndex": 23, "score": 44, "costs": -3, "simulationMode": [null, null, null], "rewards": [-2, -4, 48], "path": ["0", "0", "5", "6", "7"], "rt": [14900, 322, 360], "actions": ["right", "right", "up"], "actionTimes": [15932, 16770, 17642], "queries": {"click": {"state": {"target": ["9", "10", "11", "12", "5", "6", "7", "8", "1", "2", "4", "3"], "time": [2073, 2872, 3504, 4454, 5422, 6006, 6755, 7755, 9338, 10071, 11104, 11954]}, "edge": {"target": [], "time": []}}, "mouseover": {"state": {"target": ["9", "10", "11", "12", "5", "6", "7", "8", "1", "2", "4", "3"], "time": [1933, 2599, 3299, 4215, 5199, 5815, 6449, 7516, 9199, 9815, 10932, 11715]}, "edge": {"target": [], "time": []}}, "mouseout": {"state": {"target": ["5", "0", "9", "10", "11", "10", "12", "5", "6", "7", "6", "8", "5", "1", "2", "4", "3", "7"], "time": [582, 1799, 2565, 3266, 3983, 4167, 4898, 5766, 6383, 7183, 7216, 8883, 8933, 9782, 10883, 11299, 12982, 13466]}, "edge": {"target": [], "time": []}}}, "displayed_time": "18.15", "trialTime": 19399, "trial_type": "mouselab-mdp", "trial_index": 30, "time_elapsed": 1313886, "internal_node_id": "0.0-4.0-1.0-21.0"}}, {"uniqueid": "w10867838:a41021582", "current_trial": 31, "dateTime": 1664874746573, "trialdata": {"revealed_states": [], "num_clicks_accrued": [0, 0, 0, 0, 0, 0, 0, 0, 0, 0, 0, 0, 0], "stateRewards": ["", 2, 8, -48, -24, 2, -4, -48, 24, 2, -4, -24, -24], "withholdReward": true, "trial_id": "mdp_954659099093", "block": "test1", "trialIndex": 24, "score": 24, "costs": -3, "simulationMode": [null, null, null], "rewards": [2, -4, 24], "path": ["0", "0", "5", "6", "8"], "rt": [15507, 438, 739], "actions": ["right", "right", "down"], "actionTimes": [16954, 17885, 19134], "queries": {"click": {"state": {"target": ["9", "10", "11", "12", "5", "6", "7", "8", "1", "2", "4", "3"], "time": [2319, 3069, 4318, 5135, 6051, 6669, 7402, 8118, 9402, 10118, 11185, 12268]}, "edge": {"target": [], "time": []}}, "mouseover": {"state": {"target": ["9", "10", "11", "11", "12", "5", "6", "7", "8", "0", "1", "2", "4", "3"], "time": [2145, 2879, 3545, 3913, 4796, 5713, 6444, 7162, 7746, 8895, 9196, 9812, 10978, 11929]}, "edge": {"target": [], "time": []}}, "mouseout": {"state": {"target": ["0", "9", "10", "11", "11", "10", "12", "5", "6", "7", "6", "8", "0", "1", "2", "2", "4", "2", "3"], "time": [2096, 2830, 3529, 3612, 4713, 4745, 5563, 6411, 7112, 7613, 7696, 8830, 9113, 9778, 10695, 10946, 11562, 11778, 12660]}, "edge": {"target": [], "time": []}}}, "displayed_time": "19.64", "trialTime": 20907, "trial_type": "mouselab-mdp", "trial_index": 31, "time_elapsed": 1334830, "internal_node_id": "0.0-4.0-1.0-22.0"}}, {"uniqueid": "w10867838:a41021582", "current_trial": 32, "dateTime": 1664874770602, "trialdata": {"revealed_states": [], "num_clicks_accrued": [0, 0, 0, 0, 0, 0, 0, 0, 0, 0, 0, 0, 0], "stateRewards": ["", 2, -4, -24, -24, -2, -8, -48, 24, -4, -8, 24, 24], "withholdReward": true, "trial_id": "mdp_521351546461", "block": "test1", "trialIndex": 25, "score": 16, "costs": -3, "simulationMode": [null, null, null], "rewards": [-2, -8, 24], "path": ["0", "0", "5", "6", "8"], "rt": [17978, 498, 848], "actions": ["right", "right", "down"], "actionTimes": [19496, 20497, 21864], "queries": {"click": {"state": {"target": ["9", "10", "11", "12", "5", "6", "8", "7", "1", "2", "4", "3"], "time": [2605, 3339, 4024, 4755, 6023, 6705, 7456, 8338, 9322, 10038, 11439, 12372]}, "edge": {"target": [], "time": []}}, "mouseover": {"state": {"target": ["9", "10", "11", "12", "5", "5", "6", "8", "7", "1", "2", "4", "4", "3"], "time": [2367, 3116, 3782, 4500, 5315, 5750, 6483, 7199, 8133, 9017, 9750, 10499, 11283, 11983]}, "edge": {"target": [], "time": []}}, "mouseout": {"state": {"target": ["9", "10", "11", "10", "12", "5", "5", "6", "8", "6", "7", "1", "2", "4", "4", "2", "3"], "time": [3083, 3749, 4399, 4450, 5250, 5350, 6433, 7167, 7883, 7984, 8833, 9716, 10449, 10766, 11900, 11949, 12615]}, "edge": {"target": [], "time": []}}}, "displayed_time": "22.38", "trialTime": 23991, "trial_type": "mouselab-mdp", "trial_index": 32, "time_elapsed": 1358859, "internal_node_id": "0.0-4.0-1.0-23.0"}}, {"uniqueid": "w10867838:a41021582", "current_trial": 33, "dateTime": 1664874784350, "trialdata": {"revealed_states": [], "num_clicks_accrued": [0, 0, 0, 0, 0, 0, 0, 0, 0, 0, 0, 0, 0], "stateRewards": ["", 2, -8, -48, 24, 4, 8, 48, -48, 2, -4, 24, 24], "withholdReward": false, "trial_id": "mdp_130475327289", "block": "test1", "trialIndex": 26, "score": 63.25, "costs": -1.75, "simulationMode": [null, null, null], "rewards": [4, 8, 48], "path": ["0", "0", "5", "6", "7"], "rt": [8014, 407, 472], "actions": ["right", "right", "up"], "actionTimes": [9400, 10326, 11310], "queries": {"click": {"state": {"target": ["9", "10", "12", "11", "5", "6", "7"], "time": [2342, 3026, 3809, 4726, 6109, 6742, 7542]}, "edge": {"target": [], "time": []}}, "mouseover": {"state": {"target": ["9", "10", "12", "11", "5", "5", "6", "7"], "time": [2169, 2837, 3637, 4504, 5253, 5953, 6487, 7270]}, "edge": {"target": [], "time": []}}, "mouseout": {"state": {"target": ["0", "9", "10", "12", "11", "5", "5", "6", "7"], "time": [2087, 2770, 3569, 4170, 5187, 5302, 6454, 7237, 7737]}, "edge": {"target": [], "time": []}}}, "displayed_time": "11.82", "trialTime": 13710, "trial_type": "mouselab-mdp", "trial_index": 33, "time_elapsed": 1372608, "internal_node_id": "0.0-4.0-1.0-24.0"}}, {"uniqueid": "w10867838:a41021582", "current_trial": 34, "dateTime": 1664874807148, "trialdata": {"revealed_states": [], "num_clicks_accrued": [0, 0, 0, 0, 0, 0, 0, 0, 0, 0, 0, 0, 0], "stateRewards": ["", 2, -8, -24, 48, 4, -8, -24, -24, 2, 8, -24, 24], "withholdReward": false, "trial_id": "mdp_480787552818", "block": "test1", "trialIndex": 27, "score": 44.25, "costs": -2.75, "simulationMode": [null, null, null], "rewards": [2, -8, 48], "path": ["0", "0", "1", "2", "4"], "rt": [16702, 360, 563], "actions": ["up", "up", "left"], "actionTimes": [18421, 19296, 20367], "queries": {"click": {"state": {"target": ["5", "6", "7", "8", "1", "2", "4", "9", "10", "11", "12"], "time": [3010, 3626, 4377, 5093, 6676, 7543, 8259, 13177, 13943, 15409, 16177]}, "edge": {"target": [], "time": []}}, "mouseover": {"state": {"target": ["5", "6", "7", "8", "1", "2", "4", "9", "10", "11", "12"], "time": [2789, 3387, 4137, 4853, 6336, 7154, 8004, 12804, 13736, 14620, 15953]}, "edge": {"target": [], "time": []}}, "mouseout": {"state": {"target": ["6", "5", "6", "7", "6", "8", "1", "2", "4", "9", "10", "11", "10", "12"], "time": [1137, 3354, 4104, 4754, 4820, 5555, 7104, 7971, 8771, 13704, 14588, 15837, 15921, 16654]}, "edge": {"target": [], "time": []}}}, "displayed_time": "20.89", "trialTime": 22759, "trial_type": "mouselab-mdp", "trial_index": 34, "time_elapsed": 1395405, "internal_node_id": "0.0-4.0-1.0-25.0"}}, {"uniqueid": "w10867838:a41021582", "current_trial": 35, "dateTime": 1664874824353, "trialdata": {"revealed_states": [], "num_clicks_accrued": [0, 0, 0, 0, 0, 0, 0, 0, 0, 0, 0, 0, 0], "stateRewards": ["", -4, -8, -24, 24, 2, 8, 24, 48, 2, 4, 24, -48], "withholdReward": true, "trial_id": "mdp_122352383932", "block": "test1", "trialIndex": 28, "score": 61, "costs": -2, "simulationMode": [null, null, null], "rewards": [2, 8, 48], "path": ["0", "0", "5", "6", "8"], "rt": [11183, 392, 759], "actions": ["right", "right", "down"], "actionTimes": [12853, 13761, 15028], "queries": {"click": {"state": {"target": ["9", "10", "11", "12", "5", "6", "7", "8"], "time": [3391, 4243, 5158, 6209, 7076, 7658, 8608, 10126]}, "edge": {"target": [], "time": []}}, "mouseover": {"state": {"target": ["9", "10", "11", "12", "5", "6", "7", "8"], "time": [3270, 4002, 4953, 5903, 6720, 7484, 8202, 9969]}, "edge": {"target": [], "time": []}}, "mouseout": {"state": {"target": ["0", "9", "10", "10", "11", "10", "12", "5", "6", "7", "8"], "time": [1470, 3937, 4586, 4919, 5369, 5869, 6636, 7453, 7853, 8802, 10520]}, "edge": {"target": [], "time": []}}}, "displayed_time": "15.54", "trialTime": 17164, "trial_type": "mouselab-mdp", "trial_index": 35, "time_elapsed": 1412611, "internal_node_id": "0.0-4.0-1.0-26.0"}}, {"uniqueid": "w10867838:a41021582", "current_trial": 36, "dateTime": 1664874839368, "trialdata": {"revealed_states": [], "num_clicks_accrued": [0, 0, 0, 0, 0, 0, 0, 0, 0, 0, 0, 0, 0], "stateRewards": ["", -2, -8, 48, 24, 2, 8, -48, 24, -4, 8, 48, 48], "withholdReward": true, "trial_id": "mdp_875436109858", "block": "test1", "trialIndex": 29, "score": 56, "costs": -1, "simulationMode": [null, null, null], "rewards": [-4, 8, 48], "path": ["0", "0", "9", "10", "12"], "rt": [9727, 370, 964], "actions": ["left", "left", "down"], "actionTimes": [10945, 11835, 13313], "queries": {"click": {"state": {"target": ["9", "10", "11", "12"], "time": [2188, 2820, 3755, 4771]}, "edge": {"target": [], "time": []}}, "mouseover": {"state": {"target": ["9", "10", "11", "11", "12", "5"], "time": [1881, 2647, 3231, 3565, 4699, 7049]}, "edge": {"target": [], "time": []}}, "mouseout": {"state": {"target": ["6", "5", "0", "9", "10", "11", "11", "12"], "time": [665, 731, 948, 2615, 3198, 3299, 4115, 6048]}, "edge": {"target": [], "time": []}}}, "displayed_time": "13.81", "trialTime": 14975, "trial_type": "mouselab-mdp", "trial_index": 36, "time_elapsed": 1427626, "internal_node_id": "0.0-4.0-1.0-27.0"}}, {"uniqueid": "w10867838:a41021582", "current_trial": 37, "dateTime": 1664874861600, "trialdata": {"revealed_states": [], "num_clicks_accrued": [0, 0, 0, 0, 0, 0, 0, 0, 0, 0, 0, 0, 0], "stateRewards": ["", 2, -4, 24, 48, -2, 4, -48, -48, -4, 4, 24, -24], "withholdReward": true, "trial_id": "mdp_900363662757", "block": "test1", "trialIndex": 30, "score": 48, "costs": -3, "simulationMode": [null, null, null], "rewards": [2, -4, 48], "path": ["0", "0", "1", "2", "4"], "rt": [16810, 390, 740], "actions": ["up", "up", "left"], "actionTimes": [18177, 19072, 20323], "queries": {"click": {"state": {"target": ["9", "10", "11", "12", "5", "6", "7", "8", "1", "2", "4", "3"], "time": [2790, 4371, 5322, 6605, 7689, 8338, 8989, 9773, 11054, 11655, 12655, 13654]}, "edge": {"target": [], "time": []}}, "mouseover": {"state": {"target": ["9", "10", "11", "12", "5", "6", "7", "8", "1", "2", "4", "3"], "time": [2266, 4017, 5049, 6266, 7317, 8115, 8733, 9498, 10649, 11483, 12399, 13082]}, "edge": {"target": [], "time": []}}, "mouseout": {"state": {"target": ["5", "0", "9", "10", "11", "12", "5", "6", "7", "6", "8", "5", "1", "2", "1", "4", "2", "3"], "time": [766, 2133, 3934, 4999, 5882, 7133, 8100, 8699, 9183, 9467, 10283, 10332, 11448, 12083, 12315, 12999, 13032, 14249]}, "edge": {"target": [], "time": []}}}, "displayed_time": "20.83", "trialTime": 22193, "trial_type": "mouselab-mdp", "trial_index": 37, "time_elapsed": 1449858, "internal_node_id": "0.0-4.0-1.0-28.0"}}, {"uniqueid": "w10867838:a41021582", "current_trial": 38, "dateTime": 1664874892995, "trialdata": {"revealed_states": [], "num_clicks_accrued": [0, 0, 0, 0, 0, 0, 0, 0, 0, 0, 0, 0, 0], "stateRewards": ["", 4, -8, 24, 48, -2, -4, -48, 24, 2, 4, -48, -24], "withholdReward": true, "trial_id": "mdp_749974461966", "block": "test1", "trialIndex": 31, "score": 46.25, "costs": -2.75, "simulationMode": [null, null, null], "rewards": [4, -8, 48], "path": ["0", "0", "1", "2", "4"], "rt": [25929, 413, 517], "actions": ["up", "up", "left"], "actionTimes": [27191, 28111, 29147], "queries": {"click": {"state": {"target": ["9", "10", "11", "12", "5", "6", "8", "7", "1", "2", "4"], "time": [1937, 2636, 3436, 4487, 12621, 13536, 14685, 16068, 19753, 20702, 22035]}, "edge": {"target": [], "time": []}}, "mouseover": {"state": {"target": ["9", "10", "11", "12", "5", "6", "8", "7", "7", "1", "2", "4", "3"], "time": [1730, 2380, 3081, 4064, 11831, 13231, 14347, 15262, 15730, 17430, 20447, 21646, 22414]}, "edge": {"target": [], "time": []}}, "mouseout": {"state": {"target": ["0", "9", "10", "11", "10", "12", "5", "6", "8", "6", "7", "7", "1", "2", "4", "2", "3"], "time": [1680, 2330, 3031, 3897, 3981, 8730, 13181, 14281, 15180, 15247, 15296, 16663, 20331, 21564, 22363, 22413, 22463]}, "edge": {"target": [], "time": []}}}, "displayed_time": "29.66", "trialTime": 31352, "trial_type": "mouselab-mdp", "trial_index": 38, "time_elapsed": 1481253, "internal_node_id": "0.0-4.0-1.0-29.0"}}, {"uniqueid": "w10867838:a41021582", "current_trial": 39, "dateTime": 1664874904585, "trialdata": {"rt": 11583, "stimulus": "<h1> End of block! </h1>\n\nYou have reached the end of the block 1/4. If you need a short break, feel free to take one now before moving on.\n\n<br><br>\nIn the next block, you will complete another 30 rounds of this game.\n\n<br><br>\n<div style='text-align: center;'>Press <code>space</code> to begin.</div>\n<br><br>\n<div style='text-align: center;'>(If the experiment doesn't continue, try clicking on the text and then pressing <code>space</code>.)</div>", "response": " ", "trial_id": "mdp_ready_2", "trial_type": "html-keyboard-response", "trial_index": 39, "time_elapsed": 1492843, "internal_node_id": "0.0-4.0-2.0"}}, {"uniqueid": "w10867838:a41021582", "current_trial": 40, "dateTime": 1664874919120, "trialdata": {"revealed_states": [], "num_clicks_accrued": [0, 0, 0, 0, 0, 0, 0, 0, 0, 0, 0, 0, 0], "stateRewards": ["", -4, 8, 24, -24, -2, 4, -24, 48, -2, 8, -48, -24], "withholdReward": true, "trial_id": "mdp_799359103169", "block": "test2", "trialIndex": 32, "score": 53, "costs": -2, "simulationMode": [null, null, null], "rewards": [-2, 4, 48], "path": ["0", "0", "5", "6", "8"], "rt": [9458, 406, 524], "actions": ["right", "right", "down"], "actionTimes": [10822, 11720, 12755], "queries": {"click": {"state": {"target": ["9", "10", "11", "12", "5", "6", "7", "8"], "time": [2337, 3021, 3588, 4220, 5170, 5636, 6503, 7236]}, "edge": {"target": [], "time": []}}, "mouseover": {"state": {"target": ["9", "10", "11", "12", "5", "6", "7", "8"], "time": [1797, 2779, 3430, 3915, 4998, 5530, 6131, 6898]}, "edge": {"target": [], "time": []}}, "mouseout": {"state": {"target": ["3", "1", "0", "9", "10", "11", "10", "12", "5", "6", "7", "6", "8"], "time": [781, 964, 1749, 2748, 3381, 3798, 3865, 4615, 5464, 6114, 6781, 6864, 7599]}, "edge": {"target": [], "time": []}}}, "displayed_time": "13.26", "trialTime": 14496, "trial_type": "mouselab-mdp", "trial_index": 40, "time_elapsed": 1507377, "internal_node_id": "0.0-4.0-3.0-0.0"}}, {"uniqueid": "w10867838:a41021582", "current_trial": 41, "dateTime": 1664874929747, "trialdata": {"revealed_states": [], "num_clicks_accrued": [0, 0, 0, 0, 0, 0, 0, 0, 0, 0, 0, 0, 0], "stateRewards": ["", 4, 8, 48, -48, -4, 8, -24, -24, -4, 8, 48, 48], "withholdReward": true, "trial_id": "mdp_377640328420", "block": "test2", "trialIndex": 33, "score": 56.25, "costs": -0.75, "simulationMode": [null, null, null], "rewards": [-4, 8, 48], "path": ["0", "0", "9", "10", "11"], "rt": [5456, 404, 831], "actions": ["left", "left", "up"], "actionTimes": [6704, 7599, 8943], "queries": {"click": {"state": {"target": ["9", "10", "11"], "time": [1900, 2551, 3117]}, "edge": {"target": [], "time": []}}, "mouseover": {"state": {"target": ["9", "10", "11", "12"], "time": [1695, 2445, 2910, 3462]}, "edge": {"target": [], "time": []}}, "mouseout": {"state": {"target": ["0", "9", "10", "11", "10"], "time": [1094, 2345, 2878, 3295, 3362]}, "edge": {"target": [], "time": []}}}, "displayed_time": "9.46", "trialTime": 10587, "trial_type": "mouselab-mdp", "trial_index": 41, "time_elapsed": 1518004, "internal_node_id": "0.0-4.0-3.0-1.0"}}, {"uniqueid": "w10867838:a41021582", "current_trial": 42, "dateTime": 1664874944203, "trialdata": {"revealed_states": [], "num_clicks_accrued": [0, 0, 0, 0, 0, 0, 0, 0, 0, 0, 0, 0, 0], "stateRewards": ["", -2, 8, 48, 48, 4, -8, -48, 48, 2, -4, -48, 48], "withholdReward": true, "trial_id": "mdp_132958048709", "block": "test2", "trialIndex": 34, "score": 48, "costs": -1, "simulationMode": [null, null, null], "rewards": [4, -8, 48], "path": ["0", "0", "5", "6", "8"], "rt": [6709, 599, 1343], "actions": ["right", "right", "down"], "actionTimes": [9354, 10464, 12324], "queries": {"click": {"state": {"target": ["5", "6", "7", "8"], "time": [3436, 4403, 5087, 6155]}, "edge": {"target": [], "time": []}}, "mouseover": {"state": {"target": ["5", "6", "7", "8"], "time": [3231, 4064, 4897, 5646]}, "edge": {"target": [], "time": []}}, "mouseout": {"state": {"target": ["12", "0", "5", "6", "7", "6"], "time": [1998, 3198, 3982, 4864, 5547, 5615]}, "edge": {"target": [], "time": []}}}, "displayed_time": "12.83", "trialTime": 14413, "trial_type": "mouselab-mdp", "trial_index": 42, "time_elapsed": 1532460, "internal_node_id": "0.0-4.0-3.0-2.0"}}, {"uniqueid": "w10867838:a41021582", "current_trial": 43, "dateTime": 1664874956117, "trialdata": {"revealed_states": [], "num_clicks_accrued": [0, 0, 0, 0, 0, 0, 0, 0, 0, 0, 0, 0, 0], "stateRewards": ["", 2, -8, 48, -24, -4, -8, -24, 48, -2, 4, 24, -48], "withholdReward": true, "trial_id": "mdp_186932504904", "block": "test2", "trialIndex": 35, "score": 46, "costs": -1, "simulationMode": [null, null, null], "rewards": [2, -8, 48], "path": ["0", "0", "1", "2", "3"], "rt": [4582, 459, 1181], "actions": ["up", "up", "right"], "actionTimes": [5861, 6835, 8524], "queries": {"click": {"state": {"target": ["1", "2", "4", "3"], "time": [1866, 2630, 3265, 4030]}, "edge": {"target": [], "time": []}}, "mouseover": {"state": {"target": ["1", "2", "4", "3"], "time": [1659, 2393, 3075, 3792]}, "edge": {"target": [], "time": []}}, "mouseout": {"state": {"target": ["8", "1", "2", "4", "2"], "time": [542, 2226, 3042, 3591, 3676]}, "edge": {"target": [], "time": []}}}, "displayed_time": "10.28", "trialTime": 11872, "trial_type": "mouselab-mdp", "trial_index": 43, "time_elapsed": 1544375, "internal_node_id": "0.0-4.0-3.0-3.0"}}, {"uniqueid": "w10867838:a41021582", "current_trial": 44, "dateTime": 1664874974874, "trialdata": {"revealed_states": [], "num_clicks_accrued": [0, 0, 0, 0, 0, 0, 0, 0, 0, 0, 0, 0, 0], "stateRewards": ["", 2, -4, 48, 24, 2, 8, 24, 24, -2, 4, 24, 24], "withholdReward": false, "trial_id": "mdp_813974524300", "block": "test2", "trialIndex": 36, "score": 48, "costs": -3, "simulationMode": [null, null, null], "rewards": [2, -4, 48], "path": ["0", "0", "1", "2", "3"], "rt": [13079, 366, 788], "actions": ["up", "up", "right"], "actionTimes": [14393, 15278, 16582], "queries": {"click": {"state": {"target": ["9", "10", "11", "12", "5", "6", "7", "8", "1", "2", "4", "3"], "time": [2051, 2767, 3718, 4667, 6035, 6634, 7418, 8718, 9750, 10400, 11034, 11751]}, "edge": {"target": [], "time": []}}, "mouseover": {"state": {"target": ["9", "10", "11", "12", "5", "6", "7", "8", "1", "2", "4", "3"], "time": [1811, 2579, 3328, 4377, 5779, 6446, 7145, 8144, 9644, 10211, 10879, 11494]}, "edge": {"target": [], "time": []}}, "mouseout": {"state": {"target": ["3", "1", "0", "9", "10", "11", "10", "12", "5", "6", "6", "7", "6", "8", "5", "1", "2", "4", "2", "3"], "time": [695, 796, 1779, 2496, 3279, 4313, 4362, 5228, 6411, 6879, 7079, 7612, 8128, 9262, 9312, 10179, 10828, 11395, 11462, 12145]}, "edge": {"target": [], "time": []}}}, "displayed_time": "17.09", "trialTime": 18717, "trial_type": "mouselab-mdp", "trial_index": 44, "time_elapsed": 1563132, "internal_node_id": "0.0-4.0-3.0-4.0"}}, {"uniqueid": "w10867838:a41021582", "current_trial": 45, "dateTime": 1664874994272, "trialdata": {"revealed_states": [], "num_clicks_accrued": [0, 0, 0, 0, 0, 0, 0, 0, 0, 0, 0, 0, 0], "stateRewards": ["", -2, -8, 24, -48, -4, 8, -48, -24, 4, 8, -24, 24], "withholdReward": false, "trial_id": "mdp_940444641142", "block": "test2", "trialIndex": 37, "score": 38, "costs": -3, "simulationMode": [null, null, null], "rewards": [4, 8, 24], "path": ["0", "0", "9", "10", "12"], "rt": [12899, 348, 1118], "actions": ["left", "left", "down"], "actionTimes": [14738, 15584, 17221], "queries": {"click": {"state": {"target": ["9", "10", "11", "12", "5", "6", "7", "8", "1", "2", "3", "4"], "time": [2676, 3342, 4008, 4810, 6077, 6559, 7242, 8043, 8958, 9625, 10308, 11242]}, "edge": {"target": [], "time": []}}, "mouseover": {"state": {"target": ["9", "10", "11", "12", "5", "6", "7", "8", "8", "1", "2", "3", "4", "4"], "time": [2470, 3120, 3769, 4586, 5904, 6370, 7036, 7486, 7903, 8820, 9436, 10102, 10820, 11086]}, "edge": {"target": [], "time": []}}, "mouseout": {"state": {"target": ["0", "0", "9", "10", "11", "10", "12", "5", "6", "7", "6", "8", "8", "5", "1", "2", "3", "2", "4", "4", "9"], "time": [1070, 2403, 3087, 3737, 4237, 4553, 5220, 6337, 6837, 7436, 7470, 7519, 8470, 8520, 9404, 10069, 10770, 10819, 10886, 11470, 11803]}, "edge": {"target": [], "time": []}}}, "displayed_time": "17.74", "trialTime": 19356, "trial_type": "mouselab-mdp", "trial_index": 45, "time_elapsed": 1582530, "internal_node_id": "0.0-4.0-3.0-5.0"}}, {"uniqueid": "w10867838:a41021582", "current_trial": 46, "dateTime": 1664875010692, "trialdata": {"revealed_states": [], "num_clicks_accrued": [0, 0, 0, 0, 0, 0, 0, 0, 0, 0, 0, 0, 0], "stateRewards": ["", 2, -4, 48, -48, 2, 4, -24, 24, -4, -8, 24, -48], "withholdReward": true, "trial_id": "mdp_238810765895", "block": "test2", "trialIndex": 38, "score": 48, "costs": -3, "simulationMode": [null, null, null], "rewards": [2, -4, 48], "path": ["0", "0", "1", "2", "3"], "rt": [11406, 336, 649], "actions": ["up", "up", "right"], "actionTimes": [12512, 13358, 14519], "queries": {"click": {"state": {"target": ["9", "10", "11", "12", "5", "6", "7", "8", "1", "2", "4", "3"], "time": [2094, 2694, 3227, 4076, 5077, 5593, 6176, 7027, 8778, 9327, 10027, 10726]}, "edge": {"target": [], "time": []}}, "mouseover": {"state": {"target": ["9", "10", "11", "12", "5", "5", "6", "7", "8", "1", "2", "4", "3"], "time": [1971, 2520, 3071, 3871, 4538, 4855, 5437, 6004, 6721, 8337, 9154, 9886, 10504]}, "edge": {"target": [], "time": []}}, "mouseout": {"state": {"target": ["0", "9", "10", "11", "10", "12", "5", "5", "6", "7", "6", "8", "5", "1", "2", "4", "2", "3"], "time": [1888, 2487, 3038, 3421, 3471, 4455, 4639, 5371, 5971, 6421, 6688, 8272, 8304, 9088, 9839, 10320, 10404, 11154]}, "edge": {"target": [], "time": []}}}, "displayed_time": "15.04", "trialTime": 16379, "trial_type": "mouselab-mdp", "trial_index": 46, "time_elapsed": 1598950, "internal_node_id": "0.0-4.0-3.0-6.0"}}, {"uniqueid": "w10867838:a41021582", "current_trial": 47, "dateTime": 1664875027888, "trialdata": {"revealed_states": [], "num_clicks_accrued": [0, 0, 0, 0, 0, 0, 0, 0, 0, 0, 0, 0, 0], "stateRewards": ["", 4, -8, -24, 24, 2, -4, 24, 24, 2, -4, 48, 48], "withholdReward": true, "trial_id": "mdp_457607480918", "block": "test2", "trialIndex": 39, "score": 48.25, "costs": -2.75, "simulationMode": [null, null, null], "rewards": [2, -4, 48], "path": ["0", "0", "9", "10", "12"], "rt": [12414, 382, 557], "actions": ["left", "left", "down"], "actionTimes": [13448, 14349, 15425], "queries": {"click": {"state": {"target": ["1", "2", "4", "3", "5", "6", "8", "7", "9", "10", "12"], "time": [1624, 2290, 3224, 4140, 5257, 6024, 6839, 7757, 9273, 9855, 10574]}, "edge": {"target": [], "time": []}}, "mouseover": {"state": {"target": ["1", "2", "4", "3", "5", "6", "8", "7", "9", "10", "12"], "time": [1452, 2100, 3001, 3817, 5100, 5667, 6634, 7434, 9134, 9734, 10401]}, "edge": {"target": [], "time": []}}, "mouseout": {"state": {"target": ["1", "0", "1", "2", "4", "2", "3", "5", "6", "8", "7", "9", "10", "12"], "time": [551, 851, 2067, 2951, 3367, 3451, 4651, 5633, 6585, 7284, 8800, 9667, 10350, 10768]}, "edge": {"target": [], "time": []}}}, "displayed_time": "15.93", "trialTime": 17154, "trial_type": "mouselab-mdp", "trial_index": 47, "time_elapsed": 1616146, "internal_node_id": "0.0-4.0-3.0-7.0"}}, {"uniqueid": "w10867838:a41021582", "current_trial": 48, "dateTime": 1664875042808, "trialdata": {"revealed_states": [], "num_clicks_accrued": [0, 0, 0, 0, 0, 0, 0, 0, 0, 0, 0, 0, 0], "stateRewards": ["", -4, 4, -24, 48, 2, 4, -48, 24, 4, -8, -24, 24], "withholdReward": true, "trial_id": "mdp_740130150937", "block": "test2", "trialIndex": 40, "score": 50.25, "costs": -2.75, "simulationMode": [null, null, null], "rewards": [-4, 4, 48], "path": ["0", "0", "1", "2", "4"], "rt": [10138, 472, 533], "actions": ["up", "up", "left"], "actionTimes": [11494, 12477, 13519], "queries": {"click": {"state": {"target": ["9", "10", "11", "12", "5", "6", "7", "8", "1", "2", "4"], "time": [2042, 2828, 3511, 4092, 4944, 5444, 5927, 6693, 8093, 8642, 9210]}, "edge": {"target": [], "time": []}}, "mouseover": {"state": {"target": ["9", "10", "11", "12", "0", "5", "6", "7", "8", "0", "1", "2", "4", "3"], "time": [1870, 2571, 3320, 3854, 4621, 4654, 5303, 5753, 6454, 7704, 7788, 8487, 9070, 9754]}, "edge": {"target": [], "time": []}}, "mouseout": {"state": {"target": ["0", "0", "9", "10", "11", "10", "12", "0", "5", "6", "7", "6", "8", "8", "0", "1", "2", "4", "2"], "time": [838, 1838, 2454, 3287, 3704, 3771, 4554, 4636, 5271, 5721, 6087, 6404, 7054, 7304, 7720, 8453, 9021, 9404, 9703]}, "edge": {"target": [], "time": []}}}, "displayed_time": "14.02", "trialTime": 14878, "trial_type": "mouselab-mdp", "trial_index": 48, "time_elapsed": 1631066, "internal_node_id": "0.0-4.0-3.0-8.0"}}, {"uniqueid": "w10867838:a41021582", "current_trial": 49, "dateTime": 1664875058639, "trialdata": {"revealed_states": [], "num_clicks_accrued": [0, 0, 0, 0, 0, 0, 0, 0, 0, 0, 0, 0, 0], "stateRewards": ["", 4, -4, 48, 24, 2, -8, 24, -48, -2, -4, -48, -48], "withholdReward": false, "trial_id": "mdp_655302318695", "block": "test2", "trialIndex": 41, "score": 50.25, "costs": -2.75, "simulationMode": [null, null, null], "rewards": [4, -4, 48], "path": ["0", "0", "1", "2", "3"], "rt": [10015, 323, 430], "actions": ["up", "up", "right"], "actionTimes": [11556, 12389, 13328], "queries": {"click": {"state": {"target": ["9", "10", "11", "12", "5", "6", "7", "8", "1", "2", "3"], "time": [2289, 2788, 3321, 3854, 4720, 5255, 5856, 6521, 7388, 7905, 8436]}, "edge": {"target": [], "time": []}}, "mouseover": {"state": {"target": ["9", "10", "11", "12", "5", "6", "7", "8", "1", "2", "3", "4"], "time": [2049, 2699, 3050, 3566, 4315, 5049, 5683, 6182, 7232, 7749, 8282, 9166]}, "edge": {"target": [], "time": []}}, "mouseout": {"state": {"target": ["3", "5", "0", "9", "10", "11", "10", "12", "5", "6", "7", "6", "8", "1", "2", "3", "2", "4"], "time": [782, 1116, 2016, 2632, 3016, 3500, 3531, 4249, 4982, 5649, 6082, 6149, 6932, 7716, 8249, 8665, 8749, 10104]}, "edge": {"target": [], "time": []}}}, "displayed_time": "13.83", "trialTime": 15788, "trial_type": "mouselab-mdp", "trial_index": 49, "time_elapsed": 1646896, "internal_node_id": "0.0-4.0-3.0-9.0"}}, {"uniqueid": "w10867838:a41021582", "current_trial": 50, "dateTime": 1664875070149, "trialdata": {"revealed_states": [], "num_clicks_accrued": [0, 0, 0, 0, 0, 0, 0, 0, 0, 0, 0, 0, 0], "stateRewards": ["", 4, 8, -48, -48, 2, 4, -24, -48, 2, 8, 48, -48], "withholdReward": false, "trial_id": "mdp_902172716465", "block": "test2", "trialIndex": 42, "score": 62.25, "costs": -0.75, "simulationMode": [null, null, null], "rewards": [2, 8, 48], "path": ["0", "0", "9", "10", "11"], "rt": [3976, 899, 1661], "actions": ["left", "left", "up"], "actionTimes": [5328, 6739, 8916], "queries": {"click": {"state": {"target": ["9", "10", "11"], "time": [1978, 2561, 3560]}, "edge": {"target": [], "time": []}}, "mouseover": {"state": {"target": ["9", "10", "11"], "time": [1754, 2422, 3204]}, "edge": {"target": [], "time": []}}, "mouseout": {"state": {"target": ["4", "9", "0", "9", "10", "11"], "time": [654, 805, 1739, 2371, 3188, 3955]}, "edge": {"target": [], "time": []}}}, "displayed_time": "10.36", "trialTime": 11471, "trial_type": "mouselab-mdp", "trial_index": 50, "time_elapsed": 1658407, "internal_node_id": "0.0-4.0-3.0-10.0"}}, {"uniqueid": "w10867838:a41021582", "current_trial": 51, "dateTime": 1664875081670, "trialdata": {"revealed_states": [], "num_clicks_accrued": [0, 0, 0, 0, 0, 0, 0, 0, 0, 0, 0, 0, 0], "stateRewards": ["", 2, 8, -24, -48, 2, 4, -24, 48, 2, -8, 48, -24], "withholdReward": false, "trial_id": "mdp_791659307216", "block": "test2", "trialIndex": 43, "score": 58, "costs": -1, "simulationMode": [null, null, null], "rewards": [2, 4, 48], "path": ["0", "0", "5", "6", "8"], "rt": [4838, 659, 674], "actions": ["right", "right", "down"], "actionTimes": [5930, 7098, 8282], "queries": {"click": {"state": {"target": ["5", "6", "7", "8"], "time": [1896, 2531, 3479, 4463]}, "edge": {"target": [], "time": []}}, "mouseover": {"state": {"target": ["5", "6", "7", "8"], "time": [1690, 2291, 3074, 4123]}, "edge": {"target": [], "time": []}}, "mouseout": {"state": {"target": ["9", "0", "0", "5", "6", "6", "7", "6", "8"], "time": [607, 640, 1657, 2241, 2757, 3007, 3656, 4090, 4690]}, "edge": {"target": [], "time": []}}}, "displayed_time": "9.10", "trialTime": 11478, "trial_type": "mouselab-mdp", "trial_index": 51, "time_elapsed": 1669927, "internal_node_id": "0.0-4.0-3.0-11.0"}}, {"uniqueid": "w10867838:a41021582", "current_trial": 52, "dateTime": 1664875095251, "trialdata": {"revealed_states": [], "num_clicks_accrued": [0, 0, 0, 0, 0, 0, 0, 0, 0, 0, 0, 0, 0], "stateRewards": ["", 4, -8, 48, 24, 4, -4, 48, 48, -4, 8, -48, 24], "withholdReward": true, "trial_id": "mdp_303828806348", "block": "test2", "trialIndex": 44, "score": 47, "costs": -2, "simulationMode": [null, null, null], "rewards": [4, -8, 48], "path": ["0", "0", "1", "2", "3"], "rt": [8699, 370, 591], "actions": ["up", "up", "right"], "actionTimes": [9770, 10657, 11761], "queries": {"click": {"state": {"target": ["9", "10", "11", "12", "1", "2", "4", "3"], "time": [1677, 2493, 3192, 4125, 5126, 6009, 6676, 7626]}, "edge": {"target": [], "time": []}}, "mouseover": {"state": {"target": ["9", "10", "11", "12", "1", "2", "4", "3", "3"], "time": [1486, 2204, 2954, 3620, 4704, 5570, 6469, 7253, 7521]}, "edge": {"target": [], "time": []}}, "mouseout": {"state": {"target": ["0", "9", "10", "11", "10", "12", "1", "2", "4", "2", "2", "3"], "time": [1453, 2104, 2887, 3437, 3587, 4587, 5520, 6454, 6904, 6970, 7236, 7320]}, "edge": {"target": [], "time": []}}}, "displayed_time": "12.27", "trialTime": 13540, "trial_type": "mouselab-mdp", "trial_index": 52, "time_elapsed": 1683509, "internal_node_id": "0.0-4.0-3.0-12.0"}}, {"uniqueid": "w10867838:a41021582", "current_trial": 53, "dateTime": 1664875113895, "trialdata": {"revealed_states": [], "num_clicks_accrued": [0, 0, 0, 0, 0, 0, 0, 0, 0, 0, 0, 0, 0], "stateRewards": ["", 2, -4, 48, -24, 4, -8, -24, 48, -2, -4, 24, -48], "withholdReward": true, "trial_id": "mdp_357328205509", "block": "test2", "trialIndex": 45, "score": 50, "costs": -1, "simulationMode": [null, null, null], "rewards": [2, -4, 48], "path": ["0", "0", "1", "2", "3"], "rt": [5567, 393, 669], "actions": ["up", "up", "right"], "actionTimes": [6806, 7715, 8876], "queries": {"click": {"state": {"target": ["1", "2", "4", "3"], "time": [2378, 3111, 3794, 4527]}, "edge": {"target": [], "time": []}}, "mouseover": {"state": {"target": ["1", "2", "4", "3"], "time": [2239, 2855, 3638, 4288]}, "edge": {"target": [], "time": []}}, "mouseout": {"state": {"target": ["3", "0", "1", "2", "4", "2"], "time": [572, 1971, 2804, 3589, 3988, 4239]}, "edge": {"target": [], "time": []}}}, "displayed_time": "10.24", "trialTime": 18603, "trial_type": "mouselab-mdp", "trial_index": 53, "time_elapsed": 1702153, "internal_node_id": "0.0-4.0-3.0-13.0"}}, {"uniqueid": "w10867838:a41021582", "current_trial": 54, "dateTime": 1664875135973, "trialdata": {"revealed_states": [], "num_clicks_accrued": [0, 0, 0, 0, 0, 0, 0, 0, 0, 0, 0, 0, 0], "stateRewards": ["", 2, -8, 24, -48, 2, 4, 48, -48, -2, -8, -48, 48], "withholdReward": true, "trial_id": "mdp_629420544881", "block": "test2", "trialIndex": 46, "score": 57, "costs": -2, "simulationMode": [null, null, null], "rewards": [2, 4, 48], "path": ["0", "0", "5", "6", "7"], "rt": [13121, 428, 622], "actions": ["right", "right", "up"], "actionTimes": [17847, 18786, 19913], "queries": {"click": {"state": {"target": ["9", "10", "11", "12", "5", "6", "8", "7"], "time": [8547, 9346, 10281, 11146, 12763, 13397, 14145, 15046]}, "edge": {"target": [], "time": []}}, "mouseover": {"state": {"target": ["9", "10", "11", "12", "5", "6", "8", "7"], "time": [8308, 9074, 9858, 10807, 12575, 13191, 13957, 14656]}, "edge": {"target": [], "time": []}}, "mouseout": {"state": {"target": ["3", "2", "1", "9", "10", "11", "10", "12", "5", "6", "8", "6"], "time": [2958, 3107, 3225, 9007, 9790, 10674, 10758, 11625, 13141, 13907, 14589, 14623]}, "edge": {"target": [], "time": []}}}, "displayed_time": "20.42", "trialTime": 22034, "trial_type": "mouselab-mdp", "trial_index": 54, "time_elapsed": 1724231, "internal_node_id": "0.0-4.0-3.0-14.0"}}, {"uniqueid": "w10867838:a41021582", "current_trial": 55, "dateTime": 1664875148320, "trialdata": {"revealed_states": [], "num_clicks_accrued": [0, 0, 0, 0, 0, 0, 0, 0, 0, 0, 0, 0, 0], "stateRewards": ["", -2, 8, -48, -24, -2, 8, 48, -48, -4, 8, 24, 48], "withholdReward": true, "trial_id": "mdp_160707003673", "block": "test2", "trialIndex": 47, "score": 56, "costs": -1, "simulationMode": [null, null, null], "rewards": [-4, 8, 48], "path": ["0", "0", "9", "10", "12"], "rt": [7007, 415, 844], "actions": ["left", "left", "down"], "actionTimes": [8453, 9362, 10724], "queries": {"click": {"state": {"target": ["9", "10", "11", "12"], "time": [2669, 3853, 5068, 5985]}, "edge": {"target": [], "time": []}}, "mouseover": {"state": {"target": ["9", "9", "10", "11", "12"], "time": [1847, 2530, 3279, 4947, 5562]}, "edge": {"target": [], "time": []}}, "mouseout": {"state": {"target": ["7", "5", "0", "9", "9", "10", "11", "10"], "time": [480, 663, 1813, 1913, 3062, 4747, 5480, 5530]}, "edge": {"target": [], "time": []}}}, "displayed_time": "11.23", "trialTime": 12304, "trial_type": "mouselab-mdp", "trial_index": 55, "time_elapsed": 1736578, "internal_node_id": "0.0-4.0-3.0-15.0"}}, {"uniqueid": "w10867838:a41021582", "current_trial": 56, "dateTime": 1664875161652, "trialdata": {"revealed_states": [], "num_clicks_accrued": [0, 0, 0, 0, 0, 0, 0, 0, 0, 0, 0, 0, 0], "stateRewards": ["", -2, 8, 48, -24, 2, 4, -48, -24, -4, 8, -48, -48], "withholdReward": true, "trial_id": "mdp_539167561933", "block": "test2", "trialIndex": 48, "score": 58, "costs": -1, "simulationMode": [null, null, null], "rewards": [-2, 8, 48], "path": ["0", "0", "1", "2", "3"], "rt": [5839, 438, 492], "actions": ["up", "up", "right"], "actionTimes": [6838, 7769, 8774], "queries": {"click": {"state": {"target": ["1", "2", "4", "3"], "time": [1704, 2372, 3236, 4321]}, "edge": {"target": [], "time": []}}, "mouseover": {"state": {"target": ["1", "2", "4", "3"], "time": [1447, 2147, 3047, 4098]}, "edge": {"target": [], "time": []}}, "mouseout": {"state": {"target": ["12", "0", "1", "1", "2", "2", "4", "2"], "time": [515, 1383, 1898, 2115, 2565, 3015, 3498, 3731]}, "edge": {"target": [], "time": []}}}, "displayed_time": "11.00", "trialTime": 13286, "trial_type": "mouselab-mdp", "trial_index": 56, "time_elapsed": 1749910, "internal_node_id": "0.0-4.0-3.0-16.0"}}, {"uniqueid": "w10867838:a41021582", "current_trial": 57, "dateTime": 1664875176478, "trialdata": {"revealed_states": [], "num_clicks_accrued": [0, 0, 0, 0, 0, 0, 0, 0, 0, 0, 0, 0, 0], "stateRewards": ["", 2, 4, 48, 24, -2, -8, 24, 24, -2, 4, -48, 24], "withholdReward": true, "trial_id": "mdp_130849500124", "block": "test2", "trialIndex": 49, "score": 56.25, "costs": -2.75, "simulationMode": [null, null, null], "rewards": [2, 4, 48], "path": ["0", "0", "1", "2", "3"], "rt": [9785, 365, 429], "actions": ["up", "up", "right"], "actionTimes": [11237, 12114, 13061], "queries": {"click": {"state": {"target": ["9", "10", "11", "12", "5", "6", "7", "8", "1", "2", "3"], "time": [2306, 2856, 3489, 4240, 5488, 5906, 6388, 7355, 8290, 8856, 9622]}, "edge": {"target": [], "time": []}}, "mouseover": {"state": {"target": ["9", "10", "11", "12", "5", "5", "6", "7", "8", "8", "1", "2", "3"], "time": [2115, 2699, 3416, 3983, 5150, 5366, 5699, 6216, 6665, 7183, 7949, 8698, 9383]}, "edge": {"target": [], "time": []}}, "mouseout": {"state": {"target": ["3", "1", "9", "0", "9", "10", "11", "10", "12", "5", "5", "6", "7", "6", "8", "8", "5", "1", "2", "3"], "time": [883, 966, 1183, 2083, 2667, 3250, 3820, 3916, 4682, 5166, 5651, 6150, 6600, 6649, 6933, 7883, 7916, 8648, 9316, 9984]}, "edge": {"target": [], "time": []}}}, "displayed_time": "13.57", "trialTime": 14783, "trial_type": "mouselab-mdp", "trial_index": 57, "time_elapsed": 1764736, "internal_node_id": "0.0-4.0-3.0-17.0"}}, {"uniqueid": "w10867838:a41021582", "current_trial": 58, "dateTime": 1664875190298, "trialdata": {"revealed_states": [], "num_clicks_accrued": [0, 0, 0, 0, 0, 0, 0, 0, 0, 0, 0, 0, 0], "stateRewards": ["", 4, -8, 48, -24, -4, 4, 24, 24, -2, -4, 24, 24], "withholdReward": false, "trial_id": "mdp_542168715839", "block": "test2", "trialIndex": 50, "score": 48, "costs": -1, "simulationMode": [null, null, null], "rewards": [4, -8, 48], "path": ["0", "0", "1", "2", "3"], "rt": [8729, 386, 541], "actions": ["up", "up", "right"], "actionTimes": [9714, 10607, 11659], "queries": {"click": {"state": {"target": ["1", "2", "4", "3"], "time": [1725, 2291, 2909, 4175]}, "edge": {"target": [], "time": []}}, "mouseover": {"state": {"target": ["1", "2", "4", "3", "3"], "time": [1553, 2170, 2752, 3334, 4003]}, "edge": {"target": [], "time": []}}, "mouseout": {"state": {"target": ["9", "0", "0", "1", "2", "4", "2", "3", "3"], "time": [669, 770, 1469, 2120, 2702, 3269, 3320, 3419, 4369]}, "edge": {"target": [], "time": []}}}, "displayed_time": "12.17", "trialTime": 13772, "trial_type": "mouselab-mdp", "trial_index": 58, "time_elapsed": 1778556, "internal_node_id": "0.0-4.0-3.0-18.0"}}, {"uniqueid": "w10867838:a41021582", "current_trial": 59, "dateTime": 1664875206968, "trialdata": {"revealed_states": [], "num_clicks_accrued": [0, 0, 0, 0, 0, 0, 0, 0, 0, 0, 0, 0, 0], "stateRewards": ["", -2, -4, -24, -48, -4, -8, -48, 24, -4, -8, -24, -48], "withholdReward": true, "trial_id": "mdp_475782454549", "block": "test2", "trialIndex": 51, "score": 14, "costs": -3, "simulationMode": [null, null, null], "rewards": [-4, -8, 24], "path": ["0", "0", "5", "6", "8"], "rt": [11617, 365, 657], "actions": ["right", "right", "down"], "actionTimes": [12824, 13701, 14878], "queries": {"click": {"state": {"target": ["9", "10", "11", "12", "5", "6", "7", "8", "1", "2", "3", "4"], "time": [1910, 2491, 2993, 3825, 4791, 5325, 5891, 6491, 8175, 8725, 9276, 10091]}, "edge": {"target": [], "time": []}}, "mouseover": {"state": {"target": ["9", "10", "11", "12", "6", "5", "6", "7", "8", "0", "1", "2", "3", "4"], "time": [1701, 2335, 2869, 3503, 4286, 4586, 5152, 5802, 6234, 7720, 7836, 8570, 9136, 9720]}, "edge": {"target": [], "time": []}}, "mouseout": {"state": {"target": ["5", "0", "9", "10", "11", "10", "12", "6", "5", "6", "7", "6", "8", "0", "1", "2", "3", "4"], "time": [785, 1670, 2302, 2836, 3187, 3252, 4170, 4502, 5135, 5686, 6136, 6219, 7303, 7735, 8519, 9102, 9519, 10286]}, "edge": {"target": [], "time": []}}}, "displayed_time": "15.38", "trialTime": 16627, "trial_type": "mouselab-mdp", "trial_index": 59, "time_elapsed": 1795226, "internal_node_id": "0.0-4.0-3.0-19.0"}}, {"uniqueid": "w10867838:a41021582", "current_trial": 60, "dateTime": 1664875219683, "trialdata": {"revealed_states": [], "num_clicks_accrued": [0, 0, 0, 0, 0, 0, 0, 0, 0, 0, 0, 0, 0], "stateRewards": ["", -4, -8, -48, 48, -2, 8, 48, 48, -2, -4, -48, -48], "withholdReward": false, "trial_id": "mdp_752833580638", "block": "test2", "trialIndex": 52, "score": 57.25, "costs": -1.75, "simulationMode": [null, null, null], "rewards": [-2, 8, 48], "path": ["0", "0", "5", "6", "7"], "rt": [6598, 532, 677], "actions": ["right", "right", "up"], "actionTimes": [7846, 8898, 10094], "queries": {"click": {"state": {"target": ["9", "10", "11", "12", "5", "6", "7"], "time": [2056, 2706, 3256, 4039, 4856, 5473, 6339]}, "edge": {"target": [], "time": []}}, "mouseover": {"state": {"target": ["9", "10", "11", "12", "5", "6", "7", "7"], "time": [1866, 2533, 3100, 3800, 4517, 5317, 5899, 6149]}, "edge": {"target": [], "time": []}}, "mouseout": {"state": {"target": ["0", "0", "9", "10", "11", "10", "12", "5", "6", "7", "7"], "time": [767, 1601, 2484, 3067, 3450, 3516, 4418, 5267, 5882, 5932, 6833]}, "edge": {"target": [], "time": []}}}, "displayed_time": "11.25", "trialTime": 12672, "trial_type": "mouselab-mdp", "trial_index": 60, "time_elapsed": 1807940, "internal_node_id": "0.0-4.0-3.0-20.0"}}, {"uniqueid": "w10867838:a41021582", "current_trial": 61, "dateTime": 1664875237177, "trialdata": {"revealed_states": [], "num_clicks_accrued": [0, 0, 0, 0, 0, 0, 0, 0, 0, 0, 0, 0, 0], "stateRewards": ["", -4, 8, -24, 24, -2, -8, 24, -24, 4, -4, -48, 48], "withholdReward": true, "trial_id": "mdp_297684722007", "block": "test2", "trialIndex": 53, "score": 50, "costs": -3, "simulationMode": [null, null, null], "rewards": [4, -4, 48], "path": ["0", "0", "9", "10", "12"], "rt": [12453, 405, 618], "actions": ["left", "left", "down"], "actionTimes": [13988, 14905, 16034], "queries": {"click": {"state": {"target": ["1", "2", "4", "3", "5", "6", "7", "8", "9", "10", "11", "12"], "time": [3307, 3940, 4607, 5573, 7223, 7706, 8391, 9173, 10190, 10906, 11591, 12324]}, "edge": {"target": [], "time": []}}, "mouseover": {"state": {"target": ["1", "2", "4", "3", "6", "6", "5", "6", "7", "8", "0", "9", "10", "11", "12"], "time": [3084, 3785, 4417, 5267, 6568, 6785, 6917, 7450, 8134, 8650, 9835, 10051, 10635, 11434, 12150]}, "edge": {"target": [], "time": []}}, "mouseout": {"state": {"target": ["6", "0", "1", "2", "4", "2", "3", "6", "6", "5", "6", "7", "6", "8", "0", "9", "10", "11", "10", "12"], "time": [434, 2835, 3701, 4369, 5002, 5251, 6483, 6583, 6868, 7418, 8085, 8568, 8617, 9418, 9850, 10567, 11384, 11801, 12116, 12734]}, "edge": {"target": [], "time": []}}}, "displayed_time": "16.55", "trialTime": 17452, "trial_type": "mouselab-mdp", "trial_index": 61, "time_elapsed": 1825435, "internal_node_id": "0.0-4.0-3.0-21.0"}}, {"uniqueid": "w10867838:a41021582", "current_trial": 62, "dateTime": 1664875256215, "trialdata": {"revealed_states": [], "num_clicks_accrued": [0, 0, 0, 0, 0, 0, 0, 0, 0, 0, 0, 0, 0], "stateRewards": ["", 4, 4, -48, -24, -2, -4, 48, 24, -4, 4, 24, -48], "withholdReward": false, "trial_id": "mdp_617383046444", "block": "test2", "trialIndex": 54, "score": 44.25, "costs": -2.75, "simulationMode": [null, null, null], "rewards": [-2, -4, 48], "path": ["0", "0", "5", "6", "7"], "rt": [14207, 392, 458], "actions": ["right", "right", "up"], "actionTimes": [15350, 16250, 17217], "queries": {"click": {"state": {"target": ["9", "10", "12", "11", "5", "6", "7", "1", "2", "3", "4"], "time": [1698, 2247, 2714, 3381, 4497, 4898, 5282, 9081, 10997, 12531, 13548]}, "edge": {"target": [], "time": []}}, "mouseover": {"state": {"target": ["9", "10", "12", "11", "5", "6", "5", "6", "7", "8", "1", "2", "2", "3", "4", "4"], "time": [1508, 2091, 2574, 3192, 3993, 4076, 4374, 4741, 5142, 5959, 8607, 9640, 10207, 11758, 13075, 13342]}, "edge": {"target": [], "time": []}}, "mouseout": {"state": {"target": ["0", "9", "10", "12", "9", "11", "5", "6", "5", "6", "7", "6", "8", "1", "2", "2", "2", "3", "2", "4", "4"], "time": [1476, 2058, 2475, 2992, 3091, 3575, 4025, 4293, 4724, 5092, 5524, 5607, 8176, 9591, 9820, 11492, 11726, 12975, 13008, 13090, 13942]}, "edge": {"target": [], "time": []}}}, "displayed_time": "17.73", "trialTime": 18997, "trial_type": "mouselab-mdp", "trial_index": 62, "time_elapsed": 1844473, "internal_node_id": "0.0-4.0-3.0-22.0"}}, {"uniqueid": "w10867838:a41021582", "current_trial": 63, "dateTime": 1664875272519, "trialdata": {"revealed_states": [], "num_clicks_accrued": [0, 0, 0, 0, 0, 0, 0, 0, 0, 0, 0, 0, 0], "stateRewards": ["", 2, 4, -48, -24, 2, 8, 24, 48, -2, 4, 48, -48], "withholdReward": true, "trial_id": "mdp_551894842204", "block": "test2", "trialIndex": 55, "score": 61.25, "costs": -1.75, "simulationMode": [null, null, null], "rewards": [2, 8, 48], "path": ["0", "0", "5", "6", "8"], "rt": [11218, 379, 773], "actions": ["right", "right", "down"], "actionTimes": [12580, 13462, 14755], "queries": {"click": {"state": {"target": ["9", "10", "11", "5", "6", "7", "8"], "time": [2171, 2755, 3621, 8171, 9071, 10121, 11121]}, "edge": {"target": [], "time": []}}, "mouseover": {"state": {"target": ["0", "9", "10", "11", "5", "6", "7", "8", "8"], "time": [1899, 1965, 2649, 3250, 8033, 8865, 9648, 10681, 10932]}, "edge": {"target": [], "time": []}}, "mouseout": {"state": {"target": ["0", "9", "10", "11", "9", "5", "6", "7", "6", "8"], "time": [1916, 2582, 3148, 4799, 7499, 8533, 9632, 10615, 10665, 10714]}, "edge": {"target": [], "time": []}}}, "displayed_time": "15.27", "trialTime": 16260, "trial_type": "mouselab-mdp", "trial_index": 63, "time_elapsed": 1860777, "internal_node_id": "0.0-4.0-3.0-23.0"}}, {"uniqueid": "w10867838:a41021582", "current_trial": 64, "dateTime": 1664875295165, "trialdata": {"revealed_states": [], "num_clicks_accrued": [0, 0, 0, 0, 0, 0, 0, 0, 0, 0, 0, 0, 0], "stateRewards": ["", 4, 4, -24, -48, 2, 4, 24, -48, 2, 4, 24, 24], "withholdReward": true, "trial_id": "mdp_223558518218", "block": "test2", "trialIndex": 56, "score": 32, "costs": -3, "simulationMode": [null, null, null], "rewards": [2, 4, 24], "path": ["0", "0", "5", "6", "7"], "rt": [17886, 396, 522], "actions": ["right", "right", "up"], "actionTimes": [19026, 19924, 20951], "queries": {"click": {"state": {"target": ["9", "10", "11", "12", "5", "6", "7", "8", "1", "2", "4", "3"], "time": [1936, 2750, 3417, 4302, 5533, 6251, 7068, 8066, 9318, 9968, 10784, 11568]}, "edge": {"target": [], "time": []}}, "mouseover": {"state": {"target": ["9", "10", "11", "12", "12", "5", "6", "7", "8", "1", "2", "4", "3"], "time": [1713, 2329, 3162, 3928, 4112, 5213, 5961, 6811, 7629, 9113, 9761, 10512, 11345]}, "edge": {"target": [], "time": []}}, "mouseout": {"state": {"target": ["8", "0", "9", "10", "11", "10", "12", "12", "5", "6", "7", "6", "8", "5", "1", "2", "4", "2", "3"], "time": [545, 1613, 2312, 3112, 3846, 3895, 3945, 4778, 5912, 6763, 7280, 7596, 8746, 8795, 9730, 10429, 11246, 11311, 11778]}, "edge": {"target": [], "time": []}}}, "displayed_time": "21.46", "trialTime": 22602, "trial_type": "mouselab-mdp", "trial_index": 64, "time_elapsed": 1883423, "internal_node_id": "0.0-4.0-3.0-24.0"}}, {"uniqueid": "w10867838:a41021582", "current_trial": 65, "dateTime": 1664875305637, "trialdata": {"revealed_states": [], "num_clicks_accrued": [0, 0, 0, 0, 0, 0, 0, 0, 0, 0, 0, 0, 0], "stateRewards": ["", 4, -4, 48, 24, 2, 4, 24, -24, 2, 4, 24, 48], "withholdReward": true, "trial_id": "mdp_736351885282", "block": "test2", "trialIndex": 57, "score": 58, "costs": -1, "simulationMode": [null, null, null], "rewards": [2, 4, 48], "path": ["0", "0", "9", "10", "12"], "rt": [5415, 424, 765], "actions": ["left", "left", "down"], "actionTimes": [6638, 7554, 8829], "queries": {"click": {"state": {"target": ["9", "10", "11", "12"], "time": [1971, 2801, 3504, 4804]}, "edge": {"target": [], "time": []}}, "mouseover": {"state": {"target": ["0", "9", "10", "11", "12"], "time": [1269, 1664, 2748, 3314, 4032]}, "edge": {"target": [], "time": []}}, "mouseout": {"state": {"target": ["5", "0", "9", "10", "11", "10", "12"], "time": [831, 1581, 2481, 3265, 3696, 3812, 5197]}, "edge": {"target": [], "time": []}}}, "displayed_time": "9.35", "trialTime": 10427, "trial_type": "mouselab-mdp", "trial_index": 65, "time_elapsed": 1893895, "internal_node_id": "0.0-4.0-3.0-25.0"}}, {"uniqueid": "w10867838:a41021582", "current_trial": 66, "dateTime": 1664875320393, "trialdata": {"revealed_states": [], "num_clicks_accrued": [0, 0, 0, 0, 0, 0, 0, 0, 0, 0, 0, 0, 0], "stateRewards": ["", 2, 4, 48, 24, -4, 8, 48, 48, 2, -4, -48, -24], "withholdReward": true, "trial_id": "mdp_822099887466", "block": "test2", "trialIndex": 58, "score": 55.25, "costs": -1.75, "simulationMode": [null, null, null], "rewards": [-4, 8, 48], "path": ["0", "0", "5", "6", "7"], "rt": [7953, 259, 469], "actions": ["right", "right", "up"], "actionTimes": [11163, 11937, 12912], "queries": {"click": {"state": {"target": ["9", "10", "11", "12", "5", "6", "7"], "time": [4050, 4666, 5184, 5949, 6949, 7434, 7849]}, "edge": {"target": [], "time": []}}, "mouseover": {"state": {"target": ["9", "10", "11", "12", "0", "5", "6", "7", "8"], "time": [3676, 4493, 5010, 5643, 6410, 6732, 7293, 7693, 8160]}, "edge": {"target": [], "time": []}}, "mouseout": {"state": {"target": ["0", "9", "10", "11", "10", "12", "0", "5", "6", "7", "6", "8"], "time": [3644, 4460, 4978, 5394, 5460, 6344, 6443, 7261, 7660, 8044, 8111, 8394]}, "edge": {"target": [], "time": []}}}, "displayed_time": "13.43", "trialTime": 14714, "trial_type": "mouselab-mdp", "trial_index": 66, "time_elapsed": 1908651, "internal_node_id": "0.0-4.0-3.0-26.0"}}, {"uniqueid": "w10867838:a41021582", "current_trial": 67, "dateTime": 1664875337616, "trialdata": {"revealed_states": [], "num_clicks_accrued": [0, 0, 0, 0, 0, 0, 0, 0, 0, 0, 0, 0, 0], "stateRewards": ["", -2, -4, -48, 48, -4, 4, -48, 24, -4, -8, 24, 48], "withholdReward": true, "trial_id": "mdp_264482284450", "block": "test2", "trialIndex": 59, "score": 44, "costs": -3, "simulationMode": [null, null, null], "rewards": [-2, -4, 48], "path": ["0", "0", "1", "2", "4"], "rt": [12502, 223, 509], "actions": ["up", "up", "left"], "actionTimes": [13821, 14560, 15580], "queries": {"click": {"state": {"target": ["5", "6", "7", "8", "1", "2", "3", "4", "9", "10", "11", "12"], "time": [1911, 2460, 3043, 3725, 5076, 5560, 6027, 6724, 8160, 8693, 9126, 9743]}, "edge": {"target": [], "time": []}}, "mouseover": {"state": {"target": ["5", "6", "7", "8", "1", "2", "3", "4", "9", "10", "11", "12"], "time": [1702, 2271, 2887, 3504, 4870, 5404, 5870, 6386, 7171, 8520, 8904, 9353]}, "edge": {"target": [], "time": []}}, "mouseout": {"state": {"target": ["8", "0", "5", "6", "7", "6", "8", "5", "1", "2", "3", "2", "4", "9", "10", "11", "10", "12"], "time": [554, 1671, 2238, 2821, 3271, 3355, 4372, 4821, 5371, 5836, 6287, 6354, 7070, 8488, 8870, 9288, 9336, 9921]}, "edge": {"target": [], "time": []}}}, "displayed_time": "16.09", "trialTime": 17181, "trial_type": "mouselab-mdp", "trial_index": 67, "time_elapsed": 1925874, "internal_node_id": "0.0-4.0-3.0-27.0"}}, {"uniqueid": "w10867838:a41021582", "current_trial": 68, "dateTime": 1664875352804, "trialdata": {"revealed_states": [], "num_clicks_accrued": [0, 0, 0, 0, 0, 0, 0, 0, 0, 0, 0, 0, 0], "stateRewards": ["", -2, 8, 48, 48, 2, 4, -48, 24, -4, -8, 48, 24], "withholdReward": true, "trial_id": "mdp_572910394648", "block": "test2", "trialIndex": 60, "score": 56.25, "costs": -2.75, "simulationMode": [null, null, null], "rewards": [-2, 8, 48], "path": ["0", "0", "1", "2", "3"], "rt": [10624, 322, 584], "actions": ["up", "up", "right"], "actionTimes": [11780, 12617, 13713], "queries": {"click": {"state": {"target": ["9", "10", "11", "12", "5", "6", "7", "8", "1", "2", "3"], "time": [1936, 2485, 3035, 3685, 4536, 5051, 5669, 6352, 7552, 8068, 8668]}, "edge": {"target": [], "time": []}}, "mouseover": {"state": {"target": ["9", "10", "11", "12", "5", "6", "7", "8", "0", "1", "2", "3"], "time": [1712, 2330, 2913, 3429, 4296, 4879, 5462, 6146, 7063, 7379, 7929, 8478]}, "edge": {"target": [], "time": []}}, "mouseout": {"state": {"target": ["0", "9", "10", "11", "10", "12", "5", "6", "7", "6", "8", "0", "1", "2"], "time": [1663, 2213, 2863, 3213, 3279, 4062, 4846, 5413, 5879, 6113, 6730, 7079, 7896, 8430]}, "edge": {"target": [], "time": []}}}, "displayed_time": "14.23", "trialTime": 15145, "trial_type": "mouselab-mdp", "trial_index": 68, "time_elapsed": 1941062, "internal_node_id": "0.0-4.0-3.0-28.0"}}, {"uniqueid": "w10867838:a41021582", "current_trial": 69, "dateTime": 1664875363787, "trialdata": {"revealed_states": [], "num_clicks_accrued": [0, 0, 0, 0, 0, 0, 0, 0, 0, 0, 0, 0, 0], "stateRewards": ["", -4, -4, 24, -24, 4, 4, 24, 48, 4, -4, 48, -48], "withholdReward": true, "trial_id": "mdp_522385334882", "block": "test2", "trialIndex": 61, "score": 52.25, "costs": -0.75, "simulationMode": [null, null, null], "rewards": [4, -4, 48], "path": ["0", "0", "9", "10", "11"], "rt": [6144, 357, 966], "actions": ["left", "left", "up"], "actionTimes": [7069, 7933, 9408], "queries": {"click": {"state": {"target": ["9", "10", "11"], "time": [1650, 2215, 2882]}, "edge": {"target": [], "time": []}}, "mouseover": {"state": {"target": ["9", "10", "11", "12"], "time": [1410, 2076, 2642, 3426]}, "edge": {"target": [], "time": []}}, "mouseout": {"state": {"target": ["3", "1", "9", "10", "11", "10"], "time": [377, 541, 2026, 2610, 3243, 3376]}, "edge": {"target": [], "time": []}}}, "displayed_time": "9.93", "trialTime": 10941, "trial_type": "mouselab-mdp", "trial_index": 69, "time_elapsed": 1952044, "internal_node_id": "0.0-4.0-3.0-29.0"}}, {"uniqueid": "w10867838:a41021582", "current_trial": 70, "dateTime": 1664875416261, "trialdata": {"rt": 52467, "stimulus": "<h1> End of block! </h1>\n\nYou have reached the end of the block 2/4. If you need a short break, feel free to take one now before moving on.\n\n<br><br>\nIn the next block, you will complete another 30 rounds of this game.\n\n<br><br>\n<div style='text-align: center;'>Press <code>space</code> to begin.</div>\n<br><br>\n<div style='text-align: center;'>(If the experiment doesn't continue, try clicking on the text and then pressing <code>space</code>.)</div>", "response": " ", "trial_id": "mdp_ready_3", "trial_type": "html-keyboard-response", "trial_index": 70, "time_elapsed": 2004518, "internal_node_id": "0.0-4.0-4.0"}}, {"uniqueid": "w10867838:a41021582", "current_trial": 71, "dateTime": 1664875431781, "trialdata": {"revealed_states": [], "num_clicks_accrued": [0, 0, 0, 0, 0, 0, 0, 0, 0, 0, 0, 0, 0], "stateRewards": ["", -2, -8, 24, -48, -4, 8, -48, -24, 4, 8, -24, 24], "withholdReward": true, "trial_id": "mdp_940444641142", "block": "test3", "trialIndex": 62, "score": 38, "costs": -3, "simulationMode": [null, null, null], "rewards": [4, 8, 24], "path": ["0", "0", "9", "10", "12"], "rt": [10559, 359, 483], "actions": ["left", "left", "down"], "actionTimes": [11882, 12746, 13735], "queries": {"click": {"state": {"target": ["9", "10", "11", "12", "5", "6", "7", "8", "1", "2", "3", "4"], "time": [2243, 2976, 3942, 4724, 5775, 6274, 6727, 7292, 8208, 8676, 9091, 9959]}, "edge": {"target": [], "time": []}}, "mouseover": {"state": {"target": ["9", "10", "11", "12", "5", "6", "7", "8", "3", "2", "1", "2", "3", "4"], "time": [2070, 2735, 3802, 4535, 5586, 6152, 6603, 7052, 7752, 7886, 8102, 8569, 8951, 9720]}, "edge": {"target": [], "time": []}}, "mouseout": {"state": {"target": ["12", "0", "9", "10", "11", "10", "12", "5", "6", "7", "6", "8", "3", "2", "1", "2", "3", "2", "4", "9"], "time": [768, 2003, 2686, 3320, 4170, 4286, 5086, 6119, 6536, 6952, 7020, 7685, 7784, 7952, 8485, 8886, 9420, 9586, 10137, 10569]}, "edge": {"target": [], "time": []}}}, "displayed_time": "14.25", "trialTime": 15447, "trial_type": "mouselab-mdp", "trial_index": 71, "time_elapsed": 2020039, "internal_node_id": "0.0-4.0-5.0-0.0"}}, {"uniqueid": "w10867838:a41021582", "current_trial": 72, "dateTime": 1664875442765, "trialdata": {"revealed_states": [], "num_clicks_accrued": [0, 0, 0, 0, 0, 0, 0, 0, 0, 0, 0, 0, 0], "stateRewards": ["", 2, 8, -48, 24, -4, 8, 48, -24, 2, 8, 24, 24], "withholdReward": true, "trial_id": "mdp_175372499314", "block": "test3", "trialIndex": 63, "score": 56.25, "costs": -0.75, "simulationMode": [null, null, null], "rewards": [-4, 8, 48], "path": ["0", "0", "5", "6", "7"], "rt": [3641, 379, 386], "actions": ["right", "right", "up"], "actionTimes": [4651, 5524, 6415], "queries": {"click": {"state": {"target": ["5", "6", "7"], "time": [1599, 2066, 2684]}, "edge": {"target": [], "time": []}}, "mouseover": {"state": {"target": ["5", "6", "7"], "time": [1427, 1912, 2477]}, "edge": {"target": [], "time": []}}, "mouseout": {"state": {"target": ["0", "5", "6", "7", "6"], "time": [1395, 1827, 2428, 2878, 2977]}, "edge": {"target": [], "time": []}}}, "displayed_time": "10.01", "trialTime": 10941, "trial_type": "mouselab-mdp", "trial_index": 72, "time_elapsed": 2031023, "internal_node_id": "0.0-4.0-5.0-1.0"}}, {"uniqueid": "w10867838:a41021582", "current_trial": 73, "dateTime": 1664875462268, "trialdata": {"revealed_states": [], "num_clicks_accrued": [0, 0, 0, 0, 0, 0, 0, 0, 0, 0, 0, 0, 0], "stateRewards": ["", 4, 8, 24, 24, 2, -4, 48, -24, -4, 8, -24, 24], "withholdReward": true, "trial_id": "mdp_932292142091", "block": "test3", "trialIndex": 64, "score": 48.25, "costs": -2.75, "simulationMode": [null, null, null], "rewards": [2, -4, 48], "path": ["0", "0", "5", "6", "7"], "rt": [14899, 688, 311], "actions": ["right", "right", "up"], "actionTimes": [15987, 17178, 18002], "queries": {"click": {"state": {"target": ["9", "10", "11", "12", "5", "6", "7", "1", "2", "4", "3"], "time": [1646, 2163, 2680, 3263, 4530, 5063, 5629, 10612, 11229, 12079, 12946]}, "edge": {"target": [], "time": []}}, "mouseover": {"state": {"target": ["9", "10", "11", "12", "5", "5", "6", "7", "1", "2", "4", "3"], "time": [1456, 2040, 2489, 2923, 4074, 4374, 4889, 5524, 10457, 11040, 11873, 12655]}, "edge": {"target": [], "time": []}}, "mouseout": {"state": {"target": ["0", "9", "10", "11", "10", "12", "5", "5", "6", "7", "6", "6", "5", "1", "2", "4", "2"], "time": [1440, 1945, 2457, 2841, 2907, 3757, 4124, 4857, 5457, 5891, 5973, 9724, 9790, 11006, 11756, 12257, 12623]}, "edge": {"target": [], "time": []}}}, "displayed_time": "18.52", "trialTime": 19456, "trial_type": "mouselab-mdp", "trial_index": 73, "time_elapsed": 2050526, "internal_node_id": "0.0-4.0-5.0-2.0"}}, {"uniqueid": "w10867838:a41021582", "current_trial": 74, "dateTime": 1664875479017, "trialdata": {"revealed_states": [], "num_clicks_accrued": [0, 0, 0, 0, 0, 0, 0, 0, 0, 0, 0, 0, 0], "stateRewards": ["", 2, 4, 48, 24, -4, 8, 48, 48, 2, -4, -48, -24], "withholdReward": true, "trial_id": "mdp_822099887466", "block": "test3", "trialIndex": 65, "score": 56.5, "costs": -2.5, "simulationMode": [null, null, null], "rewards": [2, 4, 48], "path": ["0", "0", "1", "2", "3"], "rt": [11946, 313, 782], "actions": ["up", "up", "right"], "actionTimes": [13067, 13899, 15201], "queries": {"click": {"state": {"target": ["9", "10", "11", "12", "5", "6", "7", "1", "2", "3"], "time": [1991, 2991, 3574, 4841, 5624, 6109, 6776, 10141, 10975, 11691]}, "edge": {"target": [], "time": []}}, "mouseover": {"state": {"target": ["9", "10", "11", "12", "12", "5", "6", "7", "1", "2", "3"], "time": [1569, 2902, 3435, 4102, 4702, 5301, 5951, 6601, 9852, 10718, 11501]}, "edge": {"target": [], "time": []}}, "mouseout": {"state": {"target": ["3", "0", "9", "10", "11", "10", "12", "12", "5", "6", "7", "6", "1", "2"], "time": [402, 1535, 2319, 3403, 4018, 4085, 4169, 5186, 5935, 6569, 7019, 9485, 10669, 11452]}, "edge": {"target": [], "time": []}}}, "displayed_time": "15.72", "trialTime": 16701, "trial_type": "mouselab-mdp", "trial_index": 74, "time_elapsed": 2067274, "internal_node_id": "0.0-4.0-5.0-3.0"}}, {"uniqueid": "w10867838:a41021582", "current_trial": 75, "dateTime": 1664875498471, "trialdata": {"revealed_states": [], "num_clicks_accrued": [0, 0, 0, 0, 0, 0, 0, 0, 0, 0, 0, 0, 0], "stateRewards": ["", -2, -4, -48, 48, -2, -4, 24, 48, -4, -8, -24, 24], "withholdReward": false, "trial_id": "mdp_917590390609", "block": "test3", "trialIndex": 66, "score": 44, "costs": -3, "simulationMode": [null, null, null], "rewards": [-2, -4, 48], "path": ["0", "0", "5", "6", "8"], "rt": [14660, 379, 579], "actions": ["right", "right", "down"], "actionTimes": [15813, 16698, 17782], "queries": {"click": {"state": {"target": ["5", "6", "7", "8", "9", "10", "11", "12", "1", "2", "3", "4"], "time": [2177, 2710, 3524, 4692, 6042, 6542, 7525, 8158, 9126, 9742, 10293, 11075]}, "edge": {"target": [], "time": []}}, "mouseover": {"state": {"target": ["5", "6", "7", "8", "9", "10", "11", "11", "12", "1", "2", "3", "4"], "time": [1837, 2536, 3220, 4436, 5704, 6420, 6853, 7188, 8020, 8852, 9502, 10153, 10920]}, "edge": {"target": [], "time": []}}, "mouseout": {"state": {"target": ["3", "0", "5", "6", "7", "6", "8", "9", "10", "11", "11", "10", "12", "9", "1", "2", "3", "2", "4", "9"], "time": [454, 1803, 2488, 3154, 4354, 4420, 5154, 6385, 6818, 6953, 7704, 7870, 8569, 8652, 9470, 10104, 10620, 10687, 11286, 11787]}, "edge": {"target": [], "time": []}}}, "displayed_time": "18.29", "trialTime": 19408, "trial_type": "mouselab-mdp", "trial_index": 75, "time_elapsed": 2086729, "internal_node_id": "0.0-4.0-5.0-4.0"}}, {"uniqueid": "w10867838:a41021582", "current_trial": 76, "dateTime": 1664875514885, "trialdata": {"revealed_states": [], "num_clicks_accrued": [0, 0, 0, 0, 0, 0, 0, 0, 0, 0, 0, 0, 0], "stateRewards": ["", -4, -8, 48, 24, 4, -8, 24, -48, -2, -8, 24, -48], "withholdReward": false, "trial_id": "mdp_952038635544", "block": "test3", "trialIndex": 67, "score": 38.25, "costs": -2.75, "simulationMode": [null, null, null], "rewards": [-4, -8, 48], "path": ["0", "0", "1", "2", "3"], "rt": [11356, 272, 943], "actions": ["up", "up", "right"], "actionTimes": [12383, 13155, 14610], "queries": {"click": {"state": {"target": ["9", "10", "11", "12", "5", "6", "7", "8", "1", "2", "3"], "time": [1706, 2240, 2705, 3523, 4256, 4856, 5422, 6172, 7556, 8072, 8570]}, "edge": {"target": [], "time": []}}, "mouseover": {"state": {"target": ["9", "10", "11", "12", "0", "5", "6", "7", "8", "1", "2", "3"], "time": [1449, 2083, 2583, 3349, 3933, 3983, 4583, 5199, 5799, 7366, 7915, 8432]}, "edge": {"target": [], "time": []}}, "mouseout": {"state": {"target": ["0", "9", "10", "11", "10", "12", "0", "5", "6", "7", "6", "8", "6", "1", "2", "3", "2"], "time": [1400, 2034, 2550, 2900, 3316, 3883, 3949, 4550, 5150, 5700, 5766, 6950, 7000, 7883, 8415, 8848, 9299]}, "edge": {"target": [], "time": []}}}, "displayed_time": "15.12", "trialTime": 16369, "trial_type": "mouselab-mdp", "trial_index": 76, "time_elapsed": 2103143, "internal_node_id": "0.0-4.0-5.0-5.0"}}, {"uniqueid": "w10867838:a41021582", "current_trial": 77, "dateTime": 1664875534967, "trialdata": {"revealed_states": [], "num_clicks_accrued": [0, 0, 0, 0, 0, 0, 0, 0, 0, 0, 0, 0, 0], "stateRewards": ["", 4, -8, -48, -24, 2, -8, -48, 48, -4, 8, 48, -48], "withholdReward": false, "trial_id": "mdp_605757196263", "block": "test3", "trialIndex": 68, "score": 54.25, "costs": -2.75, "simulationMode": [null, null, null], "rewards": [-4, 8, 48], "path": ["0", "0", "9", "10", "11"], "rt": [15259, 349, 635], "actions": ["left", "left", "up"], "actionTimes": [16479, 17334, 18470], "queries": {"click": {"state": {"target": ["5", "6", "7", "8", "9", "10", "11", "1", "2", "4", "3"], "time": [1792, 2857, 4255, 4991, 7691, 8271, 8790, 12007, 12774, 13739, 14939]}, "edge": {"target": [], "time": []}}, "mouseover": {"state": {"target": ["5", "6", "7", "7", "8", "9", "10", "11", "12", "1", "1", "2", "4", "3", "3", "0"], "time": [1650, 2691, 3550, 4050, 4784, 7167, 8117, 8649, 9817, 11417, 11801, 12567, 13434, 14168, 14817, 15433]}, "edge": {"target": [], "time": []}}, "mouseout": {"state": {"target": ["2", "1", "0", "5", "6", "7", "7", "6", "8", "9", "10", "11", "10", "12", "9", "1", "1", "2", "4", "2", "3", "3", "0"], "time": [451, 717, 1601, 2134, 3534, 3651, 4652, 4716, 5368, 7918, 8617, 9000, 9101, 11350, 11400, 11450, 12334, 13351, 14116, 14167, 14217, 15384, 15449]}, "edge": {"target": [], "time": []}}}, "displayed_time": "18.98", "trialTime": 20036, "trial_type": "mouselab-mdp", "trial_index": 77, "time_elapsed": 2123225, "internal_node_id": "0.0-4.0-5.0-6.0"}}, {"uniqueid": "w10867838:a41021582", "current_trial": 78, "dateTime": 1664875552368, "trialdata": {"revealed_states": [], "num_clicks_accrued": [0, 0, 0, 0, 0, 0, 0, 0, 0, 0, 0, 0, 0], "stateRewards": ["", 2, -8, 24, 24, 4, -4, -24, -48, 4, 8, 24, 24], "withholdReward": true, "trial_id": "mdp_249803813713", "block": "test3", "trialIndex": 69, "score": 38, "costs": -3, "simulationMode": [null, null, null], "rewards": [4, 8, 24], "path": ["0", "0", "9", "10", "12"], "rt": [13476, 385, 319], "actions": ["left", "left", "down"], "actionTimes": [14341, 15237, 16071], "queries": {"click": {"state": {"target": ["9", "10", "11", "12", "5", "6", "7", "8", "1", "2", "4", "3"], "time": [1558, 2175, 2859, 4525, 5492, 6009, 6693, 7426, 8359, 8876, 9975, 10858]}, "edge": {"target": [], "time": []}}, "mouseover": {"state": {"target": ["9", "10", "11", "12", "5", "6", "7", "8", "1", "2", "4", "3"], "time": [1386, 2002, 2636, 4420, 5219, 5852, 6419, 7135, 8236, 8719, 9802, 10486]}, "edge": {"target": [], "time": []}}, "mouseout": {"state": {"target": ["0", "9", "10", "11", "12", "5", "6", "7", "6", "8", "1", "2", "4", "2", "3", "5"], "time": [1353, 1952, 2603, 3035, 4851, 5818, 6370, 7052, 7101, 7836, 8685, 9770, 10170, 10435, 11235, 11302]}, "edge": {"target": [], "time": []}}}, "displayed_time": "16.59", "trialTime": 17355, "trial_type": "mouselab-mdp", "trial_index": 78, "time_elapsed": 2140626, "internal_node_id": "0.0-4.0-5.0-7.0"}}, {"uniqueid": "w10867838:a41021582", "current_trial": 79, "dateTime": 1664875570014, "trialdata": {"revealed_states": [], "num_clicks_accrued": [0, 0, 0, 0, 0, 0, 0, 0, 0, 0, 0, 0, 0], "stateRewards": ["", -2, -4, -24, -48, 2, -8, -24, -24, 4, -8, 48, 48], "withholdReward": true, "trial_id": "mdp_950599994674", "block": "test3", "trialIndex": 70, "score": 46.25, "costs": -2.75, "simulationMode": [null, null, null], "rewards": [4, -8, 48], "path": ["0", "0", "9", "10", "11"], "rt": [12287, 442, 833], "actions": ["left", "left", "up"], "actionTimes": [13619, 14558, 15900], "queries": {"click": {"state": {"target": ["5", "6", "7", "8", "9", "10", "11", "12", "1", "2", "4"], "time": [2139, 2655, 3305, 4124, 5690, 6240, 6806, 8405, 9489, 10123, 10773]}, "edge": {"target":