{"condition": 0, "counterbalance": 0, "assignmentId": "a83238958", "workerId": "w54429803", "hitId": "h13046228", "currenttrial": 959, "bonus": 0, "data": [{"uniqueid": "w54429803:a83238958", "current_trial": 0, "dateTime": 1664464709671, "trialdata": {"success": true, "trial_type": "fullscreen", "trial_index": 0, "time_elapsed": 4835, "internal_node_id": "0.0-0.0"}}, {"uniqueid": "w54429803:a83238958", "current_trial": 1, "dateTime": 1664464746767, "trialdata": {"view_history": [{"page_index": 0, "viewing_time": 37092}], "rt": 37093, "trial_id": "exp_instructions_distractor", "trial_type": "instructions", "trial_index": 1, "time_elapsed": 41932, "internal_node_id": "0.0-1.0"}}, {"uniqueid": "w54429803:a83238958", "current_trial": 2, "dateTime": 1664464811943, "trialdata": {"view_history": [{"page_index": 0, "viewing_time": 65175}], "rt": 65175, "trial_id": "color_game_instructions", "trial_type": "instructions", "trial_index": 2, "time_elapsed": 107108, "internal_node_id": "0.0-2.0"}}, {"uniqueid": "w54429803:a83238958", "current_trial": 3, "dateTime": 1664464826457, "trialdata": {"rt": 14513, "stimulus": "<h1> Get ready to start the game! </h1>\n\nThank you for reading the instructions. Get ready start with the first of 5 block(s) of this game.\n<br><br>\nIn this first block, you will complete 90 rounds of this game before moving on.\n<br><br>\nRemember, the better you perform, the bigger your bonus will be!\n<br><br>\n<div style='text-align: center;'>Press <code>space</code> to begin.</div>", "response": " ", "trial_id": "stroop_1_ready_1", "trial_type": "html-keyboard-response", "trial_index": 3, "time_elapsed": 121622, "internal_node_id": "0.0-3.0"}}, {"uniqueid": "w54429803:a83238958", "current_trial": 4, "dateTime": 1664464827698, "trialdata": {"rt": 1236, "stimulus": "<p id='stroop-text' class='stroop-yellow'>YELLOW</p>", "response": "y", "stimulus-type": "congruent", "word": "yellow", "color": "yellow", "correct_response": "y", "trial_id": "stroop-trial-1-congruent-16", "trial_type": "html-keyboard-response", "trial_index": 4, "time_elapsed": 122863, "internal_node_id": "0.0-4.0-0.0"}}, {"uniqueid": "w54429803:a83238958", "current_trial": 5, "dateTime": 1664464828732, "trialdata": {"rt": 533, "stimulus": "<p id='stroop-text' class='stroop-yellow'>YELLOW</p>", "response": "y", "stimulus-type": "congruent", "word": "yellow", "color": "yellow", "correct_response": "y", "trial_id": "stroop-trial-1-congruent-24", "trial_type": "html-keyboard-response", "trial_index": 5, "time_elapsed": 123897, "internal_node_id": "0.0-4.0-1.0"}}, {"uniqueid": "w54429803:a83238958", "current_trial": 6, "dateTime": 1664464830169, "trialdata": {"rt": 936, "stimulus": "<p id='stroop-text' class='stroop-blue'>YELLOW</p>", "response": "b", "stimulus-type": "incongruent", "word": "yellow", "color": "blue", "correct_response": "b", "trial_id": "stroop-trial-1-incongruent-5", "trial_type": "html-keyboard-response", "trial_index": 6, "time_elapsed": 125334, "internal_node_id": "0.0-4.0-2.0"}}, {"uniqueid": "w54429803:a83238958", "current_trial": 7, "dateTime": 1664464832444, "trialdata": {"rt": 1773, "stimulus": "<p id='stroop-text' class='stroop-yellow'>GREEN</p>", "response": "y", "stimulus-type": "incongruent", "word": "green", "color": "yellow", "correct_response": "y", "trial_id": "stroop-trial-1-incongruent-26", "trial_type": "html-keyboard-response", "trial_index": 7, "time_elapsed": 127609, "internal_node_id": "0.0-4.0-3.0"}}, {"uniqueid": "w54429803:a83238958", "current_trial": 8, "dateTime": 1664464833572, "trialdata": {"rt": 625, "stimulus": "<p id='stroop-text' class='stroop-yellow'>YELLOW</p>", "response": "y", "stimulus-type": "congruent", "word": "yellow", "color": "yellow", "correct_response": "y", "trial_id": "stroop-trial-1-congruent-20", "trial_type": "html-keyboard-response", "trial_index": 8, "time_elapsed": 128736, "internal_node_id": "0.0-4.0-4.0"}}, {"uniqueid": "w54429803:a83238958", "current_trial": 9, "dateTime": 1664464835345, "trialdata": {"rt": 1270, "stimulus": "<p id='stroop-text' class='stroop-green'>GREEN</p>", "response": "g", "stimulus-type": "congruent", "word": "green", "color": "green", "correct_response": "g", "trial_id": "stroop-trial-1-congruent-25", "trial_type": "html-keyboard-response", "trial_index": 9, "time_elapsed": 130509, "internal_node_id": "0.0-4.0-5.0"}}, {"uniqueid": "w54429803:a83238958", "current_trial": 10, "dateTime": 1664464836619, "trialdata": {"rt": 772, "stimulus": "<p id='stroop-text' class='stroop-red'>BLUE</p>", "response": "b", "stimulus-type": "incongruent", "word": "blue", "color": "red", "correct_response": "r", "trial_id": "stroop-trial-1-incongruent-30", "trial_type": "html-keyboard-response", "trial_index": 10, "time_elapsed": 131783, "internal_node_id": "0.0-4.0-6.0"}}, {"uniqueid": "w54429803:a83238958", "current_trial": 11, "dateTime": 1664464837793, "trialdata": {"rt": 673, "stimulus": "<p id='stroop-text' class='stroop-blue'>BLUE</p>", "response": "b", "stimulus-type": "congruent", "word": "blue", "color": "blue", "correct_response": "b", "trial_id": "stroop-trial-1-congruent-9", "trial_type": "html-keyboard-response", "trial_index": 11, "time_elapsed": 132958, "internal_node_id": "0.0-4.0-7.0"}}, {"uniqueid": "w54429803:a83238958", "current_trial": 12, "dateTime": 1664464839567, "trialdata": {"rt": 1272, "stimulus": "<p id='stroop-text' class='stroop-blue'>GREEN</p>", "response": "b", "stimulus-type": "incongruent", "word": "green", "color": "blue", "correct_response": "b", "trial_id": "stroop-trial-1-incongruent-16", "trial_type": "html-keyboard-response", "trial_index": 12, "time_elapsed": 134732, "internal_node_id": "0.0-4.0-8.0"}}, {"uniqueid": "w54429803:a83238958", "current_trial": 13, "dateTime": 1664464840730, "trialdata": {"rt": 659, "stimulus": "<p id='stroop-text' class='stroop-red'>BLUE</p>", "response": "r", "stimulus-type": "incongruent", "word": "blue", "color": "red", "correct_response": "r", "trial_id": "stroop-trial-1-incongruent-2", "trial_type": "html-keyboard-response", "trial_index": 13, "time_elapsed": 135894, "internal_node_id": "0.0-4.0-9.0"}}, {"uniqueid": "w54429803:a83238958", "current_trial": 14, "dateTime": 1664464841865, "trialdata": {"rt": 634, "stimulus": "<p id='stroop-text' class='stroop-yellow'>YELLOW</p>", "response": "y", "stimulus-type": "congruent", "word": "yellow", "color": "yellow", "correct_response": "y", "trial_id": "stroop-trial-1-congruent-1", "trial_type": "html-keyboard-response", "trial_index": 14, "time_elapsed": 137030, "internal_node_id": "0.0-4.0-10.0"}}, {"uniqueid": "w54429803:a83238958", "current_trial": 15, "dateTime": 1664464842934, "trialdata": {"rt": 567, "stimulus": "<p id='stroop-text' class='stroop-red'>RED</p>", "response": "r", "stimulus-type": "congruent", "word": "red", "color": "red", "correct_response": "r", "trial_id": "stroop-trial-1-congruent-17", "trial_type": "html-keyboard-response", "trial_index": 15, "time_elapsed": 138099, "internal_node_id": "0.0-4.0-11.0"}}, {"uniqueid": "w54429803:a83238958", "current_trial": 16, "dateTime": 1664464844137, "trialdata": {"rt": 700, "stimulus": "<p id='stroop-text' class='stroop-yellow'>YELLOW</p>", "response": "y", "stimulus-type": "congruent", "word": "yellow", "color": "yellow", "correct_response": "y", "trial_id": "stroop-trial-1-congruent-19", "trial_type": "html-keyboard-response", "trial_index": 16, "time_elapsed": 139302, "internal_node_id": "0.0-4.0-12.0"}}, {"uniqueid": "w54429803:a83238958", "current_trial": 17, "dateTime": 1664464845422, "trialdata": {"rt": 784, "stimulus": "<p id='stroop-text' class='stroop-red'>DOG</p>", "response": "r", "stimulus-type": "unrelated", "word": "DOG", "color": "red", "correct_response": "r", "trial_id": "stroop-trial-1-unrelated-8", "trial_type": "html-keyboard-response", "trial_index": 17, "time_elapsed": 140587, "internal_node_id": "0.0-4.0-13.0"}}, {"uniqueid": "w54429803:a83238958", "current_trial": 18, "dateTime": 1664464847494, "trialdata": {"rt": 1570, "stimulus": "<p id='stroop-text' class='stroop-green'>MONKEY</p>", "response": "g", "stimulus-type": "unrelated", "word": "MONKEY", "color": "green", "correct_response": "g", "trial_id": "stroop-trial-1-unrelated-25", "trial_type": "html-keyboard-response", "trial_index": 18, "time_elapsed": 142658, "internal_node_id": "0.0-4.0-14.0"}}, {"uniqueid": "w54429803:a83238958", "current_trial": 19, "dateTime": 1664464848490, "trialdata": {"rt": 495, "stimulus": "<p id='stroop-text' class='stroop-yellow'>YELLOW</p>", "response": "y", "stimulus-type": "congruent", "word": "yellow", "color": "yellow", "correct_response": "y", "trial_id": "stroop-trial-1-congruent-15", "trial_type": "html-keyboard-response", "trial_index": 19, "time_elapsed": 143655, "internal_node_id": "0.0-4.0-15.0"}}, {"uniqueid": "w54429803:a83238958", "current_trial": 20, "dateTime": 1664464849534, "trialdata": {"rt": 543, "stimulus": "<p id='stroop-text' class='stroop-yellow'>YELLOW</p>", "response": "y", "stimulus-type": "congruent", "word": "yellow", "color": "yellow", "correct_response": "y", "trial_id": "stroop-trial-1-congruent-27", "trial_type": "html-keyboard-response", "trial_index": 20, "time_elapsed": 144699, "internal_node_id": "0.0-4.0-16.0"}}, {"uniqueid": "w54429803:a83238958", "current_trial": 21, "dateTime": 1664464850488, "trialdata": {"rt": 449, "stimulus": "<p id='stroop-text' class='stroop-red'>BOTTLE</p>", "response": "r", "stimulus-type": "unrelated", "word": "BOTTLE", "color": "red", "correct_response": "r", "trial_id": "stroop-trial-1-unrelated-7", "trial_type": "html-keyboard-response", "trial_index": 21, "time_elapsed": 145653, "internal_node_id": "0.0-4.0-17.0"}}, {"uniqueid": "w54429803:a83238958", "current_trial": 22, "dateTime": 1664464851426, "trialdata": {"rt": 437, "stimulus": "<p id='stroop-text' class='stroop-green'>YELLOW</p>", "response": "g", "stimulus-type": "incongruent", "word": "yellow", "color": "green", "correct_response": "g", "trial_id": "stroop-trial-1-incongruent-21", "trial_type": "html-keyboard-response", "trial_index": 22, "time_elapsed": 146591, "internal_node_id": "0.0-4.0-18.0"}}, {"uniqueid": "w54429803:a83238958", "current_trial": 23, "dateTime": 1664464852753, "trialdata": {"rt": 821, "stimulus": "<p id='stroop-text' class='stroop-yellow'>BLUE</p>", "response": "y", "stimulus-type": "incongruent", "word": "blue", "color": "yellow", "correct_response": "y", "trial_id": "stroop-trial-1-incongruent-29", "trial_type": "html-keyboard-response", "trial_index": 23, "time_elapsed": 147918, "internal_node_id": "0.0-4.0-19.0"}}, {"uniqueid": "w54429803:a83238958", "current_trial": 24, "dateTime": 1664464854429, "trialdata": {"rt": 1175, "stimulus": "<p id='stroop-text' class='stroop-green'>BLUE</p>", "response": "g", "stimulus-type": "incongruent", "word": "blue", "color": "green", "correct_response": "g", "trial_id": "stroop-trial-1-incongruent-25", "trial_type": "html-keyboard-response", "trial_index": 24, "time_elapsed": 149594, "internal_node_id": "0.0-4.0-20.0"}}, {"uniqueid": "w54429803:a83238958", "current_trial": 25, "dateTime": 1664464855519, "trialdata": {"rt": 588, "stimulus": "<p id='stroop-text' class='stroop-yellow'>YELLOW</p>", "response": "y", "stimulus-type": "congruent", "word": "yellow", "color": "yellow", "correct_response": "y", "trial_id": "stroop-trial-1-congruent-2", "trial_type": "html-keyboard-response", "trial_index": 25, "time_elapsed": 150684, "internal_node_id": "0.0-4.0-21.0"}}, {"uniqueid": "w54429803:a83238958", "current_trial": 26, "dateTime": 1664464856519, "trialdata": {"rt": 499, "stimulus": "<p id='stroop-text' class='stroop-green'>BRIDGE</p>", "response": "g", "stimulus-type": "unrelated", "word": "BRIDGE", "color": "green", "correct_response": "g", "trial_id": "stroop-trial-1-unrelated-20", "trial_type": "html-keyboard-response", "trial_index": 26, "time_elapsed": 151684, "internal_node_id": "0.0-4.0-22.0"}}, {"uniqueid": "w54429803:a83238958", "current_trial": 27, "dateTime": 1664464857548, "trialdata": {"rt": 527, "stimulus": "<p id='stroop-text' class='stroop-red'>GREEN</p>", "response": "r", "stimulus-type": "incongruent", "word": "green", "color": "red", "correct_response": "r", "trial_id": "stroop-trial-1-incongruent-23", "trial_type": "html-keyboard-response", "trial_index": 27, "time_elapsed": 152713, "internal_node_id": "0.0-4.0-23.0"}}, {"uniqueid": "w54429803:a83238958", "current_trial": 28, "dateTime": 1664464858860, "trialdata": {"rt": 811, "stimulus": "<p id='stroop-text' class='stroop-green'>YELLOW</p>", "response": "r", "stimulus-type": "incongruent", "word": "yellow", "color": "green", "correct_response": "g", "trial_id": "stroop-trial-1-incongruent-28", "trial_type": "html-keyboard-response", "trial_index": 28, "time_elapsed": 154025, "internal_node_id": "0.0-4.0-24.0"}}, {"uniqueid": "w54429803:a83238958", "current_trial": 29, "dateTime": 1664464860931, "trialdata": {"rt": 1570, "stimulus": "<p id='stroop-text' class='stroop-blue'>WINDOW</p>", "response": "b", "stimulus-type": "unrelated", "word": "WINDOW", "color": "blue", "correct_response": "b", "trial_id": "stroop-trial-1-unrelated-30", "trial_type": "html-keyboard-response", "trial_index": 29, "time_elapsed": 156096, "internal_node_id": "0.0-4.0-25.0"}}, {"uniqueid": "w54429803:a83238958", "current_trial": 30, "dateTime": 1664464861999, "trialdata": {"rt": 564, "stimulus": "<p id='stroop-text' class='stroop-red'>RED</p>", "response": "r", "stimulus-type": "congruent", "word": "red", "color": "red", "correct_response": "r", "trial_id": "stroop-trial-1-congruent-13", "trial_type": "html-keyboard-response", "trial_index": 30, "time_elapsed": 157164, "internal_node_id": "0.0-4.0-26.0"}}, {"uniqueid": "w54429803:a83238958", "current_trial": 31, "dateTime": 1664464863472, "trialdata": {"rt": 971, "stimulus": "<p id='stroop-text' class='stroop-green'>GREEN</p>", "response": "g", "stimulus-type": "congruent", "word": "green", "color": "green", "correct_response": "g", "trial_id": "stroop-trial-1-congruent-14", "trial_type": "html-keyboard-response", "trial_index": 31, "time_elapsed": 158637, "internal_node_id": "0.0-4.0-27.0"}}, {"uniqueid": "w54429803:a83238958", "current_trial": 32, "dateTime": 1664464864571, "trialdata": {"rt": 597, "stimulus": "<p id='stroop-text' class='stroop-red'>WINDOW</p>", "response": "y", "stimulus-type": "unrelated", "word": "WINDOW", "color": "red", "correct_response": "r", "trial_id": "stroop-trial-1-unrelated-27", "trial_type": "html-keyboard-response", "trial_index": 32, "time_elapsed": 159736, "internal_node_id": "0.0-4.0-28.0"}}, {"uniqueid": "w54429803:a83238958", "current_trial": 33, "dateTime": 1664464865852, "trialdata": {"rt": 778, "stimulus": "<p id='stroop-text' class='stroop-blue'>BLUE</p>", "response": "b", "stimulus-type": "congruent", "word": "blue", "color": "blue", "correct_response": "b", "trial_id": "stroop-trial-1-congruent-18", "trial_type": "html-keyboard-response", "trial_index": 33, "time_elapsed": 161016, "internal_node_id": "0.0-4.0-29.0"}}, {"uniqueid": "w54429803:a83238958", "current_trial": 34, "dateTime": 1664464866991, "trialdata": {"rt": 637, "stimulus": "<p id='stroop-text' class='stroop-red'>BLUE</p>", "response": "r", "stimulus-type": "incongruent", "word": "blue", "color": "red", "correct_response": "r", "trial_id": "stroop-trial-1-incongruent-13", "trial_type": "html-keyboard-response", "trial_index": 34, "time_elapsed": 162156, "internal_node_id": "0.0-4.0-30.0"}}, {"uniqueid": "w54429803:a83238958", "current_trial": 35, "dateTime": 1664464868530, "trialdata": {"rt": 1038, "stimulus": "<p id='stroop-text' class='stroop-green'>CHAIR</p>", "response": "g", "stimulus-type": "unrelated", "word": "CHAIR", "color": "green", "correct_response": "g", "trial_id": "stroop-trial-1-unrelated-29", "trial_type": "html-keyboard-response", "trial_index": 35, "time_elapsed": 163695, "internal_node_id": "0.0-4.0-31.0"}}, {"uniqueid": "w54429803:a83238958", "current_trial": 36, "dateTime": 1664464869786, "trialdata": {"rt": 755, "stimulus": "<p id='stroop-text' class='stroop-blue'>STONE</p>", "response": "b", "stimulus-type": "unrelated", "word": "STONE", "color": "blue", "correct_response": "b", "trial_id": "stroop-trial-1-unrelated-15", "trial_type": "html-keyboard-response", "trial_index": 36, "time_elapsed": 164951, "internal_node_id": "0.0-4.0-32.0"}}, {"uniqueid": "w54429803:a83238958", "current_trial": 37, "dateTime": 1664464871020, "trialdata": {"rt": 730, "stimulus": "<p id='stroop-text' class='stroop-yellow'>STONE</p>", "response": "y", "stimulus-type": "unrelated", "word": "STONE", "color": "yellow", "correct_response": "y", "trial_id": "stroop-trial-1-unrelated-28", "trial_type": "html-keyboard-response", "trial_index": 37, "time_elapsed": 166184, "internal_node_id": "0.0-4.0-33.0"}}, {"uniqueid": "w54429803:a83238958", "current_trial": 38, "dateTime": 1664464872076, "trialdata": {"rt": 554, "stimulus": "<p id='stroop-text' class='stroop-green'>BLUE</p>", "response": "g", "stimulus-type": "incongruent", "word": "blue", "color": "green", "correct_response": "g", "trial_id": "stroop-trial-1-incongruent-15", "trial_type": "html-keyboard-response", "trial_index": 38, "time_elapsed": 167241, "internal_node_id": "0.0-4.0-34.0"}}, {"uniqueid": "w54429803:a83238958", "current_trial": 39, "dateTime": 1664464873140, "trialdata": {"rt": 562, "stimulus": "<p id='stroop-text' class='stroop-yellow'>BRAIN</p>", "response": "y", "stimulus-type": "unrelated", "word": "BRAIN", "color": "yellow", "correct_response": "y", "trial_id": "stroop-trial-1-unrelated-19", "trial_type": "html-keyboard-response", "trial_index": 39, "time_elapsed": 168305, "internal_node_id": "0.0-4.0-35.0"}}, {"uniqueid": "w54429803:a83238958", "current_trial": 40, "dateTime": 1664464874187, "trialdata": {"rt": 545, "stimulus": "<p id='stroop-text' class='stroop-red'>DOG</p>", "response": "r", "stimulus-type": "unrelated", "word": "DOG", "color": "red", "correct_response": "r", "trial_id": "stroop-trial-1-unrelated-16", "trial_type": "html-keyboard-response", "trial_index": 40, "time_elapsed": 169352, "internal_node_id": "0.0-4.0-36.0"}}, {"uniqueid": "w54429803:a83238958", "current_trial": 41, "dateTime": 1664464875143, "trialdata": {"rt": 453, "stimulus": "<p id='stroop-text' class='stroop-blue'>BRIDGE</p>", "response": "b", "stimulus-type": "unrelated", "word": "BRIDGE", "color": "blue", "correct_response": "b", "trial_id": "stroop-trial-1-unrelated-21", "trial_type": "html-keyboard-response", "trial_index": 41, "time_elapsed": 170307, "internal_node_id": "0.0-4.0-37.0"}}, {"uniqueid": "w54429803:a83238958", "current_trial": 42, "dateTime": 1664464876114, "trialdata": {"rt": 470, "stimulus": "<p id='stroop-text' class='stroop-yellow'>YELLOW</p>", "response": "y", "stimulus-type": "congruent", "word": "yellow", "color": "yellow", "correct_response": "y", "trial_id": "stroop-trial-1-congruent-7", "trial_type": "html-keyboard-response", "trial_index": 42, "time_elapsed": 171279, "internal_node_id": "0.0-4.0-38.0"}}, {"uniqueid": "w54429803:a83238958", "current_trial": 43, "dateTime": 1664464877147, "trialdata": {"rt": 527, "stimulus": "<p id='stroop-text' class='stroop-green'>CHAIR</p>", "response": "g", "stimulus-type": "unrelated", "word": "CHAIR", "color": "green", "correct_response": "g", "trial_id": "stroop-trial-1-unrelated-18", "trial_type": "html-keyboard-response", "trial_index": 43, "time_elapsed": 172312, "internal_node_id": "0.0-4.0-39.0"}}, {"uniqueid": "w54429803:a83238958", "current_trial": 44, "dateTime": 1664464878083, "trialdata": {"rt": 433, "stimulus": "<p id='stroop-text' class='stroop-green'>BOAT</p>", "response": "g", "stimulus-type": "unrelated", "word": "BOAT", "color": "green", "correct_response": "g", "trial_id": "stroop-trial-1-unrelated-17", "trial_type": "html-keyboard-response", "trial_index": 44, "time_elapsed": 173248, "internal_node_id": "0.0-4.0-40.0"}}, {"uniqueid": "w54429803:a83238958", "current_trial": 45, "dateTime": 1664464878995, "trialdata": {"rt": 411, "stimulus": "<p id='stroop-text' class='stroop-green'>GREEN</p>", "response": "g", "stimulus-type": "congruent", "word": "green", "color": "green", "correct_response": "g", "trial_id": "stroop-trial-1-congruent-21", "trial_type": "html-keyboard-response", "trial_index": 45, "time_elapsed": 174160, "internal_node_id": "0.0-4.0-41.0"}}, {"uniqueid": "w54429803:a83238958", "current_trial": 46, "dateTime": 1664464880009, "trialdata": {"rt": 512, "stimulus": "<p id='stroop-text' class='stroop-yellow'>BRAIN</p>", "response": "y", "stimulus-type": "unrelated", "word": "BRAIN", "color": "yellow", "correct_response": "y", "trial_id": "stroop-trial-1-unrelated-24", "trial_type": "html-keyboard-response", "trial_index": 46, "time_elapsed": 175174, "internal_node_id": "0.0-4.0-42.0"}}, {"uniqueid": "w54429803:a83238958", "current_trial": 47, "dateTime": 1664464881483, "trialdata": {"rt": 973, "stimulus": "<p id='stroop-text' class='stroop-green'>RED</p>", "response": "g", "stimulus-type": "incongruent", "word": "red", "color": "green", "correct_response": "g", "trial_id": "stroop-trial-1-incongruent-22", "trial_type": "html-keyboard-response", "trial_index": 47, "time_elapsed": 176648, "internal_node_id": "0.0-4.0-43.0"}}, {"uniqueid": "w54429803:a83238958", "current_trial": 48, "dateTime": 1664464882586, "trialdata": {"rt": 588, "stimulus": "<p id='stroop-text' class='stroop-yellow'>YELLOW</p>", "response": "y", "stimulus-type": "congruent", "word": "yellow", "color": "yellow", "correct_response": "y", "trial_id": "stroop-trial-1-congruent-29", "trial_type": "html-keyboard-response", "trial_index": 48, "time_elapsed": 177751, "internal_node_id": "0.0-4.0-44.0"}}, {"uniqueid": "w54429803:a83238958", "current_trial": 49, "dateTime": 1664464883700, "trialdata": {"rt": 613, "stimulus": "<p id='stroop-text' class='stroop-green'>STONE</p>", "response": "g", "stimulus-type": "unrelated", "word": "STONE", "color": "green", "correct_response": "g", "trial_id": "stroop-trial-1-unrelated-12", "trial_type": "html-keyboard-response", "trial_index": 49, "time_elapsed": 178865, "internal_node_id": "0.0-4.0-45.0"}}, {"uniqueid": "w54429803:a83238958", "current_trial": 50, "dateTime": 1664464884719, "trialdata": {"rt": 518, "stimulus": "<p id='stroop-text' class='stroop-green'>BLUE</p>", "response": "g", "stimulus-type": "incongruent", "word": "blue", "color": "green", "correct_response": "g", "trial_id": "stroop-trial-1-incongruent-1", "trial_type": "html-keyboard-response", "trial_index": 50, "time_elapsed": 179884, "internal_node_id": "0.0-4.0-46.0"}}, {"uniqueid": "w54429803:a83238958", "current_trial": 51, "dateTime": 1664464885866, "trialdata": {"rt": 644, "stimulus": "<p id='stroop-text' class='stroop-blue'>SHIP</p>", "response": "b", "stimulus-type": "unrelated", "word": "SHIP", "color": "blue", "correct_response": "b", "trial_id": "stroop-trial-1-unrelated-10", "trial_type": "html-keyboard-response", "trial_index": 51, "time_elapsed": 181031, "internal_node_id": "0.0-4.0-47.0"}}, {"uniqueid": "w54429803:a83238958", "current_trial": 52, "dateTime": 1664464888041, "trialdata": {"rt": 1673, "stimulus": "<p id='stroop-text' class='stroop-blue'>GREEN</p>", "response": "b", "stimulus-type": "incongruent", "word": "green", "color": "blue", "correct_response": "b", "trial_id": "stroop-trial-1-incongruent-8", "trial_type": "html-keyboard-response", "trial_index": 52, "time_elapsed": 183205, "internal_node_id": "0.0-4.0-48.0"}}, {"uniqueid": "w54429803:a83238958", "current_trial": 53, "dateTime": 1664464889187, "trialdata": {"rt": 645, "stimulus": "<p id='stroop-text' class='stroop-yellow'>RED</p>", "response": "r", "stimulus-type": "incongruent", "word": "red", "color": "yellow", "correct_response": "y", "trial_id": "stroop-trial-1-incongruent-24", "trial_type": "html-keyboard-response", "trial_index": 53, "time_elapsed": 184352, "internal_node_id": "0.0-4.0-49.0"}}, {"uniqueid": "w54429803:a83238958", "current_trial": 54, "dateTime": 1664464890852, "trialdata": {"rt": 1163, "stimulus": "<p id='stroop-text' class='stroop-blue'>BLUE</p>", "response": "b", "stimulus-type": "congruent", "word": "blue", "color": "blue", "correct_response": "b", "trial_id": "stroop-trial-1-congruent-10", "trial_type": "html-keyboard-response", "trial_index": 54, "time_elapsed": 186017, "internal_node_id": "0.0-4.0-50.0"}}, {"uniqueid": "w54429803:a83238958", "current_trial": 55, "dateTime": 1664464893137, "trialdata": {"rt": 1783, "stimulus": "<p id='stroop-text' class='stroop-green'>BLUE</p>", "response": "g", "stimulus-type": "incongruent", "word": "blue", "color": "green", "correct_response": "g", "trial_id": "stroop-trial-1-incongruent-14", "trial_type": "html-keyboard-response", "trial_index": 55, "time_elapsed": 188301, "internal_node_id": "0.0-4.0-51.0"}}, {"uniqueid": "w54429803:a83238958", "current_trial": 56, "dateTime": 1664464894367, "trialdata": {"rt": 728, "stimulus": "<p id='stroop-text' class='stroop-blue'>BOAT</p>", "response": "b", "stimulus-type": "unrelated", "word": "BOAT", "color": "blue", "correct_response": "b", "trial_id": "stroop-trial-1-unrelated-9", "trial_type": "html-keyboard-response", "trial_index": 56, "time_elapsed": 189532, "internal_node_id": "0.0-4.0-52.0"}}, {"uniqueid": "w54429803:a83238958", "current_trial": 57, "dateTime": 1664464895368, "trialdata": {"rt": 499, "stimulus": "<p id='stroop-text' class='stroop-green'>BOAT</p>", "response": "g", "stimulus-type": "unrelated", "word": "BOAT", "color": "green", "correct_response": "g", "trial_id": "stroop-trial-1-unrelated-1", "trial_type": "html-keyboard-response", "trial_index": 57, "time_elapsed": 190533, "internal_node_id": "0.0-4.0-53.0"}}, {"uniqueid": "w54429803:a83238958", "current_trial": 58, "dateTime": 1664464896240, "trialdata": {"rt": 369, "stimulus": "<p id='stroop-text' class='stroop-red'>YELLOW</p>", "response": "r", "stimulus-type": "incongruent", "word": "yellow", "color": "red", "correct_response": "r", "trial_id": "stroop-trial-1-incongruent-6", "trial_type": "html-keyboard-response", "trial_index": 58, "time_elapsed": 191404, "internal_node_id": "0.0-4.0-54.0"}}, {"uniqueid": "w54429803:a83238958", "current_trial": 59, "dateTime": 1664464897322, "trialdata": {"rt": 570, "stimulus": "<p id='stroop-text' class='stroop-red'>SHIP</p>", "response": "g", "stimulus-type": "unrelated", "word": "SHIP", "color": "red", "correct_response": "r", "trial_id": "stroop-trial-1-unrelated-22", "trial_type": "html-keyboard-response", "trial_index": 59, "time_elapsed": 192487, "internal_node_id": "0.0-4.0-55.0"}}, {"uniqueid": "w54429803:a83238958", "current_trial": 60, "dateTime": 1664464898830, "trialdata": {"rt": 1005, "stimulus": "<p id='stroop-text' class='stroop-yellow'>GREEN</p>", "response": "b", "stimulus-type": "incongruent", "word": "green", "color": "yellow", "correct_response": "y", "trial_id": "stroop-trial-1-incongruent-4", "trial_type": "html-keyboard-response", "trial_index": 60, "time_elapsed": 193995, "internal_node_id": "0.0-4.0-56.0"}}, {"uniqueid": "w54429803:a83238958", "current_trial": 61, "dateTime": 1664464899906, "trialdata": {"rt": 574, "stimulus": "<p id='stroop-text' class='stroop-yellow'>GREEN</p>", "response": "y", "stimulus-type": "incongruent", "word": "green", "color": "yellow", "correct_response": "y", "trial_id": "stroop-trial-1-incongruent-9", "trial_type": "html-keyboard-response", "trial_index": 61, "time_elapsed": 195071, "internal_node_id": "0.0-4.0-57.0"}}, {"uniqueid": "w54429803:a83238958", "current_trial": 62, "dateTime": 1664464902349, "trialdata": {"rt": 1942, "stimulus": "<p id='stroop-text' class='stroop-blue'>BLUE</p>", "response": "b", "stimulus-type": "congruent", "word": "blue", "color": "blue", "correct_response": "b", "trial_id": "stroop-trial-1-congruent-12", "trial_type": "html-keyboard-response", "trial_index": 62, "time_elapsed": 197514, "internal_node_id": "0.0-4.0-58.0"}}, {"uniqueid": "w54429803:a83238958", "current_trial": 63, "dateTime": 1664464903884, "trialdata": {"rt": 1032, "stimulus": "<p id='stroop-text' class='stroop-green'>RED</p>", "response": "g", "stimulus-type": "incongruent", "word": "red", "color": "green", "correct_response": "g", "trial_id": "stroop-trial-1-incongruent-20", "trial_type": "html-keyboard-response", "trial_index": 63, "time_elapsed": 199048, "internal_node_id": "0.0-4.0-59.0"}}, {"uniqueid": "w54429803:a83238958", "current_trial": 64, "dateTime": 1664464905094, "trialdata": {"rt": 706, "stimulus": "<p id='stroop-text' class='stroop-green'>CHAIR</p>", "response": "g", "stimulus-type": "unrelated", "word": "CHAIR", "color": "green", "correct_response": "g", "trial_id": "stroop-trial-1-unrelated-4", "trial_type": "html-keyboard-response", "trial_index": 64, "time_elapsed": 200259, "internal_node_id": "0.0-4.0-60.0"}}, {"uniqueid": "w54429803:a83238958", "current_trial": 65, "dateTime": 1664464906124, "trialdata": {"rt": 515, "stimulus": "<p id='stroop-text' class='stroop-red'>SHIP</p>", "response": "r", "stimulus-type": "unrelated", "word": "SHIP", "color": "red", "correct_response": "r", "trial_id": "stroop-trial-1-unrelated-5", "trial_type": "html-keyboard-response", "trial_index": 65, "time_elapsed": 201289, "internal_node_id": "0.0-4.0-61.0"}}, {"uniqueid": "w54429803:a83238958", "current_trial": 66, "dateTime": 1664464907350, "trialdata": {"rt": 724, "stimulus": "<p id='stroop-text' class='stroop-red'>GREEN</p>", "response": "r", "stimulus-type": "incongruent", "word": "green", "color": "red", "correct_response": "r", "trial_id": "stroop-trial-1-incongruent-19", "trial_type": "html-keyboard-response", "trial_index": 66, "time_elapsed": 202515, "internal_node_id": "0.0-4.0-62.0"}}, {"uniqueid": "w54429803:a83238958", "current_trial": 67, "dateTime": 1664464908960, "trialdata": {"rt": 1107, "stimulus": "<p id='stroop-text' class='stroop-green'>GREEN</p>", "response": "g", "stimulus-type": "congruent", "word": "green", "color": "green", "correct_response": "g", "trial_id": "stroop-trial-1-congruent-3", "trial_type": "html-keyboard-response", "trial_index": 67, "time_elapsed": 204124, "internal_node_id": "0.0-4.0-63.0"}}, {"uniqueid": "w54429803:a83238958", "current_trial": 68, "dateTime": 1664464910738, "trialdata": {"rt": 1276, "stimulus": "<p id='stroop-text' class='stroop-green'>FORK</p>", "response": "g", "stimulus-type": "unrelated", "word": "FORK", "color": "green", "correct_response": "g", "trial_id": "stroop-trial-1-unrelated-11", "trial_type": "html-keyboard-response", "trial_index": 68, "time_elapsed": 205903, "internal_node_id": "0.0-4.0-64.0"}}, {"uniqueid": "w54429803:a83238958", "current_trial": 69, "dateTime": 1664464911698, "trialdata": {"rt": 457, "stimulus": "<p id='stroop-text' class='stroop-green'>GREEN</p>", "response": "g", "stimulus-type": "congruent", "word": "green", "color": "green", "correct_response": "g", "trial_id": "stroop-trial-1-congruent-28", "trial_type": "html-keyboard-response", "trial_index": 69, "time_elapsed": 206863, "internal_node_id": "0.0-4.0-65.0"}}, {"uniqueid": "w54429803:a83238958", "current_trial": 70, "dateTime": 1664464912645, "trialdata": {"rt": 446, "stimulus": "<p id='stroop-text' class='stroop-green'>GREEN</p>", "response": "g", "stimulus-type": "congruent", "word": "green", "color": "green", "correct_response": "g", "trial_id": "stroop-trial-1-congruent-5", "trial_type": "html-keyboard-response", "trial_index": 70, "time_elapsed": 207810, "internal_node_id": "0.0-4.0-66.0"}}, {"uniqueid": "w54429803:a83238958", "current_trial": 71, "dateTime": 1664464913725, "trialdata": {"rt": 578, "stimulus": "<p id='stroop-text' class='stroop-red'>SHIP</p>", "response": "r", "stimulus-type": "unrelated", "word": "SHIP", "color": "red", "correct_response": "r", "trial_id": "stroop-trial-1-unrelated-13", "trial_type": "html-keyboard-response", "trial_index": 71, "time_elapsed": 208890, "internal_node_id": "0.0-4.0-67.0"}}, {"uniqueid": "w54429803:a83238958", "current_trial": 72, "dateTime": 1664464915117, "trialdata": {"rt": 890, "stimulus": "<p id='stroop-text' class='stroop-yellow'>MONKEY</p>", "response": "y", "stimulus-type": "unrelated", "word": "MONKEY", "color": "yellow", "correct_response": "y", "trial_id": "stroop-trial-1-unrelated-26", "trial_type": "html-keyboard-response", "trial_index": 72, "time_elapsed": 210282, "internal_node_id": "0.0-4.0-68.0"}}, {"uniqueid": "w54429803:a83238958", "current_trial": 73, "dateTime": 1664464916138, "trialdata": {"rt": 520, "stimulus": "<p id='stroop-text' class='stroop-yellow'>YELLOW</p>", "response": "y", "stimulus-type": "congruent", "word": "yellow", "color": "yellow", "correct_response": "y", "trial_id": "stroop-trial-1-congruent-11", "trial_type": "html-keyboard-response", "trial_index": 73, "time_elapsed": 211303, "internal_node_id": "0.0-4.0-69.0"}}, {"uniqueid": "w54429803:a83238958", "current_trial": 74, "dateTime": 1664464917029, "trialdata": {"rt": 389, "stimulus": "<p id='stroop-text' class='stroop-yellow'>BLUE</p>", "response": "y", "stimulus-type": "incongruent", "word": "blue", "color": "yellow", "correct_response": "y", "trial_id": "stroop-trial-1-incongruent-7", "trial_type": "html-keyboard-response", "trial_index": 74, "time_elapsed": 212193, "internal_node_id": "0.0-4.0-70.0"}}, {"uniqueid": "w54429803:a83238958", "current_trial": 75, "dateTime": 1664464918232, "trialdata": {"rt": 700, "stimulus": "<p id='stroop-text' class='stroop-blue'>WINDOW</p>", "response": "b", "stimulus-type": "unrelated", "word": "WINDOW", "color": "blue", "correct_response": "b", "trial_id": "stroop-trial-1-unrelated-6", "trial_type": "html-keyboard-response", "trial_index": 75, "time_elapsed": 213396, "internal_node_id": "0.0-4.0-71.0"}}, {"uniqueid": "w54429803:a83238958", "current_trial": 76, "dateTime": 1664464919183, "trialdata": {"rt": 448, "stimulus": "<p id='stroop-text' class='stroop-blue'>RED</p>", "response": "b", "stimulus-type": "incongruent", "word": "red", "color": "blue", "correct_response": "b", "trial_id": "stroop-trial-1-incongruent-27", "trial_type": "html-keyboard-response", "trial_index": 76, "time_elapsed": 214347, "internal_node_id": "0.0-4.0-72.0"}}, {"uniqueid": "w54429803:a83238958", "current_trial": 77, "dateTime": 1664464920342, "trialdata": {"rt": 657, "stimulus": "<p id='stroop-text' class='stroop-yellow'>RED</p>", "response": "y", "stimulus-type": "incongruent", "word": "red", "color": "yellow", "correct_response": "y", "trial_id": "stroop-trial-1-incongruent-18", "trial_type": "html-keyboard-response", "trial_index": 77, "time_elapsed": 215507, "internal_node_id": "0.0-4.0-73.0"}}, {"uniqueid": "w54429803:a83238958", "current_trial": 78, "dateTime": 1664464921262, "trialdata": {"rt": 417, "stimulus": "<p id='stroop-text' class='stroop-yellow'>YELLOW</p>", "response": "y", "stimulus-type": "congruent", "word": "yellow", "color": "yellow", "correct_response": "y", "trial_id": "stroop-trial-1-congruent-8", "trial_type": "html-keyboard-response", "trial_index": 78, "time_elapsed": 216427, "internal_node_id": "0.0-4.0-74.0"}}, {"uniqueid": "w54429803:a83238958", "current_trial": 79, "dateTime": 1664464923033, "trialdata": {"rt": 1268, "stimulus": "<p id='stroop-text' class='stroop-green'>BLUE</p>", "response": "g", "stimulus-type": "incongruent", "word": "blue", "color": "green", "correct_response": "g", "trial_id": "stroop-trial-1-incongruent-12", "trial_type": "html-keyboard-response", "trial_index": 79, "time_elapsed": 218198, "internal_node_id": "0.0-4.0-75.0"}}, {"uniqueid": "w54429803:a83238958", "current_trial": 80, "dateTime": 1664464924481, "trialdata": {"rt": 946, "stimulus": "<p id='stroop-text' class='stroop-blue'>YELLOW</p>", "response": "r", "stimulus-type": "incongruent", "word": "yellow", "color": "blue", "correct_response": "b", "trial_id": "stroop-trial-1-incongruent-10", "trial_type": "html-keyboard-response", "trial_index": 80, "time_elapsed": 219646, "internal_node_id": "0.0-4.0-76.0"}}, {"uniqueid": "w54429803:a83238958", "current_trial": 81, "dateTime": 1664464925739, "trialdata": {"rt": 757, "stimulus": "<p id='stroop-text' class='stroop-red'>RED</p>", "response": "r", "stimulus-type": "congruent", "word": "red", "color": "red", "correct_response": "r", "trial_id": "stroop-trial-1-congruent-22", "trial_type": "html-keyboard-response", "trial_index": 81, "time_elapsed": 220904, "internal_node_id": "0.0-4.0-77.0"}}, {"uniqueid": "w54429803:a83238958", "current_trial": 82, "dateTime": 1664464926842, "trialdata": {"rt": 600, "stimulus": "<p id='stroop-text' class='stroop-yellow'>YELLOW</p>", "response": "y", "stimulus-type": "congruent", "word": "yellow", "color": "yellow", "correct_response": "y", "trial_id": "stroop-trial-1-congruent-6", "trial_type": "html-keyboard-response", "trial_index": 82, "time_elapsed": 222007, "internal_node_id": "0.0-4.0-78.0"}}, {"uniqueid": "w54429803:a83238958", "current_trial": 83, "dateTime": 1664464928146, "trialdata": {"rt": 801, "stimulus": "<p id='stroop-text' class='stroop-red'>MONKEY</p>", "response": "r", "stimulus-type": "unrelated", "word": "MONKEY", "color": "red", "correct_response": "r", "trial_id": "stroop-trial-1-unrelated-14", "trial_type": "html-keyboard-response", "trial_index": 83, "time_elapsed": 223310, "internal_node_id": "0.0-4.0-79.0"}}, {"uniqueid": "w54429803:a83238958", "current_trial": 84, "dateTime": 1664464930031, "trialdata": {"rt": 1380, "stimulus": "<p id='stroop-text' class='stroop-yellow'>BRAIN</p>", "response": "y", "stimulus-type": "unrelated", "word": "BRAIN", "color": "yellow", "correct_response": "y", "trial_id": "stroop-trial-1-unrelated-2", "trial_type": "html-keyboard-response", "trial_index": 84, "time_elapsed": 225196, "internal_node_id": "0.0-4.0-80.0"}}, {"uniqueid": "w54429803:a83238958", "current_trial": 85, "dateTime": 1664464932299, "trialdata": {"rt": 1766, "stimulus": "<p id='stroop-text' class='stroop-blue'>BOAT</p>", "response": "b", "stimulus-type": "unrelated", "word": "BOAT", "color": "blue", "correct_response": "b", "trial_id": "stroop-trial-1-unrelated-23", "trial_type": "html-keyboard-response", "trial_index": 85, "time_elapsed": 227464, "internal_node_id": "0.0-4.0-81.0"}}, {"uniqueid": "w54429803:a83238958", "current_trial": 86, "dateTime": 1664464933328, "trialdata": {"rt": 528, "stimulus": "<p id='stroop-text' class='stroop-red'>STONE</p>", "response": "r", "stimulus-type": "unrelated", "word": "STONE", "color": "red", "correct_response": "r", "trial_id": "stroop-trial-1-unrelated-3", "trial_type": "html-keyboard-response", "trial_index": 86, "time_elapsed": 228493, "internal_node_id": "0.0-4.0-82.0"}}, {"uniqueid": "w54429803:a83238958", "current_trial": 87, "dateTime": 1664464936158, "trialdata": {"rt": 2329, "stimulus": "<p id='stroop-text' class='stroop-yellow'>RED</p>", "response": "y", "stimulus-type": "incongruent", "word": "red", "color": "yellow", "correct_response": "y", "trial_id": "stroop-trial-1-incongruent-3", "trial_type": "html-keyboard-response", "trial_index": 87, "time_elapsed": 231323, "internal_node_id": "0.0-4.0-83.0"}}, {"uniqueid": "w54429803:a83238958", "current_trial": 88, "dateTime": 1664464937031, "trialdata": {"rt": 370, "stimulus": "<p id='stroop-text' class='stroop-yellow'>YELLOW</p>", "response": "y", "stimulus-type": "congruent", "word": "yellow", "color": "yellow", "correct_response": "y", "trial_id": "stroop-trial-1-congruent-26", "trial_type": "html-keyboard-response", "trial_index": 88, "time_elapsed": 232195, "internal_node_id": "0.0-4.0-84.0"}}, {"uniqueid": "w54429803:a83238958", "current_trial": 89, "dateTime": 1664464938656, "trialdata": {"rt": 1123, "stimulus": "<p id='stroop-text' class='stroop-blue'>BLUE</p>", "response": "b", "stimulus-type": "congruent", "word": "blue", "color": "blue", "correct_response": "b", "trial_id": "stroop-trial-1-congruent-23", "trial_type": "html-keyboard-response", "trial_index": 89, "time_elapsed": 233820, "internal_node_id": "0.0-4.0-85.0"}}, {"uniqueid": "w54429803:a83238958", "current_trial": 90, "dateTime": 1664464939715, "trialdata": {"rt": 558, "stimulus": "<p id='stroop-text' class='stroop-red'>YELLOW</p>", "response": "r", "stimulus-type": "incongruent", "word": "yellow", "color": "red", "correct_response": "r", "trial_id": "stroop-trial-1-incongruent-11", "trial_type": "html-keyboard-response", "trial_index": 90, "time_elapsed": 234880, "internal_node_id": "0.0-4.0-86.0"}}, {"uniqueid": "w54429803:a83238958", "current_trial": 91, "dateTime": 1664464940853, "trialdata": {"rt": 636, "stimulus": "<p id='stroop-text' class='stroop-green'>GREEN</p>", "response": "g", "stimulus-type": "congruent", "word": "green", "color": "green", "correct_response": "g", "trial_id": "stroop-trial-1-congruent-4", "trial_type": "html-keyboard-response", "trial_index": 91, "time_elapsed": 236018, "internal_node_id": "0.0-4.0-87.0"}}, {"uniqueid": "w54429803:a83238958", "current_trial": 92, "dateTime": 1664464942046, "trialdata": {"rt": 680, "stimulus": "<p id='stroop-text' class='stroop-red'>BLUE</p>", "response": "r", "stimulus-type": "incongruent", "word": "blue", "color": "red", "correct_response": "r", "trial_id": "stroop-trial-1-incongruent-17", "trial_type": "html-keyboard-response", "trial_index": 92, "time_elapsed": 237211, "internal_node_id": "0.0-4.0-88.0"}}, {"uniqueid": "w54429803:a83238958", "current_trial": 93, "dateTime": 1664464943237, "trialdata": {"rt": 689, "stimulus": "<p id='stroop-text' class='stroop-green'>GREEN</p>", "response": "g", "stimulus-type": "congruent", "word": "green", "color": "green", "correct_response": "g", "trial_id": "stroop-trial-1-congruent-30", "trial_type": "html-keyboard-response", "trial_index": 93, "time_elapsed": 238402, "internal_node_id": "0.0-4.0-89.0"}}, {"uniqueid": "w54429803:a83238958", "current_trial": 94, "dateTime": 1664464952068, "trialdata": {"rt": 8328, "stimulus": "  <h1> End of block! </h1>\n\n  You have reached the end of the block 1/5. If you need a short break, feel free to take one now before moving on.\n\n  <br><br>\n  In the next block, you will complete another 90 rounds of this game.\n\n  <br><br>\n  <div style='text-align: center;'>Press <code>space</code> to begin.</div>\n  <br><br>\n<div style='text-align: center;'>(If the experiment doesn't continue, try clicking on the text and then pressing <code>space</code>.)</div>", "response": " ", "trial_id": "stroop_1_ready_2", "trial_type": "html-keyboard-response", "trial_index": 94, "time_elapsed": 247233, "internal_node_id": "0.0-5.0"}}, {"uniqueid": "w54429803:a83238958", "current_trial": 95, "dateTime": 1664464952722, "trialdata": {"rt": 652, "stimulus": "<p id='stroop-text' class='stroop-red'>RED</p>", "response": "r", "stimulus-type": "congruent", "word": "red", "color": "red", "correct_response": "r", "trial_id": "stroop-trial-1-congruent-5", "trial_type": "html-keyboard-response", "trial_index": 95, "time_elapsed": 247886, "internal_node_id": "0.0-6.0-0.0"}}, {"uniqueid": "w54429803:a83238958", "current_trial": 96, "dateTime": 1664464953854, "trialdata": {"rt": 631, "stimulus": "<p id='stroop-text' class='stroop-blue'>BLUE</p>", "response": "b", "stimulus-type": "congruent", "word": "blue", "color": "blue", "correct_response": "b", "trial_id": "stroop-trial-1-congruent-13", "trial_type": "html-keyboard-response", "trial_index": 96, "time_elapsed": 249019, "internal_node_id": "0.0-6.0-1.0"}}, {"uniqueid": "w54429803:a83238958", "current_trial": 97, "dateTime": 1664464954769, "trialdata": {"rt": 412, "stimulus": "<p id='stroop-text' class='stroop-blue'>GREEN</p>", "response": "b", "stimulus-type": "incongruent", "word": "green", "color": "blue", "correct_response": "b", "trial_id": "stroop-trial-1-incongruent-20", "trial_type": "html-keyboard-response", "trial_index": 97, "time_elapsed": 249933, "internal_node_id": "0.0-6.0-2.0"}}, {"uniqueid": "w54429803:a83238958", "current_trial": 98, "dateTime": 1664464955752, "trialdata": {"rt": 481, "stimulus": "<p id='stroop-text' class='stroop-yellow'>GREEN</p>", "response": "y", "stimulus-type": "incongruent", "word": "green", "color": "yellow", "correct_response": "y", "trial_id": "stroop-trial-1-incongruent-21", "trial_type": "html-keyboard-response", "trial_index": 98, "time_elapsed": 250917, "internal_node_id": "0.0-6.0-3.0"}}, {"uniqueid": "w54429803:a83238958", "current_trial": 99, "dateTime": 1664464957226, "trialdata": {"rt": 971, "stimulus": "<p id='stroop-text' class='stroop-green'>BLUE</p>", "response": "g", "stimulus-type": "incongruent", "word": "blue", "color": "green", "correct_response": "g", "trial_id": "stroop-trial-1-incongruent-10", "trial_type": "html-keyboard-response", "trial_index": 99, "time_elapsed": 252391, "internal_node_id": "0.0-6.0-4.0"}}, {"uniqueid": "w54429803:a83238958", "current_trial": 100, "dateTime": 1664464958211, "trialdata": {"rt": 484, "stimulus": "<p id='stroop-text' class='stroop-green'>BRIDGE</p>", "response": "g", "stimulus-type": "unrelated", "word": "BRIDGE", "color": "green", "correct_response": "g", "trial_id": "stroop-trial-1-unrelated-25", "trial_type": "html-keyboard-response", "trial_index": 100, "time_elapsed": 253376, "internal_node_id": "0.0-6.0-5.0"}}, {"uniqueid": "w54429803:a83238958", "current_trial": 101, "dateTime": 1664464959454, "trialdata": {"rt": 739, "stimulus": "<p id='stroop-text' class='stroop-red'>BRIDGE</p>", "response": "r", "stimulus-type": "unrelated", "word": "BRIDGE", "color": "red", "correct_response": "r", "trial_id": "stroop-trial-1-unrelated-4", "trial_type": "html-keyboard-response", "trial_index": 101, "time_elapsed": 254619, "internal_node_id": "0.0-6.0-6.0"}}, {"uniqueid": "w54429803:a83238958", "current_trial": 102, "dateTime": 1664464961402, "trialdata": {"rt": 1434, "stimulus": "<p id='stroop-text' class='stroop-green'>RED</p>", "response": "g", "stimulus-type": "incongruent", "word": "red", "color": "green", "correct_response": "g", "trial_id": "stroop-trial-1-incongruent-2", "trial_type": "html-keyboard-response", "trial_index": 102, "time_elapsed": 256567, "internal_node_id": "0.0-6.0-7.0"}}, {"uniqueid": "w54429803:a83238958", "current_trial": 103, "dateTime": 1664464962441, "trialdata": {"rt": 528, "stimulus": "<p id='stroop-text' class='stroop-yellow'>YELLOW</p>", "response": "y", "stimulus-type": "congruent", "word": "yellow", "color": "yellow", "correct_response": "y", "trial_id": "stroop-trial-1-congruent-17", "trial_type": "html-keyboard-response", "trial_index": 103, "time_elapsed": 257606, "internal_node_id": "0.0-6.0-8.0"}}, {"uniqueid": "w54429803:a83238958", "current_trial": 104, "dateTime": 1664464963694, "trialdata": {"rt": 750, "stimulus": "<p id='stroop-text' class='stroop-yellow'>RED</p>", "response": "y", "stimulus-type": "incongruent", "word": "red", "color": "yellow", "correct_response": "y", "trial_id": "stroop-trial-1-incongruent-11", "trial_type": "html-keyboard-response", "trial_index": 104, "time_elapsed": 258859, "internal_node_id": "0.0-6.0-9.0"}}, {"uniqueid": "w54429803:a83238958", "current_trial": 105, "dateTime": 1664464965790, "trialdata": {"rt": 1579, "stimulus": "<p id='stroop-text' class='stroop-green'>YELLOW</p>", "response": "g", "stimulus-type": "incongruent", "word": "yellow", "color": "green", "correct_response": "g", "trial_id": "stroop-trial-1-incongruent-12", "trial_type": "html-keyboard-response", "trial_index": 105, "time_elapsed": 260955, "internal_node_id": "0.0-6.0-10.0"}}, {"uniqueid": "w54429803:a83238958", "current_trial": 106, "dateTime": 1664464966690, "trialdata": {"rt": 398, "stimulus": "<p id='stroop-text' class='stroop-blue'>DOG</p>", "response": "b", "stimulus-type": "unrelated", "word": "DOG", "color": "blue", "correct_response": "b", "trial_id": "stroop-trial-1-unrelated-7", "trial_type": "html-keyboard-response", "trial_index": 106, "time_elapsed": 261855, "internal_node_id": "0.0-6.0-11.0"}}, {"uniqueid": "w54429803:a83238958", "current_trial": 107, "dateTime": 1664464967792, "trialdata": {"rt": 599, "stimulus": "<p id='stroop-text' class='stroop-yellow'>RED</p>", "response": "y", "stimulus-type": "incongruent", "word": "red", "color": "yellow", "correct_response": "y", "trial_id": "stroop-trial-1-incongruent-9", "trial_type": "html-keyboard-response", "trial_index": 107, "time_elapsed": 262957, "internal_node_id": "0.0-6.0-12.0"}}, {"uniqueid": "w54429803:a83238958", "current_trial": 108, "dateTime": 1664464969389, "trialdata": {"rt": 1092, "stimulus": "<p id='stroop-text' class='stroop-blue'>GREEN</p>", "response": "b", "stimulus-type": "incongruent", "word": "green", "color": "blue", "correct_response": "b", "trial_id": "stroop-trial-1-incongruent-13", "trial_type": "html-keyboard-response", "trial_index": 108, "time_elapsed": 264554, "internal_node_id": "0.0-6.0-13.0"}}, {"uniqueid": "w54429803:a83238958", "current_trial": 109, "dateTime": 1664464970706, "trialdata": {"rt": 814, "stimulus": "<p id='stroop-text' class='stroop-yellow'>SHIP</p>", "response": "y", "stimulus-type": "unrelated", "word": "SHIP", "color": "yellow", "correct_response": "y", "trial_id": "stroop-trial-1-unrelated-23", "trial_type": "html-keyboard-response", "trial_index": 109, "time_elapsed": 265871, "internal_node_id": "0.0-6.0-14.0"}}, {"uniqueid": "w54429803:a83238958", "current_trial": 110, "dateTime": 1664464972227, "trialdata": {"rt": 1020, "stimulus": "<p id='stroop-text' class='stroop-blue'>BLUE</p>", "response": "b", "stimulus-type": "congruent", "word": "blue", "color": "blue", "correct_response": "b", "trial_id": "stroop-trial-1-congruent-12", "trial_type": "html-keyboard-response", "trial_index": 110, "time_elapsed": 267392, "internal_node_id": "0.0-6.0-15.0"}}, {"uniqueid": "w54429803:a83238958", "current_trial": 111, "dateTime": 1664464973406, "trialdata": {"rt": 676, "stimulus": "<p id='stroop-text' class='stroop-red'>WINDOW</p>", "response": "r", "stimulus-type": "unrelated", "word": "WINDOW", "color": "red", "correct_response": "r", "trial_id": "stroop-trial-1-unrelated-19", "trial_type": "html-keyboard-response", "trial_index": 111, "time_elapsed": 268570, "internal_node_id": "0.0-6.0-16.0"}}, {"uniqueid": "w54429803:a83238958", "current_trial": 112, "dateTime": 1664464974279, "trialdata": {"rt": 372, "stimulus": "<p id='stroop-text' class='stroop-red'>GREEN</p>", "response": "r", "stimulus-type": "incongruent", "word": "green", "color": "red", "correct_response": "r", "trial_id": "stroop-trial-1-incongruent-30", "trial_type": "html-keyboard-response", "trial_index": 112, "time_elapsed": 269444, "internal_node_id": "0.0-6.0-17.0"}}, {"uniqueid": "w54429803:a83238958", "current_trial": 113, "dateTime": 1664464975186, "trialdata": {"rt": 405, "stimulus": "<p id='stroop-text' class='stroop-red'>RED</p>", "response": "r", "stimulus-type": "congruent", "word": "red", "color": "red", "correct_response": "r", "trial_id": "stroop-trial-1-congruent-1", "trial_type": "html-keyboard-response", "trial_index": 113, "time_elapsed": 270350, "internal_node_id": "0.0-6.0-18.0"}}, {"uniqueid": "w54429803:a83238958", "current_trial": 114, "dateTime": 1664464976086, "trialdata": {"rt": 399, "stimulus": "<p id='stroop-text' class='stroop-yellow'>SHIP</p>", "response": "y", "stimulus-type": "unrelated", "word": "SHIP", "color": "yellow", "correct_response": "y", "trial_id": "stroop-trial-1-unrelated-17", "trial_type": "html-keyboard-response", "trial_index": 114, "time_elapsed": 271251, "internal_node_id": "0.0-6.0-19.0"}}, {"uniqueid": "w54429803:a83238958", "current_trial": 115, "dateTime": 1664464977085, "trialdata": {"rt": 495, "stimulus": "<p id='stroop-text' class='stroop-yellow'>YELLOW</p>", "response": "y", "stimulus-type": "congruent", "word": "yellow", "color": "yellow", "correct_response": "y", "trial_id": "stroop-trial-1-congruent-9", "trial_type": "html-keyboard-response", "trial_index": 115, "time_elapsed": 272250, "internal_node_id": "0.0-6.0-20.0"}}, {"uniqueid": "w54429803:a83238958", "current_trial": 116, "dateTime": 1664464978266, "trialdata": {"rt": 678, "stimulus": "<p id='stroop-text' class='stroop-yellow'>GREEN</p>", "response": "y", "stimulus-type": "incongruent", "word": "green", "color": "yellow", "correct_response": "y", "trial_id": "stroop-trial-1-incongruent-1", "trial_type": "html-keyboard-response", "trial_index": 116, "time_elapsed": 273431, "internal_node_id": "0.0-6.0-21.0"}}, {"uniqueid": "w54429803:a83238958", "current_trial": 117, "dateTime": 1664464979573, "trialdata": {"rt": 805, "stimulus": "<p id='stroop-text' class='stroop-blue'>BLUE</p>", "response": "b", "stimulus-type": "congruent", "word": "blue", "color": "blue", "correct_response": "b", "trial_id": "stroop-trial-1-congruent-14", "trial_type": "html-keyboard-response", "trial_index": 117, "time_elapsed": 274738, "internal_node_id": "0.0-6.0-22.0"}}, {"uniqueid": "w54429803:a83238958", "current_trial": 118, "dateTime": 1664464980758, "trialdata": {"rt": 682, "stimulus": "<p id='stroop-text' class='stroop-red'>GREEN</p>", "response": "r", "stimulus-type": "incongruent", "word": "green", "color": "red", "correct_response": "r", "trial_id": "stroop-trial-1-incongruent-23", "trial_type": "html-keyboard-response", "trial_index": 118, "time_elapsed": 275922, "internal_node_id": "0.0-6.0-23.0"}}, {"uniqueid": "w54429803:a83238958", "current_trial": 119, "dateTime": 1664464982035, "trialdata": {"rt": 775, "stimulus": "<p id='stroop-text' class='stroop-red'>BRAIN</p>", "response": "r", "stimulus-type": "unrelated", "word": "BRAIN", "color": "red", "correct_response": "r", "trial_id": "stroop-trial-1-unrelated-20", "trial_type": "html-keyboard-response", "trial_index": 119, "time_elapsed": 277200, "internal_node_id": "0.0-6.0-24.0"}}, {"uniqueid": "w54429803:a83238958", "current_trial": 120, "dateTime": 1664464982975, "trialdata": {"rt": 438, "stimulus": "<p id='stroop-text' class='stroop-green'>BOTTLE</p>", "response": "g", "stimulus-type": "unrelated", "word": "BOTTLE", "color": "green", "correct_response": "g", "trial_id": "stroop-trial-1-unrelated-24", "trial_type": "html-keyboard-response", "trial_index": 120, "time_elapsed": 278140, "internal_node_id": "0.0-6.0-25.0"}}, {"uniqueid": "w54429803:a83238958", "current_trial": 121, "dateTime": 1664464983971, "trialdata": {"rt": 492, "stimulus": "<p id='stroop-text' class='stroop-blue'>BLUE</p>", "response": "b", "stimulus-type": "congruent", "word": "blue", "color": "blue", "correct_response": "b", "trial_id": "stroop-trial-1-congruent-18", "trial_type": "html-keyboard-response", "trial_index": 121, "time_elapsed": 279135, "internal_node_id": "0.0-6.0-26.0"}}, {"uniqueid": "w54429803:a83238958", "current_trial": 122, "dateTime": 1664464984938, "trialdata": {"rt": 464, "stimulus": "<p id='stroop-text' class='stroop-blue'>MONKEY</p>", "response": "b", "stimulus-type": "unrelated", "word": "MONKEY", "color": "blue", "correct_response": "b", "trial_id": "stroop-trial-1-unrelated-14", "trial_type": "html-keyboard-response", "trial_index": 122, "time_elapsed": 280103, "internal_node_id": "0.0-6.0-27.0"}}, {"uniqueid": "w54429803:a83238958", "current_trial": 123, "dateTime": 1664464986106, "trialdata": {"rt": 667, "stimulus": "<p id='stroop-text' class='stroop-green'>GREEN</p>", "response": "g", "stimulus-type": "congruent", "word": "green", "color": "green", "correct_response": "g", "trial_id": "stroop-trial-1-congruent-3", "trial_type": "html-keyboard-response", "trial_index": 123, "time_elapsed": 281271, "internal_node_id": "0.0-6.0-28.0"}}, {"uniqueid": "w54429803:a83238958", "current_trial": 124, "dateTime": 1664464987460, "trialdata": {"rt": 844, "stimulus": "<p id='stroop-text' class='stroop-red'>FORK</p>", "response": "r", "stimulus-type": "unrelated", "word": "FORK", "color": "red", "correct_response": "r", "trial_id": "stroop-trial-1-unrelated-5", "trial_type": "html-keyboard-response", "trial_index": 124, "time_elapsed": 282625, "internal_node_id": "0.0-6.0-29.0"}}, {"uniqueid": "w54429803:a83238958", "current_trial": 125, "dateTime": 1664464988477, "trialdata": {"rt": 515, "stimulus": "<p id='stroop-text' class='stroop-red'>BLUE</p>", "response": "r", "stimulus-type": "incongruent", "word": "blue", "color": "red", "correct_response": "r", "trial_id": "stroop-trial-1-incongruent-3", "trial_type": "html-keyboard-response", "trial_index": 125, "time_elapsed": 283642, "internal_node_id": "0.0-6.0-30.0"}}, {"uniqueid": "w54429803:a83238958", "current_trial": 126, "dateTime": 1664464989555, "trialdata": {"rt": 575, "stimulus": "<p id='stroop-text' class='stroop-yellow'>FORK</p>", "response": "y", "stimulus-type": "unrelated", "word": "FORK", "color": "yellow", "correct_response": "y", "trial_id": "stroop-trial-1-unrelated-10", "trial_type": "html-keyboard-response", "trial_index": 126, "time_elapsed": 284720, "internal_node_id": "0.0-6.0-31.0"}}, {"uniqueid": "w54429803:a83238958", "current_trial": 127, "dateTime": 1664464990934, "trialdata": {"rt": 877, "stimulus": "<p id='stroop-text' class='stroop-blue'>WINDOW</p>", "response": "b", "stimulus-type": "unrelated", "word": "WINDOW", "color": "blue", "correct_response": "b", "trial_id": "stroop-trial-1-unrelated-9", "trial_type": "html-keyboard-response", "trial_index": 127, "time_elapsed": 286099, "internal_node_id": "0.0-6.0-32.0"}}, {"uniqueid": "w54429803:a83238958", "current_trial": 128, "dateTime": 1664464992146, "trialdata": {"rt": 710, "stimulus": "<p id='stroop-text' class='stroop-yellow'>CHAIR</p>", "response": "y", "stimulus-type": "unrelated", "word": "CHAIR", "color": "yellow", "correct_response": "y", "trial_id": "stroop-trial-1-unrelated-18", "trial_type": "html-keyboard-response", "trial_index": 128, "time_elapsed": 287311, "internal_node_id": "0.0-6.0-33.0"}}, {"uniqueid": "w54429803:a83238958", "current_trial": 129, "dateTime": 1664464993356, "trialdata": {"rt": 708, "stimulus": "<p id='stroop-text' class='stroop-green'>CHAIR</p>", "response": "r", "stimulus-type": "unrelated", "word": "CHAIR", "color": "green", "correct_response": "g", "trial_id": "stroop-trial-1-unrelated-3", "trial_type": "html-keyboard-response", "trial_index": 129, "time_elapsed": 288521, "internal_node_id": "0.0-6.0-34.0"}}, {"uniqueid": "w54429803:a83238958", "current_trial": 130, "dateTime": 1664464994681, "trialdata": {"rt": 824, "stimulus": "<p id='stroop-text' class='stroop-blue'>YELLOW</p>", "response": "b", "stimulus-type": "incongruent", "word": "yellow", "color": "blue", "correct_response": "b", "trial_id": "stroop-trial-1-incongruent-4", "trial_type": "html-keyboard-response", "trial_index": 130, "time_elapsed": 289846, "internal_node_id": "0.0-6.0-35.0"}}, {"uniqueid": "w54429803:a83238958", "current_trial": 131, "dateTime": 1664464995698, "trialdata": {"rt": 515, "stimulus": "<p id='stroop-text' class='stroop-blue'>BLUE</p>", "response": "b", "stimulus-type": "congruent", "word": "blue", "color": "blue", "correct_response": "b", "trial_id": "stroop-trial-1-congruent-19", "trial_type": "html-keyboard-response", "trial_index": 131, "time_elapsed": 290862, "internal_node_id": "0.0-6.0-36.0"}}, {"uniqueid": "w54429803:a83238958", "current_trial": 132, "dateTime": 1664464997283, "trialdata": {"rt": 1084, "stimulus": "<p id='stroop-text' class='stroop-red'>RED</p>", "response": "r", "stimulus-type": "congruent", "word": "red", "color": "red", "correct_response": "r", "trial_id": "stroop-trial-1-congruent-2", "trial_type": "html-keyboard-response", "trial_index": 132, "time_elapsed": 292448, "internal_node_id": "0.0-6.0-37.0"}}, {"uniqueid": "w54429803:a83238958", "current_trial": 133, "dateTime": 1664464998932, "trialdata": {"rt": 1146, "stimulus": "<p id='stroop-text' class='stroop-blue'>BRAIN</p>", "response": "b", "stimulus-type": "unrelated", "word": "BRAIN", "color": "blue", "correct_response": "b", "trial_id": "stroop-trial-1-unrelated-6", "trial_type": "html-keyboard-response", "trial_index": 133, "time_elapsed": 294097, "internal_node_id": "0.0-6.0-38.0"}}, {"uniqueid": "w54429803:a83238958", "current_trial": 134, "dateTime": 1664465000284, "trialdata": {"rt": 849, "stimulus": "<p id='stroop-text' class='stroop-blue'>YELLOW</p>", "response": "b", "stimulus-type": "incongruent", "word": "yellow", "color": "blue", "correct_response": "b", "trial_id": "stroop-trial-1-incongruent-28", "trial_type": "html-keyboard-response", "trial_index": 134, "time_elapsed": 295448, "internal_node_id": "0.0-6.0-39.0"}}, {"uniqueid": "w54429803:a83238958", "current_trial": 135, "dateTime": 1664465001454, "trialdata": {"rt": 668, "stimulus": "<p id='stroop-text' class='stroop-green'>YELLOW</p>", "response": "g", "stimulus-type": "incongruent", "word": "yellow", "color": "green", "correct_response": "g", "trial_id": "stroop-trial-1-incongruent-7", "trial_type": "html-keyboard-response", "trial_index": 135, "time_elapsed": 296619, "internal_node_id": "0.0-6.0-40.0"}}, {"uniqueid": "w54429803:a83238958", "current_trial": 136, "dateTime": 1664465002577, "trialdata": {"rt": 621, "stimulus": "<p id='stroop-text' class='stroop-yellow'>CHAIR</p>", "response": "y", "stimulus-type": "unrelated", "word": "CHAIR", "color": "yellow", "correct_response": "y", "trial_id": "stroop-trial-1-unrelated-2", "trial_type": "html-keyboard-response", "trial_index": 136, "time_elapsed": 297742, "internal_node_id": "0.0-6.0-41.0"}}, {"uniqueid": "w54429803:a83238958", "current_trial": 137, "dateTime": 1664465004690, "trialdata": {"rt": 1611, "stimulus": "<p id='stroop-text' class='stroop-green'>YELLOW</p>", "response": "g", "stimulus-type": "incongruent", "word": "yellow", "color": "green", "correct_response": "g", "trial_id": "stroop-trial-1-incongruent-18", "trial_type": "html-keyboard-response", "trial_index": 137, "time_elapsed": 299854, "internal_node_id": "0.0-6.0-42.0"}}, {"uniqueid": "w54429803:a83238958", "current_trial": 138, "dateTime": 1664465006874, "trialdata": {"rt": 1682, "stimulus": "<p id='stroop-text' class='stroop-blue'>GREEN</p>", "response": "b", "stimulus-type": "incongruent", "word": "green", "color": "blue", "correct_response": "b", "trial_id": "stroop-trial-1-incongruent-17", "trial_type": "html-keyboard-response", "trial_index": 138, "time_elapsed": 302038, "internal_node_id": "0.0-6.0-43.0"}}, {"uniqueid": "w54429803:a83238958", "current_trial": 139, "dateTime": 1664465007819, "trialdata": {"rt": 433, "stimulus": "<p id='stroop-text' class='stroop-blue'>YELLOW</p>", "response": "b", "stimulus-type": "incongruent", "word": "yellow", "color": "blue", "correct_response": "b", "trial_id": "stroop-trial-1-incongruent-27", "trial_type": "html-keyboard-response", "trial_index": 139, "time_elapsed": 302984, "internal_node_id": "0.0-6.0-44.0"}}, {"uniqueid": "w54429803:a83238958", "current_trial": 140, "dateTime": 1664465008853, "trialdata": {"rt": 531, "stimulus": "<p id='stroop-text' class='stroop-green'>GREEN</p>", "response": "g", "stimulus-type": "congruent", "word": "green", "color": "green", "correct_response": "g", "trial_id": "stroop-trial-1-congruent-15", "trial_type": "html-keyboard-response", "trial_index": 140, "time_elapsed": 304018, "internal_node_id": "0.0-6.0-45.0"}}, {"uniqueid": "w54429803:a83238958", "current_trial": 141, "dateTime": 1664465009977, "trialdata": {"rt": 622, "stimulus": "<p id='stroop-text' class='stroop-blue'>BLUE</p>", "response": "b", "stimulus-type": "congruent", "word": "blue", "color": "blue", "correct_response": "b", "trial_id": "stroop-trial-1-congruent-27", "trial_type": "html-keyboard-response", "trial_index": 141, "time_elapsed": 305141, "internal_node_id": "0.0-6.0-46.0"}}, {"uniqueid": "w54429803:a83238958", "current_trial": 142, "dateTime": 1664465011674, "trialdata": {"rt": 1195, "stimulus": "<p id='stroop-text' class='stroop-green'>YELLOW</p>", "response": "g", "stimulus-type": "incongruent", "word": "yellow", "color": "green", "correct_response": "g", "trial_id": "stroop-trial-1-incongruent-6", "trial_type": "html-keyboard-response", "trial_index": 142, "time_elapsed": 306839, "internal_node_id": "0.0-6.0-47.0"}}, {"uniqueid": "w54429803:a83238958", "current_trial": 143, "dateTime": 1664465012933, "trialdata": {"rt": 757, "stimulus": "<p id='stroop-text' class='stroop-yellow'>DOG</p>", "response": "y", "stimulus-type": "unrelated", "word": "DOG", "color": "yellow", "correct_response": "y", "trial_id": "stroop-trial-1-unrelated-1", "trial_type": "html-keyboard-response", "trial_index": 143, "time_elapsed": 308098, "internal_node_id": "0.0-6.0-48.0"}}, {"uniqueid": "w54429803:a83238958", "current_trial": 144, "dateTime": 1664465014056, "trialdata": {"rt": 621, "stimulus": "<p id='stroop-text' class='stroop-blue'>BLUE</p>", "response": "g", "stimulus-type": "congruent", "word": "blue", "color": "blue", "correct_response": "b", "trial_id": "stroop-trial-1-congruent-26", "trial_type": "html-keyboard-response", "trial_index": 144, "time_elapsed": 309221, "internal_node_id": "0.0-6.0-49.0"}}, {"uniqueid": "w54429803:a83238958", "current_trial": 145, "dateTime": 1664465015082, "trialdata": {"rt": 525, "stimulus": "<p id='stroop-text' class='stroop-blue'>GREEN</p>", "response": "b", "stimulus-type": "incongruent", "word": "green", "color": "blue", "correct_response": "b", "trial_id": "stroop-trial-1-incongruent-25", "trial_type": "html-keyboard-response", "trial_index": 145, "time_elapsed": 310247, "internal_node_id": "0.0-6.0-50.0"}}, {"uniqueid": "w54429803:a83238958", "current_trial": 146, "dateTime": 1664465015988, "trialdata": {"rt": 403, "stimulus": "<p id='stroop-text' class='stroop-blue'>BLUE</p>", "response": "b", "stimulus-type": "congruent", "word": "blue", "color": "blue", "correct_response": "b", "trial_id": "stroop-trial-1-congruent-7", "trial_type": "html-keyboard-response", "trial_index": 146, "time_elapsed": 311153, "internal_node_id": "0.0-6.0-51.0"}}, {"uniqueid": "w54429803:a83238958", "current_trial": 147, "dateTime": 1664465017031, "trialdata": {"rt": 541, "stimulus": "<p id='stroop-text' class='stroop-yellow'>YELLOW</p>", "response": "y", "stimulus-type": "congruent", "word": "yellow", "color": "yellow", "correct_response": "y", "trial_id": "stroop-trial-1-congruent-30", "trial_type": "html-keyboard-response", "trial_index": 147, "time_elapsed": 312196, "internal_node_id": "0.0-6.0-52.0"}}, {"uniqueid": "w54429803:a83238958", "current_trial": 148, "dateTime": 1664465018006, "trialdata": {"rt": 472, "stimulus": "<p id='stroop-text' class='stroop-green'>GREEN</p>", "response": "g", "stimulus-type": "congruent", "word": "green", "color": "green", "correct_response": "g", "trial_id": "stroop-trial-1-congruent-28", "trial_type": "html-keyboard-response", "trial_index": 148, "time_elapsed": 313171, "internal_node_id": "0.0-6.0-53.0"}}, {"uniqueid": "w54429803:a83238958", "current_trial": 149, "dateTime": 1664465018919, "trialdata": {"rt": 411, "stimulus": "<p id='stroop-text' class='stroop-red'>RED</p>", "response": "r", "stimulus-type": "congruent", "word": "red", "color": "red", "correct_response": "r", "trial_id": "stroop-trial-1-congruent-29", "trial_type": "html-keyboard-response", "trial_index": 149, "time_elapsed": 314083, "internal_node_id": "0.0-6.0-54.0"}}, {"uniqueid": "w54429803:a83238958", "current_trial": 150, "dateTime": 1664465020230, "trialdata": {"rt": 809, "stimulus": "<p id='stroop-text' class='stroop-green'>RED</p>", "response": "g", "stimulus-type": "incongruent", "word": "red", "color": "green", "correct_response": "g", "trial_id": "stroop-trial-1-incongruent-24", "trial_type": "html-keyboard-response", "trial_index": 150, "time_elapsed": 315395, "internal_node_id": "0.0-6.0-55.0"}}, {"uniqueid": "w54429803:a83238958", "current_trial": 151, "dateTime": 1664465021637, "trialdata": {"rt": 904, "stimulus": "<p id='stroop-text' class='stroop-blue'>BLUE</p>", "response": "b", "stimulus-type": "congruent", "word": "blue", "color": "blue", "correct_response": "b", "trial_id": "stroop-trial-1-congruent-23", "trial_type": "html-keyboard-response", "trial_index": 151, "time_elapsed": 316802, "internal_node_id": "0.0-6.0-56.0"}}, {"uniqueid": "w54429803:a83238958", "current_trial": 152, "dateTime": 1664465022642, "trialdata": {"rt": 504, "stimulus": "<p id='stroop-text' class='stroop-yellow'>YELLOW</p>", "response": "y", "stimulus-type": "congruent", "word": "yellow", "color": "yellow", "correct_response": "y", "trial_id": "stroop-trial-1-congruent-24", "trial_type": "html-keyboard-response", "trial_index": 152, "time_elapsed": 317807, "internal_node_id": "0.0-6.0-57.0"}}, {"uniqueid": "w54429803:a83238958", "current_trial": 153, "dateTime": 1664465024805, "trialdata": {"rt": 1661, "stimulus": "<p id='stroop-text' class='stroop-blue'>GREEN</p>", "response": "b", "stimulus-type": "incongruent", "word": "green", "color": "blue", "correct_response": "b", "trial_id": "stroop-trial-1-incongruent-29", "trial_type": "html-keyboard-response", "trial_index": 153, "time_elapsed": 319970, "internal_node_id": "0.0-6.0-58.0"}}, {"uniqueid": "w54429803:a83238958", "current_trial": 154, "dateTime": 1664465026102, "trialdata": {"rt": 794, "stimulus": "<p id='stroop-text' class='stroop-yellow'>GREEN</p>", "response": "y", "stimulus-type": "incongruent", "word": "green", "color": "yellow", "correct_response": "y", "trial_id": "stroop-trial-1-incongruent-8", "trial_type": "html-keyboard-response", "trial_index": 154, "time_elapsed": 321267, "internal_node_id": "0.0-6.0-59.0"}}, {"uniqueid": "w54429803:a83238958", "current_trial": 155, "dateTime": 1664465027113, "trialdata": {"rt": 508, "stimulus": "<p id='stroop-text' class='stroop-yellow'>YELLOW</p>", "response": "y", "stimulus-type": "congruent", "word": "yellow", "color": "yellow", "correct_response": "y", "trial_id": "stroop-trial-1-congruent-4", "trial_type": "html-keyboard-response", "trial_index": 155, "time_elapsed": 322278, "internal_node_id": "0.0-6.0-60.0"}}, {"uniqueid": "w54429803:a83238958", "current_trial": 156, "dateTime": 1664465028501, "trialdata": {"rt": 885, "stimulus": "<p id='stroop-text' class='stroop-green'>CHAIR</p>", "response": "g", "stimulus-type": "unrelated", "word": "CHAIR", "color": "green", "correct_response": "g", "trial_id": "stroop-trial-1-unrelated-30", "trial_type": "html-keyboard-response", "trial_index": 156, "time_elapsed": 323666, "internal_node_id": "0.0-6.0-61.0"}}, {"uniqueid": "w54429803:a83238958", "current_trial": 157, "dateTime": 1664465029975, "trialdata": {"rt": 972, "stimulus": "<p id='stroop-text' class='stroop-yellow'>BLUE</p>", "response": "y", "stimulus-type": "incongruent", "word": "blue", "color": "yellow", "correct_response": "y", "trial_id": "stroop-trial-1-incongruent-16", "trial_type": "html-keyboard-response", "trial_index": 157, "time_elapsed": 325140, "internal_node_id": "0.0-6.0-62.0"}}, {"uniqueid": "w54429803:a83238958", "current_trial": 158, "dateTime": 1664465031120, "trialdata": {"rt": 642, "stimulus": "<p id='stroop-text' class='stroop-green'>BLUE</p>", "response": "g", "stimulus-type": "incongruent", "word": "blue", "color": "green", "correct_response": "g", "trial_id": "stroop-trial-1-incongruent-15", "trial_type": "html-keyboard-response", "trial_index": 158, "time_elapsed": 326285, "internal_node_id": "0.0-6.0-63.0"}}, {"uniqueid": "w54429803:a83238958", "current_trial": 159, "dateTime": 1664465033297, "trialdata": {"rt": 1675, "stimulus": "<p id='stroop-text' class='stroop-yellow'>YELLOW</p>", "response": "y", "stimulus-type": "congruent", "word": "yellow", "color": "yellow", "correct_response": "y", "trial_id": "stroop-trial-1-congruent-25", "trial_type": "html-keyboard-response", "trial_index": 159, "time_elapsed": 328461, "internal_node_id": "0.0-6.0-64.0"}}, {"uniqueid": "w54429803:a83238958", "current_trial": 160, "dateTime": 1664465034421, "trialdata": {"rt": 621, "stimulus": "<p id='stroop-text' class='stroop-red'>WINDOW</p>", "response": "r", "stimulus-type": "unrelated", "word": "WINDOW", "color": "red", "correct_response": "r", "trial_id": "stroop-trial-1-unrelated-13", "trial_type": "html-keyboard-response", "trial_index": 160, "time_elapsed": 329585, "internal_node_id": "0.0-6.0-65.0"}}, {"uniqueid": "w54429803:a83238958", "current_trial": 161, "dateTime": 1664465035389, "trialdata": {"rt": 465, "stimulus": "<p id='stroop-text' class='stroop-red'>BOAT</p>", "response": "r", "stimulus-type": "unrelated", "word": "BOAT", "color": "red", "correct_response": "r", "trial_id": "stroop-trial-1-unrelated-29", "trial_type": "html-keyboard-response", "trial_index": 161, "time_elapsed": 330553, "internal_node_id": "0.0-6.0-66.0"}}, {"uniqueid": "w54429803:a83238958", "current_trial": 162, "dateTime": 1664465036507, "trialdata": {"rt": 616, "stimulus": "<p id='stroop-text' class='stroop-yellow'>WINDOW</p>", "response": "y", "stimulus-type": "unrelated", "word": "WINDOW", "color": "yellow", "correct_response": "y", "trial_id": "stroop-trial-1-unrelated-28", "trial_type": "html-keyboard-response", "trial_index": 162, "time_elapsed": 331672, "internal_node_id": "0.0-6.0-67.0"}}, {"uniqueid": "w54429803:a83238958", "current_trial": 163, "dateTime": 1664465038067, "trialdata": {"rt": 1057, "stimulus": "<p id='stroop-text' class='stroop-green'>BLUE</p>", "response": "g", "stimulus-type": "incongruent", "word": "blue", "color": "green", "correct_response": "g", "trial_id": "stroop-trial-1-incongruent-26", "trial_type": "html-keyboard-response", "trial_index": 163, "time_elapsed": 333232, "internal_node_id": "0.0-6.0-68.0"}}, {"uniqueid": "w54429803:a83238958", "current_trial": 164, "dateTime": 1664465039103, "trialdata": {"rt": 533, "stimulus": "<p id='stroop-text' class='stroop-green'>GREEN</p>", "response": "g", "stimulus-type": "congruent", "word": "green", "color": "green", "correct_response": "g", "trial_id": "stroop-trial-1-congruent-22", "trial_type": "html-keyboard-response", "trial_index": 164, "time_elapsed": 334268, "internal_node_id": "0.0-6.0-69.0"}}, {"uniqueid": "w54429803:a83238958", "current_trial": 165, "dateTime": 1664465041093, "trialdata": {"rt": 1473, "stimulus": "<p id='stroop-text' class='stroop-yellow'>GREEN</p>", "response": "r", "stimulus-type": "incongruent", "word": "green", "color": "yellow", "correct_response": "y", "trial_id": "stroop-trial-1-incongruent-22", "trial_type": "html-keyboard-response", "trial_index": 165, "time_elapsed": 336258, "internal_node_id": "0.0-6.0-70.0"}}, {"uniqueid": "w54429803:a83238958", "current_trial": 166, "dateTime": 1664465042250, "trialdata": {"rt": 655, "stimulus": "<p id='stroop-text' class='stroop-yellow'>YELLOW</p>", "response": "y", "stimulus-type": "congruent", "word": "yellow", "color": "yellow", "correct_response": "y", "trial_id": "stroop-trial-1-congruent-10", "trial_type": "html-keyboard-response", "trial_index": 166, "time_elapsed": 337415, "internal_node_id": "0.0-6.0-71.0"}}, {"uniqueid": "w54429803:a83238958", "current_trial": 167, "dateTime": 1664465043551, "trialdata": {"rt": 799, "stimulus": "<p id='stroop-text' class='stroop-red'>BLUE</p>", "response": "r", "stimulus-type": "incongruent", "word": "blue", "color": "red", "correct_response": "r", "trial_id": "stroop-trial-1-incongruent-19", "trial_type": "html-keyboard-response", "trial_index": 167, "time_elapsed": 338716, "internal_node_id": "0.0-6.0-72.0"}}, {"uniqueid": "w54429803:a83238958", "current_trial": 168, "dateTime": 1664465044539, "trialdata": {"rt": 484, "stimulus": "<p id='stroop-text' class='stroop-red'>BLUE</p>", "response": "r", "stimulus-type": "incongruent", "word": "blue", "color": "red", "correct_response": "r", "trial_id": "stroop-trial-1-incongruent-14", "trial_type": "html-keyboard-response", "trial_index": 168, "time_elapsed": 339704, "internal_node_id": "0.0-6.0-73.0"}}, {"uniqueid": "w54429803:a83238958", "current_trial": 169, "dateTime": 1664465045895, "trialdata": {"rt": 852, "stimulus": "<p id='stroop-text' class='stroop-green'>FORK</p>", "response": "g", "stimulus-type": "unrelated", "word": "FORK", "color": "green", "correct_response": "g", "trial_id": "stroop-trial-1-unrelated-16", "trial_type": "html-keyboard-response", "trial_index": 169, "time_elapsed": 341060, "internal_node_id": "0.0-6.0-74.0"}}, {"uniqueid": "w54429803:a83238958", "current_trial": 170, "dateTime": 1664465047081, "trialdata": {"rt": 683, "stimulus": "<p id='stroop-text' class='stroop-red'>RED</p>", "response": "r", "stimulus-type": "congruent", "word": "red", "color": "red", "correct_response": "r", "trial_id": "stroop-trial-1-congruent-8", "trial_type": "html-keyboard-response", "trial_index": 170, "time_elapsed": 342246, "internal_node_id": "0.0-6.0-75.0"}}, {"uniqueid": "w54429803:a83238958", "current_trial": 171, "dateTime": 1664465048032, "trialdata": {"rt": 447, "stimulus": "<p id='stroop-text' class='stroop-red'>BRIDGE</p>", "response": "r", "stimulus-type": "unrelated", "word": "BRIDGE", "color": "red", "correct_response": "r", "trial_id": "stroop-trial-1-unrelated-15", "trial_type": "html-keyboard-response", "trial_index": 171, "time_elapsed": 343197, "internal_node_id": "0.0-6.0-76.0"}}, {"uniqueid": "w54429803:a83238958", "current_trial": 172, "dateTime": 1664465049314, "trialdata": {"rt": 778, "stimulus": "<p id='stroop-text' class='stroop-blue'>BLUE</p>", "response": "b", "stimulus-type": "congruent", "word": "blue", "color": "blue", "correct_response": "b", "trial_id": "stroop-trial-1-congruent-11", "trial_type": "html-keyboard-response", "trial_index": 172, "time_elapsed": 344479, "internal_node_id": "0.0-6.0-77.0"}}, {"uniqueid": "w54429803:a83238958", "current_trial": 173, "dateTime": 1664465050532, "trialdata": {"rt": 702, "stimulus": "<p id='stroop-text' class='stroop-green'>CHAIR</p>", "response": "g", "stimulus-type": "unrelated", "word": "CHAIR", "color": "green", "correct_response": "g", "trial_id": "stroop-trial-1-unrelated-8", "trial_type": "html-keyboard-response", "trial_index": 173, "time_elapsed": 345697, "internal_node_id": "0.0-6.0-78.0"}}, {"uniqueid": "w54429803:a83238958", "current_trial": 174, "dateTime": 1664465052282, "trialdata": {"rt": 1247, "stimulus": "<p id='stroop-text' class='stroop-blue'>BRIDGE</p>", "response": "b", "stimulus-type": "unrelated", "word": "BRIDGE", "color": "blue", "correct_response": "b", "trial_id": "stroop-trial-1-unrelated-22", "trial_type": "html-keyboard-response", "trial_index": 174, "time_elapsed": 347447, "internal_node_id": "0.0-6.0-79.0"}}, {"uniqueid": "w54429803:a83238958", "current_trial": 175, "dateTime": 1664465053510, "trialdata": {"rt": 725, "stimulus": "<p id='stroop-text' class='stroop-green'>SHIP</p>", "response": "g", "stimulus-type": "unrelated", "word": "SHIP", "color": "green", "correct_response": "g", "trial_id": "stroop-trial-1-unrelated-12", "trial_type": "html-keyboard-response", "trial_index": 175, "time_elapsed": 348675, "internal_node_id": "0.0-6.0-80.0"}}, {"uniqueid": "w54429803:a83238958", "current_trial": 176, "dateTime": 1664465054418, "trialdata": {"rt": 403, "stimulus": "<p id='stroop-text' class='stroop-green'>BOAT</p>", "response": "g", "stimulus-type": "unrelated", "word": "BOAT", "color": "green", "correct_response": "g", "trial_id": "stroop-trial-1-unrelated-21", "trial_type": "html-keyboard-response", "trial_index": 176, "time_elapsed": 349582, "internal_node_id": "0.0-6.0-81.0"}}, {"uniqueid": "w54429803:a83238958", "current_trial": 177, "dateTime": 1664465055490, "trialdata": {"rt": 570, "stimulus": "<p id='stroop-text' class='stroop-yellow'>YELLOW</p>", "response": "y", "stimulus-type": "congruent", "word": "yellow", "color": "yellow", "correct_response": "y", "trial_id": "stroop-trial-1-congruent-16", "trial_type": "html-keyboard-response", "trial_index": 177, "time_elapsed": 350655, "internal_node_id": "0.0-6.0-82.0"}}, {"uniqueid": "w54429803:a83238958", "current_trial": 178, "dateTime": 1664465056769, "trialdata": {"rt": 776, "stimulus": "<p id='stroop-text' class='stroop-yellow'>YELLOW</p>", "response": "y", "stimulus-type": "congruent", "word": "yellow", "color": "yellow", "correct_response": "y", "trial_id": "stroop-trial-1-congruent-6", "trial_type": "html-keyboard-response", "trial_index": 178, "time_elapsed": 351934, "internal_node_id": "0.0-6.0-83.0"}}, {"uniqueid": "w54429803:a83238958", "current_trial": 179, "dateTime": 1664465058106, "trialdata": {"rt": 833, "stimulus": "<p id='stroop-text' class='stroop-red'>RED</p>", "response": "r", "stimulus-type": "congruent", "word": "red", "color": "red", "correct_response": "r", "trial_id": "stroop-trial-1-congruent-21", "trial_type": "html-keyboard-response", "trial_index": 179, "time_elapsed": 353270, "internal_node_id": "0.0-6.0-84.0"}}, {"uniqueid": "w54429803:a83238958", "current_trial": 180, "dateTime": 1664465059205, "trialdata": {"rt": 598, "stimulus": "<p id='stroop-text' class='stroop-blue'>BLUE</p>", "response": "b", "stimulus-type": "congruent", "word": "blue", "color": "blue", "correct_response": "b", "trial_id": "stroop-trial-1-congruent-20", "trial_type": "html-keyboard-response", "trial_index": 180, "time_elapsed": 354370, "internal_node_id": "0.0-6.0-85.0"}}, {"uniqueid": "w54429803:a83238958", "current_trial": 181, "dateTime": 1664465060442, "trialdata": {"rt": 734, "stimulus": "<p id='stroop-text' class='stroop-red'>BOTTLE</p>", "response": "g", "stimulus-type": "unrelated", "word": "BOTTLE", "color": "red", "correct_response": "r", "trial_id": "stroop-trial-1-unrelated-27", "trial_type": "html-keyboard-response", "trial_index": 181, "time_elapsed": 355606, "internal_node_id": "0.0-6.0-86.0"}}, {"uniqueid": "w54429803:a83238958", "current_trial": 182, "dateTime": 1664465062588, "trialdata": {"rt": 1644, "stimulus": "<p id='stroop-text' class='stroop-yellow'>GREEN</p>", "response": "y", "stimulus-type": "incongruent", "word": "green", "color": "yellow", "correct_response": "y", "trial_id": "stroop-trial-1-incongruent-5", "trial_type": "html-keyboard-response", "trial_index": 182, "time_elapsed": 357752, "internal_node_id": "0.0-6.0-87.0"}}, {"uniqueid": "w54429803:a83238958", "current_trial": 183, "dateTime": 1664465063663, "trialdata": {"rt": 572, "stimulus": "<p id='stroop-text' class='stroop-yellow'>CHAIR</p>", "response": "y", "stimulus-type": "unrelated", "word": "CHAIR", "color": "yellow", "correct_response": "y", "trial_id": "stroop-trial-1-unrelated-26", "trial_type": "html-keyboard-response", "trial_index": 183, "time_elapsed": 358828, "internal_node_id": "0.0-6.0-88.0"}}, {"uniqueid": "w54429803:a83238958", "current_trial": 184, "dateTime": 1664465064735, "trialdata": {"rt": 569, "stimulus": "<p id='stroop-text' class='stroop-yellow'>CHAIR</p>", "response": "y", "stimulus-type": "unrelated", "word": "CHAIR", "color": "yellow", "correct_response": "y", "trial_id": "stroop-trial-1-unrelated-11", "trial_type": "html-keyboard-response", "trial_index": 184, "time_elapsed": 359900, "internal_node_id": "0.0-6.0-89.0"}}, {"uniqueid": "w54429803:a83238958", "current_trial": 185, "dateTime": 1664465081620, "trialdata": {"rt": 16382, "stimulus": "  <h1> End of block! </h1>\n\n  You have reached the end of the block 2/5. If you need a short break, feel free to take one now before moving on.\n\n  <br><br>\n  In the next block, you will complete another 90 rounds of this game.\n\n  <br><br>\n  <div style='text-align: center;'>Press <code>space</code> to begin.</div>\n  <br><br>\n<div style='text-align: center;'>(If the experiment doesn't continue, try clicking on the text and then pressing <code>space</code>.)</div>", "response": " ", "trial_id": "stroop_1_ready_3", "trial_type": "html-keyboard-response", "trial_index": 185, "time_elapsed": 376785, "internal_node_id": "0.0-7.0"}}, {"uniqueid": "w54429803:a83238958", "current_trial": 186, "dateTime": 1664465082324, "trialdata": {"rt": 702, "stimulus": "<p id='stroop-text' class='stroop-red'>BRIDGE</p>", "response": "r", "stimulus-type": "unrelated", "word": "BRIDGE", "color": "red", "correct_response": "r", "trial_id": "stroop-trial-1-unrelated-2", "trial_type": "html-keyboard-response", "trial_index": 186, "time_elapsed": 377489, "internal_node_id": "0.0-8.0-0.0"}}, {"uniqueid": "w54429803:a83238958", "current_trial": 187, "dateTime": 1664465084608, "trialdata": {"rt": 1782, "stimulus": "<p id='stroop-text' class='stroop-yellow'>GREEN</p>", "response": "y", "stimulus-type": "incongruent", "word": "green", "color": "yellow", "correct_response": "y", "trial_id": "stroop-trial-1-incongruent-28", "trial_type": "html-keyboard-response", "trial_index": 187, "time_elapsed": 379773, "internal_node_id": "0.0-8.0-1.0"}}, {"uniqueid": "w54429803:a83238958", "current_trial": 188, "dateTime": 1664465085806, "trialdata": {"rt": 696, "stimulus": "<p id='stroop-text' class='stroop-green'>DOG</p>", "response": "g", "stimulus-type": "unrelated", "word": "DOG", "color": "green", "correct_response": "g", "trial_id": "stroop-trial-1-unrelated-6", "trial_type": "html-keyboard-response", "trial_index": 188, "time_elapsed": 380971, "internal_node_id": "0.0-8.0-2.0"}}, {"uniqueid": "w54429803:a83238958", "current_trial": 189, "dateTime": 1664465086752, "trialdata": {"rt": 443, "stimulus": "<p id='stroop-text' class='stroop-red'>BRAIN</p>", "response": "r", "stimulus-type": "unrelated", "word": "BRAIN", "color": "red", "correct_response": "r", "trial_id": "stroop-trial-1-unrelated-13", "trial_type": "html-keyboard-response", "trial_index": 189, "time_elapsed": 381917, "internal_node_id": "0.0-8.0-3.0"}}, {"uniqueid": "w54429803:a83238958", "current_trial": 190, "dateTime": 1664465088525, "trialdata": {"rt": 1270, "stimulus": "<p id='stroop-text' class='stroop-green'>YELLOW</p>", "response": "g", "stimulus-type": "incongruent", "word": "yellow", "color": "green", "correct_response": "g", "trial_id": "stroop-trial-1-incongruent-15", "trial_type": "html-keyboard-response", "trial_index": 190, "time_elapsed": 383690, "internal_node_id": "0.0-8.0-4.0"}}, {"uniqueid": "w54429803:a83238958", "current_trial": 191, "dateTime": 1664465089475, "trialdata": {"rt": 447, "stimulus": "<p id='stroop-text' class='stroop-green'>BOTTLE</p>", "response": "g", "stimulus-type": "unrelated", "word": "BOTTLE", "color": "green", "correct_response": "g", "trial_id": "stroop-trial-1-unrelated-27", "trial_type": "html-keyboard-response", "trial_index": 191, "time_elapsed": 384640, "internal_node_id": "0.0-8.0-5.0"}}, {"uniqueid": "w54429803:a83238958", "current_trial": 192, "dateTime": 1664465090651, "trialdata": {"rt": 673, "stimulus": "<p id='stroop-text' class='stroop-red'>DOG</p>", "response": "r", "stimulus-type": "unrelated", "word": "DOG", "color": "red", "correct_response": "r", "trial_id": "stroop-trial-1-unrelated-28", "trial_type": "html-keyboard-response", "trial_index": 192, "time_elapsed": 385816, "internal_node_id": "0.0-8.0-6.0"}}, {"uniqueid": "w54429803:a83238958", "current_trial": 193, "dateTime": 1664465091551, "trialdata": {"rt": 398, "stimulus": "<p id='stroop-text' class='stroop-green'>GREEN</p>", "response": "g", "stimulus-type": "congruent", "word": "green", "color": "green", "correct_response": "g", "trial_id": "stroop-trial-1-congruent-14", "trial_type": "html-keyboard-response", "trial_index": 193, "time_elapsed": 386716, "internal_node_id": "0.0-8.0-7.0"}}, {"uniqueid": "w54429803:a83238958", "current_trial": 194, "dateTime": 1664465092937, "trialdata": {"rt": 883, "stimulus": "<p id='stroop-text' class='stroop-red'>BLUE</p>", "response": "r", "stimulus-type": "incongruent", "word": "blue", "color": "red", "correct_response": "r", "trial_id": "stroop-trial-1-incongruent-23", "trial_type": "html-keyboard-response", "trial_index": 194, "time_elapsed": 388102, "internal_node_id": "0.0-8.0-8.0"}}, {"uniqueid": "w54429803:a83238958", "current_trial": 195, "dateTime": 1664465093921, "trialdata": {"rt": 480, "stimulus": "<p id='stroop-text' class='stroop-red'>RED</p>", "response": "r", "stimulus-type": "congruent", "word": "red", "color": "red", "correct_response": "r", "trial_id": "stroop-trial-1-congruent-26", "trial_type": "html-keyboard-response", "trial_index": 195, "time_elapsed": 389086, "internal_node_id": "0.0-8.0-9.0"}}, {"uniqueid": "w54429803:a83238958", "current_trial": 196, "dateTime": 1664465095392, "trialdata": {"rt": 961, "stimulus": "<p id='stroop-text' class='stroop-green'>MONKEY</p>", "response": "g", "stimulus-type": "unrelated", "word": "MONKEY", "color": "green", "correct_response": "g", "trial_id": "stroop-trial-1-unrelated-26", "trial_type": "html-keyboard-response", "trial_index": 196, "time_elapsed": 390557, "internal_node_id": "0.0-8.0-10.0"}}, {"uniqueid": "w54429803:a83238958", "current_trial": 197, "dateTime": 1664465096678, "trialdata": {"rt": 782, "stimulus": "<p id='stroop-text' class='stroop-blue'>YELLOW</p>", "response": "b", "stimulus-type": "incongruent", "word": "yellow", "color": "blue", "correct_response": "b", "trial_id": "stroop-trial-1-incongruent-19", "trial_type": "html-keyboard-response", "trial_index": 197, "time_elapsed": 391843, "internal_node_id": "0.0-8.0-11.0"}}, {"uniqueid": "w54429803:a83238958", "current_trial": 198, "dateTime": 1664465097699, "trialdata": {"rt": 519, "stimulus": "<p id='stroop-text' class='stroop-red'>BOAT</p>", "response": "r", "stimulus-type": "unrelated", "word": "BOAT", "color": "red", "correct_response": "r", "trial_id": "stroop-trial-1-unrelated-19", "trial_type": "html-keyboard-response", "trial_index": 198, "time_elapsed": 392864, "internal_node_id": "0.0-8.0-12.0"}}, {"uniqueid": "w54429803:a83238958", "current_trial": 199, "dateTime": 1664465098618, "trialdata": {"rt": 416, "stimulus": "<p id='stroop-text' class='stroop-blue'>BRAIN</p>", "response": "b", "stimulus-type": "unrelated", "word": "BRAIN", "color": "blue", "correct_response": "b", "trial_id": "stroop-trial-1-unrelated-21", "trial_type": "html-keyboard-response", "trial_index": 199, "time_elapsed": 393783, "internal_node_id": "0.0-8.0-13.0"}}, {"uniqueid": "w54429803:a83238958", "current_trial": 200, "dateTime": 1664465099530, "trialdata": {"rt": 408, "stimulus": "<p id='stroop-text' class='stroop-blue'>BRAIN</p>", "response": "b", "stimulus-type": "unrelated", "word": "BRAIN", "color": "blue", "correct_response": "b", "trial_id": "stroop-trial-1-unrelated-24", "trial_type": "html-keyboard-response", "trial_index": 200, "time_elapsed": 394695, "internal_node_id": "0.0-8.0-14.0"}}, {"uniqueid": "w54429803:a83238958", "current_trial": 201, "dateTime": 1664465100699, "trialdata": {"rt": 668, "stimulus": "<p id='stroop-text' class='stroop-red'>RED</p>", "response": "r", "stimulus-type": "congruent", "word": "red", "color": "red", "correct_response": "r", "trial_id": "stroop-trial-1-congruent-4", "trial_type": "html-keyboard-response", "trial_index": 201, "time_elapsed": 395864, "internal_node_id": "0.0-8.0-15.0"}}, {"uniqueid": "w54429803:a83238958", "current_trial": 202, "dateTime": 1664465101801, "trialdata": {"rt": 598, "stimulus": "<p id='stroop-text' class='stroop-green'>BOAT</p>", "response": "g", "stimulus-type": "unrelated", "word": "BOAT", "color": "green", "correct_response": "g", "trial_id": "stroop-trial-1-unrelated-23", "trial_type": "html-keyboard-response", "trial_index": 202, "time_elapsed": 396966, "internal_node_id": "0.0-8.0-16.0"}}, {"uniqueid": "w54429803:a83238958", "current_trial": 203, "dateTime": 1664465102795, "trialdata": {"rt": 483, "stimulus": "<p id='stroop-text' class='stroop-green'>RED</p>", "response": "r", "stimulus-type": "incongruent", "word": "red", "color": "green", "correct_response": "g", "trial_id": "stroop-trial-1-incongruent-10", "trial_type": "html-keyboard-response", "trial_index": 203, "time_elapsed": 397959, "internal_node_id": "0.0-8.0-17.0"}}, {"uniqueid": "w54429803:a83238958", "current_trial": 204, "dateTime": 1664465103997, "trialdata": {"rt": 700, "stimulus": "<p id='stroop-text' class='stroop-red'>BOAT</p>", "response": "r", "stimulus-type": "unrelated", "word": "BOAT", "color": "red", "correct_response": "r", "trial_id": "stroop-trial-1-unrelated-22", "trial_type": "html-keyboard-response", "trial_index": 204, "time_elapsed": 399162, "internal_node_id": "0.0-8.0-18.0"}}, {"uniqueid": "w54429803:a83238958", "current_trial": 205, "dateTime": 1664465105171, "trialdata": {"rt": 671, "stimulus": "<p id='stroop-text' class='stroop-red'>BLUE</p>", "response": "b", "stimulus-type": "incongruent", "word": "blue", "color": "red", "correct_response": "r", "trial_id": "stroop-trial-1-incongruent-14", "trial_type": "html-keyboard-response", "trial_index": 205, "time_elapsed": 400335, "internal_node_id": "0.0-8.0-19.0"}}, {"uniqueid": "w54429803:a83238958", "current_trial": 206, "dateTime": 1664465106793, "trialdata": {"rt": 1119, "stimulus": "<p id='stroop-text' class='stroop-red'>RED</p>", "response": "r", "stimulus-type": "congruent", "word": "red", "color": "red", "correct_response": "r", "trial_id": "stroop-trial-1-congruent-24", "trial_type": "html-keyboard-response", "trial_index": 206, "time_elapsed": 401958, "internal_node_id": "0.0-8.0-20.0"}}, {"uniqueid": "w54429803:a83238958", "current_trial": 207, "dateTime": 1664465107999, "trialdata": {"rt": 703, "stimulus": "<p id='stroop-text' class='stroop-blue'>BOTTLE</p>", "response": "b", "stimulus-type": "unrelated", "word": "BOTTLE", "color": "blue", "correct_response": "b", "trial_id": "stroop-trial-1-unrelated-7", "trial_type": "html-keyboard-response", "trial_index": 207, "time_elapsed": 403164, "internal_node_id": "0.0-8.0-21.0"}}, {"uniqueid": "w54429803:a83238958", "current_trial": 208, "dateTime": 1664465110296, "trialdata": {"rt": 1793, "stimulus": "<p id='stroop-text' class='stroop-blue'>RED</p>", "response": "b", "stimulus-type": "incongruent", "word": "red", "color": "blue", "correct_response": "b", "trial_id": "stroop-trial-1-incongruent-25", "trial_type": "html-keyboard-response", "trial_index": 208, "time_elapsed": 405461, "internal_node_id": "0.0-8.0-22.0"}}, {"uniqueid": "w54429803:a83238958", "current_trial": 209, "dateTime": 1664465111475, "trialdata": {"rt": 677, "stimulus": "<p id='stroop-text' class='stroop-red'>RED</p>", "response": "r", "stimulus-type": "congruent", "word": "red", "color": "red", "correct_response": "r", "trial_id": "stroop-trial-1-congruent-20", "trial_type": "html-keyboard-response", "trial_index": 209, "time_elapsed": 406640, "internal_node_id": "0.0-8.0-23.0"}}, {"uniqueid": "w54429803:a83238958", "current_trial": 210, "dateTime": 1664465112595, "trialdata": {"rt": 618, "stimulus": "<p id='stroop-text' class='stroop-yellow'>YELLOW</p>", "response": "y", "stimulus-type": "congruent", "word": "yellow", "color": "yellow", "correct_response": "y", "trial_id": "stroop-trial-1-congruent-2", "trial_type": "html-keyboard-response", "trial_index": 210, "time_elapsed": 407760, "internal_node_id": "0.0-8.0-24.0"}}, {"uniqueid": "w54429803:a83238958", "current_trial": 211, "dateTime": 1664465114464, "trialdata": {"rt": 1352, "stimulus": "<p id='stroop-text' class='stroop-green'>RED</p>", "response": "g", "stimulus-type": "incongruent", "word": "red", "color": "green", "correct_response": "g", "trial_id": "stroop-trial-1-incongruent-2", "trial_type": "html-keyboard-response", "trial_index": 211, "time_elapsed": 409629, "internal_node_id": "0.0-8.0-25.0"}}, {"uniqueid": "w54429803:a83238958", "current_trial": 212, "dateTime": 1664465116282, "trialdata": {"rt": 1314, "stimulus": "<p id='stroop-text' class='stroop-red'>BLUE</p>", "response": "r", "stimulus-type": "incongruent", "word": "blue", "color": "red", "correct_response": "r", "trial_id": "stroop-trial-1-incongruent-11", "trial_type": "html-keyboard-response", "trial_index": 212, "time_elapsed": 411447, "internal_node_id": "0.0-8.0-26.0"}}, {"uniqueid": "w54429803:a83238958", "current_trial": 213, "dateTime": 1664465117574, "trialdata": {"rt": 789, "stimulus": "<p id='stroop-text' class='stroop-yellow'>GREEN</p>", "response": "y", "stimulus-type": "incongruent", "word": "green", "color": "yellow", "correct_response": "y", "trial_id": "stroop-trial-1-incongruent-20", "trial_type": "html-keyboard-response", "trial_index": 213, "time_elapsed": 412739, "internal_node_id": "0.0-8.0-27.0"}}, {"uniqueid": "w54429803:a83238958", "current_trial": 214, "dateTime": 1664465118518, "trialdata": {"rt": 441, "stimulus": "<p id='stroop-text' class='stroop-yellow'>MONKEY</p>", "response": "y", "stimulus-type": "unrelated", "word": "MONKEY", "color": "yellow", "correct_response": "y", "trial_id": "stroop-trial-1-unrelated-8", "trial_type": "html-keyboard-response", "trial_index": 214, "time_elapsed": 413683, "internal_node_id": "0.0-8.0-28.0"}}, {"uniqueid": "w54429803:a83238958", "current_trial": 215, "dateTime": 1664465119413, "trialdata": {"rt": 391, "stimulus": "<p id='stroop-text' class='stroop-yellow'>YELLOW</p>", "response": "y", "stimulus-type": "congruent", "word": "yellow", "color": "yellow", "correct_response": "y", "trial_id": "stroop-trial-1-congruent-30", "trial_type": "html-keyboard-response", "trial_index": 215, "time_elapsed": 414577, "internal_node_id": "0.0-8.0-29.0"}}, {"uniqueid": "w54429803:a83238958", "current_trial": 216, "dateTime": 1664465122107, "trialdata": {"rt": 2191, "stimulus": "<p id='stroop-text' class='stroop-red'>BRIDGE</p>", "response": "r", "stimulus-type": "unrelated", "word": "BRIDGE", "color": "red", "correct_response": "r", "trial_id": "stroop-trial-1-unrelated-25", "trial_type": "html-keyboard-response", "trial_index": 216, "time_elapsed": 417272, "internal_node_id": "0.0-8.0-30.0"}}, {"uniqueid": "w54429803:a83238958", "current_trial": 217, "dateTime": 1664465123062, "trialdata": {"rt": 452, "stimulus": "<p id='stroop-text' class='stroop-red'>RED</p>", "response": "r", "stimulus-type": "congruent", "word": "red", "color": "red", "correct_response": "r", "trial_id": "stroop-trial-1-congruent-10", "trial_type": "html-keyboard-response", "trial_index": 217, "time_elapsed": 418227, "internal_node_id": "0.0-8.0-31.0"}}, {"uniqueid": "w54429803:a83238958", "current_trial": 218, "dateTime": 1664465123996, "trialdata": {"rt": 430, "stimulus": "<p id='stroop-text' class='stroop-red'>GREEN</p>", "response": "r", "stimulus-type": "incongruent", "word": "green", "color": "red", "correct_response": "r", "trial_id": "stroop-trial-1-incongruent-21", "trial_type": "html-keyboard-response", "trial_index": 218, "time_elapsed": 419160, "internal_node_id": "0.0-8.0-32.0"}}, {"uniqueid": "w54429803:a83238958", "current_trial": 219, "dateTime": 1664465125086, "trialdata": {"rt": 588, "stimulus": "<p id='stroop-text' class='stroop-green'>GREEN</p>", "response": "g", "stimulus-type": "congruent", "word": "green", "color": "green", "correct_response": "g", "trial_id": "stroop-trial-1-congruent-16", "trial_type": "html-keyboard-response", "trial_index": 219, "time_elapsed": 420251, "internal_node_id": "0.0-8.0-33.0"}}, {"uniqueid": "w54429803:a83238958", "current_trial": 220, "dateTime": 1664465126175, "trialdata": {"rt": 587, "stimulus": "<p id='stroop-text' class='stroop-yellow'>DOG</p>", "response": "y", "stimulus-type": "unrelated", "word": "DOG", "color": "yellow", "correct_response": "y", "trial_id": "stroop-trial-1-unrelated-18", "trial_type": "html-keyboard-response", "trial_index": 220, "time_elapsed": 421340, "internal_node_id": "0.0-8.0-34.0"}}, {"uniqueid": "w54429803:a83238958", "current_trial": 221, "dateTime": 1664465127247, "trialdata": {"rt": 569, "stimulus": "<p id='stroop-text' class='stroop-red'>RED</p>", "response": "r", "stimulus-type": "congruent", "word": "red", "color": "red", "correct_response": "r", "trial_id": "stroop-trial-1-congruent-12", "trial_type": "html-keyboard-response", "trial_index": 221, "time_elapsed": 422412, "internal_node_id": "0.0-8.0-35.0"}}, {"uniqueid": "w54429803:a83238958", "current_trial": 222, "dateTime": 1664465128401, "trialdata": {"rt": 649, "stimulus": "<p id='stroop-text' class='stroop-yellow'>YELLOW</p>", "response": "y", "stimulus-type": "congruent", "word": "yellow", "color": "yellow", "correct_response": "y", "trial_