{"condition": 0, "counterbalance": 0, "assignmentId": "a88992663", "workerId": "w42068964", "hitId": "h50976838", "currenttrial": 10, "bonus": 0, "data": [{"uniqueid": "w42068964:a88992663", "current_trial": 0, "dateTime": 1664464106075, "trialdata": {"success": true, "trial_type": "fullscreen", "trial_index": 0, "time_elapsed": 2871, "internal_node_id": "0.0-0.0"}}, {"uniqueid": "w42068964:a88992663", "current_trial": 1, "dateTime": 1664464111809, "trialdata": {"view_history": [{"page_index": 0, "viewing_time": 5725}], "rt": 5726, "trial_id": "exp_instructions_distractor", "trial_type": "instructions", "trial_index": 1, "time_elapsed": 8605, "internal_node_id": "0.0-1.0"}}, {"uniqueid": "w42068964:a88992663", "current_trial": 2, "dateTime": 1664464129059, "trialdata": {"view_history": [{"page_index": 0, "viewing_time": 17247}], "rt": 17247, "trial_id": "color_game_instructions", "trial_type": "instructions", "trial_index": 2, "time_elapsed": 25854, "internal_node_id": "0.0-2.0"}}, {"uniqueid": "w42068964:a88992663", "current_trial": 3, "dateTime": 1664464130137, "trialdata": {"rt": 1075, "stimulus": "<h1> Get ready to start the game! </h1>\n\nThank you for reading the instructions. Get ready start with the first of 5 block(s) of this game.\n<br><br>\nIn this first block, you will complete 90 rounds of this game before moving on.\n<br><br>\nRemember, the better you perform, the bigger your bonus will be!\n<br><br>\n<div style='text-align: center;'>Press <code>space</code> to begin.</div>", "response": " ", "trial_id": "stroop_1_ready_1", "trial_type": "html-keyboard-response", "trial_index": 3, "time_elapsed": 26933, "internal_node_id": "0.0-3.0"}}, {"uniqueid": "w42068964:a88992663", "current_trial": 4, "dateTime": 1664464131169, "trialdata": {"rt": 1022, "stimulus": "<p id='stroop-text' class='stroop-blue'>BLUE</p>", "response": "b", "stimulus-type": "congruent", "word": "blue", "color": "blue", "correct_response": "b", "trial_id": "stroop-trial-1-congruent-7", "trial_type": "html-keyboard-response", "trial_index": 4, "time_elapsed": 27965, "internal_node_id": "0.0-4.0-0.0"}}, {"uniqueid": "w42068964:a88992663", "current_trial": 5, "dateTime": 1664464133503, "trialdata": {"rt": 1819, "stimulus": "<p id='stroop-text' class='stroop-green'>FORK</p>", "response": "g", "stimulus-type": "unrelated", "word": "FORK", "color": "green", "correct_response": "g", "trial_id": "stroop-trial-1-unrelated-11", "trial_type": "html-keyboard-response", "trial_index": 5, "time_elapsed": 30298, "internal_node_id": "0.0-4.0-1.0"}}, {"uniqueid": "w42068964:a88992663", "current_trial": 6, "dateTime": 1664464134593, "trialdata": {"rt": 583, "stimulus": "<p id='stroop-text' class='stroop-green'>GREEN</p>", "response": "g", "stimulus-type": "congruent", "word": "green", "color": "green", "correct_response": "g", "trial_id": "stroop-trial-1-congruent-29", "trial_type": "html-keyboard-response", "trial_index": 6, "time_elapsed": 31389, "internal_node_id": "0.0-4.0-2.0"}}, {"uniqueid": "w42068964:a88992663", "current_trial": 7, "dateTime": 1664464135703, "trialdata": {"rt": 602, "stimulus": "<p id='stroop-text' class='stroop-yellow'>GREEN</p>", "response": "y", "stimulus-type": "incongruent", "word": "green", "color": "yellow", "correct_response": "y", "trial_id": "stroop-trial-1-incongruent-16", "trial_type": "html-keyboard-response", "trial_index": 7, "time_elapsed": 32499, "internal_node_id": "0.0-4.0-3.0"}}, {"uniqueid": "w42068964:a88992663", "current_trial": 8, "dateTime": 1664464136848, "trialdata": {"rt": 636, "stimulus": "<p id='stroop-text' class='stroop-green'>RED</p>", "response": "r", "stimulus-type": "incongruent", "word": "red", "color": "green", "correct_response": "g", "trial_id": "stroop-trial-1-incongruent-15", "trial_type": "html-keyboard-response", "trial_index": 8, "time_elapsed": 33644, "internal_node_id": "0.0-4.0-4.0"}}, {"uniqueid": "w42068964:a88992663", "current_trial": 9, "dateTime": 1664464137997, "trialdata": {"rt": 640, "stimulus": "<p id='stroop-text' class='stroop-yellow'>BOTTLE</p>", "response": "b", "stimulus-type": "unrelated", "word": "BOTTLE", "color": "yellow", "correct_response": "y", "trial_id": "stroop-trial-1-unrelated-13", "trial_type": "html-keyboard-response", "trial_index": 9, "time_elapsed": 34793, "internal_node_id": "0.0-4.0-5.0"}}], "questiondata": {"params": {"CODE": "C6DMOQA6", "MIN_TIME": 7, "inspectCost": 1, "startTime": "Thu Sep 29 2022 17:08:22 GMT+0200 (k\u00f6z\u00e9p-eur\u00f3pai ny\u00e1ri id\u0151)", "bonusRate": 0.002, "variance": "2_4_24", "branching": "312"}}, "eventdata": [{"eventtype": "initialized", "value": null, "timestamp": 1664464102091, "interval": 0}, {"eventtype": "window_resize", "value": [1026, 758], "timestamp": 1664464102092, "interval": 1}, {"eventtype": "window_resize", "value": [1026, 758], "timestamp": 1664464102374, "interval": 282}, {"eventtype": "window_resize", "value": [1536, 864], "timestamp": 1664464105321, "interval": 2947}, {"eventtype": "window_resize", "value": [1026, 758], "timestamp": 1664464140037, "interval": 34716}], "useragent": "Mozilla/5.0 (Windows NT 10.0; Win64; x64) AppleWebKit/537.36 (KHTML, like Gecko) Chrome/105.0.0.0 Safari/537.36", "mode": "live", "id": "w42068964:a88992663", "status": "user data saved", "Beginhit": "2022-09-29 15:08:20.681143", "Beginexp": "2022-09-29 15:08:25.840209", "Endhit": null, "psiturkStatus": 6, "browser": "<redacted>", "platform": "windows", "language": "hu-HU"}