{"condition": 1, "counterbalance": 0, "assignmentId": "a36625149", "workerId": "w11202882", "hitId": "h60786220", "currenttrial": 137, "bonus": 0, "data": [{"uniqueid": "w11202882:a36625149", "current_trial": 0, "dateTime": 1664368220271, "trialdata": {"success": true, "trial_type": "fullscreen", "trial_index": 0, "time_elapsed": 6184, "internal_node_id": "0.0-0.0"}}, {"uniqueid": "w11202882:a36625149", "current_trial": 1, "dateTime": 1664368249063, "trialdata": {"view_history": [{"page_index": 0, "viewing_time": 28752}], "rt": 28752, "trial_id": "exp_instructions_no_distractor", "trial_type": "instructions", "trial_index": 1, "time_elapsed": 34976, "internal_node_id": "0.0-1.0"}}, {"uniqueid": "w11202882:a36625149", "current_trial": 2, "dateTime": 1664368253726, "trialdata": {"success": true, "trial_type": "fullscreen", "trial_index": 2, "time_elapsed": 39637, "internal_node_id": "0.0-2.0-0.0"}}, {"uniqueid": "w11202882:a36625149", "current_trial": 3, "dateTime": 1664368379824, "trialdata": {"view_history": [{"page_index": 0, "viewing_time": 53295}, {"page_index": 1, "viewing_time": 36073}, {"page_index": 2, "viewing_time": 9963}, {"page_index": 3, "viewing_time": 9222}, {"page_index": 4, "viewing_time": 17526}], "rt": 126079, "trial_id": "mouselab_instructions_1", "trial_type": "instructions", "trial_index": 3, "time_elapsed": 165736, "internal_node_id": "0.0-2.0-1.0"}}, {"uniqueid": "w11202882:a36625149", "current_trial": 4, "dateTime": 1664368424942, "trialdata": {"revealed_states": [], "num_clicks_accrued": [0, 0, 0, 0, 0, 0, 0, 0, 0, 0, 0, 0, 0], "stateRewards": ["", -10, 10, -10, 10, 10, 10, 10, -10, -10, -10, 10, -10], "withholdReward": false, "trial_id": "practice_1", "block": "test", "trialIndex": 0, "score": -8.75, "costs": -0.75, "simulationMode": [null, null, null], "rewards": [-10, 10, -10], "path": ["0", "0", "1", "2", "3"], "rt": [25908, 3605, 2015], "actions": ["up", "up", "right"], "actionTimes": [30532, 34687, 37254], "queries": {"click": {"state": {"target": ["6", "10", "2"], "time": [16505, 24095, 25347]}, "edge": {"target": [], "time": []}}, "mouseover": {"state": {"target": ["5", "6", "8", "0", "9", "10", "2"], "time": [10693, 14175, 17043, 22535, 23063, 23577, 24913]}, "edge": {"target": [], "time": []}}, "mouseout": {"state": {"target": ["0", "0", "5", "6", "8", "0", "9", "10", "2"], "time": [null, 3835, 13923, 17009, 19218, 22911, 23349, 24630, 26883]}, "edge": {"target": [], "time": []}}}, "displayed_time": "37.79", "trialTime": 43045, "trial_type": "mouselab-mdp", "trial_index": 4, "time_elapsed": 210854, "internal_node_id": "0.0-2.0-2.0-0.0"}}, {"uniqueid": "w11202882:a36625149", "current_trial": 5, "dateTime": 1664368464552, "trialdata": {"revealed_states": [], "num_clicks_accrued": [0, 0, 0, 0, 0, 0, 0, 0, 0, 0, 0, 0, 0], "stateRewards": ["", 10, 10, 10, 10, 10, -10, -10, 10, -10, 10, 10, -10], "withholdReward": false, "trial_id": "practice_2", "block": "test", "trialIndex": 1, "score": 11.5, "costs": -0.5, "simulationMode": [null, null, null], "rewards": [10, -10, 10], "path": ["0", "0", "5", "6", "8"], "rt": [27182, 1380, 1014], "actions": ["right", "right", "down"], "actionTimes": [32450, 34346, 35909], "queries": {"click": {"state": {"target": ["7", "8"], "time": [20703, 25125]}, "edge": {"target": [], "time": []}}, "mouseover": {"state": {"target": ["0", "8", "5", "1", "1", "7", "5", "8", "8"], "time": [5346, 10500, 10765, 12516, 17827, 19529, 24054, 24609, 24806]}, "edge": {"target": [], "time": []}}, "mouseout": {"state": {"target": ["0", "0", "8", "5", "1", "1", "7", "5", "8", "8"], "time": [4527, 5427, 10548, 12152, 16454, 19087, 23722, 24087, 24655, 25560]}, "edge": {"target": [], "time": []}}}, "displayed_time": "36.50", "trialTime": 39078, "trial_type": "mouselab-mdp", "trial_index": 5, "time_elapsed": 250465, "internal_node_id": "0.0-2.0-2.0-1.0"}}, {"uniqueid": "w11202882:a36625149", "current_trial": 6, "dateTime": 1664368530763, "trialdata": {"view_history": [{"page_index": 0, "viewing_time": 37335}, {"page_index": 1, "viewing_time": 19185}, {"page_index": 2, "viewing_time": 9683}], "rt": 66204, "trial_id": "mouselab_instructions_2_scarce", "trial_type": "instructions", "trial_index": 6, "time_elapsed": 316676, "internal_node_id": "0.0-2.0-3.0"}}, {"uniqueid": "w11202882:a36625149", "current_trial": 7, "dateTime": 1664368572374, "trialdata": {"rt": 41592, "response": {"Q0": "$-48 to $48", "Q1": "The cost is always $0.25.", "Q2": "The better I perform the higher my bonus will be.", "Q3": "No, the amount of cash at each node of the web may be different each time.", "Q4": "The values of the nodes walked through from start to finish.", "Q5": "No, the spider might forget to count the money on some rounds."}, "question_order": [0, 1, 2, 3, 4, 5], "correct": {"Q0": "$-48 to $48", "Q1": "The cost is always $0.25.", "Q2": "The better I perform the higher my bonus will be.", "Q3": "No, the amount of cash at each node of the web may be different each time.", "Q4": "The values of the nodes walked through from start to finish.", "Q5": "No, the spider might forget to count the money on some rounds."}, "trial_id": "mouselab_quiz_scarce", "trial_type": "survey-multi-choice", "trial_index": 7, "time_elapsed": 358286, "internal_node_id": "0.0-2.0-4.0"}}, {"uniqueid": "w11202882:a36625149", "current_trial": 8, "dateTime": 1664368589707, "trialdata": {"rt": 17302, "stimulus": "\n<h1> Get ready to start the game! </h1>\n\nThank you for reading the instructions. Get ready start with the first of 4 block(s) of this game.\n<br><br>\nIn this first block, you will complete 30 rounds of this game before moving on.\n<br><br>\nRemember, the more money the spider gets, the bigger your bonus will be!\n<br><br>\n<div style='text-align: center;'>Press <code>space</code> to begin.</div>\n\n<br><br>\n(If, at any point, the <code>space</code> key does not take you to the next page, click once on the text and try again.)", "response": " ", "trial_id": "mdp_ready_1", "trial_type": "html-keyboard-response", "trial_index": 8, "time_elapsed": 375620, "internal_node_id": "0.0-4.0-0.0"}}, {"uniqueid": "w11202882:a36625149", "current_trial": 9, "dateTime": 1664368621211, "trialdata": {"revealed_states": [], "num_clicks_accrued": [0, 0, 0, 0, 0, 0, 0, 0, 0, 0, 0, 0, 0], "stateRewards": ["", 2, 4, 24, 48, -2, 8, 24, -24, -4, -4, 48, 48], "withholdReward": true, "trial_id": "mdp_753439303214", "block": "test1", "trialIndex": 2, "score": 34.25, "costs": -0.75, "simulationMode": [null, null, null], "rewards": [-2, 8, 24], "path": ["0", "0", "5", "6", "7"], "rt": [17868, 933, 699], "actions": ["right", "right", "up"], "actionTimes": [20950, 22430, 23650], "queries": {"click": {"state": {"target": ["8", "7", "3"], "time": [8338, 12916, 17453]}, "edge": {"target": [], "time": []}}, "mouseover": {"state": {"target": ["9", "0", "5", "8", "7", "3"], "time": [6584, 7268, 7596, 7967, 12372, 17089]}, "edge": {"target": [], "time": []}}, "mouseout": {"state": {"target": ["0", "9", "0", "5", "8", "7", "3", "7"], "time": [5502, 7172, 7290, 7667, 8843, 16828, 18281, 18390]}, "edge": {"target": [], "time": []}}}, "displayed_time": "24.18", "trialTime": 30884, "trial_type": "mouselab-mdp", "trial_index": 9, "time_elapsed": 407124, "internal_node_id": "0.0-4.0-1.0-0.0"}}, {"uniqueid": "w11202882:a36625149", "current_trial": 10, "dateTime": 1664368636788, "trialdata": {"revealed_states": [], "num_clicks_accrued": [0, 0, 0, 0, 0, 0, 0, 0, 0, 0, 0, 0, 0], "stateRewards": ["", -2, -4, -24, -48, 2, -8, -24, -24, 4, -8, 48, 48], "withholdReward": false, "trial_id": "mdp_950599994674", "block": "test1", "trialIndex": 3, "score": 48.5, "costs": -0.5, "simulationMode": [null, null, null], "rewards": [4, -8, 48], "path": ["0", "0", "9", "10", "11"], "rt": [7181, 923, 790], "actions": ["left", "left", "up"], "actionTimes": [10174, 11637, 12974], "queries": {"click": {"state": {"target": ["9", "11"], "time": [5231, 6610]}, "edge": {"target": [], "time": []}}, "mouseover": {"state": {"target": ["0", "9", "9", "10", "11"], "time": [3904, 4491, 4690, 6069, 6307]}, "edge": {"target": [], "time": []}}, "mouseout": {"state": {"target": ["5", "0", "0", "0", "9", "9", "10", "11"], "time": [2072, 2168, 3307, 3981, 4556, 6030, 6207, 8108]}, "edge": {"target": [], "time": []}}}, "displayed_time": "13.52", "trialTime": 14885, "trial_type": "mouselab-mdp", "trial_index": 10, "time_elapsed": 422700, "internal_node_id": "0.0-4.0-1.0-1.0"}}, {"uniqueid": "w11202882:a36625149", "current_trial": 11, "dateTime": 1664368650909, "trialdata": {"revealed_states": [], "num_clicks_accrued": [0, 0, 0, 0, 0, 0, 0, 0, 0, 0, 0, 0, 0], "stateRewards": ["", 2, -4, 48, -48, -4, -8, -48, 24, -4, 4, 48, 48], "withholdReward": true, "trial_id": "mdp_544803968425", "block": "test1", "trialIndex": 4, "score": 50.5, "costs": -0.5, "simulationMode": [null, null, null], "rewards": [2, -4, 48], "path": ["0", "0", "1", "2", "3"], "rt": [6042, 1117, 953], "actions": ["up", "up", "right"], "actionTimes": [8400, 10041, 11527], "queries": {"click": {"state": {"target": ["1", "3"], "time": [4442, 6206]}, "edge": {"target": [], "time": []}}, "mouseover": {"state": {"target": ["1", "3"], "time": [4068, 5452]}, "edge": {"target": [], "time": []}}, "mouseout": {"state": {"target": ["0", "1"], "time": [3084, 5283]}, "edge": {"target": [], "time": []}}}, "displayed_time": "12.05", "trialTime": 13628, "trial_type": "mouselab-mdp", "trial_index": 11, "time_elapsed": 436820, "internal_node_id": "0.0-4.0-1.0-2.0"}}, {"uniqueid": "w11202882:a36625149", "current_trial": 12, "dateTime": 1664368680930, "trialdata": {"revealed_states": [], "num_clicks_accrued": [0, 0, 0, 0, 0, 0, 0, 0, 0, 0, 0, 0, 0], "stateRewards": ["", -4, -8, -24, -48, -2, -8, 24, -48, -4, -8, 24, -48], "withholdReward": false, "trial_id": "mdp_621812384092", "block": "test1", "trialIndex": 5, "score": 18, "costs": -1, "simulationMode": [null, null, null], "rewards": [-2, -8, 24], "path": ["0", "0", "5", "6", "7"], "rt": [13904, 703, 1282], "actions": ["right", "right", "up"], "actionTimes": [15829, 17064, 18885], "queries": {"click": {"state": {"target": ["5", "7", "4", "12"], "time": [3381, 5350, 8818, 12131]}, "edge": {"target": [], "time": []}}, "mouseover": {"state": {"target": ["5", "6", "7", "6", "1", "4", "1", "9", "10", "12", "0", "6"], "time": [3022, 4771, 5004, 6272, 7756, 8257, 11158, 11540, 11642, 11842, 13475, 14282]}, "edge": {"target": [], "time": []}}, "mouseout": {"state": {"target": ["3", "1", "0", "5", "6", "7", "6", "1", "4", "1", "9", "10", "12", "0", "5", "6"], "time": [838, 1068, 2001, 4657, 4873, 6109, 6456, 7923, 11008, 11178, 11592, 11663, 12863, 13499, 14009, 22065]}, "edge": {"target": [], "time": []}}}, "displayed_time": "19.46", "trialTime": 29181, "trial_type": "mouselab-mdp", "trial_index": 12, "time_elapsed": 466843, "internal_node_id": "0.0-4.0-1.0-3.0"}}, {"uniqueid": "w11202882:a36625149", "current_trial": 13, "dateTime": 1664368696792, "trialdata": {"revealed_states": [], "num_clicks_accrued": [0, 0, 0, 0, 0, 0, 0, 0, 0, 0, 0, 0, 0], "stateRewards": ["", 2, -8, 48, -24, 2, -4, 24, 48, 4, -4, 48, -24], "withholdReward": true, "trial_id": "mdp_656500928756", "block": "test1", "trialIndex": 6, "score": 52.5, "costs": -0.5, "simulationMode": [null, null, null], "rewards": [4, -4, 48], "path": ["0", "0", "9", "10", "11"], "rt": [5851, 1102, 917], "actions": ["left", "left", "up"], "actionTimes": [8942, 10571, 12028], "queries": {"click": {"state": {"target": ["11", "9"], "time": [5140, 7254]}, "edge": {"target": [], "time": []}}, "mouseover": {"state": {"target": ["9", "11", "10", "9", "10"], "time": [4315, 4698, 6250, 6704, 7990]}, "edge": {"target": [], "time": []}}, "mouseout": {"state": {"target": ["6", "5", "0", "9", "11", "10", "9"], "time": [1463, 1563, 1614, 4335, 6168, 6414, 7348]}, "edge": {"target": [], "time": []}}}, "displayed_time": "12.57", "trialTime": 15189, "trial_type": "mouselab-mdp", "trial_index": 13, "time_elapsed": 482704, "internal_node_id": "0.0-4.0-1.0-4.0"}}, {"uniqueid": "w11202882:a36625149", "current_trial": 14, "dateTime": 1664368712493, "trialdata": {"revealed_states": [], "num_clicks_accrued": [0, 0, 0, 0, 0, 0, 0, 0, 0, 0, 0, 0, 0], "stateRewards": ["", -4, -4, -24, 48, -4, -8, -24, 48, 2, 4, 48, 48], "withholdReward": true, "trial_id": "mdp_810954007398", "block": "test1", "trialIndex": 7, "score": 58.25, "costs": -0.75, "simulationMode": [null, null, null], "rewards": [2, 4, 48], "path": ["0", "0", "9", "10", "12"], "rt": [7806, 762, 793], "actions": ["left", "left", "down"], "actionTimes": [10382, 11676, 12996], "queries": {"click": {"state": {"target": ["12", "10", "9"], "time": [5444, 7508, 8533]}, "edge": {"target": [], "time": []}}, "mouseover": {"state": {"target": ["3", "2", "1", "0", "12", "10", "10", "9"], "time": [4104, 4373, 4458, 4723, 5174, 6756, 7058, 8176]}, "edge": {"target": [], "time": []}}, "mouseout": {"state": {"target": ["10", "9", "0", "3", "2", "1", "0", "12", "10", "10", "9"], "time": [1542, 1606, 3830, 4321, 4395, 4493, 4773, 6641, 6874, 8108, 8841]}, "edge": {"target": [], "time": []}}}, "displayed_time": "13.53", "trialTime": 15275, "trial_type": "mouselab-mdp", "trial_index": 14, "time_elapsed": 498406, "internal_node_id": "0.0-4.0-1.0-5.0"}}, {"uniqueid": "w11202882:a36625149", "current_trial": 15, "dateTime": 1664368729160, "trialdata": {"revealed_states": [], "num_clicks_accrued": [0, 0, 0, 0, 0, 0, 0, 0, 0, 0, 0, 0, 0], "stateRewards": ["", 2, -4, -24, -24, -2, -8, -48, 24, -4, -8, 24, 24], "withholdReward": true, "trial_id": "mdp_521351546461", "block": "test1", "trialIndex": 8, "score": 16, "costs": -1, "simulationMode": [null, null, null], "rewards": [-4, -8, 24], "path": ["0", "0", "9", "10", "12"], "rt": [9036, 522, 980], "actions": ["left", "left", "down"], "actionTimes": [11216, 12301, 13792], "queries": {"click": {"state": {"target": ["3", "12", "7", "11"], "time": [3894, 5810, 7751, 9405]}, "edge": {"target": [], "time": []}}, "mouseover": {"state": {"target": ["3", "2", "1", "9", "10", "12", "0", "5", "7", "10", "11", "10"], "time": [3570, 5088, 5151, 5240, 5295, 5382, 6824, 6908, 7155, 8874, 9041, 10142]}, "edge": {"target": [], "time": []}}, "mouseout": {"state": {"target": ["0", "3", "2", "1", "9", "10", "12", "0", "5", "7", "10", "11", "10"], "time": [1719, 5064, 5141, 5194, 5290, 5342, 6673, 6846, 6955, 8081, 9008, 10096, 10177]}, "edge": {"target": [], "time": []}}}, "displayed_time": "14.33", "trialTime": 16218, "trial_type": "mouselab-mdp", "trial_index": 15, "time_elapsed": 515073, "internal_node_id": "0.0-4.0-1.0-6.0"}}, {"uniqueid": "w11202882:a36625149", "current_trial": 16, "dateTime": 1664368744169, "trialdata": {"revealed_states": [], "num_clicks_accrued": [0, 0, 0, 0, 0, 0, 0, 0, 0, 0, 0, 0, 0], "stateRewards": ["", -2, 4, -24, -48, -4, 8, -24, 48, 4, 4, -48, 24], "withholdReward": true, "trial_id": "mdp_341117665701", "block": "test1", "trialIndex": 9, "score": 56.25, "costs": -0.75, "simulationMode": [null, null, null], "rewards": [-4, 8, 48], "path": ["0", "0", "5", "6", "8"], "rt": [7655, 446, 573], "actions": ["right", "right", "down"], "actionTimes": [10106, 11112, 12202], "queries": {"click": {"state": {"target": ["11", "3", "8"], "time": [3994, 6098, 7819]}, "edge": {"target": [], "time": []}}, "mouseover": {"state": {"target": ["9", "11", "3", "6", "8"], "time": [3265, 3505, 5802, 6889, 7600]}, "edge": {"target": [], "time": []}}, "mouseout": {"state": {"target": ["0", "9", "11", "3", "6", "8"], "time": [3237, 3354, 5574, 6739, 7340, 8458]}, "edge": {"target": [], "time": []}}}, "displayed_time": "12.75", "trialTime": 14435, "trial_type": "mouselab-mdp", "trial_index": 16, "time_elapsed": 530081, "internal_node_id": "0.0-4.0-1.0-7.0"}}, {"uniqueid": "w11202882:a36625149", "current_trial": 17, "dateTime": 1664368767536, "trialdata": {"revealed_states": [], "num_clicks_accrued": [0, 0, 0, 0, 0, 0, 0, 0, 0, 0, 0, 0, 0], "stateRewards": ["", 4, -8, -24, 24, 2, -4, 24, 24, 2, -4, 48, 48], "withholdReward": false, "trial_id": "mdp_457607480918", "block": "test1", "trialIndex": 10, "score": 49.5, "costs": -1.5, "simulationMode": [null, null, null], "rewards": [2, -4, 48], "path": ["0", "0", "9", "10", "11"], "rt": [11725, 610, 1454], "actions": ["left", "left", "up"], "actionTimes": [14897, 16060, 18036], "queries": {"click": {"state": {"target": ["2", "6", "8", "11", "10", "9"], "time": [5615, 8359, 9495, 11610, 12936, 13512]}, "edge": {"target": [], "time": []}}, "mouseover": {"state": {"target": ["2", "1", "6", "6", "8", "10", "11", "10", "9"], "time": [5174, 6358, 7859, 7975, 8774, 11058, 11309, 12524, 13293]}, "edge": {"target": [], "time": []}}, "mouseout": {"state": {"target": ["9", "0", "2", "1", "6", "6", "8", "10", "11", "10", "9"], "time": [1491, 2676, 6239, 6704, 7891, 8726, 10407, 11190, 12226, 13245, 14043]}, "edge": {"target": [], "time": []}}}, "displayed_time": "18.55", "trialTime": 22463, "trial_type": "mouselab-mdp", "trial_index": 17, "time_elapsed": 553449, "internal_node_id": "0.0-4.0-1.0-8.0"}}, {"uniqueid": "w11202882:a36625149", "current_trial": 18, "dateTime": 1664368787429, "trialdata": {"revealed_states": [], "num_clicks_accrued": [0, 0, 0, 0, 0, 0, 0, 0, 0, 0, 0, 0, 0], "stateRewards": ["", 2, 8, -48, 24, -4, 8, 48, -24, 2, 8, 24, 24], "withholdReward": true, "trial_id": "mdp_175372499314", "block": "test1", "trialIndex": 11, "score": 55.75, "costs": -1.25, "simulationMode": [null, null, null], "rewards": [-4, 8, 48], "path": ["0", "0", "5", "6", "7"], "rt": [10669, 1375, 871], "actions": ["right", "right", "up"], "actionTimes": [13315, 15218, 16610], "queries": {"click": {"state": {"target": ["3", "12", "4", "8", "7"], "time": [4834, 6564, 8008, 9253, 10487]}, "edge": {"target": [], "time": []}}, "mouseover": {"state": {"target": ["1", "2", "3", "1", "12", "10", "11", "4", "5", "8", "7"], "time": [3826, 4361, 4484, 5906, 6249, 7267, 7332, 7580, 8749, 8982, 9981]}, "edge": {"target": [], "time": []}}, "mouseout": {"state": {"target": ["0", "1", "2", "3", "1", "12", "10", "11", "4", "5", "8", "7"], "time": [3703, 4079, 4398, 5865, 6000, 7213, 7298, 7399, 8364, 8830, 9698, 10857]}, "edge": {"target": [], "time": []}}}, "displayed_time": "17.16", "trialTime": 19337, "trial_type": "mouselab-mdp", "trial_index": 18, "time_elapsed": 573342, "internal_node_id": "0.0-4.0-1.0-9.0"}}, {"uniqueid": "w11202882:a36625149", "current_trial": 19, "dateTime": 1664368802260, "trialdata": {"revealed_states": [], "num_clicks_accrued": [0, 0, 0, 0, 0, 0, 0, 0, 0, 0, 0, 0, 0], "stateRewards": ["", 2, 4, 48, -48, 2, 8, -24, 48, 4, 8, 48, -48], "withholdReward": false, "trial_id": "mdp_110142964375", "block": "test1", "trialIndex": 12, "score": 64.5, "costs": -0.5, "simulationMode": [null, null, null], "rewards": [4, 8, 48], "path": ["0", "0", "9", "10", "11"], "rt": [5341, 718, 1078], "actions": ["left", "left", "up"], "actionTimes": [8375, 9616, 11276], "queries": {"click": {"state": {"target": ["7", "11"], "time": [4772, 6617]}, "edge": {"target": [], "time": []}}, "mouseover": {"state": {"target": ["5", "7", "7", "6", "0", "11"], "time": [3761, 4061, 4463, 5347, 5777, 6161]}, "edge": {"target": [], "time": []}}, "mouseout": {"state": {"target": ["0", "5", "7", "7", "6", "0"], "time": [3662, 3858, 4344, 5310, 5384, 5826]}, "edge": {"target": [], "time": []}}}, "displayed_time": "11.85", "trialTime": 14022, "trial_type": "mouselab-mdp", "trial_index": 19, "time_elapsed": 588172, "internal_node_id": "0.0-4.0-1.0-10.0"}}, {"uniqueid": "w11202882:a36625149", "current_trial": 20, "dateTime": 1664368824315, "trialdata": {"revealed_states": [], "num_clicks_accrued": [0, 0, 0, 0, 0, 0, 0, 0, 0, 0, 0, 0, 0], "stateRewards": ["", 2, -8, 24, -24, -2, 8, -48, -48, 2, -8, -24, -48], "withholdReward": false, "trial_id": "mdp_744278669205", "block": "test1", "trialIndex": 13, "score": 21.5, "costs": -1.5, "simulationMode": [null, null, null], "rewards": [2, -8, 24], "path": ["0", "0", "1", "2", "3"], "rt": [11013, 637, 944], "actions": ["up", "up", "right"], "actionTimes": [13913, 15083, 16582], "queries": {"click": {"state": {"target": ["12", "3", "11", "4", "8", "7"], "time": [5121, 6509, 7864, 8752, 10505, 11522]}, "edge": {"target": [], "time": []}}, "mouseover": {"state": {"target": ["9", "10", "12", "9", "3", "2", "11", "4", "8", "6", "7", "6"], "time": [4160, 4278, 4783, 5779, 6077, 7230, 7654, 8445, 9798, 11056, 11338, 12019]}, "edge": {"target": [], "time": []}}, "mouseout": {"state": {"target": ["11", "9", "10", "12", "9", "3", "2", "11", "4", "8", "6", "7", "6"], "time": [944, 4240, 4694, 5729, 5860, 7145, 7345, 8331, 9113, 11032, 11180, 11921, 12099]}, "edge": {"target": [], "time": []}}}, "displayed_time": "17.13", "trialTime": 19486, "trial_type": "mouselab-mdp", "trial_index": 20, "time_elapsed": 610228, "internal_node_id": "0.0-4.0-1.0-11.0"}}, {"uniqueid": "w11202882:a36625149", "current_trial": 21, "dateTime": 1664368840030, "trialdata": {"revealed_states": [], "num_clicks_accrued": [0, 0, 0, 0, 0, 0, 0, 0, 0, 0, 0, 0, 0], "stateRewards": ["", 2, -4, 24, 48, -2, 4, -48, -48, -4, 4, 24, -24], "withholdReward": true, "trial_id": "mdp_900363662757", "block": "test1", "trialIndex": 14, "score": 50.25, "costs": -0.75, "simulationMode": [null, null, null], "rewards": [2, -4, 48], "path": ["0", "0", "1", "2", "4"], "rt": [7218, 549, 635], "actions": ["up", "up", "left"], "actionTimes": [9692, 10765, 11916], "queries": {"click": {"state": {"target": ["3", "12", "4"], "time": [3914, 6762, 8175]}, "edge": {"target": [], "time": []}}, "mouseover": {"state": {"target": ["3", "1", "9", "10", "12", "10", "4"], "time": [3529, 5973, 6109, 6257, 6472, 7424, 7890]}, "edge": {"target": [], "time": []}}, "mouseout": {"state": {"target": ["0", "3", "1", "9", "10", "12", "10"], "time": [3199, 4505, 5997, 6208, 6279, 7373, 7541]}, "edge": {"target": [], "time": []}}}, "displayed_time": "12.43", "trialTime": 14921, "trial_type": "mouselab-mdp", "trial_index": 21, "time_elapsed": 625943, "internal_node_id": "0.0-4.0-1.0-12.0"}}, {"uniqueid": "w11202882:a36625149", "current_trial": 22, "dateTime": 1664368859180, "trialdata": {"revealed_states": [], "num_clicks_accrued": [0, 0, 0, 0, 0, 0, 0, 0, 0, 0, 0, 0, 0], "stateRewards": ["", -2, 8, -48, -24, -2, 8, 48, -48, -4, 8, 24, 48], "withholdReward": true, "trial_id": "mdp_160707003673", "block": "test1", "trialIndex": 15, "score": 55.75, "costs": -1.25, "simulationMode": [null, null, null], "rewards": [-4, 8, 48], "path": ["0", "0", "9", "10", "12"], "rt": [11320, 559, 648], "actions": ["left", "left", "down"], "actionTimes": [13186, 14278, 15463], "queries": {"click": {"state": {"target": ["11", "8", "3", "4", "12"], "time": [5097, 7160, 8462, 10107, 11314]}, "edge": {"target": [], "time": []}}, "mouseover": {"state": {"target": ["0", "9", "11", "0", "8", "3", "2", "4", "4", "9", "12"], "time": [4312, 4626, 4811, 6594, 6794, 8080, 9050, 9196, 9881, 10629, 11021]}, "edge": {"target": [], "time": []}}, "mouseout": {"state": {"target": ["4", "0", "9", "11", "0", "8", "3", "2", "4", "4", "9", "12"], "time": [809, 4562, 4708, 6398, 6615, 7815, 9013, 9161, 9280, 10548, 10713, 12056]}, "edge": {"target": [], "time": []}}}, "displayed_time": "16.00", "trialTime": 18417, "trial_type": "mouselab-mdp", "trial_index": 22, "time_elapsed": 645092, "internal_node_id": "0.0-4.0-1.0-13.0"}}, {"uniqueid": "w11202882:a36625149", "current_trial": 23, "dateTime": 1664368883911, "trialdata": {"revealed_states": [], "num_clicks_accrued": [0, 0, 0, 0, 0, 0, 0, 0, 0, 0, 0, 0, 0], "stateRewards": ["", -2, -4, -48, 48, -4, 4, -48, 24, -4, -8, 24, 48], "withholdReward": true, "trial_id": "mdp_264482284450", "block": "test1", "trialIndex": 16, "score": 40.5, "costs": -0.5, "simulationMode": [null, null, null], "rewards": [-4, -8, 48], "path": ["0", "0", "9", "10", "12"], "rt": [10882, 1257, 1163], "actions": ["left", "left", "down"], "actionTimes": [14446, 16302, 18024], "queries": {"click": {"state": {"target": ["11", "12"], "time": [7425, 11474]}, "edge": {"target": [], "time": []}}, "mouseover": {"state": {"target": ["9", "10", "11", "10", "12"], "time": [6157, 6405, 7122, 10943, 11342]}, "edge": {"target": [], "time": []}}, "mouseout": {"state": {"target": ["0", "9", "10", "11", "10"], "time": [6106, 6304, 6990, 10894, 11039]}, "edge": {"target": [], "time": []}}}, "displayed_time": "18.58", "trialTime": 21635, "trial_type": "mouselab-mdp", "trial_index": 23, "time_elapsed": 669824, "internal_node_id": "0.0-4.0-1.0-14.0"}}, {"uniqueid": "w11202882:a36625149", "current_trial": 24, "dateTime": 1664368901515, "trialdata": {"revealed_states": [], "num_clicks_accrued": [0, 0, 0, 0, 0, 0, 0, 0, 0, 0, 0, 0, 0], "stateRewards": ["", -4, -8, 48, 48, -4, 4, 48, -24, 4, 8, -24, -48], "withholdReward": true, "trial_id": "mdp_142906093415", "block": "test1", "trialIndex": 17, "score": 40.25, "costs": -0.75, "simulationMode": [null, null, null], "rewards": [-4, -8, 48], "path": ["0", "0", "1", "2", "3"], "rt": [7506, 828, 1151], "actions": ["up", "up", "right"], "actionTimes": [9960, 11300, 12993], "queries": {"click": {"state": {"target": ["11", "8", "3"], "time": [4543, 6723, 8072]}, "edge": {"target": [], "time": []}}, "mouseover": {"state": {"target": ["9", "11", "1", "5", "8", "6", "3"], "time": [3664, 4064, 5768, 5868, 6300, 7501, 7733]}, "edge": {"target": [], "time": []}}, "mouseout": {"state": {"target": ["12", "9", "11", "1", "5", "8", "6"], "time": [896, 3701, 5371, 5796, 5971, 7452, 7568]}, "edge": {"target": [], "time": []}}}, "displayed_time": "13.54", "trialTime": 16856, "trial_type": "mouselab-mdp", "trial_index": 24, "time_elapsed": 687428, "internal_node_id": "0.0-4.0-1.0-15.0"}}, {"uniqueid": "w11202882:a36625149", "current_trial": 25, "dateTime": 1664368919894, "trialdata": {"revealed_states": [], "num_clicks_accrued": [0, 0, 0, 0, 0, 0, 0, 0, 0, 0, 0, 0, 0], "stateRewards": ["", -2, 4, 24, 48, 2, 4, -48, -48, -2, 8, 48, -24], "withholdReward": false, "trial_id": "mdp_305701202606", "block": "test1", "trialIndex": 18, "score": 54.75, "costs": -0.25, "simulationMode": [null, null, null], "rewards": [-2, 4, 48], "path": ["0", "0", "1", "2", "4"], "rt": [5148, 803, 860], "actions": ["up", "up", "left"], "actionTimes": [10954, 12271, 13650], "queries": {"click": {"state": {"target": ["4"], "time": [8790]}, "edge": {"target": [], "time": []}}, "mouseover": {"state": {"target": ["1", "4"], "time": [8231, 8464]}, "edge": {"target": [], "time": []}}, "mouseout": {"state": {"target": ["3", "1"], "time": [3119, 8286]}, "edge": {"target": [], "time": []}}}, "displayed_time": "14.19", "trialTime": 17625, "trial_type": "mouselab-mdp", "trial_index": 25, "time_elapsed": 705807, "internal_node_id": "0.0-4.0-1.0-16.0"}}, {"uniqueid": "w11202882:a36625149", "current_trial": 26, "dateTime": 1664368937612, "trialdata": {"revealed_states": [], "num_clicks_accrued": [0, 0, 0, 0, 0, 0, 0, 0, 0, 0, 0, 0, 0], "stateRewards": ["", -2, -8, 48, 24, 2, 8, -48, 24, -4, 8, 48, 48], "withholdReward": false, "trial_id": "mdp_875436109858", "block": "test1", "trialIndex": 19, "score": 42.75, "costs": -0.25, "simulationMode": [null, null, null], "rewards": [-2, -8, 48], "path": ["0", "0", "1", "2", "3"], "rt": [3855, 984, 883], "actions": ["up", "up", "right"], "actionTimes": [6318, 7830, 9249], "queries": {"click": {"state": {"target": ["3"], "time": [4422]}, "edge": {"target": [], "time": []}}, "mouseover": {"state": {"target": ["3"], "time": [4095]}, "edge": {"target": [], "time": []}}, "mouseout": {"state": {"target": ["4", "1", "0"], "time": [1463, 1543, 3744]}, "edge": {"target": [], "time": []}}}, "displayed_time": "11.62", "trialTime": 16702, "trial_type": "mouselab-mdp", "trial_index": 26, "time_elapsed": 723525, "internal_node_id": "0.0-4.0-1.0-17.0"}}, {"uniqueid": "w11202882:a36625149", "current_trial": 27, "dateTime": 1664368962290, "trialdata": {"revealed_states": [], "num_clicks_accrued": [0, 0, 0, 0, 0, 0, 0, 0, 0, 0, 0, 0, 0], "stateRewards": ["", -4, 8, 24, -24, -2, 4, -24, 48, -2, 8, -48, -24], "withholdReward": true, "trial_id": "mdp_799359103169", "block": "test1", "trialIndex": 20, "score": 53.75, "costs": -1.25, "simulationMode": [null, null, null], "rewards": [-2, 4, 48], "path": ["0", "0", "5", "6", "8"], "rt": [11830, 958, 934], "actions": ["right", "right", "down"], "actionTimes": [15566, 17082, 18546], "queries": {"click": {"state": {"target": ["11", "12", "3", "4", "8"], "time": [6060, 8064, 9978, 11083, 12412]}, "edge": {"target": [], "time": []}}, "mouseover": {"state": {"target": ["9", "11", "10", "12", "9", "3", "2", "4", "5", "8"], "time": [5342, 5554, 7535, 7702, 9176, 9569, 10567, 10786, 11753, 11884]}, "edge": {"target": [], "time": []}}, "mouseout": {"state": {"target": ["3", "0", "9", "11", "10", "12", "9", "3", "2", "4", "5"], "time": [997, 5297, 5450, 7483, 7650, 9161, 9221, 10540, 10703, 11585, 11842]}, "edge": {"target": [], "time": []}}}, "displayed_time": "19.09", "trialTime": 22272, "trial_type": "mouselab-mdp", "trial_index": 27, "time_elapsed": 748201, "internal_node_id": "0.0-4.0-1.0-18.0"}}, {"uniqueid": "w11202882:a36625149", "current_trial": 28, "dateTime": 1664368989617, "trialdata": {"revealed_states": [], "num_clicks_accrued": [0, 0, 0, 0, 0, 0, 0, 0, 0, 0, 0, 0, 0], "stateRewards": ["", -4, -4, 24, -48, 2, 4, -24, -48, -2, -8, -24, 24], "withholdReward": true, "trial_id": "mdp_565569130486", "block": "test1", "trialIndex": 21, "score": 19.5, "costs": -1.5, "simulationMode": [null, null, null], "rewards": [-4, -4, 24], "path": ["0", "0", "1", "2", "3"], "rt": [12877, 708, 851], "actions": ["up", "up", "right"], "actionTimes": [18598, 19828, 21215], "queries": {"click": {"state": {"target": ["3", "4", "11", "12", "8", "7"], "time": [7680, 9533, 11117, 12228, 13690, 14835]}, "edge": {"target": [], "time": []}}, "mouseover": {"state": {"target": ["3", "2", "4", "11", "11", "11", "10", "12", "12", "8", "6", "7", "6"], "time": [7222, 9045, 9258, 10147, 10409, 10775, 11597, 11680, 11916, 13243, 14210, 14476, 15558]}, "edge": {"target": [], "time": []}}, "mouseout": {"state": {"target": ["8", "0", "3", "2", "4", "11", "11", "11", "10", "12", "12", "8", "6", "7", "6"], "time": [2458, 6815, 9027, 9125, 10116, 10190, 10496, 11558, 11676, 11717, 12872, 14109, 14377, 15533, 15851]}, "edge": {"target": [], "time": []}}}, "displayed_time": "21.75", "trialTime": 24192, "trial_type": "mouselab-mdp", "trial_index": 28, "time_elapsed": 775529, "internal_node_id": "0.0-4.0-1.0-19.0"}}, {"uniqueid": "w11202882:a36625149", "current_trial": 29, "dateTime": 1664369010079, "trialdata": {"revealed_states": [], "num_clicks_accrued": [0, 0, 0, 0, 0, 0, 0, 0, 0, 0, 0, 0, 0], "stateRewards": ["", 2, -8, 24, 24, 2, 4, -48, -48, 4, 4, -24, 48], "withholdReward": true, "trial_id": "mdp_985707010949", "block": "test1", "trialIndex": 22, "score": 60.5, "costs": -0.5, "simulationMode": [null, null, null], "rewards": [4, 4, 48], "path": ["0", "0", "9", "10", "12"], "rt": [6168, 630, 760], "actions": ["left", "left", "down"], "actionTimes": [11697, 12891, 14179], "queries": {"click": {"state": {"target": ["3", "12"], "time": [8098, 9931]}, "edge": {"target": [], "time": []}}, "mouseover": {"state": {"target": ["5", "3", "1", "10", "12"], "time": [7101, 7747, 9302, 9466, 9582]}, "edge": {"target": [], "time": []}}, "mouseout": {"state": {"target": ["0", "5", "3", "1", "10"], "time": [1384, 7414, 9266, 9339, 9550]}, "edge": {"target": [], "time": []}}}, "displayed_time": "14.70", "trialTime": 17686, "trial_type": "mouselab-mdp", "trial_index": 29, "time_elapsed": 795992, "internal_node_id": "0.0-4.0-1.0-20.0"}}, {"uniqueid": "w11202882:a36625149", "current_trial": 30, "dateTime": 1664369026970, "trialdata": {"revealed_states": [], "num_clicks_accrued": [0, 0, 0, 0, 0, 0, 0, 0, 0, 0, 0, 0, 0], "stateRewards": ["", 4, 8, 48, 48, 4, 4, -24, -48, 4, 8, -48, -48], "withholdReward": true, "trial_id": "mdp_984548726931", "block": "test1", "trialIndex": 23, "score": 64.25, "costs": -0.75, "simulationMode": [null, null, null], "rewards": [4, 8, 48], "path": ["0", "0", "1", "2", "3"], "rt": [6562, 546, 909], "actions": ["up", "up", "right"], "actionTimes": [10382, 11443, 12928], "queries": {"click": {"state": {"target": ["11", "8", "3"], "time": [5769, 7328, 8528]}, "edge": {"target": [], "time": []}}, "mouseover": {"state": {"target": ["9", "11", "9", "8", "3"], "time": [5277, 5445, 6584, 6978, 8267]}, "edge": {"target": [], "time": []}}, "mouseout": {"state": {"target": ["12", "9", "0", "9", "11", "9", "8"], "time": [2191, 2407, 2558, 5343, 6512, 6711, 7860]}, "edge": {"target": [], "time": []}}}, "displayed_time": "14.04", "trialTime": 16399, "trial_type": "mouselab-mdp", "trial_index": 30, "time_elapsed": 812883, "internal_node_id": "0.0-4.0-1.0-21.0"}}, {"uniqueid": "w11202882:a36625149", "current_trial": 31, "dateTime": 1664369058286, "trialdata": {"revealed_states": [], "num_clicks_accrued": [0, 0, 0, 0, 0, 0, 0, 0, 0, 0, 0, 0, 0], "stateRewards": ["", 2, 8, -24, -48, -4, 8, -48, -48, -2, -8, -24, -24], "withholdReward": true, "trial_id": "mdp_978177451072", "block": "test1", "trialIndex": 24, "score": -11.25, "costs": -2.25, "simulationMode": [null, null, null], "rewards": [2, 8, -24], "path": ["0", "0", "1", "2", "3"], "rt": [18630, 5423, 849], "actions": ["up", "up", "right"], "actionTimes": [20864, 26820, 28200], "queries": {"click": {"state": {"target": ["7", "11", "4", "3", "12", "8", "1", "5", "9"], "time": [4230, 6008, 6894, 7975, 9520, 10668, 15765, 17168, 18249]}, "edge": {"target": [], "time": []}}, "mouseover": {"state": {"target": ["5", "7", "9", "11", "4", "2", "3", "0", "12", "8", "1", "5", "0", "9"], "time": [3694, 3873, 5290, 5557, 6658, 7371, 7448, 8459, 9076, 10409, 13931, 16862, 17779, 18045]}, "edge": {"target": [], "time": []}}, "mouseout": {"state": {"target": ["3", "5", "7", "9", "11", "4", "2", "3", "0", "12", "8", "1", "5", "0"], "time": [911, 3726, 5124, 5324, 6433, 7309, 7410, 8390, 8482, 9961, 13128, 16709, 17728, 17861]}, "edge": {"target": [], "time": []}}}, "displayed_time": "28.73", "trialTime": 30605, "trial_type": "mouselab-mdp", "trial_index": 31, "time_elapsed": 844198, "internal_node_id": "0.0-4.0-1.0-22.0"}}, {"uniqueid": "w11202882:a36625149", "current_trial": 32, "dateTime": 1664369070315, "trialdata": {"revealed_states": [], "num_clicks_accrued": [0, 0, 0, 0, 0, 0, 0, 0, 0, 0, 0, 0, 0], "stateRewards": ["", -2, 4, 48, -24, 2, 8, 24, 48, 2, 4, -24, -48], "withholdReward": true, "trial_id": "mdp_892412058587", "block": "test1", "trialIndex": 25, "score": 54.75, "costs": -0.25, "simulationMode": [null, null, null], "rewards": [-2, 4, 48], "path": ["0", "0", "1", "2", "3"], "rt": [3301, 584, 704], "actions": ["up", "up", "right"], "actionTimes": [5401, 6540, 7767], "queries": {"click": {"state": {"target": ["3"], "time": [3304]}, "edge": {"target": [], "time": []}}, "mouseover": {"state": {"target": ["1", "3"], "time": [2731, 2983]}, "edge": {"target": [], "time": []}}, "mouseout": {"state": {"target": ["9", "1"], "time": [951, 2768]}, "edge": {"target": [], "time": []}}}, "displayed_time": "9.38", "trialTime": 11362, "trial_type": "mouselab-mdp", "trial_index": 32, "time_elapsed": 856227, "internal_node_id": "0.0-4.0-1.0-23.0"}}, {"uniqueid": "w11202882:a36625149", "current_trial": 33, "dateTime": 1664369085719, "trialdata": {"revealed_states": [], "num_clicks_accrued": [0, 0, 0, 0, 0, 0, 0, 0, 0, 0, 0, 0, 0], "stateRewards": ["", -2, 8, 48, -24, 2, 4, -48, -24, -4, 8, -48, -48], "withholdReward": true, "trial_id": "mdp_539167561933", "block": "test1", "trialIndex": 26, "score": 58.25, "costs": -0.75, "simulationMode": [null, null, null], "rewards": [-2, 8, 48], "path": ["0", "0", "1", "2", "3"], "rt": [5666, 723, 682], "actions": ["up", "up", "right"], "actionTimes": [8033, 9284, 10505], "queries": {"click": {"state": {"target": ["3", "1", "2"], "time": [4223, 5465, 6373]}, "edge": {"target": [], "time": []}}, "mouseover": {"state": {"target": ["3", "1", "2"], "time": [3883, 5203, 5957]}, "edge": {"target": [], "time": []}}, "mouseout": {"state": {"target": ["3", "5", "3", "1", "2"], "time": [1299, 1597, 5097, 5890, 6923]}, "edge": {"target": [], "time": []}}}, "displayed_time": "12.91", "trialTime": 14913, "trial_type": "mouselab-mdp", "trial_index": 33, "time_elapsed": 871632, "internal_node_id": "0.0-4.0-1.0-24.0"}}, {"uniqueid": "w11202882:a36625149", "current_trial": 34, "dateTime": 1664369098852, "trialdata": {"revealed_states": [], "num_clicks_accrued": [0, 0, 0, 0, 0, 0, 0, 0, 0, 0, 0, 0, 0], "stateRewards": ["", -2, 4, -48, -48, -4, -8, 48, -48, 2, 4, 48, -48], "withholdReward": true, "trial_id": "mdp_258647270500", "block": "test1", "trialIndex": 27, "score": 58.5, "costs": -0.5, "simulationMode": [null, null, null], "rewards": [2, 4, 48], "path": ["0", "0", "9", "10", "11"], "rt": [5094, 779, 734], "actions": ["left", "left", "up"], "actionTimes": [7009, 8305, 9576], "queries": {"click": {"state": {"target": ["10", "11"], "time": [4042, 5145]}, "edge": {"target": [], "time": []}}, "mouseover": {"state": {"target": ["9", "10", "11", "9"], "time": [3316, 3667, 4701, 5760]}, "edge": {"target": [], "time": []}}, "mouseout": {"state": {"target": ["0", "9", "10", "11", "9"], "time": [3183, 3500, 4651, 5751, 5779]}, "edge": {"target": [], "time": []}}}, "displayed_time": "10.13", "trialTime": 12304, "trial_type": "mouselab-mdp", "trial_index": 34, "time_elapsed": 884764, "internal_node_id": "0.0-4.0-1.0-25.0"}}, {"uniqueid": "w11202882:a36625149", "current_trial": 35, "dateTime": 1664369112867, "trialdata": {"revealed_states": [], "num_clicks_accrued": [0, 0, 0, 0, 0, 0, 0, 0, 0, 0, 0, 0, 0], "stateRewards": ["", 2, -8, -24, -48, -2, -4, 48, 48, 4, 8, 48, 48], "withholdReward": false, "trial_id": "mdp_347285045422", "block": "test1", "trialIndex": 28, "score": 64.5, "costs": -0.5, "simulationMode": [null, null, null], "rewards": [4, 8, 48], "path": ["0", "0", "9", "10", "12"], "rt": [5047, 578, 844], "actions": ["left", "left", "down"], "actionTimes": [7733, 8841, 10231], "queries": {"click": {"state": {"target": ["4", "12"], "time": [3899, 5317]}, "edge": {"target": [], "time": []}}, "mouseover": {"state": {"target": ["4", "12"], "time": [3629, 5025]}, "edge": {"target": [], "time": []}}, "mouseout": {"state": {"target": ["0", "4", "12"], "time": [2857, 4528, 11990]}, "edge": {"target": [], "time": []}}}, "displayed_time": "10.75", "trialTime": 13257, "trial_type": "mouselab-mdp", "trial_index": 35, "time_elapsed": 898780, "internal_node_id": "0.0-4.0-1.0-26.0"}}, {"uniqueid": "w11202882:a36625149", "current_trial": 36, "dateTime": 1664369128365, "trialdata": {"revealed_states": [], "num_clicks_accrued": [0, 0, 0, 0, 0, 0, 0, 0, 0, 0, 0, 0, 0], "stateRewards": ["", -4, 8, -24, 24, -2, -8, 24, -24, 4, -4, -48, 48], "withholdReward": true, "trial_id": "mdp_297684722007", "block": "test1", "trialIndex": 29, "score": 51.5, "costs": -1.5, "simulationMode": [null, null, null], "rewards": [4, -4, 48], "path": ["0", "0", "9", "10", "12"], "rt": [8385, 457, 706], "actions": ["left", "left", "down"], "actionTimes": [10249, 11223, 12487], "queries": {"click": {"state": {"target": ["3", "8", "7", "4", "11", "12"], "time": [3259, 4198, 5189, 6621, 7710, 8268]}, "edge": {"target": [], "time": []}}, "mouseover": {"state": {"target": ["3", "5", "8", "6", "7", "1", "4", "11", "10", "12"], "time": [2876, 3753, 3902, 4745, 4963, 5713, 6096, 7478, 7930, 8014]}, "edge": {"target": [], "time": []}}, "mouseout": {"state": {"target": ["12", "0", "3", "5", "8", "6", "7", "1", "4", "11", "10", "12"], "time": [859, 2496, 3711, 3852, 4695, 4850, 5498, 5748, 7080, 7897, 7965, 8631]}, "edge": {"target": [], "time": []}}}, "displayed_time": "13.01", "trialTime": 14852, "trial_type": "mouselab-mdp", "trial_index": 36, "time_elapsed": 914278, "internal_node_id": "0.0-4.0-1.0-27.0"}}, {"uniqueid": "w11202882:a36625149", "current_trial": 37, "dateTime": 1664369142412, "trialdata": {"revealed_states": [], "num_clicks_accrued": [0, 0, 0, 0, 0, 0, 0, 0, 0, 0, 0, 0, 0], "stateRewards": ["", -4, 4, -24, -24, -4, -8, 24, 48, 4, -4, 24, 48], "withholdReward": true, "trial_id": "mdp_175395325183", "block": "test1", "trialIndex": 30, "score": 52.5, "costs": -0.5, "simulationMode": [null, null, null], "rewards": [4, -4, 48], "path": ["0", "0", "9", "10", "12"], "rt": [4503, 758, 871], "actions": ["left", "left", "down"], "actionTimes": [6978, 8307, 9705], "queries": {"click": {"state": {"target": ["11", "12"], "time": [3818, 4799]}, "edge": {"target": [], "time": []}}, "mouseover": {"state": {"target": ["9", "10", "11", "10", "12"], "time": [2940, 3191, 3422, 4420, 4590]}, "edge": {"target": [], "time": []}}, "mouseout": {"state": {"target": ["0", "9", "10", "11", "10"], "time": [2909, 3023, 3339, 4377, 4505]}, "edge": {"target": [], "time": []}}}, "displayed_time": "12.05", "trialTime": 13518, "trial_type": "mouselab-mdp", "trial_index": 37, "time_elapsed": 928324, "internal_node_id": "0.0-4.0-1.0-28.0"}}, {"uniqueid": "w11202882:a36625149", "current_trial": 38, "dateTime": 1664369155955, "trialdata": {"revealed_states": [], "num_clicks_accrued": [0, 0, 0, 0, 0, 0, 0, 0, 0, 0, 0, 0, 0], "stateRewards": ["", -2, -4, 48, -24, 2, -4, -24, -48, 2, 8, -48, -24], "withholdReward": true, "trial_id": "mdp_238243948191", "block": "test1", "trialIndex": 31, "score": 46.25, "costs": -0.75, "simulationMode": [null, null, null], "rewards": [-2, -4, 48], "path": ["0", "0", "1", "2", "3"], "rt": [5020, 591, 665], "actions": ["up", "up", "right"], "actionTimes": [6887, 8006, 9245], "queries": {"click": {"state": {"target": ["11", "8", "3"], "time": [2980, 4314, 5313]}, "edge": {"target": [], "time": []}}, "mouseover": {"state": {"target": ["9", "11", "0", "8", "8", "6", "3"], "time": [2509, 2743, 3466, 3579, 4026, 4774, 5010]}, "edge": {"target": [], "time": []}}, "mouseout": {"state": {"target": ["12", "0", "9", "11", "0", "8", "8", "6"], "time": [897, 1305, 2691, 3443, 3513, 3613, 4750, 4824]}, "edge": {"target": [], "time": []}}}, "displayed_time": "11.15", "trialTime": 12856, "trial_type": "mouselab-mdp", "trial_index": 38, "time_elapsed": 941868, "internal_node_id": "0.0-4.0-1.0-29.0"}}, {"uniqueid": "w11202882:a36625149", "current_trial": 39, "dateTime": 1664369165648, "trialdata": {"rt": 9678, "stimulus": "<h1> End of block! </h1>\n\nYou have reached the end of the block 1/4. If you need a short break, feel free to take one now before moving on.\n\n<br><br>\nIn the next block, you will complete another 30 rounds of this game.\n\n<br><br>\n<div style='text-align: center;'>Press <code>space</code> to begin.</div>\n<br><br>\n<div style='text-align: center;'>(If the experiment doesn't continue, try clicking on the text and then pressing <code>space</code>.)</div>", "response": " ", "trial_id": "mdp_ready_2", "trial_type": "html-keyboard-response", "trial_index": 39, "time_elapsed": 951560, "internal_node_id": "0.0-4.0-2.0"}}, {"uniqueid": "w11202882:a36625149", "current_trial": 40, "dateTime": 1664369179286, "trialdata": {"revealed_states": [], "num_clicks_accrued": [0, 0, 0, 0, 0, 0, 0, 0, 0, 0, 0, 0, 0], "stateRewards": ["", 4, -8, 24, 48, 2, -4, 48, 48, 4, -8, 48, 48], "withholdReward": true, "trial_id": "mdp_962498334245", "block": "test2", "trialIndex": 32, "score": 48.5, "costs": -0.5, "simulationMode": [null, null, null], "rewards": [4, -8, 48], "path": ["0", "0", "1", "2", "4"], "rt": [4083, 437, 438], "actions": ["up", "up", "left"], "actionTimes": [7338, 8301, 9250], "queries": {"click": {"state": {"target": ["3", "4"], "time": [4728, 5823]}, "edge": {"target": [], "time": []}}, "mouseover": {"state": {"target": ["3", "4"], "time": [4391, 5588]}, "edge": {"target": [], "time": []}}, "mouseout": {"state": {"target": ["3", "3"], "time": [1954, 5192]}, "edge": {"target": [], "time": []}}}, "displayed_time": "11.36", "trialTime": 12826, "trial_type": "mouselab-mdp", "trial_index": 40, "time_elapsed": 965199, "internal_node_id": "0.0-4.0-3.0-0.0"}}, {"uniqueid": "w11202882:a36625149", "current_trial": 41, "dateTime": 1664369198761, "trialdata": {"revealed_states": [], "num_clicks_accrued": [0, 0, 0, 0, 0, 0, 0, 0, 0, 0, 0, 0, 0], "stateRewards": ["", 2, 4, -24, -24, 4, 8, -48, 48, 2, 4, -24, -48], "withholdReward": false, "trial_id": "mdp_565165082781", "block": "test2", "trialIndex": 33, "score": 63.75, "costs": -1.25, "simulationMode": [null, null, null], "rewards": [4, 8, 48], "path": ["0", "0", "5", "6", "8"], "rt": [9477, 407, 491], "actions": ["right", "right", "down"], "actionTimes": [13705, 14649, 15674], "queries": {"click": {"state": {"target": ["4", "3", "12", "7", "8"], "time": [6920, 8534, 9850, 10833, 11788]}, "edge": {"target": [], "time": []}}, "mouseover": {"state": {"target": ["0", "1", "4", "2", "3", "0", "12", "5", "7", "6", "8"], "time": [4565, 6242, 6411, 7670, 8294, 9111, 9664, 10378, 10546, 11379, 11562]}, "edge": {"target": [], "time": []}}, "mouseout": {"state": {"target": ["4", "1", "0", "1", "4", "2", "3", "0", "12", "5", "7", "6", "8"], "time": [858, 1141, 6130, 6344, 7646, 7811, 8994, 9135, 10262, 10429, 11347, 11478, 12047]}, "edge": {"target": [], "time": []}}}, "displayed_time": "16.22", "trialTime": 18780, "trial_type": "mouselab-mdp", "trial_index": 41, "time_elapsed": 984673, "internal_node_id": "0.0-4.0-3.0-1.0"}}, {"uniqueid": "w11202882:a36625149", "current_trial": 42, "dateTime": 1664369218110, "trialdata": {"revealed_states": [], "num_clicks_accrued": [0, 0, 0, 0, 0, 0, 0, 0, 0, 0, 0, 0, 0], "stateRewards": ["", -4, 8, -48, -48, -2, -8, -24, -48, 2, -4, -48, 24], "withholdReward": true, "trial_id": "mdp_743906784415", "block": "test2", "trialIndex": 34, "score": 25.5, "costs": -1.5, "simulationMode": [null, null, null], "rewards": [2, -4, 24], "path": ["0", "0", "9", "10", "12"], "rt": [12375, 474, 472], "actions": ["left", "left", "down"], "actionTimes": [13733, 14761, 15764], "queries": {"click": {"state": {"target": ["11", "12", "3", "4", "7", "8"], "time": [2587, 5437, 6576, 7747, 8776, 9473]}, "edge": {"target": [], "time": []}}, "mouseover": {"state": {"target": ["11", "10", "12", "1", "3", "3", "2", "4", "1", "7", "6", "8", "0", "9"], "time": [1996, 4916, 5117, 6000, 6043, 6315, 7116, 7472, 8236, 8535, 9083, 9168, 12018, 12153]}, "edge": {"target": [], "time": []}}, "mouseout": {"state": {"target": ["0", "11", "11", "10", "12", "1", "3", "3", "2", "4", "1", "7", "6", "8", "0"], "time": [731, 3197, 4865, 5066, 5935, 6032, 6082, 7066, 7281, 8184, 8313, 9036, 9135, 11201, 12068]}, "edge": {"target": [], "time": []}}}, "displayed_time": "16.31", "trialTime": 18494, "trial_type": "mouselab-mdp", "trial_index": 42, "time_elapsed": 1004023, "internal_node_id": "0.0-4.0-3.0-2.0"}}, {"uniqueid": "w11202882:a36625149", "current_trial": 43, "dateTime": 1664369234906, "trialdata": {"revealed_states": [], "num_clicks_accrued": [0, 0, 0, 0, 0, 0, 0, 0, 0, 0, 0, 0, 0], "stateRewards": ["", -2, -8, -24, -48, 4, -8, 48, 24, 2, 4, -48, -48], "withholdReward": false, "trial_id": "mdp_898082967464", "block": "test2", "trialIndex": 35, "score": 48.25, "costs": -0.75, "simulationMode": [null, null, null], "rewards": [4, -8, 48], "path": ["0", "0", "5", "6", "7"], "rt": [5028, 561, 1322], "actions": ["right", "right", "up"], "actionTimes": [8843, 9951, 11822], "queries": {"click": {"state": {"target": ["11", "8", "7"], "time": [5121, 6419, 7367]}, "edge": {"target": [], "time": []}}, "mouseover": {"state": {"target": ["9", "11", "9", "0", "8", "6", "7"], "time": [4705, 4930, 5662, 5685, 5994, 6981, 7082]}, "edge": {"target": [], "time": []}}, "mouseout": {"state": {"target": ["9", "0", "9", "11", "9", "0", "8", "6"], "time": [1464, 4619, 4728, 5571, 5680, 5728, 6920, 7011]}, "edge": {"target": [], "time": []}}}, "displayed_time": "14.26", "trialTime": 16326, "trial_type": "mouselab-mdp", "trial_index": 43, "time_elapsed": 1020818, "internal_node_id": "0.0-4.0-3.0-3.0"}}, {"uniqueid": "w11202882:a36625149", "current_trial": 44, "dateTime": 1664369252937, "trialdata": {"revealed_states": [], "num_clicks_accrued": [0, 0, 0, 0, 0, 0, 0, 0, 0, 0, 0, 0, 0], "stateRewards": ["", -2, -4, -24, -48, -4, -8, -48, 24, -4, -8, -24, -48], "withholdReward": true, "trial_id": "mdp_475782454549", "block": "test2", "trialIndex": 36, "score": 15.5, "costs": -1.5, "simulationMode": [null, null, null], "rewards": [-4, -8, 24], "path": ["0", "0", "5", "6", "8"], "rt": [8846, 1167, 1146], "actions": ["right", "right", "down"], "actionTimes": [11070, 12772, 14454], "queries": {"click": {"state": {"target": ["4", "12", "7", "3", "11", "8"], "time": [3974, 4961, 5952, 6919, 8351, 9346]}, "edge": {"target": [], "time": []}}, "mouseover": {"state": {"target": ["9", "11", "11", "4", "9", "12", "5", "6", "7", "3", "1", "11", "9", "8"], "time": [2897, 3012, 3261, 3694, 4478, 4727, 5427, 5500, 5779, 6686, 7406, 7947, 8798, 9147]}, "edge": {"target": [], "time": []}}, "mouseout": {"state": {"target": ["7", "5", "0", "9", "11", "11", "4", "9", "12", "5", "6", "7", "3", "1", "11", "9", "8"], "time": [1085, 1176, 2895, 2980, 3112, 3494, 4449, 4512, 5344, 5492, 5560, 6544, 7330, 7939, 8748, 8911, 10022]}, "edge": {"target": [], "time": []}}}, "displayed_time": "15.06", "trialTime": 17317, "trial_type": "mouselab-mdp", "trial_index": 44, "time_elapsed": 1038849, "internal_node_id": "0.0-4.0-3.0-4.0"}}, {"uniqueid": "w11202882:a36625149", "current_trial": 45, "dateTime": 1664369267724, "trialdata": {"revealed_states": [], "num_clicks_accrued": [0, 0, 0, 0, 0, 0, 0, 0, 0, 0, 0, 0, 0], "stateRewards": ["", 2, 4, 48, -48, 2, 8, -24, 48, 4, 8, 48, -48], "withholdReward": true, "trial_id": "mdp_110142964375", "block": "test2", "trialIndex": 37, "score": 64, "costs": -1, "simulationMode": [null, null, null], "rewards": [4, 8, 48], "path": ["0", "0", "9", "10", "11"], "rt": [6234, 477, 661], "actions": ["left", "left", "up"], "actionTimes": [8110, 9127, 10309], "queries": {"click": {"state": {"target": ["4", "12", "7", "11"], "time": [3063, 4139, 5121, 6065]}, "edge": {"target": [], "time": []}}, "mouseover": {"state": {"target": ["4", "9", "12", "5", "7", "1", "11", "9"], "time": [2675, 3662, 3872, 4722, 4892, 5673, 5807, 6773]}, "edge": {"target": [], "time": []}}, "mouseout": {"state": {"target": ["8", "0", "0", "4", "9", "12", "5", "7", "1", "11", "9"], "time": [628, 751, 2440, 3540, 3681, 4596, 4760, 5571, 5696, 6658, 6823]}, "edge": {"target": [], "time": []}}}, "displayed_time": "10.86", "trialTime": 12723, "trial_type": "mouselab-mdp", "trial_index": 45, "time_elapsed": 1053637, "internal_node_id": "0.0-4.0-3.0-5.0"}}, {"uniqueid": "w11202882:a36625149", "current_trial": 46, "dateTime": 1664369285033, "trialdata": {"revealed_states": [], "num_clicks_accrued": [0, 0, 0, 0, 0, 0, 0, 0, 0, 0, 0, 0, 0], "stateRewards": ["", -4, -8, -24, 24, 4, 4, -48, -48, -4, -4, 24, -48], "withholdReward": true, "trial_id": "mdp_431592223624", "block": "test2", "trialIndex": 38, "score": 19.5, "costs": -1.5, "simulationMode": [null, null, null], "rewards": [-4, -4, 24], "path": ["0", "0", "9", "10", "11"], "rt": [9628, 672, 589], "actions": ["left", "left", "up"], "actionTimes": [11517, 12732, 13856], "queries": {"click": {"state": {"target": ["7", "11", "12", "8", "3", "4"], "time": [3374, 4870, 5859, 6876, 7927, 8773]}, "edge": {"target": [], "time": []}}, "mouseover": {"state": {"target": ["5", "7", "12", "10", "11", "10", "12", "8", "5", "3", "2", "4"], "time": [2939, 3070, 4106, 4289, 4605, 5474, 5611, 6639, 7345, 7589, 8315, 8543]}, "edge": {"target": [], "time": []}}, "mouseout": {"state": {"target": ["9", "0", "5", "7", "12", "10", "11", "10", "12", "8", "5", "3", "2", "4"], "time": [1054, 2855, 2963, 3930, 4256, 4390, 5423, 5563, 6229, 7275, 7374, 8293, 8358, 9259]}, "edge": {"target": [], "time": []}}}, "displayed_time": "14.41", "trialTime": 16676, "trial_type": "mouselab-mdp", "trial_index": 46, "time_elapsed": 1070946, "internal_node_id": "0.0-4.0-3.0-6.0"}}, {"uniqueid": "w11202882:a36625149", "current_trial": 47, "dateTime": 1664369296315, "trialdata": {"revealed_states": [], "num_clicks_accrued": [0, 0, 0, 0, 0, 0, 0, 0, 0, 0, 0, 0, 0], "stateRewards": ["", 2, -4, 24, 24, 4, -4, -24, 24, -4, -4, 48, 48], "withholdReward": true, "trial_id": "mdp_566306223773", "block": "test2", "trialIndex": 39, "score": 44.75, "costs": -0.25, "simulationMode": [null, null, null], "rewards": [-4, -4, 48], "path": ["0", "0", "9", "10", "11"], "rt": [3226, 424, 497], "actions": ["left", "left", "up"], "actionTimes": [5140, 6108, 7140], "queries": {"click": {"state": {"target": ["11"], "time": [3388]}, "edge": {"target": [], "time": []}}, "mouseover": {"state": {"target": ["0", "9", "11"], "time": [2739, 2806, 3048]}, "edge": {"target": [], "time": []}}, "mouseout": {"state": {"target": ["0", "9"], "time": [2762, 2866]}, "edge": {"target": [], "time": []}}}, "displayed_time": "8.98", "trialTime": 10492, "trial_type": "mouselab-mdp", "trial_index": 47, "time_elapsed": 1082227, "internal_node_id": "0.0-4.0-3.0-7.0"}}, {"uniqueid": "w11202882:a36625149", "current_trial": 48, "dateTime": 1664369311526, "trialdata": {"revealed_states": [], "num_clicks_accrued": [0, 0, 0, 0, 0, 0, 0, 0, 0, 0, 0, 0, 0], "stateRewards": ["", 4, -4, 48, -48, 2, 8, -48, 24, -2, -4, -24, 48], "withholdReward": true, "trial_id": "mdp_937564992306", "block": "test2", "trialIndex": 40, "score": 45.75, "costs": -1.25, "simulationMode": [null, null, null], "rewards": [-2, -4, 48], "path": ["0", "0", "9", "10", "12"], "rt": [7697, 614, 513], "actions": ["left", "left", "down"], "actionTimes": [9841, 10992, 12027], "queries": {"click": {"state": {"target": ["4", "8", "7", "11", "12"], "time": [4252, 5501, 6461, 7437, 8311]}, "edge": {"target": [], "time": []}}, "mouseover": {"state": {"target": ["4", "1", "5", "8", "6", "7", "9", "10", "11", "10", "12"], "time": [3970, 4904, 4978, 5137, 6066, 6188, 6853, 6971, 7162, 7852, 7907]}, "edge": {"target": [], "time": []}}, "mouseout": {"state": {"target": ["11", "0", "4", "1", "5", "8", "6", "7", "9", "10", "11", "10", "12"], "time": [620, 3622, 4837, 4927, 5036, 6042, 6109, 6788, 6888, 7108, 7825, 7898, 8923]}, "edge": {"target": [], "time": []}}}, "displayed_time": "12.55", "trialTime": 14505, "trial_type": "mouselab-mdp", "trial_index": 48, "time_elapsed": 1097438, "internal_node_id": "0.0-4.0-3.0-8.0"}}, {"uniqueid": "w11202882:a36625149", "current_trial": 49, "dateTime": 1664369326284, "trialdata": {"revealed_states": [], "num_clicks_accrued": [0, 0, 0, 0, 0, 0, 0, 0, 0, 0, 0, 0, 0], "stateRewards": ["", 4, 4, -24, -48, -4, 4, -48, 24, 4, -8, -48, 48], "withholdReward": true, "trial_id": "mdp_566768794366", "block": "test2", "trialIndex": 41, "score": 48.75, "costs": -0.25, "simulationMode": [null, null, null], "rewards": [4, -8, 48], "path": ["0", "0", "9", "10", "12"], "rt": [2694, 466, 476], "actions": ["left", "left", "down"], "actionTimes": [5259, 6276, 7308], "queries": {"click": {"state": {"target": ["12"], "time": [3551]}, "edge": {"target": [], "time": []}}, "mouseover": {"state": {"target": ["12"], "time": [3259]}, "edge": {"target": [], "time": []}}, "mouseout": {"state": {"target": ["0", "12"], "time": [3089, 3797]}, "edge": {"target": [], "time": []}}}, "displayed_time": "12.89", "trialTime": 14361, "trial_type": "mouselab-mdp", "trial_index": 49, "time_elapsed": 1112196, "internal_node_id": "0.0-4.0-3.0-9.0"}}, {"uniqueid": "w11202882:a36625149", "current_trial": 50, "dateTime": 1664369339755, "trialdata": {"revealed_states": [], "num_clicks_accrued": [0, 0, 0, 0, 0, 0, 0, 0, 0, 0, 0, 0, 0], "stateRewards": ["", -2, -4, 48, -24, -4, -4, -24, -24, -2, 4, -48, -24], "withholdReward": true, "trial_id": "mdp_410467837196", "block": "test2", "trialIndex": 42, "score": 46.25, "costs": -0.75, "simulationMode": [null, null, null], "rewards": [-2, -4, 48], "path": ["0", "0", "1", "2", "3"], "rt": [5180, 646, 663], "actions": ["up", "up", "right"], "actionTimes": [7612, 8781, 9968], "queries": {"click": {"state": {"target": ["12", "11", "3"], "time": [3352, 4929, 5964]}, "edge": {"target": [], "time": []}}, "mouseover": {"state": {"target": ["12", "10", "11", "1", "3"], "time": [3111, 4511, 4628, 5477, 5596]}, "edge": {"target": [], "time": []}}, "mouseout": {"state": {"target": ["0", "12", "12", "10", "11", "1", "3"], "time": [2899, 3597, 4393, 4575, 5413, 5549, 6411]}, "edge": {"target": [], "time": []}}}, "displayed_time": "10.50", "trialTime": 12828, "trial_type": "mouselab-mdp", "trial_index": 50, "time_elapsed": 1125668, "internal_node_id": "0.0-4.0-3.0-10.0"}}, {"uniqueid": "w11202882:a36625149", "current_trial": 51, "dateTime": 1664369356240, "trialdata": {"revealed_states": [], "num_clicks_accrued": [0, 0, 0, 0, 0, 0, 0, 0, 0, 0, 0, 0, 0], "stateRewards": ["", -4, -8, -24, -48, -2, -8, 24, -48, -4, -8, 24, -48], "withholdReward": true, "trial_id": "mdp_621812384092", "block": "test2", "trialIndex": 43, "score": 17.5, "costs": -1.5, "simulationMode": [null, null, null], "rewards": [-2, -8, 24], "path": ["0", "0", "5", "6", "7"], "rt": [8682, 437, 1018], "actions": ["right", "right", "up"], "actionTimes": [10849, 11832, 13393], "queries": {"click": {"state": {"target": ["11", "7", "3", "4", "12", "8"], "time": [3328, 4554, 5488, 6527, 7289, 8130]}, "edge": {"target": [], "time": []}}, "mouseover": {"state": {"target": ["9", "11", "0", "5", "7", "3", "2", "4", "9", "12", "8"], "time": [2912, 3081, 3983, 4117, 4300, 5167, 6099, 6264, 6918, 7000, 7903]}, "edge": {"target": [], "time": []}}, "mouseout": {"state": {"target": ["5", "0", "9", "11", "0", "5", "7", "3", "2", "4", "9", "12", "8"], "time": [1131, 1580, 2949, 3883, 4013, 4179, 4964, 5750, 6200, 6735, 6943, 7533, 8568]}, "edge": {"target": [], "time": []}}}, "displayed_time": "13.94", "trialTime": 15711, "trial_type": "mouselab-mdp", "trial_index": 51, "time_elapsed": 1142153, "internal_node_id": "0.0-4.0-3.0-11.0"}}, {"uniqueid": "w11202882:a36625149", "current_trial": 52, "dateTime": 1664369373498, "trialdata": {"revealed_states": [], "num_clicks_accrued": [0, 0, 0, 0, 0, 0, 0, 0, 0, 0, 0, 0, 0], "stateRewards": ["", 4, -4, 48, 24, 2, 4, 24, -24, 2, 4, 24, 48], "withholdReward": false, "trial_id": "mdp_736351885282", "block": "test2", "trialIndex": 44, "score": 57.75, "costs": -1.25, "simulationMode": [null, null, null], "rewards": [2, 4, 48], "path": ["0", "0", "9", "10", "12"], "rt": [8679, 466, 567], "actions": ["left", "left", "down"], "actionTimes": [11133, 12173, 13317], "queries": {"click": {"state": {"target": ["4", "7", "11", "12", "8"], "time": [3924, 5398, 6414, 7559, 9022]}, "edge": {"target": [], "time": []}}, "mouseover": {"state": {"target": ["1", "4", "1", "7", "11", "10", "12", "8"], "time": [3331, 3741, 4575, 5102, 6197, 6996, 7320, 8944]}, "edge": {"target": [], "time": []}}, "mouseout": {"state": {"target": ["0", "1", "4", "1", "7", "11", "10", "12"], "time": [3257, 3392, 4311, 4859, 5894, 6761, 7241, 8833]}, "edge": {"target": [], "time": []}}}, "displayed_time": "13.87", "trialTime": 16489, "trial_type": "mouselab-mdp", "trial_index": 52, "time_elapsed": 1159411, "internal_node_id": "0.0-4.0-3.0-12.0"}}, {"uniqueid": "w11202882:a36625149", "current_trial": 53, "dateTime": 1664369387970, "trialdata": {"revealed_states": [], "num_clicks_accrued": [0, 0, 0, 0, 0, 0, 0, 0, 0, 0, 0, 0, 0], "stateRewards": ["", 2, -8, 24, -24, -2, 8, -48, -48, 2, -8, -24, -48], "withholdReward": true, "trial_id": "mdp_744278669205", "block": "test2", "trialIndex": 45, "score": 21.5, "costs": -1.5, "simulationMode": [null, null, null], "rewards": [2, -8, 24], "path": ["0", "0", "1", "2", "3"], "rt": [6937, 526, 683], "actions": ["up", "up", "right"], "actionTimes": [9127, 10235, 11445], "queries": {"click": {"state": {"target": ["11", "3", "4", "7", "8", "12"], "time": [3283, 4363, 5283, 6109, 6706, 7547]}, "edge": {"target": [], "time": []}}, "mouseover": {"state": {"target": ["9", "11", "2", "3", "2", "4", "1", "7", "6", "8", "12"], "time": [2895, 3016, 3942, 4076, 4876, 5042, 5576, 5790, 6282, 6459, 7227]}, "edge": {"target": [], "time": []}}, "mouseout": {"state": {"target": ["8", "5", "0", "9", "11", "2", "3", "2", "4", "1", "7", "6", "8", "12"], "time": [741, 988, 2849, 2949, 3723, 4006, 4760, 4940, 5477, 5626, 6260, 6359, 6876, 7662]}, "edge": {"target": [], "time": []}}}, "displayed_time": "12.56", "trialTime": 13669, "trial_type": "mouselab-mdp", "trial_index": 53, "time_elapsed": 1173883, "internal_node_id": "0.0-4.0-3.0-13.0"}}, {"uniqueid": "w11202882:a36625149", "current_trial": 54, "dateTime": 1664369400318, "trialdata": {"revealed_states": [], "num_clicks_accrued": [0, 0, 0, 0, 0, 0, 0, 0, 0, 0, 0, 0, 0], "stateRewards": ["", 2, 4, -48, -48, 2, 4, 48, -24, -2, 8, 48, -48], "withholdReward": false, "trial_id": "mdp_258528916140", "block": "test2", "trialIndex": 46, "score": 58.5, "costs": -0.5, "simulationMode": [null, null, null], "rewards": [-2, 8, 48], "path": ["0", "0", "9", "10", "11"], "rt": [5272, 413, 533], "actions": ["left", "left", "up"], "actionTimes": [6946, 7874, 8940], "queries": {"click": {"state": {"target": ["8", "11"], "time": [3618, 5379]}, "edge": {"target": [], "time": []}}, "mouseover": {"state": {"target": ["8", "9", "11", "11"], "time": [3151, 4236, 4308, 4619]}, "edge": {"target": [], "time": []}}, "mouseout": {"state": {"target": ["0", "8", "9", "11", "11"], "time": [2776, 4085, 4258, 4353, 6036]}, "edge": {"target": [], "time": []}}}, "displayed_time": "9.47", "trialTime": 11288, "trial_type": "mouselab-mdp", "trial_index": 54, "time_elapsed": 1186230, "internal_node_id": "0.0-4.0-3.0-14.0"}}, {"uniqueid": "w11202882:a36625149", "current_trial": 55, "dateTime": 1664369413674, "trialdata": {"revealed_states": [], "num_clicks_accrued": [0, 0, 0, 0, 0, 0, 0, 0, 0, 0, 0, 0, 0], "stateRewards": ["", -2, 4, 48, -24, 2, 8, 24, 48, 2, 4, -24, -48], "withholdReward": true, "trial_id": "mdp_892412058587", "block": "test2", "trialIndex": 47, "score": 54.75, "costs": -0.25, "simulationMode": [null, null, null], "rewards": [-2, 4, 48], "path": ["0", "0", "1", "2", "3"], "rt": [2765, 504, 534], "actions": ["up", "up", "right"], "actionTimes": [4833, 5899, 6957], "queries": {"click": {"state": {"target": ["3"], "time": [3263]}, "edge": {"target": [], "time": []}}, "mouseover": {"state": {"target": ["3"], "time": [2916]}, "edge": {"target": [], "time": []}}, "mouseout": {"state": {"target": ["0", "0"], "time": [1016, 2620]}, "edge": {"target": [], "time": []}}}, "displayed_time": "11.55", "trialTime": 12857, "trial_type": "mouselab-mdp", "trial_index": 55, "time_elapsed": 1199587, "internal_node_id": "0.0-4.0-3.0-15.0"}}, {"uniqueid": "w11202882:a36625149", "current_trial": 56, "dateTime": 1664369426469, "trialdata": {"revealed_states": [], "num_clicks_accrued": [0, 0, 0, 0, 0, 0, 0, 0, 0, 0, 0, 0, 0], "stateRewards": ["", 2, -4, 24, 48, -2, 4, -48, -48, -4, 4, 24, -24], "withholdReward": true, "trial_id": "mdp_900363662757", "block": "test2", "trialIndex": 48, "score": 50.25, "costs": -0.75, "simulationMode": [null, null, null], "rewards": [2, -4, 48], "path": ["0", "0", "1", "2", "4"], "rt": [5362, 520, 573], "actions": ["up", "up", "left"], "actionTimes": [7230, 8267, 9416], "queries": {"click": {"state": {"target": ["11", "3", "4"], "time": [3483, 5066, 5870]}, "edge": {"target": [], "time": []}}, "mouseover": {"state": {"target": ["9", "11", "10", "9", "3", "2", "4", "2"], "time": [2694, 3095, 4205, 4360, 4809, 5526, 5594, 6542]}, "edge": {"target": [], "time": []}}, "mouseout": {"state": {"target": ["3", "0", "9", "11", "10", "9", "3", "2", "4"], "time": [823, 2643, 2726, 4130, 4274, 4425, 5393, 5562, 6491]}, "edge": {"target": [], "time": []}}}, "displayed_time": "9.99", "trialTime": 12152, "trial_type": "mouselab-mdp", "trial_index": 56, "time_elapsed": 1212381, "internal_node_id": "0.0-4.0-3.0-16.0"}}, {"uniqueid": "w11202882:a36625149", "current_trial": 57, "dateTime": 1664369439460, "trialdata": {"revealed_states": [], "num_clicks_accrued": [0, 0, 0, 0, 0, 0, 0, 0, 0, 0, 0, 0, 0], "stateRewards": ["", -4, -8, 48, 24, 4, -8, 24, -48, -2, -8, 24, -48], "withholdReward": true, "trial_id": "mdp_952038635544", "block": "test2", "trialIndex": 49, "score": 40.5, "costs": -0.5, "simulationMode": [null, null, null], "rewards": [-4, -8, 48], "path": ["0", "0", "1", "2", "3"], "rt": [4737, 374, 413], "actions": ["up", "up", "right"], "actionTimes": [6921, 7838, 8783], "queries": {"click": {"state": {"target": ["4", "3"], "time": [3752, 5464]}, "edge": {"target": [], "time": []}}, "mouseover": {"state": {"target": ["4", "2", "3"], "time": [3275, 4839, 4978]}, "edge": {"target": [], "time": []}}, "mouseout": {"state": {"target": ["2", "1", "4", "2"], "time": [640, 908, 4769, 4876]}, "edge": {"target": [], "time": []}}}, "displayed_time": "11.39", "trialTime": 12369, "trial_type": "mouselab-mdp", "trial_index": 57, "time_elapsed": 1225371, "internal_node_id": "0.0-4.0-3.0-17.0"}}, {"uniqueid": "w11202882:a36625149", "current_trial": 58, "dateTime": 1664369454611, "trialdata": {"revealed_states": [], "num_clicks_accrued": [0, 0, 0, 0, 0, 0, 0, 0, 0, 0, 0, 0, 0], "stateRewards": ["", 2, -4, -24, 24, 2, 8, 48, 48, 2, -8, 48, -24], "withholdReward": false, "trial_id": "mdp_330392242530", "block": "test2", "trialIndex": 50, "score": 46.25, "costs": -0.75, "simulationMode": [null, null, null], "rewards": [2, -8, 48], "path": ["0", "0", "9", "10", "11"], "rt": [4883, 365, 355], "actions": ["left", "left", "up"], "actionTimes": [7027, 7936, 8835], "queries": {"click": {"state": {"target": ["3", "12", "11"], "time": [3010, 4610, 5611]}, "edge": {"target": [], "time": []}}, "mouseover": {"state": {"target": ["0", "3", "4", "10", "12", "10", "11", "4"], "time": [2217, 2760, 3540, 3894, 4076, 5127, 5310, 6099]}, "edge": {"target": [], "time": []}}, "mouseout": {"state": {"target": ["3", "12", "0", "0", "3", "4", "10", "12", "10", "11"], "time": [652, 1025, 1424, 2593, 3465, 3611, 3944, 5102, 5193, 5929]}, "edge": {"target": [], "time": []}}}, "displayed_time": "11.45", "trialTime": 14484, "trial_type": "mouselab-mdp", "trial_index": 58, "time_elapsed": 1240523, "internal_node_id": "0.0-4.0-3.0-18.0"}}, {"uniqueid": "w11202882:a36625149", "current_trial": 59, "dateTime": 1664369468247, "trialdata": {"revealed_states": [], "num_clicks_accrued": [0, 0, 0, 0, 0, 0, 0, 0, 0, 0, 0, 0, 0], "stateRewards": ["", 2, -4, -48, 24, 4, 4, 48, -48, -2, -4, -24, -48], "withholdReward": false, "trial_id": "mdp_858916930936", "block": "test2", "trialIndex": 51, "score": 60, "costs": -1, "simulationMode": [null, null, null], "rewards": [4, 4, 48], "path": ["0", "0", "5", "6", "7"], "rt": [5244, 600, 1040], "actions": ["right", "right", "up"], "actionTimes": [7359, 8511, 10101], "queries": {"click": {"state": {"target": ["3", "11", "12", "7"], "time": [3198, 4235, 4993, 5871]}, "edge": {"target": [], "time": []}}, "mouseover": {"state": {"target": ["3", "11", "12", "0", "5", "7", "6", "8"], "time": [2849, 3751, 4721, 5420, 5468, 5669, 6171, 6335]}, "edge": {"target": [], "time": []}}, "mouseout": {"state": {"target": ["4", "11", "3", "11", "12", "0", "5", "7", "6"], "time": [1066, 1192, 3582, 4650, 5189, 5455, 5536, 6138, 6270]}, "edge": {"target": [], "time": []}}}, "displayed_time": "10.63", "trialTime": 12937, "trial_type": "mouselab-mdp", "trial_index": 59, "time_elapsed": 1254160, "internal_node_id": "0.0-4.0-3.0-19.0"}}, {"uniqueid": "w11202882:a36625149", "current_trial": 60, "dateTime": 1664369481415, "trialdata": {"revealed_states": [], "num_clicks_accrued": [0, 0, 0, 0, 0, 0, 0, 0, 0, 0, 0, 0, 0], "stateRewards": ["", 2, 8, -24, -48, 2, 4, -24, 48, 2, -8, 48, -24], "withholdReward": true, "trial_id": "mdp_791659307216", "block": "test2", "trialIndex": 52, "score": 46.75, "costs": -0.25, "simulationMode": [null, null, null], "rewards": [2, -8, 48], "path": ["0", "0", "9", "10", "11"], "rt": [2965, 443, 636], "actions": ["left", "left", "up"], "actionTimes": [4664, 5656, 6939], "queries": {"click": {"state": {"target": ["11"], "time": [3038]}, "edge": {"target": [], "time": []}}, "mouseover": {"state": {"target": ["11"], "time": [2692]}, "edge": {"target": [], "time": []}}, "mouseout": {"state": {"target": ["8", "0"], "time": [775, 2294]}, "edge": {"target": [], "time": []}}}, "displayed_time": "10.88", "trialTime": 12276, "trial_type": "mouselab-mdp", "trial_index": 60, "time_elapsed": 1267328, "internal_node_id": "0.0-4.0-3.0-20.0"}}, {"uniqueid": "w11202882:a36625149", "current_trial": 61, "dateTime": 1664369494844, "trialdata": {"revealed_states": [], "num_clicks_accrued": [0, 0, 0, 0, 0, 0, 0, 0, 0, 0, 0, 0, 0], "stateRewards": ["", 2, 4, -48, 48, -4, 8, -48, -24, -4, -4, 48, 48], "withholdReward": true, "trial_id": "mdp_613582696541", "block": "test2", "trialIndex": 53, "score": 44.25, "costs": -0.75, "simulationMode": [null, null, null], "rewards": [-4, -4, 48], "path": ["0", "0", "9", "10", "12"], "rt": [4504, 802, 542], "actions": ["left", "left", "down"], "actionTimes": [6303, 7630, 8721], "queries": {"click": {"state": {"target": ["3", "7", "12"], "time": [2824, 3899, 4926]}, "edge": {"target": [], "time": []}}, "mouseover": {"state": {"target": ["3", "7", "0", "12"], "time": [2661, 3643, 4476, 4691]}, "edge": {"target": [], "time": []}}, "mouseout": {"state": {"target": ["11", "3", "7", "0", "12"], "time": [526, 3406, 4391, 4538, 5509]}, "edge": {"target": [], "time": []}}}, "displayed_time": "11.28", "trialTime": 12528, "trial_type": "mouselab-mdp", "trial_index": 61, "time_elapsed": 1280757, "internal_node_id": "0.0-4.0-3.0-21.0"}}, {"uniqueid": "w11202882:a36625149", "current_trial": 62, "dateTime": 1664369511573, "trialdata": {"revealed_states": [], "num_clicks_accrued": [0, 0, 0, 0, 0, 0, 0, 0, 0, 0, 0, 0, 0], "stateRewards": ["", 2, -8, -24, 48, 4, -8, -24, -24, 2, 8, -24, 24], "withholdReward": true, "trial_id": "mdp_480787552818", "block": "test2", "trialIndex": 54, "score": 46, "costs": -1, "simulationMode": [null, null, null], "rewards": [2, -8, 48], "path": ["0", "0", "1", "2", "4"], "rt": [7770, 450, 580], "actions": ["up", "up", "left"], "actionTimes": [10518, 11519, 12632], "queries": {"click": {"state": {"target": ["11", "12", "3", "4"], "time": [4898, 6182, 7938, 9002]}, "edge": {"target": [], "time": []}}, "mouseover": {"state": {"target": ["0", "11", "11", "10", "12", "9", "1", "3", "2", "4"], "time": [3967, 4055, 4581, 5582, 5998, 6898, 6998, 7265, 8501, 8682]}, "edge": {"target": [], "time": []}}, "mouseout": {"state": {"target": ["12", "0", "0", "11", "11", "10", "12", "9", "1", "3", "2"], "time": [579, 1011, 4023, 4136, 5532, 5782, 6830, 6932, 7115, 8367, 8614]}, "edge": {"target": [], "time": []}}}, "displayed_time": "13.19", "trialTime": 15024, "trial_type": "mouselab-mdp", "trial_index": 62, "time_elapsed": 1297486, "internal_node_id": "0.0-4.0-3.0-22.0"}}, {"uniqueid": "w11202882:a36625149", "current_trial": 63, "dateTime": 1664369528521, "trialdata": {"revealed_states": [], "num_clicks_accrued": [0, 0, 0, 0, 0, 0, 0, 0, 0, 0, 0, 0, 0], "stateRewards": ["", -4, 4, -48, -48, -2, -8, -48, -24, 4, 8, -24, 24], "withholdReward": false, "trial_id": "mdp_449260894259", "block": "test2", "trialIndex": 55, "score": 39.5, "costs": -1.5, "simulationMode": [null, null, null], "rewards": [4, 8, 24], "path": ["0", "0", "9", "10", "12"], "rt": [9607, 481, 451], "actions": ["left", "left", "down"], "actionTimes": [11618, 12644, 13610], "queries": {"click": {"state": {"target": ["4", "7", "8", "11", "12", "3"], "time": [3183, 4236, 5136, 6376, 8474, 9687]}, "edge": {"target": [], "time": []}}, "mouseover": {"state": {"target": ["9", "4", "1", "7", "6", "8", "9", "11", "10", "12", "3"], "time": [2534, 2955, 3764, 3969, 4775, 4855, 5651, 6003, 6792, 8210, 9386]}, "edge": {"target": [], "time": []}}, "mouseout": {"state": {"target": ["4", "9", "4", "1", "7", "6", "8", "9", "11", "10", "12", "3"], "time": [749, 2650, 3736, 3809, 4692, 4803, 5521, 5853, 6769, 6868, 8868, 10005]}, "edge": {"target": [], "time": []}}}, "displayed_time": "14.14", "trialTime": 16236, "trial_type": "mouselab-mdp", "trial_index": 63, "time_elapsed": 1314434, "internal_node_id": "0.0-4.0-3.0-23.0"}}, {"uniqueid": "w11202882:a36625149", "current_trial": 64, "dateTime": 1664369542646, "trialdata": {"revealed_states": [], "num_clicks_accrued": [0, 0, 0, 0, 0, 0, 0, 0, 0, 0, 0, 0, 0], "stateRewards": ["", 2, 4, 48, 48, 4, -8, 24, -48, -4, -8, -24, -48], "withholdReward": true, "trial_id": "mdp_343818007251", "block": "test2", "trialIndex": 56, "score": 58.25, "costs": -0.75, "simulationMode": [null, null, null], "rewards": [2, 4, 48], "path": ["0", "0", "1", "2", "3"], "rt": [4639, 477, 618], "actions": ["up", "up", "right"], "actionTimes": [6934, 7952, 9124], "queries": {"click": {"state": {"target": ["12", "11", "3"], "time": [3531, 4714, 5576]}, "edge": {"target": [], "time": []}}, "mouseover": {"state": {"target": ["9", "12", "10", "11", "11", "1", "3"], "time": [3070, 3286, 4085, 4173, 4521, 5121, 5304]}, "edge": {"target": [], "time": []}}, "mouseout": {"state": {"target": ["0", "9", "12", "10", "11", "11", "1"], "time": [2969, 3136, 4037, 4134, 4273, 5032, 5154]}, "edge": {"target": [], "time": []}}}, "displayed_time": "12.61", "trialTime": 13568, "trial_type": "mouselab-mdp", "trial_index": 64, "time_elapsed": 1328558, "internal_node_id": "0.0-4.0-3.0-24.0"}}, {"uniqueid": "w11202882:a36625149", "current_trial": 65, "dateTime": 1664369557777, "trialdata": {"revealed_states": [], "num_clicks_accrued": [0, 0, 0, 0, 0, 0, 0, 0, 0, 0, 0, 0, 0], "stateRewards": ["", 2, -4, -24, -48, -2, 8, -24, 48, -2, 8, 24, -48], "withholdReward": true, "trial_id": "mdp_566582551557", "block": "test2", "trialIndex": 57, "score": 58.75, "costs": -0.25, "simulationMode": [null, null, null], "rewards": [-2, 8, 48], "path": ["0", "0", "5", "6", "8"], "rt": [4302, 441, 648], "actions": ["right", "right", "down"], "actionTimes": [8992, 9972, 11179], "queries": {"click": {"state": {"target": ["8"], "time": [7198]}, "edge": {"target": [], "time": []}}, "mouseover": {"state": {"target": ["8"], "time": [7073]}, "edge": {"target": [], "time": []}}, "mouseout": {"state": {"target": ["3", "0", "8"], "time": [803, 6537, 7823]}, "edge": {"target": [], "time": []}}}, "displayed_time": "11.77", "trialTime": 14163, "trial_type": "mouselab-mdp", "trial_index": 65, "time_elapsed": 1343689, "internal_node_id": "0.0-4.0-3.0-25.0"}}, {"uniqueid": "w11202882:a36625149", "current_trial": 66, "dateTime": 1664369572505, "trialdata": {"revealed_states": [], "num_clicks_accrued": [0, 0, 0, 0, 0, 0, 0, 0, 0, 0, 0, 0, 0], "stateRewards": ["", -2, 8, -24, 48, -4, 4, -48, 24, 4, -8, 48, -24], "withholdReward": true, "trial_id": "mdp_425320427962", "block": "test2", "trialIndex": 58, "score": 58, "costs": -1, "simulationMode": [null, null, null], "rewards": [-2, 8, 48], "path": ["0", "0", "1", "2", "4"], "rt": [6662, 583, 453], "actions": ["up", "up", "left"], "actionTimes": [8864, 9961, 10960], "queries": {"click": {"state": {"target": ["8", "7", "3", "4"], "time": [4020, 5327, 6288, 7339]}, "edge": {"target": [], "time": []}}, "mouseover": {"state": {"target": ["8", "7", "3", "2", "4", "4", "9"], "time": [3662, 4918, 6093, 6820, 6973, 7184, 7925]}, "edge": {"target": [], "time": []}}, "mouseout": {"state": {"target": ["0", "8", "7", "3", "2", "4", "4", "9"], "time": [3079, 4790, 5895, 6753, 6870, 7040, 7775, 7969]}, "edge": {"target": [], "time": []}}}, "displayed_time": "12.49", "trialTime": 14082, "trial_type": "mouselab-mdp", "trial_index": 66, "time_elapsed": 1358417, "internal_node_id": "0.0-4.0-3.0-26.0"}}, {"uniqueid": "w11202882:a36625149", "current_trial": 67, "dateTime": 1664369584442, "trialdata": {"revealed_states": [], "num_clicks_accrued": [0, 0, 0, 0, 0, 0, 0, 0, 0, 0, 0, 0, 0], "stateRewards": ["", -4, -8, 24, -48, 2, 4, -48, -48, 2, -8, 24, 48], "withholdReward": false, "trial_id": "mdp_111262146724", "block": "test2", "trialIndex": 59, "score": 46.75, "costs": -0.25, "simulationMode": [null, null, null], "rewards": [2, -8, 48], "path": ["0", "0", "9", "10", "12"], "rt": [2452, 462, 515], "actions": ["left", "left", "down"], "actionTimes": [4625, 5618, 6692], "queries": {"click": {"state": {"target": ["12"], "time": [3178]}, "edge": {"target": [], "time": []}}, "mouseover": {"state": {"target": ["12"], "time": [2825]}, "edge": {"target": [], "time": []}}, "mouseout": {"state": {"target": ["0", "0"], "time": [1108, 2690]}, "edge": {"target": [], "time": []}}}, "displayed_time": "9.35", "trialTime": 11254, "trial_type": "mouselab-mdp", "trial_index": 67, "time_elapsed": 1370355, "internal_node_id": "0.0-4.0-3.0-27.0"}}, {"uniqueid": "w11202882:a36625149", "current_trial": 68, "dateTime": 1664369602858, "trialdata": {"revealed_states": [], "num_clicks_accrued": [0, 0, 0, 0, 0, 0, 0, 0, 0, 0, 0, 0, 0], "stateRewards": ["", 2, -4, -24, -24, -2, -8, -48, 24, -4, -8, 24, 24], "withholdReward": true, "trial_id": "mdp_521351546461", "block": "test2", "trialIndex": 60, "score": 15.5, "costs": -1.5, "simulationMode": [null, null, null], "rewards": [-4, -8, 24], "path": ["0", "0", "9", "10", "12"], "rt": [10992, 936, 388], "actions": ["left", "left", "down"], "actionTimes": [12960, 14446, 15449], "queries": {"click": {"state": {"target": ["3", "4", "8", "11", "12", "7"], "time": [5758, 6768, 7925, 9039, 9765, 10757]}, "edge": {"target": [], "time": []}}, "mouseover": {"state": {"target": ["0", "3", "2", "4", "0", "8", "10", "11", "10", "12", "6", "7", "6"], "time": [5059, 5399, 6173, 6224, 7301, 7586, 8718, 8818, 9450, 9536, 10273, 10468, 11202]}, "edge": {"target": [], "time": []}}, "mouseout": {"state": {"target": ["12", "0", "0", "3", "2", "4", "0", "8", "10", "11", "10", "12", "6", "7", "6"], "time": [772, 2880, 5103, 6143, 6219, 7193, 7388, 8368, 8740, 9401, 9523, 9986, 10350, 11171, 11243]}, "edge": {"target": [], "time": []}}}, "displayed_time": "15.97", "trialTime": 17889, "trial_type": "mouselab-mdp", "trial_index": 68, "time_elapsed": 1388771, "internal_node_id": "0.0-4.0-3.0-28.0"}}, {"uniqueid": "w11202882:a36625149", "current_trial": 69, "dateTime": 1664369613932, "trialdata": {"revealed_states": [], "num_clicks_accrued": [0, 0, 0, 0, 0, 0, 0, 0, 0, 0, 0, 0, 0], "stateRewards": ["", -2, 8, -48, 48, -4, 8, -24, 24, 4, -4, 24, -48], "withholdReward": true, "trial_id": "mdp_904238083902", "block": "test2", "trialIndex": 61, "score": 58.5, "costs": -0.5, "simulationMode": [null, null, null], "rewards": [-2, 8, 48], "path": ["0", "0", "1", "2", "4"], "rt": [4101, 516, 404], "actions": ["up", "up", "left"], "actionTimes": [5751, 6848, 7823], "queries": {"click": {"state": {"target": ["7", "4"], "time": [3016, 4140]}, "edge": {"target": [], "time": []}}, "mouseover": {"state": {"target": ["0", "0", "6", "7", "1", "4"], "time": [2048, 2408, 2534, 2731, 3583, 3832]}, "edge": {"target": [], "time": []}}, "mouseout": {"state": {"target": ["0", "0", "0", "6", "7", "1", "4"], "time": [1065, 2071, 2450, 2588, 3433, 3623, 4668]}, "edge": {"target": [], "time": []}}}, "displayed_time": "8.76", "trialTime": 10384, "trial_type": "mouselab-mdp", "trial_index": 69, "time_elapsed": 1399843, "internal_node_id": "0.0-4.0-3.0-29.0"}}, {"uniqueid": "w11202882:a36625149", "current_trial": 70, "dateTime": 1664369662007, "trialdata": {"rt": 48064, "stimulus": "<h1> End of block! </h1>\n\nYou have reached the end of the block 2/4. If you need a short break, feel free to take one now before moving on.\n\n<br><br>\nIn the next block, you will complete another 30 rounds of this game.\n\n<br><br>\n<div style='text-align: center;'>Press <code>space</code> to begin.</div>\n<br><br>\n<div style='text-align: center;'>(If the experiment doesn't continue, try clicking on the text and then pressing <code>space</code>.)</div>", "response": " ", "trial_id": "mdp_ready_3", "trial_type": "html-keyboard-response", "trial_index": 70, "time_elapsed": 1447920, "internal_node_id": "0.0-4.0-4.0"}}, {"uniqueid": "w11202882:a36625149", "current_trial": 71, "dateTime": 1664369677626, "trialdata": {"revealed_states": [], "num_clicks_accrued": [0, 0, 0, 0, 0, 0, 0, 0, 0, 0, 0, 0, 0], "stateRewards": ["", -2, 8, 48, 24, 2, -4, 48, -48, 2, 8, 24, -24], "withholdReward": true, "trial_id": "mdp_176207245985", "block": "test3", "trialIndex": 62, "score": 58.5, "costs": -0.5, "simulationMode": [null, null, null], "rewards": [-2, 8, 48], "path": ["0", "0", "1", "2", "3"], "rt": [4905, 398, 438], "actions": ["up", "up", "right"], "actionTimes": [8139, 9085, 10098], "queries": {"click": {"state": {"target": ["11", "3"], "time": [4590, 6715]}, "edge": {"target": [], "time": []}}, "mouseover": {"state": {"target": ["11", "1", "3", "3", "3"], "time": [4315, 5367, 5516, 6033, 6350]}, "edge": {"target": [], "time": []}}, "mouseout": {"state": {"target": ["0", "0", "11", "1", "3", "3"], "time": [2030, 2529, 5266, 5439, 5619, 6117]}, "edge": {"target": [], "time": []}}}, "displayed_time": "13.52", "trialTime": 14902, "trial_type": "mouselab-mdp", "trial_index": 71, "time_elapsed": 1463538, "internal_node_id": "0.0-4.0-5.0-0.0"}}, {"uniqueid": "w11202882:a36625149", "current_trial": 72, "dateTime": 1664369691042, "trialdata": {"revealed_states": [], "num_clicks_accrued": [0, 0, 0, 0, 0, 0, 0, 0, 0, 0, 0, 0, 0], "stateRewards": ["", -2, -4, -24, 48, -2, -8, -48, -24, 4, 8, 48, 24], "withholdReward": true, "trial_id": "mdp_625355871626", "block": "test3", "trialIndex": 63, "score": 64.25, "costs": -0.75, "simulationMode": [null, null, null], "rewards": [4, 8, 48], "path": ["0", "0", "9", "10", "11"], "rt": [5846, 337, 491], "actions": ["left", "left", "up"], "actionTimes": [8294, 9189, 10196], "queries": {"click": {"state": {"target": ["3", "12", "11"], "time": [4015, 5426, 6776]}, "edge": {"target": [], "time": []}}, "mouseover": {"state": {"target": ["1", "3", "2", "11", "10", "12", "10", "11", "11"], "time": [3379, 3644, 4481, 4696, 4763, 4896, 6121, 6181, 6505]}, "edge": {"target": [], "time": []}}, "mouseout": {"state": {"target": ["3", "5", "0", "1", "3", "2", "11", "10", "12", "10", "11", "11"], "time": [492, 977, 3213, 3444, 4428, 4536, 4719, 4813, 6096, 6169, 6217, 7162]}, "edge": {"target": [], "time": []}}}, "displayed_time": "10.80", "trialTime": 12709, "trial_type": "mouselab-mdp", "trial_index": 72, "time_elapsed": 1476954, "internal_node_id": "0.0-4.0-5.0-1.0"}}, {"uniqueid": "w11202882:a36625149", "current_trial": 73, "dateTime": 1664369704845, "trialdata": {"revealed_states": [], "num_clicks_accrued": [0, 0, 0, 0, 0, 0, 0, 0, 0, 0, 0, 0, 0], "stateRewards": ["", 2, 8, -48, 48, -4, -8, 24, 24, -2, -8, 24, -24], "withholdReward": false, "trial_id": "mdp_910248289075", "block": "test3", "trialIndex": 64, "score": 62.75, "costs": -0.25, "simulationMode": [null, null, null], "rewards": [2, 8, 48], "path": ["0", "0", "1", "2", "4"], "rt": [3168, 376, 381], "actions": ["up", "up", "left"], "actionTimes": [7626, 8554, 9478], "queries": {"click": {"state": {"target": ["4"], "time": [6012]}, "edge": {"target": [], "time": []}}, "mouseover": {"state": {"target": ["4", "4", "9"], "time": [5263, 5630, 6577]}, "edge": {"target": [], "time": []}}, "mouseout": {"state": {"target": ["0", "0", "4", "4", "9"], "time": [3576, 3941, 5321, 6416, 6813]}, "edge": {"target": [], "time": []}}}, "displayed_time": "12.70", "trialTime": 13105, "trial_type": "mouselab-mdp", "trial_index": 73, "time_elapsed": 1490758, "internal_node_id": "0.0-4.0-5.0-2.0"}}, {"uniqueid": "w11202882:a36625149", "current_trial": 74, "dateTime": 1664369717109, "trialdata": {"revealed_states": [], "num_clicks_accrued": [0, 0, 0, 0, 0, 0, 0, 0, 0, 0, 0, 0, 0], "stateRewards": ["", 2, 4, 48, -48, 2, 8, -24, 48, 4, 8, 48, -48], "withholdReward": true, "trial_id": "mdp_110142964375", "block": "test3", "trialIndex": 65, "score": 62.75, "costs": -0.25, "simulationMode": [null, null, null], "rewards": [2, 8, 48], "path": ["0", "0", "5", "6", "8"], "rt": [2843, 225, 397], "actions": ["right", "right", "down"], "actionTimes": [4859, 5744, 6681], "queries": {"click": {"state": {"target": ["8"], "time": [3412]}, "edge": {"target": [], "time": []}}, "mouseover": {"state": {"target": ["8"], "time": [3109]}, "edge": {"target": [], "time": []}}, "mouseout": {"state": {"target": ["1", "0", "8"], "time": [857, 2778, 4062]}, "edge": {"target": [], "time": []}}}, "displayed_time": "10.40", "trialTime": 11512, "trial_type": "mouselab-mdp", "trial_index": 74, "time_elapsed": 1503021, "internal_node_id": "0.0-4.0-5.0-3.0"}}, {"uniqueid": "w11202882:a36625149", "current_trial": 75, "dateTime": 1664369728098, "trialdata": {"revealed_states": [], "num_clicks_accrued": [0, 0, 0, 0, 0, 0, 0, 0, 0, 0, 0, 0, 0], "stateRewards": ["", 2, 8, 48, -24, -4, 4, 48, 24, -2, 8, 24, 24], "withholdReward": true, "trial_id": "mdp_123436106791", "block": "test3", "trialIndex": 66, "score": 52.5, "costs": -0.5, "simulationMode": [null, null, null], "rewards": [-4, 4, 48], "path": ["0", "0", "5", "6", "7"], "rt": [4260, 448, 432], "actions": ["right", "right", "up"], "actionTimes": [5865, 6861, 7854], "queries": {"click": {"state": {"target": ["11", "7"], "time": [3148, 4437]}, "edge": {"target": [], "time": []}}, "mouseover": {"state": {"target": ["4", "11", "11", "5", "6", "7", "7", "6", "8"], "time": [2461, 2733, 2881, 3696, 3781, 3979, 4281, 4815, 4980]}, "edge": {"target": [], "time": []}}, "mouseout": {"state": {"target": ["8", "0", "4", "11", "11", "5", "6", "7", "7", "6"], "time": [620, 2119, 2662, 2781, 3597, 3753, 3838, 4015, 4764, 4899]}, "edge": {"target": [], "time": []}}}, "displayed_time": "8.69", "trialTime": 10167, "trial_type": "mouselab-mdp", "trial_index": 75, "time_elapsed": 1514011, "internal_node_id": "0.0-4.0-5.0-4.0"}}, {"uniqueid": "w11202882:a36625149", "current_trial": 76, "dateTime": 1664369750442, "trialdata": {"revealed_states": [], "num_clicks_accrued": [0, 0, 0, 0, 0, 0, 0, 0, 0, 0, 0, 0, 0], "stateRewards": ["", -4, 4, -48, -48, -2, -8, -48, -24, 4, 8, -24, 24], "withholdReward": true, "trial_id": "mdp_449260894259", "block": "test3", "trialIndex": 67, "score": 39.5, "costs": -1.5, "simulationMode": [null, null, null], "rewards": [4, 8, 24], "path": ["0", "0", "9", "10", "12"], "rt": [10333, 313, 856], "actions": ["left", "left", "down"], "actionTimes": [14370, 15236, 16617], "queries": {"click": {"state": {"target": ["12", "8", "7", "11", "4", "3"], "time": [5596, 7833, 8881, 10524, 11393, 12841]}, "edge": {"target": [], "time": []}}, "mouseover": {"state": {"target": ["12", "8", "6", "7", "1", "11", "11", "11", "4", "2", "3"], "time": [5283, 7593, 8393, 8551, 9386, 9484, 9751, 10082, 11050, 11920, 12426]}, "edge": {"target": [], "time": []}}, "mouseout": {"state": {"target": ["8", "0", "12", "8", "6", "7", "1", "11", "11", "11", "4", "2", "3"], "time": [314, 4931, 6886, 8352, 8487, 9316, 9456, 9550, 9801, 11026, 11868, 12003, 13134]}, "edge": {"target": [], "time": []}}}, "displayed_time": "17.17", "trialTime": 18955, "trial_type": "mouselab-mdp", "trial_index": 76, "time_elapsed": 1536355, "internal_node_id": "0.0-4.0-5.0-5.0"}}, {"uniqueid": "w11202882:a36625149", "current_trial": 77, "dateTime": 1664369764462, "trialdata": {"revealed_states": [], "num_clicks_accrued": [0, 0, 0, 0, 0, 0, 0, 0, 0, 0, 0, 0, 0], "stateRewards": ["", -4, 8, -24, -24, 2, 4, 48, 48, -2, 4, 24, -48], "withholdReward": false, "trial_id": "mdp_397308196941", "block": "test3", "trialIndex": 68, "score": 57.75, "costs": -1.25, "simulationMode": [null, null, null], "rewards": [2, 4, 48], "path": ["0", "0", "5", "6", "7"], "rt": [7548, 392, 414], "actions": ["right", "right", "up"], "actionTimes": [9109, 10028, 10978], "queries": {"click": {"state": {"target": ["4", "3", "12", "11", "7"], "time": [2746, 3636, 4761, 5973, 7673]}, "edge": {"target": [], "time": []}}, "mouseover": {"state": {"target": ["1", "4", "2", "3", "6", "12", "10", "11", "11", "5", "6", "7"], "time": [2338, 2456, 3219, 3338, 3925, 4420, 5171, 5447, 5689, 6539, 6579, 7340]}, "edge": {"target": [], "time": []}}, "mouseout": {"state": {"target": ["5", "1", "4", "2", "3", "6", "12", "10", "11", "11", "5", "6", "7"], "time": [818, 2400, 3177, 3329, 3724, 3987, 5108, 5221, 5495, 6242, 6568, 6616, 8011]}, "edge": {"target": [], "time": []}}}, "displayed_time": "11.50", "trialTime": 13291, "trial_type": "mouselab-mdp", "trial_index": 77, "time_elapsed": 1550375, "internal_node_id": "0.0-4.0-5.0-6.0"}}, {"uniqueid": "w11202882:a36625149", "current_trial": 78, "dateTime": 1664369781118, "trialdata": {"revealed_states": [], "num_clicks_accrued": [0, 0, 0, 0, 0, 0, 0, 0, 0, 0, 0, 0, 0], "stateRewards": ["", -2, -4, -24, -48, -2, 8, -48, 24, 4, -4, -24, -24], "withholdReward": false, "trial_id": "mdp_915304165774", "block": "test3", "trialIndex": 69, "score": 33.5, "costs": -1.5, "simulationMode": [null, null, null], "rewards": [-2, 8, 24], "path": ["0", "0", "5", "6", "8"], "rt": [8840, 356, 518], "actions": ["right", "right", "down"], "actionTimes": [10629, 11536, 12604], "queries": {"click": {"state": {"target": ["7", "12", "11", "8", "3", "4"], "time": [3035, 4281, 5250, 6074, 6994, 9103]}, "edge": {"target": [], "time": []}}, "mouseover": {"state": {"target": ["5", "7", "5", "12", "10", "11", "10", "8", "3", "2", "4", "4", "0"], "time": [2586, 2760, 3499, 3943, 4896, 4962, 5528, 5811, 6812, 7219, 7712, 8116, 9563]}, "edge": {"target": [], "time": []}}, "mouseout": {"state": {"target": ["0", "5", "7", "5", "12", "10", "11", "10", "8", "3", "2", "4", "4", "0"], "time": [2508, 2644, 3477, 3548, 4827, 4915, 5476, 5552, 6528, 7195, 7279, 7811, 9480, 9592]}, "edge": {"target": [], "time": []}}}, "displayed_time": "13.12", "trialTime": 14746, "trial_type": "mouselab-mdp", "trial_index": 78, "time_elapsed": 1567031, "internal_node_id": "0.0-4.0-5.0-7.0"}}, {"uniqueid": "w11202882:a36625149", "current_trial": 79, "dateTime": 1664369795486, "trialdata": {"revealed_states": [], "num_clicks_accrued": [0, 0, 0, 0, 0, 0, 0, 0, 0, 0, 0, 0, 0], "stateRewards": ["", -4, 8, 48, -48, 2, -4, 24, -24, -2, 4, -24, -24], "withholdReward": false, "trial_id": "mdp_804988042722", "block": "test3", "trialIndex": 70, "score": 56.5, "costs": -0.5, "simulationMode": [null, null, null], "rewards": [-4, 8, 48], "path": ["0", "0", "1", "2", "3"], "rt": [3716, 444, 510], "actions": ["up", "up", "right"], "actionTimes": [5748, 6736, 7795], "queries": {"click": {"state": {"target": ["8", "3"], "time": [3242, 4322]}, "edge": {"target": [], "time": []}}, "mouseover": {"state": {"target": ["8", "3"], "time": [2817, 3968]}, "edge": {"target": [], "time": []}}, "mouseout": {"state": {"target": ["5", "0", "8"], "time": [897, 2626, 3717]}, "edge": {"target": [], "time": []}}}, "displayed_time": "12.29", "trialTime": 13713, "trial_type": "mouselab-mdp", "trial_index": 79, "time_elapsed": 1581399, "internal_node_id": "0.0-4.0-5.0-8.0"}}, {"uniqueid": "w11202882:a36625149", "current_trial": 80, "dateTime": 1664369810336, "trialdata": {"revealed_states": [], "num_clicks_accrued": [0, 0, 0, 0, 0, 0, 0, 0, 0, 0, 0, 0, 0], "stateRewards": ["", 2, 4, -24, -24, 4, 8, -48, 48, 2, 4, -24, -48], "withholdReward": false, "trial_id": "mdp_565165082781", "block": "test3", "trialIndex": 71, "score": 63.5, "costs": -1.5, "simulationMode": [null, null, null], "rewards": [4, 8, 48], "path": ["0", "0", "5", "6", "8"], "rt": [8167, 498, 411], "actions": ["right", "right", "down"], "actionTimes": [9928, 10983, 11919], "queries": {"click": {"state": {"target": ["4", "3", "12", "11", "7", "8"], "time": [3249, 4222, 5246, 6164, 7263, 8252]}, "edge": {"target": [], "time": []}}, "mouseover": {"state": {"target": ["4", "4", "3", "12", "10", "11", "5", "6", "7", "6", "8"], "time": [2328, 2981, 3993, 4963, 5736, 5912, 6496, 6530, 6992, 7512, 7582]}, "edge": {"target": [], "time": []}}, "mouseout": {"state": {"target": ["3", "4", "4", "3", "12", "10", "11", "5", "6", "7", "6", "8"], "time": [749, 2427, 3662, 4617, 5712, 5813, 6330, 6519, 6569, 7461, 7537, 8612]}, "edge": {"target": [], "time": []}}}, "displayed_time": "12.50", "trialTime": 14267, "trial_type": "mouselab-mdp", "trial_index": 80, "time_elapsed": 1596249, "internal_node_id": "0.0-4.0-5.0-9.0"}}, {"uniqueid": "w11202882:a36625149", "current_trial": 81, "dateTime": 1664369825128, "trialdata": {"revealed_states": [], "num_clicks_accrued": [0, 0, 0, 0, 0, 0, 0, 0, 0, 0, 0, 0, 0], "stateRewards": ["", 2, -8, -24, -48, -2, -4, 48, 48, 4, 8, 48, 48], "withholdReward": true, "trial_id": "mdp_347285045422", "block": "test3", "trialIndex": 72, "score": 46.75, "costs": -0.25, "simulationMode": [null, null, null], "rewards": [-2, -4, 48], "path": ["0", "0", "5", "6", "8"], "rt": [2724, 458, 467], "actions": ["right", "right", "down"], "actionTimes": [5263, 6252, 7282], "queries": {"click": {"state": {"target": ["8"], "time": [3714]}, "edge": {"target": [], "time": []}}, "mouseover": {"state": {"target": ["0", "8"], "time": [3059, 3446]}, "edge": {"target": [], "time": []}}, "mouseout": {"state": {"target": ["0", "8"], "time": [3083, 3946]}, "edge": {"target": [], "time": []}}}, "displayed_time": "12.71", "trialTime": 13921, "trial_type": "mouselab-mdp", "trial_index": 81, "time_elapsed": 1611040, "internal_node_id": "0.0-4.0-5.0-10.0"}}, {"uniqueid": "w11202882:a36625149", "current_trial": 82, "dateTime": 1664369836628, "trialdata": {"revealed_states": [], "num_clicks_accrued": [0, 0, 0, 0, 0, 0, 0, 0, 0, 0, 0, 0, 0], "stateRewards": ["", 2, -4, 48, -24, 4, -8, -24, 48, -2, -4, 24, -48], "withholdReward": true, "trial_id": "mdp_357328205509", "block": "test3", "trialIndex": 73, "score": 48.75, "costs": -0.25, "simulationMode": [null, null, null], "rewards": [4, -8, 48], "path": ["0", "0", "5", "6", "8"], "rt": [3219, 526, 482], "actions": ["right", "right", "down"], "actionTimes": [5056, 6134, 7155], "queries": {"click": {"state": {"target": ["8"], "time": [3228]}, "edge": {"target": [], "time": []}}, "mouseover": {"state": {"target": ["0", "8"], "time": [2636, 2951]}, "edge": {"target": [], "time": []}}, "mouseout": {"state": {"target": ["0", "0"], "time": [1170, 2716]}, "edge": {"target": [], "time": []}}}, "displayed_time": "8.90", "trialTime": 10354, "trial_type": "mouselab-mdp", "trial_index": 82, "time_elapsed": 1622540, "internal_node_id": "0.0-4.0-5.0-11.0"}}, {"uniqueid": "w11202882:a36625149", "current_trial": 83, "dateTime": 1664369852212, "trialdata": {"revealed_states": [], "num_clicks_accrued": [0, 0, 0, 0, 0, 0, 0, 0, 0, 0, 0, 0, 0], "stateRewards": ["", 4, -4, 24, 48, 4, 8, -24, -24, -2, 4, 48, 48], "withholdReward": true, "trial_id": "mdp_624998450453", "block": "test3", "trialIndex": 74, "score": 52, "costs": -1, "simulationMode": [null, null, null], "rewards": [4, -4, 48], "path": ["0", "0", "1", "2", "4"], "rt": [5827, 497, 494], "actions": ["up", "up", "left"], "actionTimes": [8074, 9121, 10136], "queries": {"click": {"state": {"target": ["8", "7", "3", "4"], "time": [3239, 4595, 5536, 6528]}, "edge": {"target": [], "time": []}}, "mouseover": {"state": {"target": ["0", "8", "6", "7", "3", "2", "4"], "time": [2622, 2969, 4059, 4271, 5221, 6037, 6237]}, "edge": {"target": [], "time": []}}, "mouseout": {"state": {"target": ["8", "0", "0", "8", "6", "7", "3", "2", "4"], "time": [1316, 1715, 2657, 4017, 4169, 5121, 5884, 6137, 7086]}, "edge": {"target": [], "time": []}}}, "displayed_time": "12.59", "trialTime": 13765, "trial_type": "mouselab-mdp", "trial_index": 83, "time_elapsed": 1638124, "internal_node_id": "0.0-4.0-5.0-12.0"}}, {"uniqueid": "w11202882:a36625149", "current_trial": 84, "dateTime": 1664369873819, "trialdata": {"revealed_states": [], "num_clicks_accrued": [0, 0, 0, 0, 0, 0, 0, 0, 0, 0, 0, 0, 0], "stateRewards": ["", -2, 4, -48, 24, -4, 8, 48, 24, -2, 4, -48, -24], "withholdReward": true, "trial_id": "mdp_740882974347", "block": "test3", "trialIndex": 75, "score": 55.75, "costs": -1.25, "simulationMode": [null, null, null], "rewards": [-4, 8, 48], "path": ["0", "0", "5", "6", "7"], "rt": [9504, 434, 439], "actions": ["right", "right", "up"], "actionTimes": [13801, 14792, 15763], "queries": {"click": {"state": {"target": ["11", "12", "3", "4", "7"], "time": [6843, 8793, 10281, 11244, 12356]}, "edge": {"target": [], "time": []}}, "mouseover": {"state": {"target": ["0", "11", "10", "12", "9", "3", "2", "4", "7", "6", "8"], "time": [5890, 6318, 8234, 8455, 9400, 9871, 10766, 10903, 12152, 12627, 12871]}, "edge": {"target": [], "time": []}}, "mouseout": {"state": {"target": ["0", "0", "11", "10", "12", "9", "3", "2", "4", "7", "6", "8"], "time": [4691, 6002, 8168, 8386, 9362, 9439, 10736, 10836, 11787, 12602, 12820, 12903]}, "edge": {"target": [], "time": []}}}, "displayed_time": "16.30", "trialTime": 18330, "trial_type": "mouselab-mdp", "trial_index": 84, "time_elapsed": 1659732, "internal_node_id": "0.0-4.0-5.0-13.0"}}, {"uniqueid": "w11202882:a36625149", "current_trial": 85, "dateTime": 1664369916231, "trialdata": {"revealed_states": [], "num_clicks_accrued": [0, 0, 0, 0, 0, 0, 0, 0, 0, 0, 0, 0, 0], "stateRewards": ["", 2, -4, 48, -48, -2, 8, -48, 24, -2, -8, 48, 48], "withholdReward": true, "trial_id": "mdp_949326095747", "block": "test3", "trialIndex": 76, "score": 34.25, "costs": -0.75, "simulationMode": [null, null, null], "rewards": [-2, 8, 24], "path": ["0", "0", "5", "6", "8"], "rt": [6272, 29056, 1276], "actions": ["right", "right", "down"], "actionTimes": [8227, 37807, 39617], "queries": {"click": {"state": {"target": ["4", "7", "3"], "time": [3464, 5622, 6817]}, "edge": {"target": [], "time": []}}, "mouseover": {"state": {"target": ["1", "4", "7", "3", "3", "7", "7", "3", "3"], "time": [2426, 2577, 4227, 4427, 4827, 4956, 5321, 6229, 6529]}, "edge": {"target": [], "time": []}}, "mouseout": {"state": {"target": ["8", "0", "1", "4", "7", "3", "3", "7", "7", "3", "3", "5", "8"], "time": [941, 1258, 2449, 4045, 4293, 4497, 4895, 5077, 6196, 6277, 20766, 21352, 36108]}, "edge": {"target": [], "time": []}}}, "displayed_time": "40.15", "trialTime": 41877, "trial_type": "mouselab-mdp", "trial_index": 85, "time_elapsed": 1702144, "internal_node_id": "0.0-4.0-5.0-14.0"}}, {"uniqueid": "w11202882:a36625149", "current_trial": 86, "dateTime": 1664369928992, "trialdata": {"revealed_states": [], "num_clicks_accrued": [0, 0, 0, 0, 0, 0, 0, 0, 0, 0, 0, 0, 0], "stateRewards": ["", -2, 4, 24, 48, 2, 4, -48, -48, 2, 8, 48, -48], "withholdReward": true, "trial_id": "mdp_409609775558", "block": "test3", "trialIndex": 77, "score": 54.5, "costs": -0.5, "simulationMode": [null, null, null], "rewards": [-2, 4, 48], "path": ["0", "0", "1", "2", "4"], "rt": [3784, 362, 1205], "actions": ["up", "up", "left"], "actionTimes": [5787, 6744, 9127], "queries": {"click": {"state": {"target": ["3", "4"], "time": [2974, 3873]}, "edge": {"target": [], "time": []}}, "mouseover": {"state": {"target": ["1", "3", "4"], "time": [2555, 2755, 3729]}, "edge": {"target": [], "time": []}}, "mouseout": {"state": {"target": ["0", "1", "3", "4"], "time": [2440, 2592, 3523, 4847]}, "edge": {"target": [], "time": []}}}, "displayed_time": "9.99", "trialTime": 12046, "trial_type": "mouselab-mdp", "trial_index": 86, "time_elapsed": 1714904, "internal_node_id": "0.0-4.0-5.0-15.0"}}, {"uniqueid": "w11202882:a36625149", "current_trial": 87, "dateTime": 1664369946994, "trialdata": {"revealed_states": [], "num_clicks_accrued": [0, 0, 0, 0, 0, 0, 0, 0, 0, 0, 0, 0, 0], "stateRewards": ["", -2, 4, 48, -24, 2, 8, 24, 48, 2, 4, -24, -48], "withholdReward": true, "trial_id": "mdp_892412058587", "block": "test3", "trialIndex": 78, "score": 54.5, "costs": -0.5, "simulationMode": [null, null, null], "rewards": [-2, 4, 48], "path": ["0", "0", "1", "2", "3"], "rt": [9625, 453, 451], "actions": ["up", "up", "right"], "actionTimes": [11944, 12946, 13976], "queries": {"click": {"state": {"target": ["4", "3"], "time": [9174, 10356]}, "edge": {"target": [], "time": []}}, "mouseover": {"state": {"target": ["1", "4", "2", "3"], "time": [8730, 8964, 9846, 10080]}, "edge": {"target": [], "time": []}}, "mouseout": {"state": {"target": ["1", "4", "2", "3"], "time": [8871, 9774, 9985, 10