{"condition": 0, "counterbalance": 0, "assignmentId": "a60433848", "workerId": "w28903728", "hitId": "h13928768", "currenttrial": 959, "bonus": 0, "data": [{"uniqueid": "w28903728:a60433848", "current_trial": 0, "dateTime": 1664555401365, "trialdata": {"success": true, "trial_type": "fullscreen", "trial_index": 0, "time_elapsed": 15492, "internal_node_id": "0.0-0.0"}}, {"uniqueid": "w28903728:a60433848", "current_trial": 1, "dateTime": 1664555463700, "trialdata": {"view_history": [{"page_index": 0, "viewing_time": 62316}], "rt": 62318, "trial_id": "exp_instructions_distractor", "trial_type": "instructions", "trial_index": 1, "time_elapsed": 77830, "internal_node_id": "0.0-1.0"}}, {"uniqueid": "w28903728:a60433848", "current_trial": 2, "dateTime": 1664555520787, "trialdata": {"view_history": [{"page_index": 0, "viewing_time": 57084}], "rt": 57084, "trial_id": "color_game_instructions", "trial_type": "instructions", "trial_index": 2, "time_elapsed": 134917, "internal_node_id": "0.0-2.0"}}, {"uniqueid": "w28903728:a60433848", "current_trial": 3, "dateTime": 1664555535358, "trialdata": {"rt": 14568, "stimulus": "<h1> Get ready to start the game! </h1>\n\nThank you for reading the instructions. Get ready start with the first of 5 block(s) of this game.\n<br><br>\nIn this first block, you will complete 90 rounds of this game before moving on.\n<br><br>\nRemember, the better you perform, the bigger your bonus will be!\n<br><br>\n<div style='text-align: center;'>Press <code>space</code> to begin.</div>", "response": " ", "trial_id": "stroop_1_ready_1", "trial_type": "html-keyboard-response", "trial_index": 3, "time_elapsed": 149488, "internal_node_id": "0.0-3.0"}}, {"uniqueid": "w28903728:a60433848", "current_trial": 4, "dateTime": 1664555623758, "trialdata": {"rt": 88376, "stimulus": "<p id='stroop-text' class='stroop-blue'>BLUE</p>", "response": "b", "stimulus-type": "congruent", "word": "blue", "color": "blue", "correct_response": "b", "trial_id": "stroop-trial-1-congruent-9", "trial_type": "html-keyboard-response", "trial_index": 4, "time_elapsed": 237885, "internal_node_id": "0.0-4.0-0.0"}}, {"uniqueid": "w28903728:a60433848", "current_trial": 5, "dateTime": 1664555626596, "trialdata": {"rt": 2333, "stimulus": "<p id='stroop-text' class='stroop-yellow'>STONE</p>", "response": "y", "stimulus-type": "unrelated", "word": "STONE", "color": "yellow", "correct_response": "y", "trial_id": "stroop-trial-1-unrelated-3", "trial_type": "html-keyboard-response", "trial_index": 5, "time_elapsed": 240726, "internal_node_id": "0.0-4.0-1.0"}}, {"uniqueid": "w28903728:a60433848", "current_trial": 6, "dateTime": 1664555628447, "trialdata": {"rt": 1344, "stimulus": "<p id='stroop-text' class='stroop-yellow'>BRAIN</p>", "response": "y", "stimulus-type": "unrelated", "word": "BRAIN", "color": "yellow", "correct_response": "y", "trial_id": "stroop-trial-1-unrelated-16", "trial_type": "html-keyboard-response", "trial_index": 6, "time_elapsed": 242576, "internal_node_id": "0.0-4.0-2.0"}}, {"uniqueid": "w28903728:a60433848", "current_trial": 7, "dateTime": 1664555631410, "trialdata": {"rt": 2458, "stimulus": "<p id='stroop-text' class='stroop-blue'>RED</p>", "response": "r", "stimulus-type": "incongruent", "word": "red", "color": "blue", "correct_response": "b", "trial_id": "stroop-trial-1-incongruent-22", "trial_type": "html-keyboard-response", "trial_index": 7, "time_elapsed": 245539, "internal_node_id": "0.0-4.0-3.0"}}, {"uniqueid": "w28903728:a60433848", "current_trial": 8, "dateTime": 1664555634595, "trialdata": {"rt": 2681, "stimulus": "<p id='stroop-text' class='stroop-blue'>RED</p>", "response": "b", "stimulus-type": "incongruent", "word": "red", "color": "blue", "correct_response": "b", "trial_id": "stroop-trial-1-incongruent-14", "trial_type": "html-keyboard-response", "trial_index": 8, "time_elapsed": 248724, "internal_node_id": "0.0-4.0-4.0"}}, {"uniqueid": "w28903728:a60433848", "current_trial": 9, "dateTime": 1664555636289, "trialdata": {"rt": 1190, "stimulus": "<p id='stroop-text' class='stroop-yellow'>STONE</p>", "response": "y", "stimulus-type": "unrelated", "word": "STONE", "color": "yellow", "correct_response": "y", "trial_id": "stroop-trial-1-unrelated-28", "trial_type": "html-keyboard-response", "trial_index": 9, "time_elapsed": 250418, "internal_node_id": "0.0-4.0-5.0"}}, {"uniqueid": "w28903728:a60433848", "current_trial": 10, "dateTime": 1664555639024, "trialdata": {"rt": 2230, "stimulus": "<p id='stroop-text' class='stroop-blue'>GREEN</p>", "response": "b", "stimulus-type": "incongruent", "word": "green", "color": "blue", "correct_response": "b", "trial_id": "stroop-trial-1-incongruent-5", "trial_type": "html-keyboard-response", "trial_index": 10, "time_elapsed": 253153, "internal_node_id": "0.0-4.0-6.0"}}, {"uniqueid": "w28903728:a60433848", "current_trial": 11, "dateTime": 1664555641002, "trialdata": {"rt": 1472, "stimulus": "<p id='stroop-text' class='stroop-yellow'>BLUE</p>", "response": "y", "stimulus-type": "incongruent", "word": "blue", "color": "yellow", "correct_response": "y", "trial_id": "stroop-trial-1-incongruent-9", "trial_type": "html-keyboard-response", "trial_index": 11, "time_elapsed": 255131, "internal_node_id": "0.0-4.0-7.0"}}, {"uniqueid": "w28903728:a60433848", "current_trial": 12, "dateTime": 1664555642346, "trialdata": {"rt": 839, "stimulus": "<p id='stroop-text' class='stroop-yellow'>WINDOW</p>", "response": "y", "stimulus-type": "unrelated", "word": "WINDOW", "color": "yellow", "correct_response": "y", "trial_id": "stroop-trial-1-unrelated-27", "trial_type": "html-keyboard-response", "trial_index": 12, "time_elapsed": 256475, "internal_node_id": "0.0-4.0-8.0"}}, {"uniqueid": "w28903728:a60433848", "current_trial": 13, "dateTime": 1664555643788, "trialdata": {"rt": 939, "stimulus": "<p id='stroop-text' class='stroop-yellow'>GREEN</p>", "response": "y", "stimulus-type": "incongruent", "word": "green", "color": "yellow", "correct_response": "y", "trial_id": "stroop-trial-1-incongruent-12", "trial_type": "html-keyboard-response", "trial_index": 13, "time_elapsed": 257918, "internal_node_id": "0.0-4.0-9.0"}}, {"uniqueid": "w28903728:a60433848", "current_trial": 14, "dateTime": 1664555645277, "trialdata": {"rt": 985, "stimulus": "<p id='stroop-text' class='stroop-blue'>BLUE</p>", "response": "b", "stimulus-type": "congruent", "word": "blue", "color": "blue", "correct_response": "b", "trial_id": "stroop-trial-1-congruent-28", "trial_type": "html-keyboard-response", "trial_index": 14, "time_elapsed": 259406, "internal_node_id": "0.0-4.0-10.0"}}, {"uniqueid": "w28903728:a60433848", "current_trial": 15, "dateTime": 1664555646720, "trialdata": {"rt": 939, "stimulus": "<p id='stroop-text' class='stroop-blue'>BRAIN</p>", "response": "b", "stimulus-type": "unrelated", "word": "BRAIN", "color": "blue", "correct_response": "b", "trial_id": "stroop-trial-1-unrelated-24", "trial_type": "html-keyboard-response", "trial_index": 15, "time_elapsed": 260849, "internal_node_id": "0.0-4.0-11.0"}}, {"uniqueid": "w28903728:a60433848", "current_trial": 16, "dateTime": 1664555647870, "trialdata": {"rt": 646, "stimulus": "<p id='stroop-text' class='stroop-yellow'>YELLOW</p>", "response": "y", "stimulus-type": "congruent", "word": "yellow", "color": "yellow", "correct_response": "y", "trial_id": "stroop-trial-1-congruent-11", "trial_type": "html-keyboard-response", "trial_index": 16, "time_elapsed": 262000, "internal_node_id": "0.0-4.0-12.0"}}, {"uniqueid": "w28903728:a60433848", "current_trial": 17, "dateTime": 1664555649619, "trialdata": {"rt": 1244, "stimulus": "<p id='stroop-text' class='stroop-red'>RED</p>", "response": "r", "stimulus-type": "congruent", "word": "red", "color": "red", "correct_response": "r", "trial_id": "stroop-trial-1-congruent-15", "trial_type": "html-keyboard-response", "trial_index": 17, "time_elapsed": 263749, "internal_node_id": "0.0-4.0-13.0"}}, {"uniqueid": "w28903728:a60433848", "current_trial": 18, "dateTime": 1664555651671, "trialdata": {"rt": 1545, "stimulus": "<p id='stroop-text' class='stroop-blue'>MONKEY</p>", "response": "b", "stimulus-type": "unrelated", "word": "MONKEY", "color": "blue", "correct_response": "b", "trial_id": "stroop-trial-1-unrelated-30", "trial_type": "html-keyboard-response", "trial_index": 18, "time_elapsed": 265801, "internal_node_id": "0.0-4.0-14.0"}}, {"uniqueid": "w28903728:a60433848", "current_trial": 19, "dateTime": 1664555653807, "trialdata": {"rt": 1630, "stimulus": "<p id='stroop-text' class='stroop-green'>GREEN</p>", "response": "g", "stimulus-type": "congruent", "word": "green", "color": "green", "correct_response": "g", "trial_id": "stroop-trial-1-congruent-27", "trial_type": "html-keyboard-response", "trial_index": 19, "time_elapsed": 267936, "internal_node_id": "0.0-4.0-15.0"}}, {"uniqueid": "w28903728:a60433848", "current_trial": 20, "dateTime": 1664555655355, "trialdata": {"rt": 1044, "stimulus": "<p id='stroop-text' class='stroop-green'>DOG</p>", "response": "g", "stimulus-type": "unrelated", "word": "DOG", "color": "green", "correct_response": "g", "trial_id": "stroop-trial-1-unrelated-25", "trial_type": "html-keyboard-response", "trial_index": 20, "time_elapsed": 269484, "internal_node_id": "0.0-4.0-16.0"}}, {"uniqueid": "w28903728:a60433848", "current_trial": 21, "dateTime": 1664555657091, "trialdata": {"rt": 1232, "stimulus": "<p id='stroop-text' class='stroop-red'>RED</p>", "response": "r", "stimulus-type": "congruent", "word": "red", "color": "red", "correct_response": "r", "trial_id": "stroop-trial-1-congruent-6", "trial_type": "html-keyboard-response", "trial_index": 21, "time_elapsed": 271221, "internal_node_id": "0.0-4.0-17.0"}}, {"uniqueid": "w28903728:a60433848", "current_trial": 22, "dateTime": 1664555658843, "trialdata": {"rt": 1249, "stimulus": "<p id='stroop-text' class='stroop-yellow'>STONE</p>", "response": "y", "stimulus-type": "unrelated", "word": "STONE", "color": "yellow", "correct_response": "y", "trial_id": "stroop-trial-1-unrelated-20", "trial_type": "html-keyboard-response", "trial_index": 22, "time_elapsed": 272973, "internal_node_id": "0.0-4.0-18.0"}}, {"uniqueid": "w28903728:a60433848", "current_trial": 23, "dateTime": 1664555660473, "trialdata": {"rt": 1125, "stimulus": "<p id='stroop-text' class='stroop-red'>FORK</p>", "response": "r", "stimulus-type": "unrelated", "word": "FORK", "color": "red", "correct_response": "r", "trial_id": "stroop-trial-1-unrelated-13", "trial_type": "html-keyboard-response", "trial_index": 23, "time_elapsed": 274603, "internal_node_id": "0.0-4.0-19.0"}}, {"uniqueid": "w28903728:a60433848", "current_trial": 24, "dateTime": 1664555662559, "trialdata": {"rt": 1582, "stimulus": "<p id='stroop-text' class='stroop-yellow'>RED</p>", "response": "y", "stimulus-type": "incongruent", "word": "red", "color": "yellow", "correct_response": "y", "trial_id": "stroop-trial-1-incongruent-24", "trial_type": "html-keyboard-response", "trial_index": 24, "time_elapsed": 276689, "internal_node_id": "0.0-4.0-20.0"}}, {"uniqueid": "w28903728:a60433848", "current_trial": 25, "dateTime": 1664555663695, "trialdata": {"rt": 632, "stimulus": "<p id='stroop-text' class='stroop-yellow'>RED</p>", "response": "y", "stimulus-type": "incongruent", "word": "red", "color": "yellow", "correct_response": "y", "trial_id": "stroop-trial-1-incongruent-10", "trial_type": "html-keyboard-response", "trial_index": 25, "time_elapsed": 277824, "internal_node_id": "0.0-4.0-21.0"}}, {"uniqueid": "w28903728:a60433848", "current_trial": 26, "dateTime": 1664555665533, "trialdata": {"rt": 1332, "stimulus": "<p id='stroop-text' class='stroop-green'>BLUE</p>", "response": "g", "stimulus-type": "incongruent", "word": "blue", "color": "green", "correct_response": "g", "trial_id": "stroop-trial-1-incongruent-8", "trial_type": "html-keyboard-response", "trial_index": 26, "time_elapsed": 279662, "internal_node_id": "0.0-4.0-22.0"}}, {"uniqueid": "w28903728:a60433848", "current_trial": 27, "dateTime": 1664555667625, "trialdata": {"rt": 1588, "stimulus": "<p id='stroop-text' class='stroop-blue'>WINDOW</p>", "response": "b", "stimulus-type": "unrelated", "word": "WINDOW", "color": "blue", "correct_response": "b", "trial_id": "stroop-trial-1-unrelated-23", "trial_type": "html-keyboard-response", "trial_index": 27, "time_elapsed": 281754, "internal_node_id": "0.0-4.0-23.0"}}, {"uniqueid": "w28903728:a60433848", "current_trial": 28, "dateTime": 1664555668726, "trialdata": {"rt": 596, "stimulus": "<p id='stroop-text' class='stroop-blue'>YELLOW</p>", "response": "b", "stimulus-type": "incongruent", "word": "yellow", "color": "blue", "correct_response": "b", "trial_id": "stroop-trial-1-incongruent-28", "trial_type": "html-keyboard-response", "trial_index": 28, "time_elapsed": 282855, "internal_node_id": "0.0-4.0-24.0"}}, {"uniqueid": "w28903728:a60433848", "current_trial": 29, "dateTime": 1664555669945, "trialdata": {"rt": 710, "stimulus": "<p id='stroop-text' class='stroop-blue'>CHAIR</p>", "response": "b", "stimulus-type": "unrelated", "word": "CHAIR", "color": "blue", "correct_response": "b", "trial_id": "stroop-trial-1-unrelated-21", "trial_type": "html-keyboard-response", "trial_index": 29, "time_elapsed": 284075, "internal_node_id": "0.0-4.0-25.0"}}, {"uniqueid": "w28903728:a60433848", "current_trial": 30, "dateTime": 1664555670996, "trialdata": {"rt": 545, "stimulus": "<p id='stroop-text' class='stroop-blue'>GREEN</p>", "response": "b", "stimulus-type": "incongruent", "word": "green", "color": "blue", "correct_response": "b", "trial_id": "stroop-trial-1-incongruent-11", "trial_type": "html-keyboard-response", "trial_index": 30, "time_elapsed": 285125, "internal_node_id": "0.0-4.0-26.0"}}, {"uniqueid": "w28903728:a60433848", "current_trial": 31, "dateTime": 1664555672612, "trialdata": {"rt": 1112, "stimulus": "<p id='stroop-text' class='stroop-red'>BLUE</p>", "response": "r", "stimulus-type": "incongruent", "word": "blue", "color": "red", "correct_response": "r", "trial_id": "stroop-trial-1-incongruent-3", "trial_type": "html-keyboard-response", "trial_index": 31, "time_elapsed": 286742, "internal_node_id": "0.0-4.0-27.0"}}, {"uniqueid": "w28903728:a60433848", "current_trial": 32, "dateTime": 1664555674305, "trialdata": {"rt": 1188, "stimulus": "<p id='stroop-text' class='stroop-green'>YELLOW</p>", "response": "g", "stimulus-type": "incongruent", "word": "yellow", "color": "green", "correct_response": "g", "trial_id": "stroop-trial-1-incongruent-13", "trial_type": "html-keyboard-response", "trial_index": 32, "time_elapsed": 288435, "internal_node_id": "0.0-4.0-28.0"}}, {"uniqueid": "w28903728:a60433848", "current_trial": 33, "dateTime": 1664555675371, "trialdata": {"rt": 563, "stimulus": "<p id='stroop-text' class='stroop-green'>RED</p>", "response": "g", "stimulus-type": "incongruent", "word": "red", "color": "green", "correct_response": "g", "trial_id": "stroop-trial-1-incongruent-2", "trial_type": "html-keyboard-response", "trial_index": 33, "time_elapsed": 289500, "internal_node_id": "0.0-4.0-29.0"}}, {"uniqueid": "w28903728:a60433848", "current_trial": 34, "dateTime": 1664555676657, "trialdata": {"rt": 783, "stimulus": "<p id='stroop-text' class='stroop-red'>GREEN</p>", "response": "y", "stimulus-type": "incongruent", "word": "green", "color": "red", "correct_response": "r", "trial_id": "stroop-trial-1-incongruent-19", "trial_type": "html-keyboard-response", "trial_index": 34, "time_elapsed": 290787, "internal_node_id": "0.0-4.0-30.0"}}, {"uniqueid": "w28903728:a60433848", "current_trial": 35, "dateTime": 1664555678904, "trialdata": {"rt": 1740, "stimulus": "<p id='stroop-text' class='stroop-green'>GREEN</p>", "response": "g", "stimulus-type": "congruent", "word": "green", "color": "green", "correct_response": "g", "trial_id": "stroop-trial-1-congruent-30", "trial_type": "html-keyboard-response", "trial_index": 35, "time_elapsed": 293033, "internal_node_id": "0.0-4.0-31.0"}}, {"uniqueid": "w28903728:a60433848", "current_trial": 36, "dateTime": 1664555681059, "trialdata": {"rt": 1652, "stimulus": "<p id='stroop-text' class='stroop-red'>MONKEY</p>", "response": "r", "stimulus-type": "unrelated", "word": "MONKEY", "color": "red", "correct_response": "r", "trial_id": "stroop-trial-1-unrelated-22", "trial_type": "html-keyboard-response", "trial_index": 36, "time_elapsed": 295189, "internal_node_id": "0.0-4.0-32.0"}}, {"uniqueid": "w28903728:a60433848", "current_trial": 37, "dateTime": 1664555683164, "trialdata": {"rt": 1602, "stimulus": "<p id='stroop-text' class='stroop-blue'>BOAT</p>", "response": "b", "stimulus-type": "unrelated", "word": "BOAT", "color": "blue", "correct_response": "b", "trial_id": "stroop-trial-1-unrelated-12", "trial_type": "html-keyboard-response", "trial_index": 37, "time_elapsed": 297294, "internal_node_id": "0.0-4.0-33.0"}}, {"uniqueid": "w28903728:a60433848", "current_trial": 38, "dateTime": 1664555685039, "trialdata": {"rt": 1373, "stimulus": "<p id='stroop-text' class='stroop-blue'>RED</p>", "response": "b", "stimulus-type": "incongruent", "word": "red", "color": "blue", "correct_response": "b", "trial_id": "stroop-trial-1-incongruent-17", "trial_type": "html-keyboard-response", "trial_index": 38, "time_elapsed": 299169, "internal_node_id": "0.0-4.0-34.0"}}, {"uniqueid": "w28903728:a60433848", "current_trial": 39, "dateTime": 1664555687593, "trialdata": {"rt": 2049, "stimulus": "<p id='stroop-text' class='stroop-red'>GREEN</p>", "response": "r", "stimulus-type": "incongruent", "word": "green", "color": "red", "correct_response": "r", "trial_id": "stroop-trial-1-incongruent-15", "trial_type": "html-keyboard-response", "trial_index": 39, "time_elapsed": 301723, "internal_node_id": "0.0-4.0-35.0"}}, {"uniqueid": "w28903728:a60433848", "current_trial": 40, "dateTime": 1664555688937, "trialdata": {"rt": 840, "stimulus": "<p id='stroop-text' class='stroop-yellow'>FORK</p>", "response": "y", "stimulus-type": "unrelated", "word": "FORK", "color": "yellow", "correct_response": "y", "trial_id": "stroop-trial-1-unrelated-1", "trial_type": "html-keyboard-response", "trial_index": 40, "time_elapsed": 303066, "internal_node_id": "0.0-4.0-36.0"}}, {"uniqueid": "w28903728:a60433848", "current_trial": 41, "dateTime": 1664555690609, "trialdata": {"rt": 1167, "stimulus": "<p id='stroop-text' class='stroop-red'>GREEN</p>", "response": "r", "stimulus-type": "incongruent", "word": "green", "color": "red", "correct_response": "r", "trial_id": "stroop-trial-1-incongruent-6", "trial_type": "html-keyboard-response", "trial_index": 41, "time_elapsed": 304738, "internal_node_id": "0.0-4.0-37.0"}}, {"uniqueid": "w28903728:a60433848", "current_trial": 42, "dateTime": 1664555692157, "trialdata": {"rt": 1044, "stimulus": "<p id='stroop-text' class='stroop-red'>BLUE</p>", "response": "r", "stimulus-type": "incongruent", "word": "blue", "color": "red", "correct_response": "r", "trial_id": "stroop-trial-1-incongruent-18", "trial_type": "html-keyboard-response", "trial_index": 42, "time_elapsed": 306286, "internal_node_id": "0.0-4.0-38.0"}}, {"uniqueid": "w28903728:a60433848", "current_trial": 43, "dateTime": 1664555694267, "trialdata": {"rt": 1606, "stimulus": "<p id='stroop-text' class='stroop-blue'>BLUE</p>", "response": "b", "stimulus-type": "congruent", "word": "blue", "color": "blue", "correct_response": "b", "trial_id": "stroop-trial-1-congruent-26", "trial_type": "html-keyboard-response", "trial_index": 43, "time_elapsed": 308396, "internal_node_id": "0.0-4.0-39.0"}}, {"uniqueid": "w28903728:a60433848", "current_trial": 44, "dateTime": 1664555696776, "trialdata": {"rt": 2005, "stimulus": "<p id='stroop-text' class='stroop-blue'>GREEN</p>", "response": "b", "stimulus-type": "incongruent", "word": "green", "color": "blue", "correct_response": "b", "trial_id": "stroop-trial-1-incongruent-16", "trial_type": "html-keyboard-response", "trial_index": 44, "time_elapsed": 310905, "internal_node_id": "0.0-4.0-40.0"}}, {"uniqueid": "w28903728:a60433848", "current_trial": 45, "dateTime": 1664555698286, "trialdata": {"rt": 1008, "stimulus": "<p id='stroop-text' class='stroop-blue'>BLUE</p>", "response": "b", "stimulus-type": "congruent", "word": "blue", "color": "blue", "correct_response": "b", "trial_id": "stroop-trial-1-congruent-21", "trial_type": "html-keyboard-response", "trial_index": 45, "time_elapsed": 312416, "internal_node_id": "0.0-4.0-41.0"}}, {"uniqueid": "w28903728:a60433848", "current_trial": 46, "dateTime": 1664555699569, "trialdata": {"rt": 779, "stimulus": "<p id='stroop-text' class='stroop-blue'>BLUE</p>", "response": "b", "stimulus-type": "congruent", "word": "blue", "color": "blue", "correct_response": "b", "trial_id": "stroop-trial-1-congruent-1", "trial_type": "html-keyboard-response", "trial_index": 46, "time_elapsed": 313698, "internal_node_id": "0.0-4.0-42.0"}}, {"uniqueid": "w28903728:a60433848", "current_trial": 47, "dateTime": 1664555700651, "trialdata": {"rt": 578, "stimulus": "<p id='stroop-text' class='stroop-blue'>BOTTLE</p>", "response": "b", "stimulus-type": "unrelated", "word": "BOTTLE", "color": "blue", "correct_response": "b", "trial_id": "stroop-trial-1-unrelated-18", "trial_type": "html-keyboard-response", "trial_index": 47, "time_elapsed": 314781, "internal_node_id": "0.0-4.0-43.0"}}, {"uniqueid": "w28903728:a60433848", "current_trial": 48, "dateTime": 1664555702000, "trialdata": {"rt": 844, "stimulus": "<p id='stroop-text' class='stroop-red'>BRAIN</p>", "response": "r", "stimulus-type": "unrelated", "word": "BRAIN", "color": "red", "correct_response": "r", "trial_id": "stroop-trial-1-unrelated-11", "trial_type": "html-keyboard-response", "trial_index": 48, "time_elapsed": 316129, "internal_node_id": "0.0-4.0-44.0"}}, {"uniqueid": "w28903728:a60433848", "current_trial": 49, "dateTime": 1664555703102, "trialdata": {"rt": 598, "stimulus": "<p id='stroop-text' class='stroop-yellow'>BOAT</p>", "response": "y", "stimulus-type": "unrelated", "word": "BOAT", "color": "yellow", "correct_response": "y", "trial_id": "stroop-trial-1-unrelated-9", "trial_type": "html-keyboard-response", "trial_index": 49, "time_elapsed": 317231, "internal_node_id": "0.0-4.0-45.0"}}, {"uniqueid": "w28903728:a60433848", "current_trial": 50, "dateTime": 1664555704253, "trialdata": {"rt": 645, "stimulus": "<p id='stroop-text' class='stroop-yellow'>SHIP</p>", "response": "y", "stimulus-type": "unrelated", "word": "SHIP", "color": "yellow", "correct_response": "y", "trial_id": "stroop-trial-1-unrelated-6", "trial_type": "html-keyboard-response", "trial_index": 50, "time_elapsed": 318382, "internal_node_id": "0.0-4.0-46.0"}}, {"uniqueid": "w28903728:a60433848", "current_trial": 51, "dateTime": 1664555705306, "trialdata": {"rt": 548, "stimulus": "<p id='stroop-text' class='stroop-red'>RED</p>", "response": "r", "stimulus-type": "congruent", "word": "red", "color": "red", "correct_response": "r", "trial_id": "stroop-trial-1-congruent-20", "trial_type": "html-keyboard-response", "trial_index": 51, "time_elapsed": 319435, "internal_node_id": "0.0-4.0-47.0"}}, {"uniqueid": "w28903728:a60433848", "current_trial": 52, "dateTime": 1664555706891, "trialdata": {"rt": 1082, "stimulus": "<p id='stroop-text' class='stroop-red'>YELLOW</p>", "response": "r", "stimulus-type": "incongruent", "word": "yellow", "color": "red", "correct_response": "r", "trial_id": "stroop-trial-1-incongruent-1", "trial_type": "html-keyboard-response", "trial_index": 52, "time_elapsed": 321021, "internal_node_id": "0.0-4.0-48.0"}}, {"uniqueid": "w28903728:a60433848", "current_trial": 53, "dateTime": 1664555708009, "trialdata": {"rt": 613, "stimulus": "<p id='stroop-text' class='stroop-blue'>BLUE</p>", "response": "b", "stimulus-type": "congruent", "word": "blue", "color": "blue", "correct_response": "b", "trial_id": "stroop-trial-1-congruent-19", "trial_type": "html-keyboard-response", "trial_index": 53, "time_elapsed": 322138, "internal_node_id": "0.0-4.0-49.0"}}, {"uniqueid": "w28903728:a60433848", "current_trial": 54, "dateTime": 1664555709127, "trialdata": {"rt": 613, "stimulus": "<p id='stroop-text' class='stroop-yellow'>BRAIN</p>", "response": "y", "stimulus-type": "unrelated", "word": "BRAIN", "color": "yellow", "correct_response": "y", "trial_id": "stroop-trial-1-unrelated-14", "trial_type": "html-keyboard-response", "trial_index": 54, "time_elapsed": 323257, "internal_node_id": "0.0-4.0-50.0"}}, {"uniqueid": "w28903728:a60433848", "current_trial": 55, "dateTime": 1664555710989, "trialdata": {"rt": 1355, "stimulus": "<p id='stroop-text' class='stroop-green'>STONE</p>", "response": "g", "stimulus-type": "unrelated", "word": "STONE", "color": "green", "correct_response": "g", "trial_id": "stroop-trial-1-unrelated-15", "trial_type": "html-keyboard-response", "trial_index": 55, "time_elapsed": 325118, "internal_node_id": "0.0-4.0-51.0"}}, {"uniqueid": "w28903728:a60433848", "current_trial": 56, "dateTime": 1664555712115, "trialdata": {"rt": 622, "stimulus": "<p id='stroop-text' class='stroop-green'>STONE</p>", "response": "g", "stimulus-type": "unrelated", "word": "STONE", "color": "green", "correct_response": "g", "trial_id": "stroop-trial-1-unrelated-5", "trial_type": "html-keyboard-response", "trial_index": 56, "time_elapsed": 326244, "internal_node_id": "0.0-4.0-52.0"}}, {"uniqueid": "w28903728:a60433848", "current_trial": 57, "dateTime": 1664555713389, "trialdata": {"rt": 770, "stimulus": "<p id='stroop-text' class='stroop-blue'>BLUE</p>", "response": "b", "stimulus-type": "congruent", "word": "blue", "color": "blue", "correct_response": "b", "trial_id": "stroop-trial-1-congruent-16", "trial_type": "html-keyboard-response", "trial_index": 57, "time_elapsed": 327519, "internal_node_id": "0.0-4.0-53.0"}}, {"uniqueid": "w28903728:a60433848", "current_trial": 58, "dateTime": 1664555714586, "trialdata": {"rt": 692, "stimulus": "<p id='stroop-text' class='stroop-yellow'>YELLOW</p>", "response": "y", "stimulus-type": "congruent", "word": "yellow", "color": "yellow", "correct_response": "y", "trial_id": "stroop-trial-1-congruent-25", "trial_type": "html-keyboard-response", "trial_index": 58, "time_elapsed": 328716, "internal_node_id": "0.0-4.0-54.0"}}, {"uniqueid": "w28903728:a60433848", "current_trial": 59, "dateTime": 1664555715777, "trialdata": {"rt": 687, "stimulus": "<p id='stroop-text' class='stroop-yellow'>YELLOW</p>", "response": "y", "stimulus-type": "congruent", "word": "yellow", "color": "yellow", "correct_response": "y", "trial_id": "stroop-trial-1-congruent-12", "trial_type": "html-keyboard-response", "trial_index": 59, "time_elapsed": 329907, "internal_node_id": "0.0-4.0-55.0"}}, {"uniqueid": "w28903728:a60433848", "current_trial": 60, "dateTime": 1664555717471, "trialdata": {"rt": 1189, "stimulus": "<p id='stroop-text' class='stroop-green'>FORK</p>", "response": "g", "stimulus-type": "unrelated", "word": "FORK", "color": "green", "correct_response": "g", "trial_id": "stroop-trial-1-unrelated-10", "trial_type": "html-keyboard-response", "trial_index": 60, "time_elapsed": 331600, "internal_node_id": "0.0-4.0-56.0"}}, {"uniqueid": "w28903728:a60433848", "current_trial": 61, "dateTime": 1664555718805, "trialdata": {"rt": 830, "stimulus": "<p id='stroop-text' class='stroop-blue'>YELLOW</p>", "response": "b", "stimulus-type": "incongruent", "word": "yellow", "color": "blue", "correct_response": "b", "trial_id": "stroop-trial-1-incongruent-26", "trial_type": "html-keyboard-response", "trial_index": 61, "time_elapsed": 332934, "internal_node_id": "0.0-4.0-57.0"}}, {"uniqueid": "w28903728:a60433848", "current_trial": 62, "dateTime": 1664555720134, "trialdata": {"rt": 822, "stimulus": "<p id='stroop-text' class='stroop-green'>BLUE</p>", "response": "g", "stimulus-type": "incongruent", "word": "blue", "color": "green", "correct_response": "g", "trial_id": "stroop-trial-1-incongruent-7", "trial_type": "html-keyboard-response", "trial_index": 62, "time_elapsed": 334263, "internal_node_id": "0.0-4.0-58.0"}}, {"uniqueid": "w28903728:a60433848", "current_trial": 63, "dateTime": 1664555721250, "trialdata": {"rt": 611, "stimulus": "<p id='stroop-text' class='stroop-red'>GREEN</p>", "response": "r", "stimulus-type": "incongruent", "word": "green", "color": "red", "correct_response": "r", "trial_id": "stroop-trial-1-incongruent-4", "trial_type": "html-keyboard-response", "trial_index": 63, "time_elapsed": 335380, "internal_node_id": "0.0-4.0-59.0"}}, {"uniqueid": "w28903728:a60433848", "current_trial": 64, "dateTime": 1664555722794, "trialdata": {"rt": 1039, "stimulus": "<p id='stroop-text' class='stroop-green'>GREEN</p>", "response": "g", "stimulus-type": "congruent", "word": "green", "color": "green", "correct_response": "g", "trial_id": "stroop-trial-1-congruent-29", "trial_type": "html-keyboard-response", "trial_index": 64, "time_elapsed": 336923, "internal_node_id": "0.0-4.0-60.0"}}, {"uniqueid": "w28903728:a60433848", "current_trial": 65, "dateTime": 1664555724089, "trialdata": {"rt": 788, "stimulus": "<p id='stroop-text' class='stroop-green'>FORK</p>", "response": "g", "stimulus-type": "unrelated", "word": "FORK", "color": "green", "correct_response": "g", "trial_id": "stroop-trial-1-unrelated-4", "trial_type": "html-keyboard-response", "trial_index": 65, "time_elapsed": 338219, "internal_node_id": "0.0-4.0-61.0"}}, {"uniqueid": "w28903728:a60433848", "current_trial": 66, "dateTime": 1664555725417, "trialdata": {"rt": 824, "stimulus": "<p id='stroop-text' class='stroop-blue'>BRAIN</p>", "response": "b", "stimulus-type": "unrelated", "word": "BRAIN", "color": "blue", "correct_response": "b", "trial_id": "stroop-trial-1-unrelated-17", "trial_type": "html-keyboard-response", "trial_index": 66, "time_elapsed": 339547, "internal_node_id": "0.0-4.0-62.0"}}, {"uniqueid": "w28903728:a60433848", "current_trial": 67, "dateTime": 1664555726717, "trialdata": {"rt": 795, "stimulus": "<p id='stroop-text' class='stroop-red'>RED</p>", "response": "r", "stimulus-type": "congruent", "word": "red", "color": "red", "correct_response": "r", "trial_id": "stroop-trial-1-congruent-2", "trial_type": "html-keyboard-response", "trial_index": 67, "time_elapsed": 340846, "internal_node_id": "0.0-4.0-63.0"}}, {"uniqueid": "w28903728:a60433848", "current_trial": 68, "dateTime": 1664555728199, "trialdata": {"rt": 978, "stimulus": "<p id='stroop-text' class='stroop-blue'>STONE</p>", "response": "b", "stimulus-type": "unrelated", "word": "STONE", "color": "blue", "correct_response": "b", "trial_id": "stroop-trial-1-unrelated-26", "trial_type": "html-keyboard-response", "trial_index": 68, "time_elapsed": 342328, "internal_node_id": "0.0-4.0-64.0"}}, {"uniqueid": "w28903728:a60433848", "current_trial": 69, "dateTime": 1664555729427, "trialdata": {"rt": 721, "stimulus": "<p id='stroop-text' class='stroop-blue'>BLUE</p>", "response": "b", "stimulus-type": "congruent", "word": "blue", "color": "blue", "correct_response": "b", "trial_id": "stroop-trial-1-congruent-5", "trial_type": "html-keyboard-response", "trial_index": 69, "time_elapsed": 343556, "internal_node_id": "0.0-4.0-65.0"}}, {"uniqueid": "w28903728:a60433848", "current_trial": 70, "dateTime": 1664555730670, "trialdata": {"rt": 738, "stimulus": "<p id='stroop-text' class='stroop-red'>RED</p>", "response": "r", "stimulus-type": "congruent", "word": "red", "color": "red", "correct_response": "r", "trial_id": "stroop-trial-1-congruent-7", "trial_type": "html-keyboard-response", "trial_index": 70, "time_elapsed": 344799, "internal_node_id": "0.0-4.0-66.0"}}, {"uniqueid": "w28903728:a60433848", "current_trial": 71, "dateTime": 1664555731813, "trialdata": {"rt": 638, "stimulus": "<p id='stroop-text' class='stroop-yellow'>BOTTLE</p>", "response": "y", "stimulus-type": "unrelated", "word": "BOTTLE", "color": "yellow", "correct_response": "y", "trial_id": "stroop-trial-1-unrelated-7", "trial_type": "html-keyboard-response", "trial_index": 71, "time_elapsed": 345943, "internal_node_id": "0.0-4.0-67.0"}}, {"uniqueid": "w28903728:a60433848", "current_trial": 72, "dateTime": 1664555732942, "trialdata": {"rt": 621, "stimulus": "<p id='stroop-text' class='stroop-yellow'>BOAT</p>", "response": "y", "stimulus-type": "unrelated", "word": "BOAT", "color": "yellow", "correct_response": "y", "trial_id": "stroop-trial-1-unrelated-2", "trial_type": "html-keyboard-response", "trial_index": 72, "time_elapsed": 347071, "internal_node_id": "0.0-4.0-68.0"}}, {"uniqueid": "w28903728:a60433848", "current_trial": 73, "dateTime": 1664555734220, "trialdata": {"rt": 773, "stimulus": "<p id='stroop-text' class='stroop-red'>RED</p>", "response": "r", "stimulus-type": "congruent", "word": "red", "color": "red", "correct_response": "r", "trial_id": "stroop-trial-1-congruent-13", "trial_type": "html-keyboard-response", "trial_index": 73, "time_elapsed": 348349, "internal_node_id": "0.0-4.0-69.0"}}, {"uniqueid": "w28903728:a60433848", "current_trial": 74, "dateTime": 1664555735446, "trialdata": {"rt": 723, "stimulus": "<p id='stroop-text' class='stroop-blue'>BOTTLE</p>", "response": "b", "stimulus-type": "unrelated", "word": "BOTTLE", "color": "blue", "correct_response": "b", "trial_id": "stroop-trial-1-unrelated-29", "trial_type": "html-keyboard-response", "trial_index": 74, "time_elapsed": 349576, "internal_node_id": "0.0-4.0-70.0"}}, {"uniqueid": "w28903728:a60433848", "current_trial": 75, "dateTime": 1664555736685, "trialdata": {"rt": 734, "stimulus": "<p id='stroop-text' class='stroop-yellow'>GREEN</p>", "response": "y", "stimulus-type": "incongruent", "word": "green", "color": "yellow", "correct_response": "y", "trial_id": "stroop-trial-1-incongruent-21", "trial_type": "html-keyboard-response", "trial_index": 75, "time_elapsed": 350815, "internal_node_id": "0.0-4.0-71.0"}}, {"uniqueid": "w28903728:a60433848", "current_trial": 76, "dateTime": 1664555738031, "trialdata": {"rt": 838, "stimulus": "<p id='stroop-text' class='stroop-blue'>SHIP</p>", "response": "b", "stimulus-type": "unrelated", "word": "SHIP", "color": "blue", "correct_response": "b", "trial_id": "stroop-trial-1-unrelated-19", "trial_type": "html-keyboard-response", "trial_index": 76, "time_elapsed": 352160, "internal_node_id": "0.0-4.0-72.0"}}, {"uniqueid": "w28903728:a60433848", "current_trial": 77, "dateTime": 1664555739586, "trialdata": {"rt": 1051, "stimulus": "<p id='stroop-text' class='stroop-green'>GREEN</p>", "response": "g", "stimulus-type": "congruent", "word": "green", "color": "green", "correct_response": "g", "trial_id": "stroop-trial-1-congruent-8", "trial_type": "html-keyboard-response", "trial_index": 77, "time_elapsed": 353716, "internal_node_id": "0.0-4.0-73.0"}}, {"uniqueid": "w28903728:a60433848", "current_trial": 78, "dateTime": 1664555740845, "trialdata": {"rt": 751, "stimulus": "<p id='stroop-text' class='stroop-green'>GREEN</p>", "response": "g", "stimulus-type": "congruent", "word": "green", "color": "green", "correct_response": "g", "trial_id": "stroop-trial-1-congruent-3", "trial_type": "html-keyboard-response", "trial_index": 78, "time_elapsed": 354975, "internal_node_id": "0.0-4.0-74.0"}}, {"uniqueid": "w28903728:a60433848", "current_trial": 79, "dateTime": 1664555742000, "trialdata": {"rt": 649, "stimulus": "<p id='stroop-text' class='stroop-green'>GREEN</p>", "response": "g", "stimulus-type": "congruent", "word": "green", "color": "green", "correct_response": "g", "trial_id": "stroop-trial-1-congruent-24", "trial_type": "html-keyboard-response", "trial_index": 79, "time_elapsed": 356129, "internal_node_id": "0.0-4.0-75.0"}}, {"uniqueid": "w28903728:a60433848", "current_trial": 80, "dateTime": 1664555743265, "trialdata": {"rt": 761, "stimulus": "<p id='stroop-text' class='stroop-blue'>BOAT</p>", "response": "b", "stimulus-type": "unrelated", "word": "BOAT", "color": "blue", "correct_response": "b", "trial_id": "stroop-trial-1-unrelated-8", "trial_type": "html-keyboard-response", "trial_index": 80, "time_elapsed": 357395, "internal_node_id": "0.0-4.0-76.0"}}, {"uniqueid": "w28903728:a60433848", "current_trial": 81, "dateTime": 1664555744440, "trialdata": {"rt": 670, "stimulus": "<p id='stroop-text' class='stroop-yellow'>YELLOW</p>", "response": "y", "stimulus-type": "congruent", "word": "yellow", "color": "yellow", "correct_response": "y", "trial_id": "stroop-trial-1-congruent-17", "trial_type": "html-keyboard-response", "trial_index": 81, "time_elapsed": 358569, "internal_node_id": "0.0-4.0-77.0"}}, {"uniqueid": "w28903728:a60433848", "current_trial": 82, "dateTime": 1664555745563, "trialdata": {"rt": 618, "stimulus": "<p id='stroop-text' class='stroop-yellow'>GREEN</p>", "response": "y", "stimulus-type": "incongruent", "word": "green", "color": "yellow", "correct_response": "y", "trial_id": "stroop-trial-1-incongruent-23", "trial_type": "html-keyboard-response", "trial_index": 82, "time_elapsed": 359693, "internal_node_id": "0.0-4.0-78.0"}}, {"uniqueid": "w28903728:a60433848", "current_trial": 83, "dateTime": 1664555746791, "trialdata": {"rt": 721, "stimulus": "<p id='stroop-text' class='stroop-yellow'>YELLOW</p>", "response": "y", "stimulus-type": "congruent", "word": "yellow", "color": "yellow", "correct_response": "y", "trial_id": "stroop-trial-1-congruent-4", "trial_type": "html-keyboard-response", "trial_index": 83, "time_elapsed": 360920, "internal_node_id": "0.0-4.0-79.0"}}, {"uniqueid": "w28903728:a60433848", "current_trial": 84, "dateTime": 1664555748319, "trialdata": {"rt": 1023, "stimulus": "<p id='stroop-text' class='stroop-blue'>RED</p>", "response": "b", "stimulus-type": "incongruent", "word": "red", "color": "blue", "correct_response": "b", "trial_id": "stroop-trial-1-incongruent-27", "trial_type": "html-keyboard-response", "trial_index": 84, "time_elapsed": 362449, "internal_node_id": "0.0-4.0-80.0"}}, {"uniqueid": "w28903728:a60433848", "current_trial": 85, "dateTime": 1664555749439, "trialdata": {"rt": 612, "stimulus": "<p id='stroop-text' class='stroop-blue'>RED</p>", "response": "b", "stimulus-type": "incongruent", "word": "red", "color": "blue", "correct_response": "b", "trial_id": "stroop-trial-1-incongruent-25", "trial_type": "html-keyboard-response", "trial_index": 85, "time_elapsed": 363569, "internal_node_id": "0.0-4.0-81.0"}}, {"uniqueid": "w28903728:a60433848", "current_trial": 86, "dateTime": 1664555750718, "trialdata": {"rt": 772, "stimulus": "<p id='stroop-text' class='stroop-yellow'>YELLOW</p>", "response": "y", "stimulus-type": "congruent", "word": "yellow", "color": "yellow", "correct_response": "y", "trial_id": "stroop-trial-1-congruent-10", "trial_type": "html-keyboard-response", "trial_index": 86, "time_elapsed": 364847, "internal_node_id": "0.0-4.0-82.0"}}, {"uniqueid": "w28903728:a60433848", "current_trial": 87, "dateTime": 1664555752031, "trialdata": {"rt": 808, "stimulus": "<p id='stroop-text' class='stroop-green'>GREEN</p>", "response": "g", "stimulus-type": "congruent", "word": "green", "color": "green", "correct_response": "g", "trial_id": "stroop-trial-1-congruent-14", "trial_type": "html-keyboard-response", "trial_index": 87, "time_elapsed": 366160, "internal_node_id": "0.0-4.0-83.0"}}, {"uniqueid": "w28903728:a60433848", "current_trial": 88, "dateTime": 1664555753379, "trialdata": {"rt": 840, "stimulus": "<p id='stroop-text' class='stroop-blue'>BLUE</p>", "response": "b", "stimulus-type": "congruent", "word": "blue", "color": "blue", "correct_response": "b", "trial_id": "stroop-trial-1-congruent-22", "trial_type": "html-keyboard-response", "trial_index": 88, "time_elapsed": 367508, "internal_node_id": "0.0-4.0-84.0"}}, {"uniqueid": "w28903728:a60433848", "current_trial": 89, "dateTime": 1664555754436, "trialdata": {"rt": 552, "stimulus": "<p id='stroop-text' class='stroop-blue'>GREEN</p>", "response": "b", "stimulus-type": "incongruent", "word": "green", "color": "blue", "correct_response": "b", "trial_id": "stroop-trial-1-incongruent-30", "trial_type": "html-keyboard-response", "trial_index": 89, "time_elapsed": 368566, "internal_node_id": "0.0-4.0-85.0"}}, {"uniqueid": "w28903728:a60433848", "current_trial": 90, "dateTime": 1664555755664, "trialdata": {"rt": 723, "stimulus": "<p id='stroop-text' class='stroop-red'>RED</p>", "response": "r", "stimulus-type": "congruent", "word": "red", "color": "red", "correct_response": "r", "trial_id": "stroop-trial-1-congruent-18", "trial_type": "html-keyboard-response", "trial_index": 90, "time_elapsed": 369794, "internal_node_id": "0.0-4.0-86.0"}}, {"uniqueid": "w28903728:a60433848", "current_trial": 91, "dateTime": 1664555756937, "trialdata": {"rt": 765, "stimulus": "<p id='stroop-text' class='stroop-yellow'>BLUE</p>", "response": "y", "stimulus-type": "incongruent", "word": "blue", "color": "yellow", "correct_response": "y", "trial_id": "stroop-trial-1-incongruent-29", "trial_type": "html-keyboard-response", "trial_index": 91, "time_elapsed": 371066, "internal_node_id": "0.0-4.0-87.0"}}, {"uniqueid": "w28903728:a60433848", "current_trial": 92, "dateTime": 1664555758273, "trialdata": {"rt": 831, "stimulus": "<p id='stroop-text' class='stroop-blue'>BLUE</p>", "response": "b", "stimulus-type": "congruent", "word": "blue", "color": "blue", "correct_response": "b", "trial_id": "stroop-trial-1-congruent-23", "trial_type": "html-keyboard-response", "trial_index": 92, "time_elapsed": 372402, "internal_node_id": "0.0-4.0-88.0"}}, {"uniqueid": "w28903728:a60433848", "current_trial": 93, "dateTime": 1664555759880, "trialdata": {"rt": 1103, "stimulus": "<p id='stroop-text' class='stroop-red'>YELLOW</p>", "response": "r", "stimulus-type": "incongruent", "word": "yellow", "color": "red", "correct_response": "r", "trial_id": "stroop-trial-1-incongruent-20", "trial_type": "html-keyboard-response", "trial_index": 93, "time_elapsed": 374009, "internal_node_id": "0.0-4.0-89.0"}}, {"uniqueid": "w28903728:a60433848", "current_trial": 94, "dateTime": 1664555772646, "trialdata": {"rt": 12256, "stimulus": "  <h1> End of block! </h1>\n\n  You have reached the end of the block 1/5. If you need a short break, feel free to take one now before moving on.\n\n  <br><br>\n  In the next block, you will complete another 90 rounds of this game.\n\n  <br><br>\n  <div style='text-align: center;'>Press <code>space</code> to begin.</div>\n  <br><br>\n<div style='text-align: center;'>(If the experiment doesn't continue, try clicking on the text and then pressing <code>space</code>.)</div>", "response": " ", "trial_id": "stroop_1_ready_2", "trial_type": "html-keyboard-response", "trial_index": 94, "time_elapsed": 386776, "internal_node_id": "0.0-5.0"}}, {"uniqueid": "w28903728:a60433848", "current_trial": 95, "dateTime": 1664555774510, "trialdata": {"rt": 1857, "stimulus": "<p id='stroop-text' class='stroop-blue'>BLUE</p>", "response": "b", "stimulus-type": "congruent", "word": "blue", "color": "blue", "correct_response": "b", "trial_id": "stroop-trial-1-congruent-27", "trial_type": "html-keyboard-response", "trial_index": 95, "time_elapsed": 388640, "internal_node_id": "0.0-6.0-0.0"}}, {"uniqueid": "w28903728:a60433848", "current_trial": 96, "dateTime": 1664555776260, "trialdata": {"rt": 1243, "stimulus": "<p id='stroop-text' class='stroop-green'>YELLOW</p>", "response": "g", "stimulus-type": "incongruent", "word": "yellow", "color": "green", "correct_response": "g", "trial_id": "stroop-trial-1-incongruent-3", "trial_type": "html-keyboard-response", "trial_index": 96, "time_elapsed": 390390, "internal_node_id": "0.0-6.0-1.0"}}, {"uniqueid": "w28903728:a60433848", "current_trial": 97, "dateTime": 1664555777581, "trialdata": {"rt": 815, "stimulus": "<p id='stroop-text' class='stroop-blue'>BLUE</p>", "response": "b", "stimulus-type": "congruent", "word": "blue", "color": "blue", "correct_response": "b", "trial_id": "stroop-trial-1-congruent-14", "trial_type": "html-keyboard-response", "trial_index": 97, "time_elapsed": 391710, "internal_node_id": "0.0-6.0-2.0"}}, {"uniqueid": "w28903728:a60433848", "current_trial": 98, "dateTime": 1664555778793, "trialdata": {"rt": 708, "stimulus": "<p id='stroop-text' class='stroop-yellow'>YELLOW</p>", "response": "y", "stimulus-type": "congruent", "word": "yellow", "color": "yellow", "correct_response": "y", "trial_id": "stroop-trial-1-congruent-25", "trial_type": "html-keyboard-response", "trial_index": 98, "time_elapsed": 392923, "internal_node_id": "0.0-6.0-3.0"}}, {"uniqueid": "w28903728:a60433848", "current_trial": 99, "dateTime": 1664555779842, "trialdata": {"rt": 541, "stimulus": "<p id='stroop-text' class='stroop-red'>YELLOW</p>", "response": "r", "stimulus-type": "incongruent", "word": "yellow", "color": "red", "correct_response": "r", "trial_id": "stroop-trial-1-incongruent-28", "trial_type": "html-keyboard-response", "trial_index": 99, "time_elapsed": 393971, "internal_node_id": "0.0-6.0-4.0"}}, {"uniqueid": "w28903728:a60433848", "current_trial": 100, "dateTime": 1664555781109, "trialdata": {"rt": 761, "stimulus": "<p id='stroop-text' class='stroop-yellow'>YELLOW</p>", "response": "y", "stimulus-type": "congruent", "word": "yellow", "color": "yellow", "correct_response": "y", "trial_id": "stroop-trial-1-congruent-26", "trial_type": "html-keyboard-response", "trial_index": 100, "time_elapsed": 395239, "internal_node_id": "0.0-6.0-5.0"}}, {"uniqueid": "w28903728:a60433848", "current_trial": 101, "dateTime": 1664555782736, "trialdata": {"rt": 1122, "stimulus": "<p id='stroop-text' class='stroop-green'>BOAT</p>", "response": "g", "stimulus-type": "unrelated", "word": "BOAT", "color": "green", "correct_response": "g", "trial_id": "stroop-trial-1-unrelated-22", "trial_type": "html-keyboard-response", "trial_index": 101, "time_elapsed": 396866, "internal_node_id": "0.0-6.0-6.0"}}, {"uniqueid": "w28903728:a60433848", "current_trial": 102, "dateTime": 1664555784126, "trialdata": {"rt": 885, "stimulus": "<p id='stroop-text' class='stroop-blue'>RED</p>", "response": "b", "stimulus-type": "incongruent", "word": "red", "color": "blue", "correct_response": "b", "trial_id": "stroop-trial-1-incongruent-29", "trial_type": "html-keyboard-response", "trial_index": 102, "time_elapsed": 398255, "internal_node_id": "0.0-6.0-7.0"}}, {"uniqueid": "w28903728:a60433848", "current_trial": 103, "dateTime": 1664555785208, "trialdata": {"rt": 576, "stimulus": "<p id='stroop-text' class='stroop-yellow'>MONKEY</p>", "response": "y", "stimulus-type": "unrelated", "word": "MONKEY", "color": "yellow", "correct_response": "y", "trial_id": "stroop-trial-1-unrelated-28", "trial_type": "html-keyboard-response", "trial_index": 103, "time_elapsed": 399338, "internal_node_id": "0.0-6.0-8.0"}}, {"uniqueid": "w28903728:a60433848", "current_trial": 104, "dateTime": 1664555786220, "trialdata": {"rt": 505, "stimulus": "<p id='stroop-text' class='stroop-yellow'>RED</p>", "response": "y", "stimulus-type": "incongruent", "word": "red", "color": "yellow", "correct_response": "y", "trial_id": "stroop-trial-1-incongruent-26", "trial_type": "html-keyboard-response", "trial_index": 104, "time_elapsed": 400350, "internal_node_id": "0.0-6.0-9.0"}}, {"uniqueid": "w28903728:a60433848", "current_trial": 105, "dateTime": 1664555787225, "trialdata": {"rt": 501, "stimulus": "<p id='stroop-text' class='stroop-yellow'>FORK</p>", "response": "y", "stimulus-type": "unrelated", "word": "FORK", "color": "yellow", "correct_response": "y", "trial_id": "stroop-trial-1-unrelated-26", "trial_type": "html-keyboard-response", "trial_index": 105, "time_elapsed": 401355, "internal_node_id": "0.0-6.0-10.0"}}, {"uniqueid": "w28903728:a60433848", "current_trial": 106, "dateTime": 1664555788490, "trialdata": {"rt": 760, "stimulus": "<p id='stroop-text' class='stroop-green'>DOG</p>", "response": "g", "stimulus-type": "unrelated", "word": "DOG", "color": "green", "correct_response": "g", "trial_id": "stroop-trial-1-unrelated-13", "trial_type": "html-keyboard-response", "trial_index": 106, "time_elapsed": 402620, "internal_node_id": "0.0-6.0-11.0"}}, {"uniqueid": "w28903728:a60433848", "current_trial": 107, "dateTime": 1664555789618, "trialdata": {"rt": 623, "stimulus": "<p id='stroop-text' class='stroop-green'>RED</p>", "response": "g", "stimulus-type": "incongruent", "word": "red", "color": "green", "correct_response": "g", "trial_id": "stroop-trial-1-incongruent-21", "trial_type": "html-keyboard-response", "trial_index": 107, "time_elapsed": 403748, "internal_node_id": "0.0-6.0-12.0"}}, {"uniqueid": "w28903728:a60433848", "current_trial": 108, "dateTime": 1664555790913, "trialdata": {"rt": 789, "stimulus": "<p id='stroop-text' class='stroop-blue'>CHAIR</p>", "response": "b", "stimulus-type": "unrelated", "word": "CHAIR", "color": "blue", "correct_response": "b", "trial_id": "stroop-trial-1-unrelated-19", "trial_type": "html-keyboard-response", "trial_index": 108, "time_elapsed": 405043, "internal_node_id": "0.0-6.0-13.0"}}, {"uniqueid": "w28903728:a60433848", "current_trial": 109, "dateTime": 1664555792143, "trialdata": {"rt": 724, "stimulus": "<p id='stroop-text' class='stroop-blue'>FORK</p>", "response": "b", "stimulus-type": "unrelated", "word": "FORK", "color": "blue", "correct_response": "b", "trial_id": "stroop-trial-1-unrelated-17", "trial_type": "html-keyboard-response", "trial_index": 109, "time_elapsed": 406273, "internal_node_id": "0.0-6.0-14.0"}}, {"uniqueid": "w28903728:a60433848", "current_trial": 110, "dateTime": 1664555793349, "trialdata": {"rt": 701, "stimulus": "<p id='stroop-text' class='stroop-yellow'>GREEN</p>", "response": "y", "stimulus-type": "incongruent", "word": "green", "color": "yellow", "correct_response": "y", "trial_id": "stroop-trial-1-incongruent-16", "trial_type": "html-keyboard-response", "trial_index": 110, "time_elapsed": 407479, "internal_node_id": "0.0-6.0-15.0"}}, {"uniqueid": "w28903728:a60433848", "current_trial": 111, "dateTime": 1664555794479, "trialdata": {"rt": 622, "stimulus": "<p id='stroop-text' class='stroop-blue'>SHIP</p>", "response": "b", "stimulus-type": "unrelated", "word": "SHIP", "color": "blue", "correct_response": "b", "trial_id": "stroop-trial-1-unrelated-23", "trial_type": "html-keyboard-response", "trial_index": 111, "time_elapsed": 408608, "internal_node_id": "0.0-6.0-16.0"}}, {"uniqueid": "w28903728:a60433848", "current_trial": 112, "dateTime": 1664555795779, "trialdata": {"rt": 796, "stimulus": "<p id='stroop-text' class='stroop-green'>BLUE</p>", "response": "g", "stimulus-type": "incongruent", "word": "blue", "color": "green", "correct_response": "g", "trial_id": "stroop-trial-1-incongruent-4", "trial_type": "html-keyboard-response", "trial_index": 112, "time_elapsed": 409909, "internal_node_id": "0.0-6.0-17.0"}}, {"uniqueid": "w28903728:a60433848", "current_trial": 113, "dateTime": 1664555796819, "trialdata": {"rt": 532, "stimulus": "<p id='stroop-text' class='stroop-red'>WINDOW</p>", "response": "r", "stimulus-type": "unrelated", "word": "WINDOW", "color": "red", "correct_response": "r", "trial_id": "stroop-trial-1-unrelated-5", "trial_type": "html-keyboard-response", "trial_index": 113, "time_elapsed": 410948, "internal_node_id": "0.0-6.0-18.0"}}, {"uniqueid": "w28903728:a60433848", "current_trial": 114, "dateTime": 1664555798129, "trialdata": {"rt": 805, "stimulus": "<p id='stroop-text' class='stroop-green'>BOTTLE</p>", "response": "g", "stimulus-type": "unrelated", "word": "BOTTLE", "color": "green", "correct_response": "g", "trial_id": "stroop-trial-1-unrelated-18", "trial_type": "html-keyboard-response", "trial_index": 114, "time_elapsed": 412259, "internal_node_id": "0.0-6.0-19.0"}}, {"uniqueid": "w28903728:a60433848", "current_trial": 115, "dateTime": 1664555799542, "trialdata": {"rt": 905, "stimulus": "<p id='stroop-text' class='stroop-red'>CHAIR</p>", "response": "r", "stimulus-type": "unrelated", "word": "CHAIR", "color": "red", "correct_response": "r", "trial_id": "stroop-trial-1-unrelated-15", "trial_type": "html-keyboard-response", "trial_index": 115, "time_elapsed": 413672, "internal_node_id": "0.0-6.0-20.0"}}, {"uniqueid": "w28903728:a60433848", "current_trial": 116, "dateTime": 1664555800848, "trialdata": {"rt": 799, "stimulus": "<p id='stroop-text' class='stroop-yellow'>BLUE</p>", "response": "y", "stimulus-type": "incongruent", "word": "blue", "color": "yellow", "correct_response": "y", "trial_id": "stroop-trial-1-incongruent-11", "trial_type": "html-keyboard-response", "trial_index": 116, "time_elapsed": 414977, "internal_node_id": "0.0-6.0-21.0"}}, {"uniqueid": "w28903728:a60433848", "current_trial": 117, "dateTime": 1664555802221, "trialdata": {"rt": 865, "stimulus": "<p id='stroop-text' class='stroop-red'>STONE</p>", "response": "r", "stimulus-type": "unrelated", "word": "STONE", "color": "red", "correct_response": "r", "trial_id": "stroop-trial-1-unrelated-1", "trial_type": "html-keyboard-response", "trial_index": 117, "time_elapsed": 416351, "internal_node_id": "0.0-6.0-22.0"}}, {"uniqueid": "w28903728:a60433848", "current_trial": 118, "dateTime": 1664555803462, "trialdata": {"rt": 735, "stimulus": "<p id='stroop-text' class='stroop-yellow'>FORK</p>", "response": "y", "stimulus-type": "unrelated", "word": "FORK", "color": "yellow", "correct_response": "y", "trial_id": "stroop-trial-1-unrelated-25", "trial_type": "html-keyboard-response", "trial_index": 118, "time_elapsed": 417591, "internal_node_id": "0.0-6.0-23.0"}}, {"uniqueid": "w28903728:a60433848", "current_trial": 119, "dateTime": 1664555804832, "trialdata": {"rt": 865, "stimulus": "<p id='stroop-text' class='stroop-green'>GREEN</p>", "response": "g", "stimulus-type": "congruent", "word": "green", "color": "green", "correct_response": "g", "trial_id": "stroop-trial-1-congruent-17", "trial_type": "html-keyboard-response", "trial_index": 119, "time_elapsed": 418961, "internal_node_id": "0.0-6.0-24.0"}}, {"uniqueid": "w28903728:a60433848", "current_trial": 120, "dateTime": 1664555806370, "trialdata": {"rt": 1032, "stimulus": "<p id='stroop-text' class='stroop-red'>STONE</p>", "response": "r", "stimulus-type": "unrelated", "word": "STONE", "color": "red", "correct_response": "r", "trial_id": "stroop-trial-1-unrelated-3", "trial_type": "html-keyboard-response", "trial_index": 120, "time_elapsed": 420500, "internal_node_id": "0.0-6.0-25.0"}}, {"uniqueid": "w28903728:a60433848", "current_trial": 121, "dateTime": 1664555807426, "trialdata": {"rt": 550, "stimulus": "<p id='stroop-text' class='stroop-yellow'>YELLOW</p>", "response": "y", "stimulus-type": "congruent", "word": "yellow", "color": "yellow", "correct_response": "y", "trial_id": "stroop-trial-1-congruent-19", "trial_type": "html-keyboard-response", "trial_index": 121, "time_elapsed": 421555, "internal_node_id": "0.0-6.0-26.0"}}, {"uniqueid": "w28903728:a60433848", "current_trial": 122, "dateTime": 1664555808756, "trialdata": {"rt": 823, "stimulus": "<p id='stroop-text' class='stroop-green'>BOTTLE</p>", "response": "g", "stimulus-type": "unrelated", "word": "BOTTLE", "color": "green", "correct_response": "g", "trial_id": "stroop-trial-1-unrelated-16", "trial_type": "html-keyboard-response", "trial_index": 122, "time_elapsed": 422885, "internal_node_id": "0.0-6.0-27.0"}}, {"uniqueid": "w28903728:a60433848", "current_trial": 123, "dateTime": 1664555809891, "trialdata": {"rt": 629, "stimulus": "<p id='stroop-text' class='stroop-blue'>BLUE</p>", "response": "b", "stimulus-type": "congruent", "word": "blue", "color": "blue", "correct_response": "b", "trial_id": "stroop-trial-1-congruent-6", "trial_type": "html-keyboard-response", "trial_index": 123, "time_elapsed": 424020, "internal_node_id": "0.0-6.0-28.0"}}, {"uniqueid": "w28903728:a60433848", "current_trial": 124, "dateTime": 1664555811004, "trialdata": {"rt": 604, "stimulus": "<p id='stroop-text' class='stroop-yellow'>RED</p>", "response": "y", "stimulus-type": "incongruent", "word": "red", "color": "yellow", "correct_response": "y", "trial_id": "stroop-trial-1-incongruent-8", "trial_type": "html-keyboard-response", "trial_index": 124, "time_elapsed": 425133, "internal_node_id": "0.0-6.0-29.0"}}, {"uniqueid": "w28903728:a60433848", "current_trial": 125, "dateTime": 1664555812330, "trialdata": {"rt": 821, "stimulus": "<p id='stroop-text' class='stroop-blue'>GREEN</p>", "response": "b", "stimulus-type": "incongruent", "word": "green", "color": "blue", "correct_response": "b", "trial_id": "stroop-trial-1-incongruent-17", "trial_type": "html-keyboard-response", "trial_index": 125, "time_elapsed": 426460, "internal_node_id": "0.0-6.0-30.0"}}, {"uniqueid": "w28903728:a60433848", "current_trial": 126, "dateTime": 1664555813517, "trialdata": {"rt": 679, "stimulus": "<p id='stroop-text' class='stroop-blue'>GREEN</p>", "response": "b", "stimulus-type": "incongruent", "word": "green", "color": "blue", "correct_response": "b", "trial_id": "stroop-trial-1-incongruent-12", "trial_type": "html-keyboard-response", "trial_index": 126, "time_elapsed": 427647, "internal_node_id": "0.0-6.0-31.0"}}, {"uniqueid": "w28903728:a60433848", "current_trial": 127, "dateTime": 1664555814906, "trialdata": {"rt": 883, "stimulus": "<p id='stroop-text' class='stroop-green'>STONE</p>", "response": "g", "stimulus-type": "unrelated", "word": "STONE", "color": "green", "correct_response": "g", "trial_id": "stroop-trial-1-unrelated-12", "trial_type": "html-keyboard-response", "trial_index": 127, "time_elapsed": 429035, "internal_node_id": "0.0-6.0-32.0"}}, {"uniqueid": "w28903728:a60433848", "current_trial": 128, "dateTime": 1664555816105, "trialdata": {"rt": 693, "stimulus": "<p id='stroop-text' class='stroop-red'>RED</p>", "response": "r", "stimulus-type": "congruent", "word": "red", "color": "red", "correct_response": "r", "trial_id": "stroop-trial-1-congruent-28", "trial_type": "html-keyboard-response", "trial_index": 128, "time_elapsed": 430234, "internal_node_id": "0.0-6.0-33.0"}}, {"uniqueid": "w28903728:a60433848", "current_trial": 129, "dateTime": 1664555817338, "trialdata": {"rt": 728, "stimulus": "<p id='stroop-text' class='stroop-green'>RED</p>", "response": "g", "stimulus-type": "incongruent", "word": "red", "color": "green", "correct_response": "g", "trial_id": "stroop-trial-1-incongruent-13", "trial_type": "html-keyboard-response", "trial_index": 129, "time_elapsed": 431468, "internal_node_id": "0.0-6.0-34.0"}}, {"uniqueid": "w28903728:a60433848", "current_trial": 130, "dateTime": 1664555818623, "trialdata": {"rt": 777, "stimulus": "<p id='stroop-text' class='stroop-yellow'>YELLOW</p>", "response": "y", "stimulus-type": "congruent", "word": "yellow", "color": "yellow", "correct_response": "y", "trial_id": "stroop-trial-1-congruent-1", "trial_type": "html-keyboard-response", "trial_index": 130, "time_elapsed": 432752, "internal_node_id": "0.0-6.0-35.0"}}, {"uniqueid": "w28903728:a60433848", "current_trial": 131, "dateTime": 1664555819739, "trialdata": {"rt": 608, "stimulus": "<p id='stroop-text' class='stroop-yellow'>BRIDGE</p>", "response": "y", "stimulus-type": "unrelated", "word": "BRIDGE", "color": "yellow", "correct_response": "y", "trial_id": "stroop-trial-1-unrelated-7", "trial_type": "html-keyboard-response", "trial_index": 131, "time_elapsed": 433868, "internal_node_id": "0.0-6.0-36.0"}}, {"uniqueid": "w28903728:a60433848", "current_trial": 132, "dateTime": 1664555820918, "trialdata": {"rt": 674, "stimulus": "<p id='stroop-text' class='stroop-blue'>FORK</p>", "response": "b", "stimulus-type": "unrelated", "word": "FORK", "color": "blue", "correct_response": "b", "trial_id": "stroop-trial-1-unrelated-4", "trial_type": "html-keyboard-response", "trial_index": 132, "time_elapsed": 435047, "internal_node_id": "0.0-6.0-37.0"}}, {"uniqueid": "w28903728:a60433848", "current_trial": 133, "dateTime": 1664555822289, "trialdata": {"rt": 866, "stimulus": "<p id='stroop-text' class='stroop-yellow'>RED</p>", "response": "y", "stimulus-type": "incongruent", "word": "red", "color": "yellow", "correct_response": "y", "trial_id": "stroop-trial-1-incongruent-18", "trial_type": "html-keyboard-response", "trial_index": 133, "time_elapsed": 436419, "internal_node_id": "0.0-6.0-38.0"}}, {"uniqueid": "w28903728:a60433848", "current_trial": 134, "dateTime": 1664555823805, "trialdata": {"rt": 1008, "stimulus": "<p id='stroop-text' class='stroop-blue'>GREEN</p>", "response": "b", "stimulus-type": "incongruent", "word": "green", "color": "blue", "correct_response": "b", "trial_id": "stroop-trial-1-incongruent-10", "trial_type": "html-keyboard-response", "trial_index": 134, "time_elapsed": 437935, "internal_node_id": "0.0-6.0-39.0"}}, {"uniqueid": "w28903728:a60433848", "current_trial": 135, "dateTime": 1664555825165, "trialdata": {"rt": 856, "stimulus": "<p id='stroop-text' class='stroop-green'>BOTTLE</p>", "response": "g", "stimulus-type": "unrelated", "word": "BOTTLE", "color": "green", "correct_response": "g", "trial_id": "stroop-trial-1-unrelated-10", "trial_type": "html-keyboard-response", "trial_index": 135, "time_elapsed": 439295, "internal_node_id": "0.0-6.0-40.0"}}, {"uniqueid": "w28903728:a60433848", "current_trial": 136, "dateTime": 1664555826401, "trialdata": {"rt": 728, "stimulus": "<p id='stroop-text' class='stroop-yellow'>YELLOW</p>", "response": "y", "stimulus-type": "congruent", "word": "yellow", "color": "yellow", "correct_response": "y", "trial_id": "stroop-trial-1-congruent-9", "trial_type": "html-keyboard-response", "trial_index": 136, "time_elapsed": 440530, "internal_node_id": "0.0-6.0-41.0"}}, {"uniqueid": "w28903728:a60433848", "current_trial": 137, "dateTime": 1664555827816, "trialdata": {"rt": 910, "stimulus": "<p id='stroop-text' class='stroop-red'>BLUE</p>", "response": "r", "stimulus-type": "incongruent", "word": "blue", "color": "red", "correct_response": "r", "trial_id": "stroop-trial-1-incongruent-30", "trial_type": "html-keyboard-response", "trial_index": 137, "time_elapsed": 441946, "internal_node_id": "0.0-6.0-42.0"}}, {"uniqueid": "w28903728:a60433848", "current_trial": 138, "dateTime": 1664555829081, "trialdata": {"rt": 759, "stimulus": "<p id='stroop-text' class='stroop-yellow'>YELLOW</p>", "response": "y", "stimulus-type": "congruent", "word": "yellow", "color": "yellow", "correct_response": "y", "trial_id": "stroop-trial-1-congruent-11", "trial_type": "html-keyboard-response", "trial_index": 138, "time_elapsed": 443211, "internal_node_id": "0.0-6.0-43.0"}}, {"uniqueid": "w28903728:a60433848", "current_trial": 139, "dateTime": 1664555830181, "trialdata": {"rt": 595, "stimulus": "<p id='stroop-text' class='stroop-yellow'>GREEN</p>", "response": "y", "stimulus-type": "incongruent", "word": "green", "color": "yellow", "correct_response": "y", "trial_id": "stroop-trial-1-incongruent-22", "trial_type": "html-keyboard-response", "trial_index": 139, "time_elapsed": 444311, "internal_node_id": "0.0-6.0-44.0"}}, {"uniqueid": "w28903728:a60433848", "current_trial": 140, "dateTime": 1664555831265, "trialdata": {"rt": 575, "stimulus": "<p id='stroop-text' class='stroop-yellow'>BLUE</p>", "response": "y", "stimulus-type": "incongruent", "word": "blue", "color": "yellow", "correct_response": "y", "trial_id": "stroop-trial-1-incongruent-24", "trial_type": "html-keyboard-response", "trial_index": 140, "time_elapsed": 445395, "internal_node_id": "0.0-6.0-45.0"}}, {"uniqueid": "w28903728:a60433848", "current_trial": 141, "dateTime": 1664555832754, "trialdata": {"rt": 983, "stimulus": "<p id='stroop-text' class='stroop-blue'>SHIP</p>", "response": "b", "stimulus-type": "unrelated", "word": "SHIP", "color": "blue", "correct_response": "b", "trial_id": "stroop-trial-1-unrelated-20", "trial_type": "html-keyboard-response", "trial_index": 141, "time_elapsed": 446883, "internal_node_id": "0.0-6.0-46.0"}}, {"uniqueid": "w28903728:a60433848", "current_trial": 142, "dateTime": 1664555833908, "trialdata": {"rt": 645, "stimulus": "<p id='stroop-text' class='stroop-green'>YELLOW</p>", "response": "g", "stimulus-type": "incongruent", "word": "yellow", "color": "green", "correct_response": "g", "trial_id": "stroop-trial-1-incongruent-5", "trial_type": "html-keyboard-response", "trial_index": 142, "time_elapsed": 448038, "internal_node_id": "0.0-6.0-47.0"}}, {"uniqueid": "w28903728:a60433848", "current_trial": 143, "dateTime": 1664555835086, "trialdata": {"rt": 672, "stimulus": "<p id='stroop-text' class='stroop-yellow'>BLUE</p>", "response": "y", "stimulus-type": "incongruent", "word": "blue", "color": "yellow", "correct_response": "y", "trial_id": "stroop-trial-1-incongruent-23", "trial_type": "html-keyboard-response", "trial_index": 143, "time_elapsed": 449216, "internal_node_id": "0.0-6.0-48.0"}}, {"uniqueid": "w28903728:a60433848", "current_trial": 144, "dateTime": 1664555836266, "trialdata": {"rt": 674, "stimulus": "<p id='stroop-text' class='stroop-green'>BOAT</p>", "response": "g", "stimulus-type": "unrelated", "word": "BOAT", "color": "green", "correct_response": "g", "trial_id": "stroop-trial-1-unrelated-30", "trial_type": "html-keyboard-response", "trial_index": 144, "time_elapsed": 450396, "internal_node_id": "0.0-6.0-49.0"}}, {"uniqueid": "w28903728:a60433848", "current_trial": 145, "dateTime": 1664555837854, "trialdata": {"rt": 1081, "stimulus": "<p id='stroop-text' class='stroop-blue'>RED</p>", "response": "b", "stimulus-type": "incongruent", "word": "red", "color": "blue", "correct_response": "b", "trial_id": "stroop-trial-1-incongruent-2", "trial_type": "html-keyboard-response", "trial_index": 145, "time_elapsed": 451983, "internal_node_id": "0.0-6.0-50.0"}}, {"uniqueid": "w28903728:a60433848", "current_trial": 146, "dateTime": 1664555839316, "trialdata": {"rt": 956, "stimulus": "<p id='stroop-text' class='stroop-red'>RED</p>", "response": "r", "stimulus-type": "congruent", "word": "red", "color": "red", "correct_response": "r", "trial_id": "stroop-trial-1-congruent-2", "trial_type": "html-keyboard-response", "trial_index": 146, "time_elapsed": 453445, "internal_node_id": "0.0-6.0-51.0"}}, {"uniqueid": "w28903728:a60433848", "current_trial": 147, "dateTime": 1664555840606, "trialdata": {"rt": 784, "stimulus": "<p id='stroop-text' class='stroop-blue'>RED</p>", "response": "b", "stimulus-type": "incongruent", "word": "red", "color": "blue", "correct_response": "b", "trial_id": "stroop-trial-1-incongruent-1", "trial_type": "html-keyboard-response", "trial_index": 147, "time_elapsed": 454735, "internal_node_id": "0.0-6.0-52.0"}}, {"uniqueid": "w28903728:a60433848", "current_trial": 148, "dateTime": 1664555841911, "trialdata": {"rt": 799, "stimulus": "<p id='stroop-text' class='stroop-green'>BLUE</p>", "response": "g", "stimulus-type": "incongruent", "word": "blue", "color": "green", "correct_response": "g", "trial_id": "stroop-trial-1-incongruent-7", "trial_type": "html-keyboard-response", "trial_index": 148, "time_elapsed": 456041, "internal_node_id": "0.0-6.0-53.0"}}, {"uniqueid": "w28903728:a60433848", "current_trial": 149, "dateTime": 1664555843194, "trialdata": {"rt": 775, "stimulus": "<p id='stroop-text' class='stroop-green'>MONKEY</p>", "response": "g", "stimulus-type": "unrelated", "word": "MONKEY", "color": "green", "correct_response": "g", "trial_id": "stroop-trial-1-unrelated-24", "trial_type": "html-keyboard-response", "trial_index": 149, "time_elapsed": 457323, "internal_node_id": "0.0-6.0-54.0"}}, {"uniqueid": "w28903728:a60433848", "current_trial": 150, "dateTime": 1664555844425, "trialdata": {"rt": 725, "stimulus": "<p id='stroop-text' class='stroop-yellow'>DOG</p>", "response": "y", "stimulus-type": "unrelated", "word": "DOG", "color": "yellow", "correct_response": "y", "trial_id": "stroop-trial-1-unrelated-14", "trial_type": "html-keyboard-response", "trial_index": 150, "time_elapsed": 458554, "internal_node_id": "0.0-6.0-55.0"}}, {"uniqueid": "w28903728:a60433848", "current_trial": 151, "dateTime": 1664555845654, "trialdata": {"rt": 724, "stimulus": "<p id='stroop-text' class='stroop-blue'>BLUE</p>", "response": "b", "stimulus-type": "congruent", "word": "blue", "color": "blue", "correct_response": "b", "trial_id": "stroop-trial-1-congruent-10", "trial_type": "html-keyboard-response", "trial_index": 151, "time_elapsed": 459784, "internal_node_id": "0.0-6.0-56.0"}}, {"uniqueid": "w28903728:a60433848", "current_trial": 152, "dateTime": 1664555846772, "trialdata": {"rt": 612, "stimulus": "<p id='stroop-text' class='stroop-blue'>SHIP</p>", "response": "b", "stimulus-type": "unrelated", "word": "SHIP", "color": "blue", "correct_response": "b", "trial_id": "stroop-trial-1-unrelated-8", "trial_type": "html-keyboard-response", "trial_index": 152, "time_elapsed": 460901, "internal_node_id": "0.0-6.0-57.0"}}, {"uniqueid": "w28903728:a60433848", "current_trial": 153, "dateTime": 1664555847782, "trialdata": {"rt": 501, "stimulus": "<p id='stroop-text' class='stroop-blue'>YELLOW</p>", "response": "b", "stimulus-type": "incongruent", "word": "yellow", "color": "blue", "correct_response": "b", "trial_id": "stroop-trial-1-incongruent-20", "trial_type": "html-keyboard-response", "trial_index": 153, "time_elapsed": 461911, "internal_node_id": "0.0-6.0-58.0"}}, {"uniqueid": "w28903728:a60433848", "current_trial": 154, "dateTime": 1664555848791, "trialdata": {"rt": 503, "stimulus": "<p id='stroop-text' class='stroop-blue'>WINDOW</p>", "response": "b", "stimulus-type": "unrelated", "word": "WINDOW", "color": "blue", "correct_response": "b", "trial_id": "stroop-trial-1-unrelated-11", "trial_type": "html-keyboard-response", "trial_index": 154, "time_elapsed": 462921, "internal_node_id": "0.0-6.0-59.0"}}, {"uniqueid": "w28903728:a60433848", "current_trial": 155, "dateTime": 1664555849924, "trialdata": {"rt": 625, "stimulus": "<p id='stroop-text' class='stroop-yellow'>STONE</p>", "response": "y", "stimulus-type": "unrelated", "word": "STONE", "color": "yellow", "correct_response": "y", "trial_id": "stroop-trial-1-unrelated-21", "trial_type": "html-keyboard-response", "trial_index": 155, "time_elapsed": 464053, "internal_node_id": "0.0-6.0-60.0"}}, {"uniqueid": "w28903728:a60433848", "current_trial": 156, "dateTime": 1664555851087, "trialdata": {"rt": 656, "stimulus": "<p id='stroop-text' class='stroop-blue'>BLUE</p>", "response": "b", "stimulus-type": "congruent", "word": "blue", "color": "blue", "correct_response": "b", "trial_id": "stroop-trial-1-congruent-24", "trial_type": "html-keyboard-response", "trial_index": 156, "time_elapsed": 465216, "internal_node_id": "0.0-6.0-61.0"}}, {"uniqueid": "w28903728:a60433848", "current_trial": 157, "dateTime": 1664555852299, "trialdata": {"rt": 707, "stimulus": "<p id='stroop-text' class='stroop-red'>CHAIR</p>", "response": "r", "stimulus-type": "unrelated", "word": "CHAIR", "color": "red", "correct_response": "r", "trial_id": "stroop-trial-1-unrelated-27", "trial_type": "html-keyboard-response", "trial_index": 157, "time_elapsed": 466428, "internal_node_id": "0.0-6.0-62.0"}}, {"uniqueid": "w28903728:a60433848", "current_trial": 158, "dateTime": 1664555853497, "trialdata": {"rt": 694, "stimulus": "<p id='stroop-text' class='stroop-blue'>BLUE</p>", "response": "b", "stimulus-type": "congruent", "word": "blue", "color": "blue", "correct_response": "b", "trial_id": "stroop-trial-1-congruent-23", "trial_type": "html-keyboard-response", "trial_index": 158, "time_elapsed": 467627, "internal_node_id": "0.0-6.0-63.0"}}, {"uniqueid": "w28903728:a60433848", "current_trial": 159, "dateTime": 1664555854736, "trialdata": {"rt": 730, "stimulus": "<p id='stroop-text' class='stroop-red'>RED</p>", "response": "r", "stimulus-type": "congruent", "word": "red", "color": "red", "correct_response": "r", "trial_id": "stroop-trial-1-congruent-15", "trial_type": "html-keyboard-response", "trial_index": 159, "time_elapsed": 468865, "internal_node_id": "0.0-6.0-64.0"}}, {"uniqueid": "w28903728:a60433848", "current_trial": 160, "dateTime": 1664555856063, "trialdata": {"rt": 822, "stimulus": "<p id='stroop-text' class='stroop-yellow'>YELLOW</p>", "response": "y", "stimulus-type": "congruent", "word": "yellow", "color": "yellow", "correct_response": "y", "trial_id": "stroop-trial-1-congruent-12", "trial_type": "html-keyboard-response", "trial_index": 160, "time_elapsed": 470192, "internal_node_id": "0.0-6.0-65.0"}}, {"uniqueid": "w28903728:a60433848", "current_trial": 161, "dateTime": 1664555857413, "trialdata": {"rt": 843, "stimulus": "<p id='stroop-text' class='stroop-red'>RED</p>", "response": "r", "stimulus-type": "congruent", "word": "red", "color": "red", "correct_response": "r", "trial_id": "stroop-trial-1-congruent-13", "trial_type": "html-keyboard-response", "trial_index": 161, "time_elapsed": 471542, "internal_node_id": "0.0-6.0-66.0"}}, {"uniqueid": "w28903728:a60433848", "current_trial": 162, "dateTime": 1664555858738, "trialdata": {"rt": 819, "stimulus": "<p id='stroop-text' class='stroop-green'>GREEN</p>", "response": "g", "stimulus-type": "congruent", "word": "green", "color": "green", "correct_response": "g", "trial_id": "stroop-trial-1-congruent-29", "trial_type": "html-keyboard-response", "trial_index": 162, "time_elapsed": 472867, "internal_node_id": "0.0-6.0-67.0"}}, {"uniqueid": "w28903728:a60433848", "current_trial": 163, "dateTime": 1664555860042, "trialdata": {"rt": 799, "stimulus": "<p id='stroop-text' class='stroop-blue'>BLUE</p>", "response": "b", "stimulus-type": "congruent", "word": "blue", "color": "blue", "correct_response": "b", "trial_id": "stroop-trial-1-congruent-18", "trial_type": "html-keyboard-response", "trial_index": 163, "time_elapsed": 474172, "internal_node_id": "0.0-6.0-68.0"}}, {"uniqueid": "w28903728:a60433848", "current_trial": 164, "dateTime": 1664555861150, "trialdata": {"rt": 599, "stimulus": "<p id='stroop-text' class='stroop-blue'>BLUE</p>", "response": "b", "stimulus-type": "congruent", "word": "blue", "color": "blue", "correct_response": "b", "trial_id": "stroop-trial-1-congruent-4", "trial_type": "html-keyboard-response", "trial_index": 164, "time_elapsed": 475280, "internal_node_id": "0.0-6.0-69.0"}}, {"uniqueid": "w28903728:a60433848", "current_trial": 165, "dateTime": 1664555862167, "trialdata": {"rt": 508, "stimulus": "<p id='stroop-text' class='stroop-blue'>FORK</p>", "response": "b", "stimulus-type": "unrelated", "word": "FORK", "color": "blue", "correct_response": "b", "trial_id": "stroop-trial-1-unrelated-2", "trial_type": "html-keyboard-response", "trial_index": 165, "time_elapsed": 476296, "internal_node_id": "0.0-6.0-70.0"}}, {"uniqueid": "w28903728:a60433848", "current_trial": 166, "dateTime": 1664555863317, "trialdata": {"rt": 643, "stimulus": "<p id='stroop-text' class='stroop-yellow'>BLUE</p>", "response": "y", "stimulus-type": "incongruent", "word": "blue", "color": "yellow", "correct_response": "y", "trial_id": "stroop-trial-1-incongruent-9", "trial_type": "html-keyboard-response", "trial_index": 166, "time_elapsed": 477446, "internal_node_id": "0.0-6.0-71.0"}}, {"uniqueid": "w28903728:a60433848", "current_trial": 167, "dateTime": 1664555864652, "trialdata": {"rt": 828, "stimulus": "<p id='stroop-text' class='stroop-blue'>BLUE</p>", "response": "b", "stimulus-type": "congruent", "word": "blue", "color": "blue", "correct_response": "b", "trial_id": "stroop-trial-1-congruent-30", "trial_type": "html-keyboard-response", "trial_index": 167, "time_elapsed": 478782, "internal_node_id": "0.0-6.0-72.0"}}, {"uniqueid": "w28903728:a60433848", "current_trial": 168, "dateTime": 1664555865921, "trialdata": {"rt": 761, "stimulus": "<p id='stroop-text' class='stroop-green'>GREEN</p>", "response": "g", "stimulus-type": "congruent", "word": "green", "color": "green", "correct_response": "g", "trial_id": "stroop-trial-1-congruent-16", "trial_type": "html-keyboard-response", "trial_index": 168, "time_elapsed": 480050, "internal_node_id": "0.0-6.0-73.0"}}, {"uniqueid": "w28903728:a60433848", "current_trial": 169, "dateTime": 1664555867149, "trialdata": {"rt": 722, "stimulus": "<p id='stroop-text' class='stroop-yellow'>YELLOW</p>", "response": "y", "stimulus-type": "congruent", "word": "yellow", "color": "yellow", "correct_response": "y", "trial_id": "stroop-trial-1-congruent-8", "trial_type": "html-keyboard-response", "trial_index": 169, "time_elapsed": 481279, "internal_node_id": "0.0-6.0-74.0"}}, {"uniqueid": "w28903728:a60433848", "current_trial": 170, "dateTime": 1664555868284, "trialdata": {"rt": 628, "stimulus": "<p id='stroop-text' class='stroop-yellow'>YELLOW</p>", "response": "y", "stimulus-type": "congruent", "word": "yellow", "color": "yellow", "correct_response": "y", "trial_id": "stroop-trial-1-congruent-7", "trial_type": "html-keyboard-response", "trial_index": 170, "time_elapsed": 482413, "internal_node_id": "0.0-6.0-75.0"}}, {"uniqueid": "w28903728:a60433848", "current_trial": 171, "dateTime": 1664555869302, "trialdata": {"rt": 512, "stimulus": "<p id='stroop-text' class='stroop-yellow'>YELLOW</p>", "response": "y", "stimulus-type": "congruent", "word": "yellow", "color": "yellow", "correct_response": "y", "trial_id": "stroop-trial-1-congruent-22", "trial_type": "html-keyboard-response", "trial_index": 171, "time_elapsed": 483431, "internal_node_id": "0.0-6.0-76.0"}}, {"uniqueid": "w28903728:a60433848", "current_trial": 172, "dateTime": 1664555870511, "trialdata": {"rt": 705, "stimulus": "<p id='stroop-text' class='stroop-red'>MONKEY</p>", "response": "r", "stimulus-type": "unrelated", "word": "MONKEY", "color": "red", "correct_response": "r", "trial_id": "stroop-trial-1-unrelated-29", "trial_type": "html-keyboard-response", "trial_index": 172, "time_elapsed": 484640, "internal_node_id": "0.0-6.0-77.0"}}, {"uniqueid": "w28903728:a60433848", "current_trial": 173, "dateTime": 1664555871684, "trialdata": {"rt": 666, "stimulus": "<p id='stroop-text' class='stroop-blue'>BLUE</p>", "response": "b", "stimulus-type": "congruent", "word": "blue", "color": "blue", "correct_response": "b", "trial_id": "stroop-trial-1-congruent-5", "trial_type": "html-keyboard-response", "trial_index": 173, "time_elapsed": 485814, "internal_node_id": "0.0-6.0-78.0"}}, {"uniqueid": "w28903728:a60433848", "current_trial": 174, "dateTime": 1664555872943, "trialdata": {"rt": 752, "stimulus": "<p id='stroop-text' class='stroop-yellow'>YELLOW</p>", "response": "y", "stimulus-type": "congruent", "word": "yellow", "color": "yellow", "correct_response": "y", "trial_id": "stroop-trial-1-congruent-3", "trial_type": "html-keyboard-response", "trial_index": 174, "time_elapsed": 487072, "internal_node_id": "0.0-6.0-79.0"}}, {"uniqueid": "w28903728:a60433848", "current_trial": 175, "dateTime": 1664555874341, "trialdata": {"rt": 892, "stimulus": "<p id='stroop-text' class='stroop-blue'>GREEN</p>", "response": "b", "stimulus-type": "incongruent", "word": "green", "color": "blue", "correct_response": "b", "trial_id": "stroop-trial-1-incongruent-25", "trial_type": "html-keyboard-response", "trial_index": 175, "time_elapsed": 488470, "internal_node_id": "0.0-6.0-80.0"}}, {"uniqueid": "w28903728:a60433848", "current_trial": 176, "dateTime": 1664555875689, "trialdata": {"rt": 843, "stimulus": "<p id='stroop-text' class='stroop-red'>BLUE</p>", "response": "r", "stimulus-type": "incongruent", "word": "blue", "color": "red", "correct_response": "r", "trial_id": "stroop-trial-1-incongruent-27", "trial_type": "html-keyboard-response", "trial_index": 176, "time_elapsed": 489819, "internal_node_id": "0.0-6.0-81.0"}}, {"uniqueid": "w28903728:a60433848", "current_trial": 177, "dateTime": 1664555876821, "trialdata": {"rt": 625, "stimulus": "<p id='stroop-text' class='stroop-red'>YELLOW</p>", "response": "r", "stimulus-type": "incongruent", "word": "yellow", "color": "red", "correct_response": "r", "trial_id": "stroop-trial-1-incongruent-14", "trial_type": "html-keyboard-response", "trial_index": 177, "time_elapsed": 490951, "internal_node_id": "0.0-6.0-82.0"}}, {"uniqueid": "w28903728:a60433848", "current_trial": 178, "dateTime": 1664555877903, "trialdata": {"rt": 575, "stimulus": "<p id='stroop-text' class='stroop-red'>RED</p>", "response": "r", "stimulus-type": "congruent", "word": "red", "color": "red", "correct_response": "r", "trial_id": "stroop-trial-1-congruent-20", "trial_type": "html-keyboard-response", "trial_index": 178, "time_elapsed": 492032, "internal_node_id": "0.0-6.0-83.0"}}, {"uniqueid": "w28903728:a60433848", "current_trial": 179, "dateTime": 1664555879249, "trialdata": {"rt": 837, "stimulus": "<p id='stroop-text' class='stroop-blue'>BLUE</p>", "response": "b", "stimulus-type": "congruent", "word": "blue", "color": "blue", "correct_response": "b", "trial_id": "stroop-trial-1-congruent-21", "trial_type": "html-keyboard-response", "trial_index": 179, "time_elapsed": 493379, "internal_node_id": "0.0-6.0-84.0"}}, {"uniqueid": "w28903728:a60433848", "current_trial": 180, "dateTime": 1664555880391, "trialdata": {"rt": 634, "stimulus": "<p id='stroop-text' class='stroop-blue'>WINDOW</p>", "response": "b", "stimulus-type": "unrelated", "word": "WINDOW", "color": "blue", "correct_response": "b", "trial_id": "stroop-trial-1-unrelated-9", "trial_type": "html-keyboard-response", "trial_index": 180, "time_elapsed": 494520, "internal_node_id": "0.0-6.0-85.0"}}, {"uniqueid": "w28903728:a60433848", "current_trial": 181, "dateTime": 1664555881498, "trialdata": {"rt": 600, "stimulus": "<p id='stroop-text' class='stroop-blue'>GREEN</p>", "response": "b", "stimulus-type": "incongruent", "word": "green", "color": "blue", "correct_response": "b", "trial_id": "stroop-trial-1-incongruent-19", "trial_type": "html-keyboard-response", "trial_index": 181, "time_elapsed": 495628, "internal_node_id": "0.0-6.0-86.0"}}, {"uniqueid": "w28903728:a60433848", "current_trial": 182, "dateTime": 1664555882541, "trialdata": {"rt": 537, "stimulus": "<p id='stroop-text' class='stroop-yellow'>RED</p>", "response": "y", "stimulus-type": "incongruent", "word": "red", "color": "yellow", "correct_response": "y", "trial_id": "stroop-trial-1-incongruent-6", "trial_type": "html-keyboard-response", "trial_index": 182, "time_elapsed": 496670, "internal_node_id": "0.0-6.0-87.0"}}, {"uniqueid": "w28903728:a60433848", "current_trial": 183, "dateTime": 1664555883751, "trialdata": {"rt": 702, "stimulus": "<p id='stroop-text' class='stroop-blue'>RED</p>", "response": "b", "stimulus-type": "incongruent", "word": "red", "color": "blue", "correct_response": "b", "trial_id": "stroop-trial-1-incongruent-15", "trial_type": "html-keyboard-response", "trial_index": 183, "time_elapsed": 497881, "internal_node_id": "0.0-6.0-88.0"}}, {"uniqueid": "w28903728:a60433848", "current_trial": 184, "dateTime": 1664555885022, "trialdata": {"rt": 764, "stimulus": "<p id='stroop-text' class='stroop-red'>BRAIN</p>", "response": "r", "stimulus-type": "unrelated", "word": "BRAIN", "color": "red", "correct_response": "r", "trial_id": "stroop-trial-1-unrelated-6", "trial_type": "html-keyboard-response", "trial_index": 184, "time_elapsed": 499152, "internal_node_id": "0.0-6.0-89.0"}}, {"uniqueid": "w28903728:a60433848", "current_trial": 185, "dateTime": 1664555891231, "trialdata": {"rt": 5700, "stimulus": "  <h1> End of block! </h1>\n\n  You have reached the end of the block 2/5. If you need a short break, feel free to take one now before moving on.\n\n  <br><br>\n  In the next block, you will complete another 90 rounds of this game.\n\n  <br><br>\n  <div style='text-align: center;'>Press <code>space</code> to begin.</div>\n  <br><br>\n<div style='text-align: center;'>(If the experiment doesn't continue, try clicking on the text and then pressing <code>space</code>.)</div>", "response": " ", "trial_id": "stroop_1_ready_3", "trial_type": "html-keyboard-response", "trial_index": 185, "time_elapsed": 505361, "internal_node_id": "0.0-7.0"}}, {"uniqueid": "w28903728:a60433848", "current_trial": 186, "dateTime": 1664555892730, "trialdata": {"rt": 1491, "stimulus": "<p id='stroop-text' class='stroop-yellow'>DOG</p>", "response": "y", "stimulus-type": "unrelated", "word": "DOG", "color": "yellow", "correct_response": "y", "trial_id": "stroop-trial-1-unrelated-18", "trial_type": "html-keyboard-response", "trial_index": 186, "time_elapsed": 506860, "internal_node_id": "0.0-8.0-0.0"}}, {"uniqueid": "w28903728:a60433848", "current_trial": 187, "dateTime": 1664555893874, "trialdata": {"rt": 637, "stimulus": "<p id='stroop-text' class='stroop-blue'>GREEN</p>", "response": "b", "stimulus-type": "incongruent", "word": "green", "color": "blue", "correct_response": "b", "trial_id": "stroop-trial-1-incongruent-16", "trial_type": "html-keyboard-response", "trial_index": 187, "time_elapsed": 508003, "internal_node_id": "0.0-8.0-1.0"}}, {"uniqueid": "w28903728:a60433848", "current_trial": 188, "dateTime": 1664555895093, "trialdata": {"rt": 711, "stimulus": "<p id='stroop-text' class='stroop-red'>RED</p>", "response": "r", "stimulus-type": "congruent", "word": "red", "color": "red", "correct_response": "r", "trial_id": "stroop-trial-1-congruent-3", "trial_type": "html-keyboard-response", "trial_index": 188, "time_elapsed": 509222, "internal_node_id": "0.0-8.0-2.0"}}, {"uniqueid": "w28903728:a60433848", "current_trial": 189, "dateTime": 1664555896226, "trialdata": {"rt": 624, "stimulus": "<p id='stroop-text' class='stroop-yellow'>YELLOW</p>", "response": "y", "stimulus-type": "congruent", "word": "yellow", "color": "yellow", "correct_response": "y", "trial_id": "stroop-trial-1-congruent-21", "trial_type": "html-keyboard-response", "trial_index": 189, "time_elapsed": 510356, "internal_node_id": "0.0-8.0-3.0"}}, {"uniqueid": "w28903728:a60433848", "current_trial": 190, "dateTime": 1664555897703, "trialdata": {"rt": 968, "stimulus": "<p id='stroop-text' class='stroop-red'>STONE</p>", "response": "r", "stimulus-type": "unrelated", "word": "STONE", "color": "red", "correct_response": "r", "trial_id": "stroop-trial-1-unrelated-22", "trial_type": "html-keyboard-response", "trial_index": 190, "time_elapsed": 511833, "internal_node_id": "0.0-8.0-4.0"}}, {"uniqueid": "w28903728:a60433848", "current_trial": 191, "dateTime": 1664555899055, "trialdata": {"rt": 845, "stimulus": "<p id='stroop-text' class='stroop-blue'>YELLOW</p>", "response": "b", "stimulus-type": "incongruent", "word": "yellow", "color": "blue", "correct_response": "b", "trial_id": "stroop-trial-1-incongruent-12", "trial_type": "html-keyboard-response", "trial_index": 191, "time_elapsed": 513185, "internal_node_id": "0.0-8.0-5.0"}}, {"uniqueid": "w28903728:a60433848", "current_trial": 192, "dateTime": 1664555900614, "trialdata": {"rt": 1051, "stimulus": "<p id='stroop-text' class='stroop-blue'>BOTTLE</p>", "response": "b", "stimulus-type": "unrelated", "word": "BOTTLE", "color": "blue", "correct_response": "b", "trial_id": "stroop-trial-1-unrelated-1", "trial_type": "html-keyboard-response", "trial_index": 192, "time_elapsed": 514743, "internal_node_id": "0.0-8.0-6.0"}}, {"uniqueid": "w28903728:a60433848", "current_trial": 193, "dateTime": 1664555901701, "trialdata": {"rt": 580, "stimulus": "<p id='stroop-text' class='stroop-yellow'>YELLOW</p>", "response": "y", "stimulus-type": "congruent", "word": "yellow", "color": "yellow", "correct_response": "y", "trial_id": "stroop-trial-1-congruent-22", "trial_type": "html-keyboard-response", "trial_index": 193, "time_elapsed": 515831, "internal_node_id": "0.0-8.0-7.0"}}, {"uniqueid": "w28903728:a60433848", "current_trial": 194, "dateTime": 1664555902997, "trialdata": {"rt": 787, "stimulus": "<p id='stroop-text' class='stroop-yellow'>GREEN</p>", "response": "y", "stimulus-type": "incongruent", "word": "green", "color": "yellow", "correct_response": "y", "trial_id": "stroop-trial-1-incongruent-15", "trial_type": "html-keyboard-response", "trial_index": 194, "time_elapsed": 517126, "internal_node_id": "0.0-8.0-8.0"}}, {"uniqueid": "w28903728:a60433848", "current_trial": 195, "dateTime": 1664555904027, "trialdata": {"rt": 523, "stimulus": "<p id='stroop-text' class='stroop-yellow'>YELLOW</p>", "response": "y", "stimulus-type": "congruent", "word": "yellow", "color": "yellow", "correct_response": "y", "trial_id": "stroop-trial-1-congruent-5", "trial_type": "html-keyboard-response", "trial_index": 195, "time_elapsed": 518156, "internal_node_id": "0.0-8.0-9.0"}}, {"uniqueid": "w28903728:a60433848", "current_trial": 196, "dateTime": 1664555905584, "trialdata": {"rt": 1049, "stimulus": "<p id='stroop-text' class='stroop-green'>RED</p>", "response": "g", "stimulus-type": "incongruent", "word": "red", "color": "green", "correct_response": "g", "trial_id": "stroop-trial-1-incongruent-27", "trial_type": "html-keyboard-response", "trial_index": 196, "time_elapsed": 519714, "internal_node_id": "0.0-8.0-10.0"}}, {"uniqueid": "w28903728:a60433848", "current_trial": 197, "dateTime": 1664555906857, "trialdata": {"rt": 766, "stimulus": "<p id='stroop-text' class='stroop-red'>CHAIR</p>", "response": "r", "stimulus-type": "unrelated", "word": "CHAIR", "color": "red", "correct_response": "r", "trial_id": "stroop-trial-1-unrelated-3", "trial_type": "html-keyboard-response", "trial_index": 197, "time_elapsed": 520986, "internal_node_id": "0.0-8.0-11.0"}}, {"uniqueid": "w28903728:a60433848", "current_trial": 198, "dateTime": 1664555908206, "trialdata": {"rt": 843, "stimulus": "<p id='stroop-text' class='stroop-yellow'>BLUE</p>", "response": "y", "stimulus-type": "incongruent", "word": "blue", "color": "yellow", "correct_response": "y", "trial_id": "stroop-trial-1-incongruent-20", "trial_type": "html-keyboard-response", "trial_index": 198, "time_elapsed": 522336, "internal_node_id": "0.0-8.0-12.0"}}, {"uniqueid": "w28903728:a60433848", "current_trial": 199, "dateTime": 1664555909430, "trialdata": {"rt": 714, "stimulus": "<p id='stroop-text' class='stroop-yellow'>YELLOW</p>", "response": "y", "stimulus-type": "congruent", "word": "yellow", "color": "yellow", "correct_response": "y", "trial_id": "stroop-trial-1-congruent-20", "trial_type": "html-keyboard-response", "trial_index": 199, "time_elapsed": 523559, "internal_node_id": "0.0-8.0-13.0"}}, {"uniqueid": "w28903728:a60433848", "current_trial": 200, "dateTime": 1664555910746, "trialdata": {"rt": 809, "stimulus": "<p id='stroop-text' class='stroop-blue'>BLUE</p>", "response": "b", "stimulus-type": "congruent", "word": "blue", "color": "blue", "correct_response": "b", "trial_id": "stroop-trial-1-congruent-17", "trial_type": "html-keyboard-response", "trial_index": 200, "time_elapsed": 524875, "internal_node_id": "0.0-8.0-14.0"}}, {"uniqueid": "w28903728:a60433848", "current_trial": 201, "dateTime": 1664555911989, "trialdata": {"rt": 736, "stimulus": "<p id='stroop-text' class='stroop-blue'>RED</p>", "response": "b", "stimulus-type": "incongruent", "word": "red", "color": "blue", "correct_response": "b", "trial_id": "stroop-trial-1-incongruent-23", "trial_type": "html-keyboard-response", "trial_index": 201, "time_elapsed": 526118, "internal_node_id": "0.0-8.0-15.0"}}, {"uniqueid": "w28903728:a60433848", "current_trial": 202, "dateTime": 1664555913309, "trialdata": {"rt": 809, "stimulus": "<p id='stroop-text' class='stroop-red'>SHIP</p>", "response": "y", "stimulus-type": "unrelated", "word": "SHIP", "color": "red", "correct_response": "r", "trial_id": "stroop-trial-1-unrelated-9", "trial_type": "html-keyboard-response", "trial_index": 202, "time_elapsed": 527438, "internal_node_id": "0.0-8.0-16.0"}}, {"uniqueid": "w28903728:a60433848", "current_trial": 203, "dateTime": 1664555914629, "trialdata": {"rt": 813, "stimulus": "<p id='stroop-text' class='stroop-red'>RED</p>", "response": "r", "stimulus-type": "congruent", "word": "red", "color": "red", "correct_response": "r", "trial_id": "stroop-trial-1-congruent-7", "trial_type": "html-keyboard-response", "trial_index": 203, "time_elapsed": 528759, "internal_node_id": "0.0-8.0-17.0"}}, {"uniqueid": "w28903728:a60433848", "current_trial": 204, "dateTime": 1664555916155, "trialdata": {"rt": 1017, "stimulus": "<p id='stroop-text' class='stroop-red'>RED</p>", "response": "r", "stimulus-type": "congruent", "word": "red", "color": "red", "correct_response": "r", "trial_id": "stroop-trial-1-congruent-8", "trial_type": "html-keyboard-response", "trial_index": 204, "time_elapsed": 530284, "internal_node_id": "0.0-8.0-18.0"}}, {"uniqueid": "w28903728:a60433848", "current_trial": 205, "dateTime": 1664555917716, "trialdata": {"rt": 1054, "stimulus": "<p id='stroop-text' class='stroop-green'>YELLOW</p>", "response": "g", "stimulus-type": "incongruent", "word": "yellow", "color": "green", "correct_response": "g", "trial_id": "stroop-trial-1-incongruent-26", "trial_type": "html-keyboard-response", "trial_index": 205, "time_elapsed": 531845, "internal_node_id": "0.0-8.0-19.0"}}, {"uniqueid": "w28903728:a60433848", "current_trial": 206, "dateTime": 1664555919116, "trialdata": {"rt": 894, "stimulus": "<p id='stroop-text' class='stroop-red'>YELLOW</p>", "response": "r", "stimulus-type": "incongruent", "word": "yellow", "color": "red", "correct_response": "r", "trial_id": "stroop-trial-1-incongruent-6", "trial_type": "html-keyboard-response", "trial_index": 206, "time_elapsed": 533246, "internal_node_id": "0.0-8.0-20.0"}}, {"uniqueid": "w28903728:a60433848", "current_trial": 207, "dateTime": 1664555920314, "trialdata": {"rt": 690, "stimulus": "<p id='stroop-text' class='stroop-yellow'>YELLOW</p>", "response": "y", "stimulus-type": "congruent", "word": "yellow", "color": "yellow", "correct_response": "y", "trial_id": "stroop-trial-1-congruent-16", "trial_type": "html-keyboard-response", "trial_index": 207, "time_elapsed": 534443, "internal_node_id": "0.0-8.0-21.0"}}, {"uniqueid": "w28903728:a60433848", "current_trial": 208, "dateTime": 1664555921509, "trialdata": {"rt": 688, "stimulus": "<p id='stroop-text' class='stroop-blue'>BLUE</p>", "response": "b", "stimulus-type": "congruent", "word": "blue", "color": "blue", "correct_response": "b", "trial_id": "stroop-trial-1-congruent-26", "trial_type": "html-keyboard-response", "trial_index": 208, "time_elapsed": 535638, "internal_node_id": "0.0-8.0-22.0"}}, {"uniqueid": "w28903728:a60433848", "current_trial": 209, "dateTime": 1664555922662, "trialdata": {"rt": 643, "stimulus": "<p id='stroop-text' class='stroop-blue'>BLUE</p>", "response": "b", "stimulus-type": "congruent", "word": "blue", "color": "blue", "correct_response": "b", "trial_id": "stroop-trial-1-congruent-4", "trial_type": "html-keyboard-response", "trial_index": 209, "time_elapsed": 536791, "internal_node_id": "0.0-8.0-23.0"}}, {"uniqueid": "w28903728:a60433848", "current_trial": 210, "dateTime": 1664555924028, "trialdata": {"rt": 859, "stimulus": "<p id='stroop-text' class='stroop-green'>RED</p>", "response": "g", "stimulus-type": "incongruent", "word": "red", "color": "green", "correct_response": "g", "trial_id": "stroop-trial-1-incongruent-4", "trial_type": "html-keyboard-response", "trial_index": 210, "time_elapsed": 538158, "internal_node_id": "0.0-8.0-24.0"}}, {"uniqueid": "w28903728:a60433848", "current_trial": 211, "dateTime": 1664555925347, "trialdata": {"rt": 812, "stimulus": "<p id='stroop-text' class='stroop-red'>STONE</p>", "response": "r", "stimulus-type": "unrelated", "word": "STONE", "color": "red", "correct_response": "r", "trial_id": "stroop-trial-1-unrelated-23", "trial_type": "html-keyboard-response", "trial_index": 211, "time_elapsed": 539477, "internal_node_id": "0.0-8.0-25.0"}}, {"uniqueid": "w28903728:a60433848", "current_trial": 212, "dateTime": 1664555926765, "trialdata": {"rt": 910, "stimulus": "<p id='stroop-text' class='stroop-blue'>YELLOW</p>", "response": "b", "stimulus-type": "incongruent", "word": "yellow", "color": "blue", "correct_response": "b", "trial_id": "stroop-trial-1-incongruent-18", "trial_type": "html-keyboard-response", "trial_index": 212, "time_elapsed": 540895, "internal_node_id": "0.0-8.0-26.0"}}, {"uniqueid": "w28903728:a60433848", "current_trial": 213, "dateTime": 1664555928529, "trialdata": {"rt": 1255, "stimulus": "<p id='stroop-text' class='stroop-blue'>BOAT</p>", "response": "b", "stimulus-type": "unrelated", "word": "BOAT", "color": "blue", "correct_response": "b", "trial_id": "stroop-trial-1-unrelated-10", "trial_type": "html-keyboard-response", "trial_index": 213, "time_elapsed": 542658, "internal_node_id": "0.0-8.0-27.0"}}, {"uniqueid": "w28903728:a60433848", "current_trial": 214, "dateTime": 1664555929932, "trialdata": {"rt": 894, "stimulus": "<p id='stroop-text' class='stroop-green'>STONE</p>", "response": "g", "stimulus-type": "unrelated", "word": "STONE", "color": "green", "correct_response": "g", "trial_id": "stroop-trial-1-unrelated-4", "trial_type": "html-keyboard-response", "trial_index": 214, "time_elapsed": 544061, "internal_node_id": "0.0-8.0-28.0"}}, {"uniqueid": "w28903728:a60433848", "current_trial": 215, "dateTime": 1664555931293, "trialdata": {"rt": 853, "stimulus": "<p id='stroop-text' class='stroop-red'>YELLOW</p>", "response": "r", "stimulus-type": "incongruent", "word": "yellow", "color": "red", "correct_response": "r", "trial_id": "stroop-trial-1-incongruent-29", "trial_type": "html-keyboard-response", "trial_index": 215, "time_elapsed": 545422, "internal_node_id": "0.0-8.0-29.0"}}, {"uniqueid": "w28903728:a60433848", "current_trial": 216, "dateTime": 1664555932447, "trialdata": {"rt": 647, "stimulus": "<p id='stroop-text' class='stroop-red'>STONE</p>", "response": "r", "stimulus-type": "unrelated", "word": "STONE", "color": "red", "correct_response": "r", "trial_id": "stroop-trial-1-unrelated-20", "trial_type": "html-keyboard-response", "trial_index": 216, "time_elapsed": 546577, "internal_node_id": "0.0-8.0-30.0"}}, {"uniqueid": "w28903728:a60433848", "current_trial": 217, "dateTime": 1664555933813, "trialdata": {"rt": 858, "stimulus": "<p id='stroop-text' class='stroop-green'>BLUE</p>", "response": "g", "stimulus-type": "incongruent", "word": "blue", "color": "green", "correct_response": "g", "trial_id": "stroop-trial-1-incongruent-2", "trial_type": "html-keyboard-response", "trial_index": 217, "time_elapsed": 547942, "internal_node_id": "0.0-8.0-31.0"}}, {"uniqueid": "w28903728:a60433848", "current_trial": 218, "dateTime": 1664555934977, "trialdata": {"rt": 655, "stimulus": "<p id='stroop-text' class='stroop-green'>MONKEY</p>", "response": "g", "stimulus-type": "unrelated", "word": "MONKEY", "color": "green", "correct_response": "g", "trial_id": "stroop-trial-1-unrelated-5", "trial_type": "html-keyboard-response", "trial_index": 218, "time_elapsed": 549107, "internal_node_id": "0.0-8.0-32.0"}}, {"uniqueid": "w28903728:a60433848", "current_trial": 219, "dateTime": 1664555936355, "trialdata": {"rt": 871, "stimulus": "<p id='stroop-text' class='stroop-red'>GREEN</p>", "response": "r", "stimulus-type": "incongruent", "word": "green", "color": "red", "correct_response": "r", "trial_id": "stroop-trial-1-incongruent-3", "trial_type": "html-keyboard-response", "trial_index": 219, "time_elapsed": 550485, "internal_node_id": "0.0-8.0-33.0"}}, {"uniqueid": "w28903728:a60433848", "current_trial": 220, "dateTime": 1664555937538, "trialdata": {"rt": 675, "stimulus": "<p id='stroop-text' class='stroop-yellow'>WINDOW</p>", "response": "y", "stimulus-type": "unrelated", "word": "WINDOW", "color": "yellow", "correct_response": "y", "trial_id": "stroop-trial-1-unrelated-6", "trial_type": "html-keyboard-response", "trial_index": 220, "time_elapsed": 551667, "internal_node_id": "0.0-8.0-34.0"}}, {"uniqueid": "w28903728:a60433848", "current_trial": 221, "dateTime": 1664555939011, "trialdata": {"rt": 966, "stimulus": "<p id='stroop-text' class='stroop-red'>RED</p>", "response": "r", "stimulus-type": "congruent", "word": "red", "color": "red", "correct_response": "r", "trial_id": "stroop-trial-1-congruent-29", "trial_type": "html-keyboard-response", "trial_index": 221, "time_elapsed": 553140, "internal_node_id": "0.0-8.0-35.0"}}, {"uniqueid": "w28903728:a60433848", "current_trial": 222, "dateTime": 1664555940278, "trialdata": {"rt": 759, "stimulus": "<p id='stroop-text' class='stroop-green'>YELLOW</p>", "response": "g", "stimulus-type": "incongruent", "word": "yellow", "color": "green", "correct_response": "g", "trial_id": "stroop-trial-1-incongruent-24", "trial_type": "htm