{"condition": 0, "counterbalance": 0, "assignmentId": "a11983381", "workerId": "w65371345", "hitId": "h17759394", "currenttrial": 971, "bonus": 0, "data": [{"uniqueid": "w65371345:a11983381", "current_trial": 0, "dateTime": 1664370825370, "trialdata": {"success": true, "trial_type": "fullscreen", "trial_index": 0, "time_elapsed": 111721, "internal_node_id": "0.0-0.0"}}, {"uniqueid": "w65371345:a11983381", "current_trial": 1, "dateTime": 1664370849205, "trialdata": {"view_history": [{"page_index": 0, "viewing_time": 23820}], "rt": 23822, "trial_id": "exp_instructions_distractor", "trial_type": "instructions", "trial_index": 1, "time_elapsed": 135558, "internal_node_id": "0.0-1.0"}}, {"uniqueid": "w65371345:a11983381", "current_trial": 2, "dateTime": 1664370867346, "trialdata": {"view_history": [{"page_index": 0, "viewing_time": 18137}], "rt": 18138, "trial_id": "color_game_instructions", "trial_type": "instructions", "trial_index": 2, "time_elapsed": 153699, "internal_node_id": "0.0-2.0"}}, {"uniqueid": "w65371345:a11983381", "current_trial": 3, "dateTime": 1664370869517, "trialdata": {"rt": 2168, "stimulus": "<h1> Get ready to start the game! </h1>\n\nThank you for reading the instructions. Get ready start with the first of 5 block(s) of this game.\n<br><br>\nIn this first block, you will complete 90 rounds of this game before moving on.\n<br><br>\nRemember, the better you perform, the bigger your bonus will be!\n<br><br>\n<div style='text-align: center;'>Press <code>space</code> to begin.</div>", "response": " ", "trial_id": "stroop_1_ready_1", "trial_type": "html-keyboard-response", "trial_index": 3, "time_elapsed": 155870, "internal_node_id": "0.0-3.0"}}, {"uniqueid": "w65371345:a11983381", "current_trial": 4, "dateTime": 1664370870573, "trialdata": {"rt": 1043, "stimulus": "<p id='stroop-text' class='stroop-blue'>BLUE</p>", "response": "b", "stimulus-type": "congruent", "word": "blue", "color": "blue", "correct_response": "b", "trial_id": "stroop-trial-1-congruent-17", "trial_type": "html-keyboard-response", "trial_index": 4, "time_elapsed": 156925, "internal_node_id": "0.0-4.0-0.0"}}, {"uniqueid": "w65371345:a11983381", "current_trial": 5, "dateTime": 1664370871863, "trialdata": {"rt": 780, "stimulus": "<p id='stroop-text' class='stroop-red'>RED</p>", "response": "r", "stimulus-type": "congruent", "word": "red", "color": "red", "correct_response": "r", "trial_id": "stroop-trial-1-congruent-18", "trial_type": "html-keyboard-response", "trial_index": 5, "time_elapsed": 158215, "internal_node_id": "0.0-4.0-1.0"}}, {"uniqueid": "w65371345:a11983381", "current_trial": 6, "dateTime": 1664370873527, "trialdata": {"rt": 1162, "stimulus": "<p id='stroop-text' class='stroop-yellow'>YELLOW</p>", "response": "y", "stimulus-type": "congruent", "word": "yellow", "color": "yellow", "correct_response": "y", "trial_id": "stroop-trial-1-congruent-30", "trial_type": "html-keyboard-response", "trial_index": 6, "time_elapsed": 159879, "internal_node_id": "0.0-4.0-2.0"}}, {"uniqueid": "w65371345:a11983381", "current_trial": 7, "dateTime": 1664370874605, "trialdata": {"rt": 574, "stimulus": "<p id='stroop-text' class='stroop-green'>GREEN</p>", "response": "g", "stimulus-type": "congruent", "word": "green", "color": "green", "correct_response": "g", "trial_id": "stroop-trial-1-congruent-16", "trial_type": "html-keyboard-response", "trial_index": 7, "time_elapsed": 160957, "internal_node_id": "0.0-4.0-3.0"}}, {"uniqueid": "w65371345:a11983381", "current_trial": 8, "dateTime": 1664370876977, "trialdata": {"rt": 1861, "stimulus": "<p id='stroop-text' class='stroop-blue'>BRIDGE</p>", "response": "b", "stimulus-type": "unrelated", "word": "BRIDGE", "color": "blue", "correct_response": "b", "trial_id": "stroop-trial-1-unrelated-8", "trial_type": "html-keyboard-response", "trial_index": 8, "time_elapsed": 163329, "internal_node_id": "0.0-4.0-4.0"}}, {"uniqueid": "w65371345:a11983381", "current_trial": 9, "dateTime": 1664370879053, "trialdata": {"rt": 1572, "stimulus": "<p id='stroop-text' class='stroop-red'>BRIDGE</p>", "response": "r", "stimulus-type": "unrelated", "word": "BRIDGE", "color": "red", "correct_response": "r", "trial_id": "stroop-trial-1-unrelated-16", "trial_type": "html-keyboard-response", "trial_index": 9, "time_elapsed": 165406, "internal_node_id": "0.0-4.0-5.0"}}, {"uniqueid": "w65371345:a11983381", "current_trial": 10, "dateTime": 1664370881010, "trialdata": {"rt": 1454, "stimulus": "<p id='stroop-text' class='stroop-green'>SHIP</p>", "response": "g", "stimulus-type": "unrelated", "word": "SHIP", "color": "green", "correct_response": "g", "trial_id": "stroop-trial-1-unrelated-29", "trial_type": "html-keyboard-response", "trial_index": 10, "time_elapsed": 167362, "internal_node_id": "0.0-4.0-6.0"}}, {"uniqueid": "w65371345:a11983381", "current_trial": 11, "dateTime": 1664370883041, "trialdata": {"rt": 1521, "stimulus": "<p id='stroop-text' class='stroop-red'>GREEN</p>", "response": "r", "stimulus-type": "incongruent", "word": "green", "color": "red", "correct_response": "r", "trial_id": "stroop-trial-1-incongruent-9", "trial_type": "html-keyboard-response", "trial_index": 11, "time_elapsed": 169394, "internal_node_id": "0.0-4.0-7.0"}}, {"uniqueid": "w65371345:a11983381", "current_trial": 12, "dateTime": 1664370884482, "trialdata": {"rt": 935, "stimulus": "<p id='stroop-text' class='stroop-yellow'>YELLOW</p>", "response": "y", "stimulus-type": "congruent", "word": "yellow", "color": "yellow", "correct_response": "y", "trial_id": "stroop-trial-1-congruent-7", "trial_type": "html-keyboard-response", "trial_index": 12, "time_elapsed": 170833, "internal_node_id": "0.0-4.0-8.0"}}, {"uniqueid": "w65371345:a11983381", "current_trial": 13, "dateTime": 1664370886687, "trialdata": {"rt": 1700, "stimulus": "<p id='stroop-text' class='stroop-yellow'>GREEN</p>", "response": "y", "stimulus-type": "incongruent", "word": "green", "color": "yellow", "correct_response": "y", "trial_id": "stroop-trial-1-incongruent-28", "trial_type": "html-keyboard-response", "trial_index": 13, "time_elapsed": 173040, "internal_node_id": "0.0-4.0-9.0"}}, {"uniqueid": "w65371345:a11983381", "current_trial": 14, "dateTime": 1664370889379, "trialdata": {"rt": 2188, "stimulus": "<p id='stroop-text' class='stroop-green'>GREEN</p>", "response": "g", "stimulus-type": "congruent", "word": "green", "color": "green", "correct_response": "g", "trial_id": "stroop-trial-1-congruent-2", "trial_type": "html-keyboard-response", "trial_index": 14, "time_elapsed": 175732, "internal_node_id": "0.0-4.0-10.0"}}, {"uniqueid": "w65371345:a11983381", "current_trial": 15, "dateTime": 1664370891267, "trialdata": {"rt": 1384, "stimulus": "<p id='stroop-text' class='stroop-yellow'>RED</p>", "response": "y", "stimulus-type": "incongruent", "word": "red", "color": "yellow", "correct_response": "y", "trial_id": "stroop-trial-1-incongruent-30", "trial_type": "html-keyboard-response", "trial_index": 15, "time_elapsed": 177620, "internal_node_id": "0.0-4.0-11.0"}}, {"uniqueid": "w65371345:a11983381", "current_trial": 16, "dateTime": 1664370893247, "trialdata": {"rt": 1475, "stimulus": "<p id='stroop-text' class='stroop-red'>GREEN</p>", "response": "r", "stimulus-type": "incongruent", "word": "green", "color": "red", "correct_response": "r", "trial_id": "stroop-trial-1-incongruent-16", "trial_type": "html-keyboard-response", "trial_index": 16, "time_elapsed": 179600, "internal_node_id": "0.0-4.0-12.0"}}, {"uniqueid": "w65371345:a11983381", "current_trial": 17, "dateTime": 1664370894868, "trialdata": {"rt": 1117, "stimulus": "<p id='stroop-text' class='stroop-blue'>YELLOW</p>", "response": "b", "stimulus-type": "incongruent", "word": "yellow", "color": "blue", "correct_response": "b", "trial_id": "stroop-trial-1-incongruent-21", "trial_type": "html-keyboard-response", "trial_index": 17, "time_elapsed": 181221, "internal_node_id": "0.0-4.0-13.0"}}, {"uniqueid": "w65371345:a11983381", "current_trial": 18, "dateTime": 1664370896122, "trialdata": {"rt": 746, "stimulus": "<p id='stroop-text' class='stroop-blue'>BOTTLE</p>", "response": "b", "stimulus-type": "unrelated", "word": "BOTTLE", "color": "blue", "correct_response": "b", "trial_id": "stroop-trial-1-unrelated-5", "trial_type": "html-keyboard-response", "trial_index": 18, "time_elapsed": 182474, "internal_node_id": "0.0-4.0-14.0"}}, {"uniqueid": "w65371345:a11983381", "current_trial": 19, "dateTime": 1664370897889, "trialdata": {"rt": 1263, "stimulus": "<p id='stroop-text' class='stroop-blue'>DOG</p>", "response": "b", "stimulus-type": "unrelated", "word": "DOG", "color": "blue", "correct_response": "b", "trial_id": "stroop-trial-1-unrelated-2", "trial_type": "html-keyboard-response", "trial_index": 19, "time_elapsed": 184242, "internal_node_id": "0.0-4.0-15.0"}}, {"uniqueid": "w65371345:a11983381", "current_trial": 20, "dateTime": 1664370900678, "trialdata": {"rt": 2286, "stimulus": "<p id='stroop-text' class='stroop-blue'>GREEN</p>", "response": "b", "stimulus-type": "incongruent", "word": "green", "color": "blue", "correct_response": "b", "trial_id": "stroop-trial-1-incongruent-11", "trial_type": "html-keyboard-response", "trial_index": 20, "time_elapsed": 187031, "internal_node_id": "0.0-4.0-16.0"}}, {"uniqueid": "w65371345:a11983381", "current_trial": 21, "dateTime": 1664370901961, "trialdata": {"rt": 779, "stimulus": "<p id='stroop-text' class='stroop-blue'>BLUE</p>", "response": "b", "stimulus-type": "congruent", "word": "blue", "color": "blue", "correct_response": "b", "trial_id": "stroop-trial-1-congruent-5", "trial_type": "html-keyboard-response", "trial_index": 21, "time_elapsed": 188313, "internal_node_id": "0.0-4.0-17.0"}}, {"uniqueid": "w65371345:a11983381", "current_trial": 22, "dateTime": 1664370903283, "trialdata": {"rt": 817, "stimulus": "<p id='stroop-text' class='stroop-red'>RED</p>", "response": "r", "stimulus-type": "congruent", "word": "red", "color": "red", "correct_response": "r", "trial_id": "stroop-trial-1-congruent-27", "trial_type": "html-keyboard-response", "trial_index": 22, "time_elapsed": 189635, "internal_node_id": "0.0-4.0-18.0"}}, {"uniqueid": "w65371345:a11983381", "current_trial": 23, "dateTime": 1664370905026, "trialdata": {"rt": 1238, "stimulus": "<p id='stroop-text' class='stroop-green'>SHIP</p>", "response": "g", "stimulus-type": "unrelated", "word": "SHIP", "color": "green", "correct_response": "g", "trial_id": "stroop-trial-1-unrelated-11", "trial_type": "html-keyboard-response", "trial_index": 23, "time_elapsed": 191378, "internal_node_id": "0.0-4.0-19.0"}}, {"uniqueid": "w65371345:a11983381", "current_trial": 24, "dateTime": 1664370907625, "trialdata": {"rt": 2093, "stimulus": "<p id='stroop-text' class='stroop-blue'>BLUE</p>", "response": "b", "stimulus-type": "congruent", "word": "blue", "color": "blue", "correct_response": "b", "trial_id": "stroop-trial-1-congruent-4", "trial_type": "html-keyboard-response", "trial_index": 24, "time_elapsed": 193977, "internal_node_id": "0.0-4.0-20.0"}}, {"uniqueid": "w65371345:a11983381", "current_trial": 25, "dateTime": 1664370909344, "trialdata": {"rt": 1213, "stimulus": "<p id='stroop-text' class='stroop-red'>FORK</p>", "response": "r", "stimulus-type": "unrelated", "word": "FORK", "color": "red", "correct_response": "r", "trial_id": "stroop-trial-1-unrelated-27", "trial_type": "html-keyboard-response", "trial_index": 25, "time_elapsed": 195696, "internal_node_id": "0.0-4.0-21.0"}}, {"uniqueid": "w65371345:a11983381", "current_trial": 26, "dateTime": 1664370911038, "trialdata": {"rt": 1191, "stimulus": "<p id='stroop-text' class='stroop-red'>YELLOW</p>", "response": "r", "stimulus-type": "incongruent", "word": "yellow", "color": "red", "correct_response": "r", "trial_id": "stroop-trial-1-incongruent-29", "trial_type": "html-keyboard-response", "trial_index": 26, "time_elapsed": 197391, "internal_node_id": "0.0-4.0-22.0"}}, {"uniqueid": "w65371345:a11983381", "current_trial": 27, "dateTime": 1664370912547, "trialdata": {"rt": 1005, "stimulus": "<p id='stroop-text' class='stroop-blue'>SHIP</p>", "response": "b", "stimulus-type": "unrelated", "word": "SHIP", "color": "blue", "correct_response": "b", "trial_id": "stroop-trial-1-unrelated-26", "trial_type": "html-keyboard-response", "trial_index": 27, "time_elapsed": 198900, "internal_node_id": "0.0-4.0-23.0"}}, {"uniqueid": "w65371345:a11983381", "current_trial": 28, "dateTime": 1664370914365, "trialdata": {"rt": 1315, "stimulus": "<p id='stroop-text' class='stroop-green'>RED</p>", "response": "g", "stimulus-type": "incongruent", "word": "red", "color": "green", "correct_response": "g", "trial_id": "stroop-trial-1-incongruent-13", "trial_type": "html-keyboard-response", "trial_index": 28, "time_elapsed": 200717, "internal_node_id": "0.0-4.0-24.0"}}, {"uniqueid": "w65371345:a11983381", "current_trial": 29, "dateTime": 1664370915989, "trialdata": {"rt": 1115, "stimulus": "<p id='stroop-text' class='stroop-green'>STONE</p>", "response": "g", "stimulus-type": "unrelated", "word": "STONE", "color": "green", "correct_response": "g", "trial_id": "stroop-trial-1-unrelated-9", "trial_type": "html-keyboard-response", "trial_index": 29, "time_elapsed": 202342, "internal_node_id": "0.0-4.0-25.0"}}, {"uniqueid": "w65371345:a11983381", "current_trial": 30, "dateTime": 1664370917554, "trialdata": {"rt": 1061, "stimulus": "<p id='stroop-text' class='stroop-red'>WINDOW</p>", "response": "r", "stimulus-type": "unrelated", "word": "WINDOW", "color": "red", "correct_response": "r", "trial_id": "stroop-trial-1-unrelated-28", "trial_type": "html-keyboard-response", "trial_index": 30, "time_elapsed": 203907, "internal_node_id": "0.0-4.0-26.0"}}, {"uniqueid": "w65371345:a11983381", "current_trial": 31, "dateTime": 1664370918755, "trialdata": {"rt": 696, "stimulus": "<p id='stroop-text' class='stroop-red'>RED</p>", "response": "r", "stimulus-type": "congruent", "word": "red", "color": "red", "correct_response": "r", "trial_id": "stroop-trial-1-congruent-12", "trial_type": "html-keyboard-response", "trial_index": 31, "time_elapsed": 205107, "internal_node_id": "0.0-4.0-27.0"}}, {"uniqueid": "w65371345:a11983381", "current_trial": 32, "dateTime": 1664370920621, "trialdata": {"rt": 1348, "stimulus": "<p id='stroop-text' class='stroop-red'>BOAT</p>", "response": "r", "stimulus-type": "unrelated", "word": "BOAT", "color": "red", "correct_response": "r", "trial_id": "stroop-trial-1-unrelated-19", "trial_type": "html-keyboard-response", "trial_index": 32, "time_elapsed": 206974, "internal_node_id": "0.0-4.0-28.0"}}, {"uniqueid": "w65371345:a11983381", "current_trial": 33, "dateTime": 1664370922537, "trialdata": {"rt": 1411, "stimulus": "<p id='stroop-text' class='stroop-blue'>YELLOW</p>", "response": "b", "stimulus-type": "incongruent", "word": "yellow", "color": "blue", "correct_response": "b", "trial_id": "stroop-trial-1-incongruent-8", "trial_type": "html-keyboard-response", "trial_index": 33, "time_elapsed": 208890, "internal_node_id": "0.0-4.0-29.0"}}, {"uniqueid": "w65371345:a11983381", "current_trial": 34, "dateTime": 1664370924029, "trialdata": {"rt": 986, "stimulus": "<p id='stroop-text' class='stroop-green'>RED</p>", "response": "g", "stimulus-type": "incongruent", "word": "red", "color": "green", "correct_response": "g", "trial_id": "stroop-trial-1-incongruent-7", "trial_type": "html-keyboard-response", "trial_index": 34, "time_elapsed": 210381, "internal_node_id": "0.0-4.0-30.0"}}, {"uniqueid": "w65371345:a11983381", "current_trial": 35, "dateTime": 1664370925655, "trialdata": {"rt": 1121, "stimulus": "<p id='stroop-text' class='stroop-blue'>DOG</p>", "response": "b", "stimulus-type": "unrelated", "word": "DOG", "color": "blue", "correct_response": "b", "trial_id": "stroop-trial-1-unrelated-20", "trial_type": "html-keyboard-response", "trial_index": 35, "time_elapsed": 212008, "internal_node_id": "0.0-4.0-31.0"}}, {"uniqueid": "w65371345:a11983381", "current_trial": 36, "dateTime": 1664370927111, "trialdata": {"rt": 951, "stimulus": "<p id='stroop-text' class='stroop-yellow'>GREEN</p>", "response": "y", "stimulus-type": "incongruent", "word": "green", "color": "yellow", "correct_response": "y", "trial_id": "stroop-trial-1-incongruent-14", "trial_type": "html-keyboard-response", "trial_index": 36, "time_elapsed": 213463, "internal_node_id": "0.0-4.0-32.0"}}, {"uniqueid": "w65371345:a11983381", "current_trial": 37, "dateTime": 1664370930490, "trialdata": {"rt": 2875, "stimulus": "<p id='stroop-text' class='stroop-green'>GREEN</p>", "response": "g", "stimulus-type": "congruent", "word": "green", "color": "green", "correct_response": "g", "trial_id": "stroop-trial-1-congruent-25", "trial_type": "html-keyboard-response", "trial_index": 37, "time_elapsed": 216843, "internal_node_id": "0.0-4.0-33.0"}}, {"uniqueid": "w65371345:a11983381", "current_trial": 38, "dateTime": 1664370932048, "trialdata": {"rt": 1054, "stimulus": "<p id='stroop-text' class='stroop-red'>RED</p>", "response": "r", "stimulus-type": "congruent", "word": "red", "color": "red", "correct_response": "r", "trial_id": "stroop-trial-1-congruent-28", "trial_type": "html-keyboard-response", "trial_index": 38, "time_elapsed": 218401, "internal_node_id": "0.0-4.0-34.0"}}, {"uniqueid": "w65371345:a11983381", "current_trial": 39, "dateTime": 1664370933625, "trialdata": {"rt": 1072, "stimulus": "<p id='stroop-text' class='stroop-yellow'>YELLOW</p>", "response": "y", "stimulus-type": "congruent", "word": "yellow", "color": "yellow", "correct_response": "y", "trial_id": "stroop-trial-1-congruent-15", "trial_type": "html-keyboard-response", "trial_index": 39, "time_elapsed": 219978, "internal_node_id": "0.0-4.0-35.0"}}, {"uniqueid": "w65371345:a11983381", "current_trial": 40, "dateTime": 1664370935375, "trialdata": {"rt": 1247, "stimulus": "<p id='stroop-text' class='stroop-red'>CHAIR</p>", "response": "r", "stimulus-type": "unrelated", "word": "CHAIR", "color": "red", "correct_response": "r", "trial_id": "stroop-trial-1-unrelated-13", "trial_type": "html-keyboard-response", "trial_index": 40, "time_elapsed": 221728, "internal_node_id": "0.0-4.0-36.0"}}, {"uniqueid": "w65371345:a11983381", "current_trial": 41, "dateTime": 1664370937182, "trialdata": {"rt": 1291, "stimulus": "<p id='stroop-text' class='stroop-yellow'>GREEN</p>", "response": "y", "stimulus-type": "incongruent", "word": "green", "color": "yellow", "correct_response": "y", "trial_id": "stroop-trial-1-incongruent-5", "trial_type": "html-keyboard-response", "trial_index": 41, "time_elapsed": 223535, "internal_node_id": "0.0-4.0-37.0"}}, {"uniqueid": "w65371345:a11983381", "current_trial": 42, "dateTime": 1664370938458, "trialdata": {"rt": 770, "stimulus": "<p id='stroop-text' class='stroop-red'>RED</p>", "response": "r", "stimulus-type": "congruent", "word": "red", "color": "red", "correct_response": "r", "trial_id": "stroop-trial-1-congruent-24", "trial_type": "html-keyboard-response", "trial_index": 42, "time_elapsed": 224811, "internal_node_id": "0.0-4.0-38.0"}}, {"uniqueid": "w65371345:a11983381", "current_trial": 43, "dateTime": 1664370939485, "trialdata": {"rt": 523, "stimulus": "<p id='stroop-text' class='stroop-red'>DOG</p>", "response": "r", "stimulus-type": "unrelated", "word": "DOG", "color": "red", "correct_response": "r", "trial_id": "stroop-trial-1-unrelated-22", "trial_type": "html-keyboard-response", "trial_index": 43, "time_elapsed": 225838, "internal_node_id": "0.0-4.0-39.0"}}, {"uniqueid": "w65371345:a11983381", "current_trial": 44, "dateTime": 1664370940681, "trialdata": {"rt": 693, "stimulus": "<p id='stroop-text' class='stroop-yellow'>YELLOW</p>", "response": "y", "stimulus-type": "congruent", "word": "yellow", "color": "yellow", "correct_response": "y", "trial_id": "stroop-trial-1-congruent-19", "trial_type": "html-keyboard-response", "trial_index": 44, "time_elapsed": 227034, "internal_node_id": "0.0-4.0-40.0"}}, {"uniqueid": "w65371345:a11983381", "current_trial": 45, "dateTime": 1664370943097, "trialdata": {"rt": 1910, "stimulus": "<p id='stroop-text' class='stroop-yellow'>RED</p>", "response": "y", "stimulus-type": "incongruent", "word": "red", "color": "yellow", "correct_response": "y", "trial_id": "stroop-trial-1-incongruent-27", "trial_type": "html-keyboard-response", "trial_index": 45, "time_elapsed": 229449, "internal_node_id": "0.0-4.0-41.0"}}, {"uniqueid": "w65371345:a11983381", "current_trial": 46, "dateTime": 1664370944383, "trialdata": {"rt": 782, "stimulus": "<p id='stroop-text' class='stroop-green'>YELLOW</p>", "response": "g", "stimulus-type": "incongruent", "word": "yellow", "color": "green", "correct_response": "g", "trial_id": "stroop-trial-1-incongruent-2", "trial_type": "html-keyboard-response", "trial_index": 46, "time_elapsed": 230735, "internal_node_id": "0.0-4.0-42.0"}}, {"uniqueid": "w65371345:a11983381", "current_trial": 47, "dateTime": 1664370945807, "trialdata": {"rt": 918, "stimulus": "<p id='stroop-text' class='stroop-red'>BLUE</p>", "response": "r", "stimulus-type": "incongruent", "word": "blue", "color": "red", "correct_response": "r", "trial_id": "stroop-trial-1-incongruent-10", "trial_type": "html-keyboard-response", "trial_index": 47, "time_elapsed": 232159, "internal_node_id": "0.0-4.0-43.0"}}, {"uniqueid": "w65371345:a11983381", "current_trial": 48, "dateTime": 1664370947066, "trialdata": {"rt": 755, "stimulus": "<p id='stroop-text' class='stroop-yellow'>BOTTLE</p>", "response": "y", "stimulus-type": "unrelated", "word": "BOTTLE", "color": "yellow", "correct_response": "y", "trial_id": "stroop-trial-1-unrelated-25", "trial_type": "html-keyboard-response", "trial_index": 48, "time_elapsed": 233418, "internal_node_id": "0.0-4.0-44.0"}}, {"uniqueid": "w65371345:a11983381", "current_trial": 49, "dateTime": 1664370950481, "trialdata": {"rt": 2909, "stimulus": "<p id='stroop-text' class='stroop-red'>BLUE</p>", "response": "r", "stimulus-type": "incongruent", "word": "blue", "color": "red", "correct_response": "r", "trial_id": "stroop-trial-1-incongruent-20", "trial_type": "html-keyboard-response", "trial_index": 49, "time_elapsed": 236834, "internal_node_id": "0.0-4.0-45.0"}}, {"uniqueid": "w65371345:a11983381", "current_trial": 50, "dateTime": 1664370952392, "trialdata": {"rt": 1408, "stimulus": "<p id='stroop-text' class='stroop-blue'>BLUE</p>", "response": "b", "stimulus-type": "congruent", "word": "blue", "color": "blue", "correct_response": "b", "trial_id": "stroop-trial-1-congruent-20", "trial_type": "html-keyboard-response", "trial_index": 50, "time_elapsed": 238745, "internal_node_id": "0.0-4.0-46.0"}}, {"uniqueid": "w65371345:a11983381", "current_trial": 51, "dateTime": 1664370953683, "trialdata": {"rt": 789, "stimulus": "<p id='stroop-text' class='stroop-blue'>STONE</p>", "response": "b", "stimulus-type": "unrelated", "word": "STONE", "color": "blue", "correct_response": "b", "trial_id": "stroop-trial-1-unrelated-18", "trial_type": "html-keyboard-response", "trial_index": 51, "time_elapsed": 240036, "internal_node_id": "0.0-4.0-47.0"}}, {"uniqueid": "w65371345:a11983381", "current_trial": 52, "dateTime": 1664370954635, "trialdata": {"rt": 447, "stimulus": "<p id='stroop-text' class='stroop-blue'>STONE</p>", "response": "b", "stimulus-type": "unrelated", "word": "STONE", "color": "blue", "correct_response": "b", "trial_id": "stroop-trial-1-unrelated-6", "trial_type": "html-keyboard-response", "trial_index": 52, "time_elapsed": 240988, "internal_node_id": "0.0-4.0-48.0"}}, {"uniqueid": "w65371345:a11983381", "current_trial": 53, "dateTime": 1664370955556, "trialdata": {"rt": 403, "stimulus": "<p id='stroop-text' class='stroop-blue'>BRIDGE</p>", "response": "b", "stimulus-type": "unrelated", "word": "BRIDGE", "color": "blue", "correct_response": "b", "trial_id": "stroop-trial-1-unrelated-21", "trial_type": "html-keyboard-response", "trial_index": 53, "time_elapsed": 241909, "internal_node_id": "0.0-4.0-49.0"}}, {"uniqueid": "w65371345:a11983381", "current_trial": 54, "dateTime": 1664370956619, "trialdata": {"rt": 558, "stimulus": "<p id='stroop-text' class='stroop-yellow'>YELLOW</p>", "response": "y", "stimulus-type": "congruent", "word": "yellow", "color": "yellow", "correct_response": "y", "trial_id": "stroop-trial-1-congruent-8", "trial_type": "html-keyboard-response", "trial_index": 54, "time_elapsed": 242971, "internal_node_id": "0.0-4.0-50.0"}}, {"uniqueid": "w65371345:a11983381", "current_trial": 55, "dateTime": 1664370957790, "trialdata": {"rt": 665, "stimulus": "<p id='stroop-text' class='stroop-red'>RED</p>", "response": "r", "stimulus-type": "congruent", "word": "red", "color": "red", "correct_response": "r", "trial_id": "stroop-trial-1-congruent-14", "trial_type": "html-keyboard-response", "trial_index": 55, "time_elapsed": 244142, "internal_node_id": "0.0-4.0-51.0"}}, {"uniqueid": "w65371345:a11983381", "current_trial": 56, "dateTime": 1664370959713, "trialdata": {"rt": 1419, "stimulus": "<p id='stroop-text' class='stroop-blue'>BLUE</p>", "response": "b", "stimulus-type": "congruent", "word": "blue", "color": "blue", "correct_response": "b", "trial_id": "stroop-trial-1-congruent-1", "trial_type": "html-keyboard-response", "trial_index": 56, "time_elapsed": 246065, "internal_node_id": "0.0-4.0-52.0"}}, {"uniqueid": "w65371345:a11983381", "current_trial": 57, "dateTime": 1664370961159, "trialdata": {"rt": 942, "stimulus": "<p id='stroop-text' class='stroop-red'>BOTTLE</p>", "response": "r", "stimulus-type": "unrelated", "word": "BOTTLE", "color": "red", "correct_response": "r", "trial_id": "stroop-trial-1-unrelated-17", "trial_type": "html-keyboard-response", "trial_index": 57, "time_elapsed": 247512, "internal_node_id": "0.0-4.0-53.0"}}, {"uniqueid": "w65371345:a11983381", "current_trial": 58, "dateTime": 1664370962803, "trialdata": {"rt": 1139, "stimulus": "<p id='stroop-text' class='stroop-red'>BLUE</p>", "response": "r", "stimulus-type": "incongruent", "word": "blue", "color": "red", "correct_response": "r", "trial_id": "stroop-trial-1-incongruent-1", "trial_type": "html-keyboard-response", "trial_index": 58, "time_elapsed": 249155, "internal_node_id": "0.0-4.0-54.0"}}, {"uniqueid": "w65371345:a11983381", "current_trial": 59, "dateTime": 1664370963790, "trialdata": {"rt": 482, "stimulus": "<p id='stroop-text' class='stroop-red'>RED</p>", "response": "r", "stimulus-type": "congruent", "word": "red", "color": "red", "correct_response": "r", "trial_id": "stroop-trial-1-congruent-3", "trial_type": "html-keyboard-response", "trial_index": 59, "time_elapsed": 250142, "internal_node_id": "0.0-4.0-55.0"}}, {"uniqueid": "w65371345:a11983381", "current_trial": 60, "dateTime": 1664370964939, "trialdata": {"rt": 646, "stimulus": "<p id='stroop-text' class='stroop-green'>GREEN</p>", "response": "g", "stimulus-type": "congruent", "word": "green", "color": "green", "correct_response": "g", "trial_id": "stroop-trial-1-congruent-29", "trial_type": "html-keyboard-response", "trial_index": 60, "time_elapsed": 251292, "internal_node_id": "0.0-4.0-56.0"}}, {"uniqueid": "w65371345:a11983381", "current_trial": 61, "dateTime": 1664370966768, "trialdata": {"rt": 1325, "stimulus": "<p id='stroop-text' class='stroop-red'>YELLOW</p>", "response": "r", "stimulus-type": "incongruent", "word": "yellow", "color": "red", "correct_response": "r", "trial_id": "stroop-trial-1-incongruent-3", "trial_type": "html-keyboard-response", "trial_index": 61, "time_elapsed": 253121, "internal_node_id": "0.0-4.0-57.0"}}, {"uniqueid": "w65371345:a11983381", "current_trial": 62, "dateTime": 1664370968277, "trialdata": {"rt": 1003, "stimulus": "<p id='stroop-text' class='stroop-yellow'>BOTTLE</p>", "response": "y", "stimulus-type": "unrelated", "word": "BOTTLE", "color": "yellow", "correct_response": "y", "trial_id": "stroop-trial-1-unrelated-7", "trial_type": "html-keyboard-response", "trial_index": 62, "time_elapsed": 254629, "internal_node_id": "0.0-4.0-58.0"}}, {"uniqueid": "w65371345:a11983381", "current_trial": 63, "dateTime": 1664370969685, "trialdata": {"rt": 904, "stimulus": "<p id='stroop-text' class='stroop-blue'>GREEN</p>", "response": "b", "stimulus-type": "incongruent", "word": "green", "color": "blue", "correct_response": "b", "trial_id": "stroop-trial-1-incongruent-19", "trial_type": "html-keyboard-response", "trial_index": 63, "time_elapsed": 256037, "internal_node_id": "0.0-4.0-59.0"}}, {"uniqueid": "w65371345:a11983381", "current_trial": 64, "dateTime": 1664370971013, "trialdata": {"rt": 823, "stimulus": "<p id='stroop-text' class='stroop-yellow'>BLUE</p>", "response": "y", "stimulus-type": "incongruent", "word": "blue", "color": "yellow", "correct_response": "y", "trial_id": "stroop-trial-1-incongruent-15", "trial_type": "html-keyboard-response", "trial_index": 64, "time_elapsed": 257365, "internal_node_id": "0.0-4.0-60.0"}}, {"uniqueid": "w65371345:a11983381", "current_trial": 65, "dateTime": 1664370972642, "trialdata": {"rt": 1119, "stimulus": "<p id='stroop-text' class='stroop-green'>STONE</p>", "response": "g", "stimulus-type": "unrelated", "word": "STONE", "color": "green", "correct_response": "g", "trial_id": "stroop-trial-1-unrelated-12", "trial_type": "html-keyboard-response", "trial_index": 65, "time_elapsed": 258994, "internal_node_id": "0.0-4.0-61.0"}}, {"uniqueid": "w65371345:a11983381", "current_trial": 66, "dateTime": 1664370973846, "trialdata": {"rt": 700, "stimulus": "<p id='stroop-text' class='stroop-blue'>BLUE</p>", "response": "b", "stimulus-type": "congruent", "word": "blue", "color": "blue", "correct_response": "b", "trial_id": "stroop-trial-1-congruent-11", "trial_type": "html-keyboard-response", "trial_index": 66, "time_elapsed": 260198, "internal_node_id": "0.0-4.0-62.0"}}, {"uniqueid": "w65371345:a11983381", "current_trial": 67, "dateTime": 1664370974862, "trialdata": {"rt": 507, "stimulus": "<p id='stroop-text' class='stroop-red'>RED</p>", "response": "r", "stimulus-type": "congruent", "word": "red", "color": "red", "correct_response": "r", "trial_id": "stroop-trial-1-congruent-9", "trial_type": "html-keyboard-response", "trial_index": 67, "time_elapsed": 261215, "internal_node_id": "0.0-4.0-63.0"}}, {"uniqueid": "w65371345:a11983381", "current_trial": 68, "dateTime": 1664370975820, "trialdata": {"rt": 454, "stimulus": "<p id='stroop-text' class='stroop-red'>RED</p>", "response": "r", "stimulus-type": "congruent", "word": "red", "color": "red", "correct_response": "r", "trial_id": "stroop-trial-1-congruent-26", "trial_type": "html-keyboard-response", "trial_index": 68, "time_elapsed": 262173, "internal_node_id": "0.0-4.0-64.0"}}, {"uniqueid": "w65371345:a11983381", "current_trial": 69, "dateTime": 1664370977019, "trialdata": {"rt": 695, "stimulus": "<p id='stroop-text' class='stroop-blue'>GREEN</p>", "response": "b", "stimulus-type": "incongruent", "word": "green", "color": "blue", "correct_response": "b", "trial_id": "stroop-trial-1-incongruent-25", "trial_type": "html-keyboard-response", "trial_index": 69, "time_elapsed": 263372, "internal_node_id": "0.0-4.0-65.0"}}, {"uniqueid": "w65371345:a11983381", "current_trial": 70, "dateTime": 1664370978164, "trialdata": {"rt": 641, "stimulus": "<p id='stroop-text' class='stroop-yellow'>STONE</p>", "response": "y", "stimulus-type": "unrelated", "word": "STONE", "color": "yellow", "correct_response": "y", "trial_id": "stroop-trial-1-unrelated-24", "trial_type": "html-keyboard-response", "trial_index": 70, "time_elapsed": 264517, "internal_node_id": "0.0-4.0-66.0"}}, {"uniqueid": "w65371345:a11983381", "current_trial": 71, "dateTime": 1664370979510, "trialdata": {"rt": 842, "stimulus": "<p id='stroop-text' class='stroop-green'>RED</p>", "response": "g", "stimulus-type": "incongruent", "word": "red", "color": "green", "correct_response": "g", "trial_id": "stroop-trial-1-incongruent-12", "trial_type": "html-keyboard-response", "trial_index": 71, "time_elapsed": 265862, "internal_node_id": "0.0-4.0-67.0"}}, {"uniqueid": "w65371345:a11983381", "current_trial": 72, "dateTime": 1664370980980, "trialdata": {"rt": 965, "stimulus": "<p id='stroop-text' class='stroop-yellow'>SHIP</p>", "response": "y", "stimulus-type": "unrelated", "word": "SHIP", "color": "yellow", "correct_response": "y", "trial_id": "stroop-trial-1-unrelated-14", "trial_type": "html-keyboard-response", "trial_index": 72, "time_elapsed": 267333, "internal_node_id": "0.0-4.0-68.0"}}, {"uniqueid": "w65371345:a11983381", "current_trial": 73, "dateTime": 1664370982207, "trialdata": {"rt": 719, "stimulus": "<p id='stroop-text' class='stroop-green'>YELLOW</p>", "response": "b", "stimulus-type": "incongruent", "word": "yellow", "color": "green", "correct_response": "g", "trial_id": "stroop-trial-1-incongruent-26", "trial_type": "html-keyboard-response", "trial_index": 73, "time_elapsed": 268559, "internal_node_id": "0.0-4.0-69.0"}}, {"uniqueid": "w65371345:a11983381", "current_trial": 74, "dateTime": 1664370983540, "trialdata": {"rt": 828, "stimulus": "<p id='stroop-text' class='stroop-red'>RED</p>", "response": "r", "stimulus-type": "congruent", "word": "red", "color": "red", "correct_response": "r", "trial_id": "stroop-trial-1-congruent-23", "trial_type": "html-keyboard-response", "trial_index": 74, "time_elapsed": 269893, "internal_node_id": "0.0-4.0-70.0"}}, {"uniqueid": "w65371345:a11983381", "current_trial": 75, "dateTime": 1664370985064, "trialdata": {"rt": 1019, "stimulus": "<p id='stroop-text' class='stroop-green'>RED</p>", "response": "g", "stimulus-type": "incongruent", "word": "red", "color": "green", "correct_response": "g", "trial_id": "stroop-trial-1-incongruent-4", "trial_type": "html-keyboard-response", "trial_index": 75, "time_elapsed": 271416, "internal_node_id": "0.0-4.0-71.0"}}, {"uniqueid": "w65371345:a11983381", "current_trial": 76, "dateTime": 1664370986275, "trialdata": {"rt": 707, "stimulus": "<p id='stroop-text' class='stroop-green'>YELLOW</p>", "response": "g", "stimulus-type": "incongruent", "word": "yellow", "color": "green", "correct_response": "g", "trial_id": "stroop-trial-1-incongruent-23", "trial_type": "html-keyboard-response", "trial_index": 76, "time_elapsed": 272628, "internal_node_id": "0.0-4.0-72.0"}}, {"uniqueid": "w65371345:a11983381", "current_trial": 77, "dateTime": 1664370987198, "trialdata": {"rt": 417, "stimulus": "<p id='stroop-text' class='stroop-green'>STONE</p>", "response": "g", "stimulus-type": "unrelated", "word": "STONE", "color": "green", "correct_response": "g", "trial_id": "stroop-trial-1-unrelated-10", "trial_type": "html-keyboard-response", "trial_index": 77, "time_elapsed": 273550, "internal_node_id": "0.0-4.0-73.0"}}, {"uniqueid": "w65371345:a11983381", "current_trial": 78, "dateTime": 1664370988204, "trialdata": {"rt": 499, "stimulus": "<p id='stroop-text' class='stroop-blue'>BLUE</p>", "response": "b", "stimulus-type": "congruent", "word": "blue", "color": "blue", "correct_response": "b", "trial_id": "stroop-trial-1-congruent-10", "trial_type": "html-keyboard-response", "trial_index": 78, "time_elapsed": 274556, "internal_node_id": "0.0-4.0-74.0"}}, {"uniqueid": "w65371345:a11983381", "current_trial": 79, "dateTime": 1664370989620, "trialdata": {"rt": 912, "stimulus": "<p id='stroop-text' class='stroop-yellow'>FORK</p>", "response": "y", "stimulus-type": "unrelated", "word": "FORK", "color": "yellow", "correct_response": "y", "trial_id": "stroop-trial-1-unrelated-3", "trial_type": "html-keyboard-response", "trial_index": 79, "time_elapsed": 275973, "internal_node_id": "0.0-4.0-75.0"}}, {"uniqueid": "w65371345:a11983381", "current_trial": 80, "dateTime": 1664370990756, "trialdata": {"rt": 630, "stimulus": "<p id='stroop-text' class='stroop-blue'>BLUE</p>", "response": "b", "stimulus-type": "congruent", "word": "blue", "color": "blue", "correct_response": "b", "trial_id": "stroop-trial-1-congruent-21", "trial_type": "html-keyboard-response", "trial_index": 80, "time_elapsed": 277109, "internal_node_id": "0.0-4.0-76.0"}}, {"uniqueid": "w65371345:a11983381", "current_trial": 81, "dateTime": 1664370991743, "trialdata": {"rt": 481, "stimulus": "<p id='stroop-text' class='stroop-red'>YELLOW</p>", "response": "r", "stimulus-type": "incongruent", "word": "yellow", "color": "red", "correct_response": "r", "trial_id": "stroop-trial-1-incongruent-18", "trial_type": "html-keyboard-response", "trial_index": 81, "time_elapsed": 278095, "internal_node_id": "0.0-4.0-77.0"}}, {"uniqueid": "w65371345:a11983381", "current_trial": 82, "dateTime": 1664370992763, "trialdata": {"rt": 515, "stimulus": "<p id='stroop-text' class='stroop-red'>GREEN</p>", "response": "r", "stimulus-type": "incongruent", "word": "green", "color": "red", "correct_response": "r", "trial_id": "stroop-trial-1-incongruent-24", "trial_type": "html-keyboard-response", "trial_index": 82, "time_elapsed": 279115, "internal_node_id": "0.0-4.0-78.0"}}, {"uniqueid": "w65371345:a11983381", "current_trial": 83, "dateTime": 1664370993976, "trialdata": {"rt": 706, "stimulus": "<p id='stroop-text' class='stroop-green'>RED</p>", "response": "g", "stimulus-type": "incongruent", "word": "red", "color": "green", "correct_response": "g", "trial_id": "stroop-trial-1-incongruent-6", "trial_type": "html-keyboard-response", "trial_index": 83, "time_elapsed": 280328, "internal_node_id": "0.0-4.0-79.0"}}, {"uniqueid": "w65371345:a11983381", "current_trial": 84, "dateTime": 1664370995858, "trialdata": {"rt": 1368, "stimulus": "<p id='stroop-text' class='stroop-blue'>MONKEY</p>", "response": "b", "stimulus-type": "unrelated", "word": "MONKEY", "color": "blue", "correct_response": "b", "trial_id": "stroop-trial-1-unrelated-4", "trial_type": "html-keyboard-response", "trial_index": 84, "time_elapsed": 282210, "internal_node_id": "0.0-4.0-80.0"}}, {"uniqueid": "w65371345:a11983381", "current_trial": 85, "dateTime": 1664370997269, "trialdata": {"rt": 907, "stimulus": "<p id='stroop-text' class='stroop-yellow'>YELLOW</p>", "response": "y", "stimulus-type": "congruent", "word": "yellow", "color": "yellow", "correct_response": "y", "trial_id": "stroop-trial-1-congruent-22", "trial_type": "html-keyboard-response", "trial_index": 85, "time_elapsed": 283622, "internal_node_id": "0.0-4.0-81.0"}}, {"uniqueid": "w65371345:a11983381", "current_trial": 86, "dateTime": 1664370998678, "trialdata": {"rt": 904, "stimulus": "<p id='stroop-text' class='stroop-green'>BLUE</p>", "response": "g", "stimulus-type": "incongruent", "word": "blue", "color": "green", "correct_response": "g", "trial_id": "stroop-trial-1-incongruent-17", "trial_type": "html-keyboard-response", "trial_index": 86, "time_elapsed": 285030, "internal_node_id": "0.0-4.0-82.0"}}, {"uniqueid": "w65371345:a11983381", "current_trial": 87, "dateTime": 1664371000048, "trialdata": {"rt": 864, "stimulus": "<p id='stroop-text' class='stroop-red'>BOAT</p>", "response": "r", "stimulus-type": "unrelated", "word": "BOAT", "color": "red", "correct_response": "r", "trial_id": "stroop-trial-1-unrelated-1", "trial_type": "html-keyboard-response", "trial_index": 87, "time_elapsed": 286401, "internal_node_id": "0.0-4.0-83.0"}}, {"uniqueid": "w65371345:a11983381", "current_trial": 88, "dateTime": 1664371001668, "trialdata": {"rt": 1116, "stimulus": "<p id='stroop-text' class='stroop-yellow'>BOTTLE</p>", "response": "y", "stimulus-type": "unrelated", "word": "BOTTLE", "color": "yellow", "correct_response": "y", "trial_id": "stroop-trial-1-unrelated-15", "trial_type": "html-keyboard-response", "trial_index": 88, "time_elapsed": 288021, "internal_node_id": "0.0-4.0-84.0"}}, {"uniqueid": "w65371345:a11983381", "current_trial": 89, "dateTime": 1664371002882, "trialdata": {"rt": 710, "stimulus": "<p id='stroop-text' class='stroop-yellow'>BRAIN</p>", "response": "y", "stimulus-type": "unrelated", "word": "BRAIN", "color": "yellow", "correct_response": "y", "trial_id": "stroop-trial-1-unrelated-30", "trial_type": "html-keyboard-response", "trial_index": 89, "time_elapsed": 289235, "internal_node_id": "0.0-4.0-85.0"}}, {"uniqueid": "w65371345:a11983381", "current_trial": 90, "dateTime": 1664371004130, "trialdata": {"rt": 738, "stimulus": "<p id='stroop-text' class='stroop-red'>RED</p>", "response": "r", "stimulus-type": "congruent", "word": "red", "color": "red", "correct_response": "r", "trial_id": "stroop-trial-1-congruent-6", "trial_type": "html-keyboard-response", "trial_index": 90, "time_elapsed": 290483, "internal_node_id": "0.0-4.0-86.0"}}, {"uniqueid": "w65371345:a11983381", "current_trial": 91, "dateTime": 1664371005861, "trialdata": {"rt": 1228, "stimulus": "<p id='stroop-text' class='stroop-green'>BLUE</p>", "response": "g", "stimulus-type": "incongruent", "word": "blue", "color": "green", "correct_response": "g", "trial_id": "stroop-trial-1-incongruent-22", "trial_type": "html-keyboard-response", "trial_index": 91, "time_elapsed": 292213, "internal_node_id": "0.0-4.0-87.0"}}, {"uniqueid": "w65371345:a11983381", "current_trial": 92, "dateTime": 1664371007063, "trialdata": {"rt": 696, "stimulus": "<p id='stroop-text' class='stroop-green'>CHAIR</p>", "response": "g", "stimulus-type": "unrelated", "word": "CHAIR", "color": "green", "correct_response": "g", "trial_id": "stroop-trial-1-unrelated-23", "trial_type": "html-keyboard-response", "trial_index": 92, "time_elapsed": 293416, "internal_node_id": "0.0-4.0-88.0"}}, {"uniqueid": "w65371345:a11983381", "current_trial": 93, "dateTime": 1664371008364, "trialdata": {"rt": 795, "stimulus": "<p id='stroop-text' class='stroop-blue'>BLUE</p>", "response": "b", "stimulus-type": "congruent", "word": "blue", "color": "blue", "correct_response": "b", "trial_id": "stroop-trial-1-congruent-13", "trial_type": "html-keyboard-response", "trial_index": 93, "time_elapsed": 294716, "internal_node_id": "0.0-4.0-89.0"}}, {"uniqueid": "w65371345:a11983381", "current_trial": 94, "dateTime": 1664371014985, "trialdata": {"rt": 6114, "stimulus": "  <h1> End of block! </h1>\n\n  You have reached the end of the block 1/5. If you need a short break, feel free to take one now before moving on.\n\n  <br><br>\n  In the next block, you will complete another 90 rounds of this game.\n\n  <br><br>\n  <div style='text-align: center;'>Press <code>space</code> to begin.</div>\n  <br><br>\n<div style='text-align: center;'>(If the experiment doesn't continue, try clicking on the text and then pressing <code>space</code>.)</div>", "response": " ", "trial_id": "stroop_1_ready_2", "trial_type": "html-keyboard-response", "trial_index": 94, "time_elapsed": 301338, "internal_node_id": "0.0-5.0"}}, {"uniqueid": "w65371345:a11983381", "current_trial": 95, "dateTime": 1664371016689, "trialdata": {"rt": 1699, "stimulus": "<p id='stroop-text' class='stroop-green'>BLUE</p>", "response": "g", "stimulus-type": "incongruent", "word": "blue", "color": "green", "correct_response": "g", "trial_id": "stroop-trial-1-incongruent-23", "trial_type": "html-keyboard-response", "trial_index": 95, "time_elapsed": 303042, "internal_node_id": "0.0-6.0-0.0"}}, {"uniqueid": "w65371345:a11983381", "current_trial": 96, "dateTime": 1664371017734, "trialdata": {"rt": 539, "stimulus": "<p id='stroop-text' class='stroop-green'>GREEN</p>", "response": "g", "stimulus-type": "congruent", "word": "green", "color": "green", "correct_response": "g", "trial_id": "stroop-trial-1-congruent-7", "trial_type": "html-keyboard-response", "trial_index": 96, "time_elapsed": 304086, "internal_node_id": "0.0-6.0-1.0"}}, {"uniqueid": "w65371345:a11983381", "current_trial": 97, "dateTime": 1664371018770, "trialdata": {"rt": 531, "stimulus": "<p id='stroop-text' class='stroop-blue'>BLUE</p>", "response": "b", "stimulus-type": "congruent", "word": "blue", "color": "blue", "correct_response": "b", "trial_id": "stroop-trial-1-congruent-15", "trial_type": "html-keyboard-response", "trial_index": 97, "time_elapsed": 305123, "internal_node_id": "0.0-6.0-2.0"}}, {"uniqueid": "w65371345:a11983381", "current_trial": 98, "dateTime": 1664371019939, "trialdata": {"rt": 665, "stimulus": "<p id='stroop-text' class='stroop-red'>FORK</p>", "response": "r", "stimulus-type": "unrelated", "word": "FORK", "color": "red", "correct_response": "r", "trial_id": "stroop-trial-1-unrelated-3", "trial_type": "html-keyboard-response", "trial_index": 98, "time_elapsed": 306292, "internal_node_id": "0.0-6.0-3.0"}}, {"uniqueid": "w65371345:a11983381", "current_trial": 99, "dateTime": 1664371021057, "trialdata": {"rt": 614, "stimulus": "<p id='stroop-text' class='stroop-red'>BLUE</p>", "response": "r", "stimulus-type": "incongruent", "word": "blue", "color": "red", "correct_response": "r", "trial_id": "stroop-trial-1-incongruent-2", "trial_type": "html-keyboard-response", "trial_index": 99, "time_elapsed": 307410, "internal_node_id": "0.0-6.0-4.0"}}, {"uniqueid": "w65371345:a11983381", "current_trial": 100, "dateTime": 1664371021960, "trialdata": {"rt": 397, "stimulus": "<p id='stroop-text' class='stroop-red'>GREEN</p>", "response": "r", "stimulus-type": "incongruent", "word": "green", "color": "red", "correct_response": "r", "trial_id": "stroop-trial-1-incongruent-20", "trial_type": "html-keyboard-response", "trial_index": 100, "time_elapsed": 308312, "internal_node_id": "0.0-6.0-5.0"}}, {"uniqueid": "w65371345:a11983381", "current_trial": 101, "dateTime": 1664371023396, "trialdata": {"rt": 931, "stimulus": "<p id='stroop-text' class='stroop-blue'>GREEN</p>", "response": "b", "stimulus-type": "incongruent", "word": "green", "color": "blue", "correct_response": "b", "trial_id": "stroop-trial-1-incongruent-9", "trial_type": "html-keyboard-response", "trial_index": 101, "time_elapsed": 309748, "internal_node_id": "0.0-6.0-6.0"}}, {"uniqueid": "w65371345:a11983381", "current_trial": 102, "dateTime": 1664371024637, "trialdata": {"rt": 736, "stimulus": "<p id='stroop-text' class='stroop-red'>FORK</p>", "response": "r", "stimulus-type": "unrelated", "word": "FORK", "color": "red", "correct_response": "r", "trial_id": "stroop-trial-1-unrelated-18", "trial_type": "html-keyboard-response", "trial_index": 102, "time_elapsed": 310990, "internal_node_id": "0.0-6.0-7.0"}}, {"uniqueid": "w65371345:a11983381", "current_trial": 103, "dateTime": 1664371025690, "trialdata": {"rt": 548, "stimulus": "<p id='stroop-text' class='stroop-green'>GREEN</p>", "response": "g", "stimulus-type": "congruent", "word": "green", "color": "green", "correct_response": "g", "trial_id": "stroop-trial-1-congruent-25", "trial_type": "html-keyboard-response", "trial_index": 103, "time_elapsed": 312042, "internal_node_id": "0.0-6.0-8.0"}}, {"uniqueid": "w65371345:a11983381", "current_trial": 104, "dateTime": 1664371026734, "trialdata": {"rt": 539, "stimulus": "<p id='stroop-text' class='stroop-green'>GREEN</p>", "response": "g", "stimulus-type": "congruent", "word": "green", "color": "green", "correct_response": "g", "trial_id": "stroop-trial-1-congruent-24", "trial_type": "html-keyboard-response", "trial_index": 104, "time_elapsed": 313086, "internal_node_id": "0.0-6.0-9.0"}}, {"uniqueid": "w65371345:a11983381", "current_trial": 105, "dateTime": 1664371027624, "trialdata": {"rt": 382, "stimulus": "<p id='stroop-text' class='stroop-green'>GREEN</p>", "response": "g", "stimulus-type": "congruent", "word": "green", "color": "green", "correct_response": "g", "trial_id": "stroop-trial-1-congruent-10", "trial_type": "html-keyboard-response", "trial_index": 105, "time_elapsed": 313976, "internal_node_id": "0.0-6.0-10.0"}}, {"uniqueid": "w65371345:a11983381", "current_trial": 106, "dateTime": 1664371028708, "trialdata": {"rt": 578, "stimulus": "<p id='stroop-text' class='stroop-red'>WINDOW</p>", "response": "r", "stimulus-type": "unrelated", "word": "WINDOW", "color": "red", "correct_response": "r", "trial_id": "stroop-trial-1-unrelated-22", "trial_type": "html-keyboard-response", "trial_index": 106, "time_elapsed": 315060, "internal_node_id": "0.0-6.0-11.0"}}, {"uniqueid": "w65371345:a11983381", "current_trial": 107, "dateTime": 1664371029915, "trialdata": {"rt": 703, "stimulus": "<p id='stroop-text' class='stroop-yellow'>YELLOW</p>", "response": "y", "stimulus-type": "congruent", "word": "yellow", "color": "yellow", "correct_response": "y", "trial_id": "stroop-trial-1-congruent-26", "trial_type": "html-keyboard-response", "trial_index": 107, "time_elapsed": 316267, "internal_node_id": "0.0-6.0-12.0"}}, {"uniqueid": "w65371345:a11983381", "current_trial": 108, "dateTime": 1664371030788, "trialdata": {"rt": 371, "stimulus": "<p id='stroop-text' class='stroop-yellow'>YELLOW</p>", "response": "y", "stimulus-type": "congruent", "word": "yellow", "color": "yellow", "correct_response": "y", "trial_id": "stroop-trial-1-congruent-22", "trial_type": "html-keyboard-response", "trial_index": 108, "time_elapsed": 317141, "internal_node_id": "0.0-6.0-13.0"}}, {"uniqueid": "w65371345:a11983381", "current_trial": 109, "dateTime": 1664371032118, "trialdata": {"rt": 823, "stimulus": "<p id='stroop-text' class='stroop-blue'>RED</p>", "response": "b", "stimulus-type": "incongruent", "word": "red", "color": "blue", "correct_response": "b", "trial_id": "stroop-trial-1-incongruent-3", "trial_type": "html-keyboard-response", "trial_index": 109, "time_elapsed": 318470, "internal_node_id": "0.0-6.0-14.0"}}, {"uniqueid": "w65371345:a11983381", "current_trial": 110, "dateTime": 1664371033137, "trialdata": {"rt": 514, "stimulus": "<p id='stroop-text' class='stroop-blue'>MONKEY</p>", "response": "b", "stimulus-type": "unrelated", "word": "MONKEY", "color": "blue", "correct_response": "b", "trial_id": "stroop-trial-1-unrelated-15", "trial_type": "html-keyboard-response", "trial_index": 110, "time_elapsed": 319490, "internal_node_id": "0.0-6.0-15.0"}}, {"uniqueid": "w65371345:a11983381", "current_trial": 111, "dateTime": 1664371034340, "trialdata": {"rt": 698, "stimulus": "<p id='stroop-text' class='stroop-green'>CHAIR</p>", "response": "g", "stimulus-type": "unrelated", "word": "CHAIR", "color": "green", "correct_response": "g", "trial_id": "stroop-trial-1-unrelated-17", "trial_type": "html-keyboard-response", "trial_index": 111, "time_elapsed": 320692, "internal_node_id": "0.0-6.0-16.0"}}, {"uniqueid": "w65371345:a11983381", "current_trial": 112, "dateTime": 1664371035500, "trialdata": {"rt": 656, "stimulus": "<p id='stroop-text' class='stroop-red'>BRAIN</p>", "response": "r", "stimulus-type": "unrelated", "word": "BRAIN", "color": "red", "correct_response": "r", "trial_id": "stroop-trial-1-unrelated-5", "trial_type": "html-keyboard-response", "trial_index": 112, "time_elapsed": 321853, "internal_node_id": "0.0-6.0-17.0"}}, {"uniqueid": "w65371345:a11983381", "current_trial": 113, "dateTime": 1664371036451, "trialdata": {"rt": 443, "stimulus": "<p id='stroop-text' class='stroop-red'>RED</p>", "response": "r", "stimulus-type": "congruent", "word": "red", "color": "red", "correct_response": "r", "trial_id": "stroop-trial-1-congruent-30", "trial_type": "html-keyboard-response", "trial_index": 113, "time_elapsed": 322803, "internal_node_id": "0.0-6.0-18.0"}}, {"uniqueid": "w65371345:a11983381", "current_trial": 114, "dateTime": 1664371037712, "trialdata": {"rt": 755, "stimulus": "<p id='stroop-text' class='stroop-yellow'>RED</p>", "response": "y", "stimulus-type": "incongruent", "word": "red", "color": "yellow", "correct_response": "y", "trial_id": "stroop-trial-1-incongruent-1", "trial_type": "html-keyboard-response", "trial_index": 114, "time_elapsed": 324064, "internal_node_id": "0.0-6.0-19.0"}}, {"uniqueid": "w65371345:a11983381", "current_trial": 115, "dateTime": 1664371038722, "trialdata": {"rt": 505, "stimulus": "<p id='stroop-text' class='stroop-green'>GREEN</p>", "response": "g", "stimulus-type": "congruent", "word": "green", "color": "green", "correct_response": "g", "trial_id": "stroop-trial-1-congruent-21", "trial_type": "html-keyboard-response", "trial_index": 115, "time_elapsed": 325074, "internal_node_id": "0.0-6.0-20.0"}}, {"uniqueid": "w65371345:a11983381", "current_trial": 116, "dateTime": 1664371040342, "trialdata": {"rt": 1115, "stimulus": "<p id='stroop-text' class='stroop-blue'>WINDOW</p>", "response": "b", "stimulus-type": "unrelated", "word": "WINDOW", "color": "blue", "correct_response": "b", "trial_id": "stroop-trial-1-unrelated-29", "trial_type": "html-keyboard-response", "trial_index": 116, "time_elapsed": 326694, "internal_node_id": "0.0-6.0-21.0"}}, {"uniqueid": "w65371345:a11983381", "current_trial": 117, "dateTime": 1664371041643, "trialdata": {"rt": 796, "stimulus": "<p id='stroop-text' class='stroop-green'>YELLOW</p>", "response": "g", "stimulus-type": "incongruent", "word": "yellow", "color": "green", "correct_response": "g", "trial_id": "stroop-trial-1-incongruent-14", "trial_type": "html-keyboard-response", "trial_index": 117, "time_elapsed": 327995, "internal_node_id": "0.0-6.0-22.0"}}, {"uniqueid": "w65371345:a11983381", "current_trial": 118, "dateTime": 1664371043016, "trialdata": {"rt": 867, "stimulus": "<p id='stroop-text' class='stroop-red'>STONE</p>", "response": "r", "stimulus-type": "unrelated", "word": "STONE", "color": "red", "correct_response": "r", "trial_id": "stroop-trial-1-unrelated-1", "trial_type": "html-keyboard-response", "trial_index": 118, "time_elapsed": 329369, "internal_node_id": "0.0-6.0-23.0"}}, {"uniqueid": "w65371345:a11983381", "current_trial": 119, "dateTime": 1664371044002, "trialdata": {"rt": 472, "stimulus": "<p id='stroop-text' class='stroop-red'>GREEN</p>", "response": "r", "stimulus-type": "incongruent", "word": "green", "color": "red", "correct_response": "r", "trial_id": "stroop-trial-1-incongruent-25", "trial_type": "html-keyboard-response", "trial_index": 119, "time_elapsed": 330354, "internal_node_id": "0.0-6.0-24.0"}}, {"uniqueid": "w65371345:a11983381", "current_trial": 120, "dateTime": 1664371045383, "trialdata": {"rt": 877, "stimulus": "<p id='stroop-text' class='stroop-blue'>DOG</p>", "response": "b", "stimulus-type": "unrelated", "word": "DOG", "color": "blue", "correct_response": "b", "trial_id": "stroop-trial-1-unrelated-25", "trial_type": "html-keyboard-response", "trial_index": 120, "time_elapsed": 331735, "internal_node_id": "0.0-6.0-25.0"}}, {"uniqueid": "w65371345:a11983381", "current_trial": 121, "dateTime": 1664371046852, "trialdata": {"rt": 964, "stimulus": "<p id='stroop-text' class='stroop-blue'>MONKEY</p>", "response": "b", "stimulus-type": "unrelated", "word": "MONKEY", "color": "blue", "correct_response": "b", "trial_id": "stroop-trial-1-unrelated-21", "trial_type": "html-keyboard-response", "trial_index": 121, "time_elapsed": 333204, "internal_node_id": "0.0-6.0-26.0"}}, {"uniqueid": "w65371345:a11983381", "current_trial": 122, "dateTime": 1664371047939, "trialdata": {"rt": 581, "stimulus": "<p id='stroop-text' class='stroop-blue'>BRAIN</p>", "response": "b", "stimulus-type": "unrelated", "word": "BRAIN", "color": "blue", "correct_response": "b", "trial_id": "stroop-trial-1-unrelated-27", "trial_type": "html-keyboard-response", "trial_index": 122, "time_elapsed": 334291, "internal_node_id": "0.0-6.0-27.0"}}, {"uniqueid": "w65371345:a11983381", "current_trial": 123, "dateTime": 1664371048890, "trialdata": {"rt": 446, "stimulus": "<p id='stroop-text' class='stroop-blue'>BLUE</p>", "response": "b", "stimulus-type": "congruent", "word": "blue", "color": "blue", "correct_response": "b", "trial_id": "stroop-trial-1-congruent-8", "trial_type": "html-keyboard-response", "trial_index": 123, "time_elapsed": 335243, "internal_node_id": "0.0-6.0-28.0"}}, {"uniqueid": "w65371345:a11983381", "current_trial": 124, "dateTime": 1664371050593, "trialdata": {"rt": 1197, "stimulus": "<p id='stroop-text' class='stroop-red'>YELLOW</p>", "response": "r", "stimulus-type": "incongruent", "word": "yellow", "color": "red", "correct_response": "r", "trial_id": "stroop-trial-1-incongruent-15", "trial_type": "html-keyboard-response", "trial_index": 124, "time_elapsed": 336945, "internal_node_id": "0.0-6.0-29.0"}}, {"uniqueid": "w65371345:a11983381", "current_trial": 125, "dateTime": 1664371051568, "trialdata": {"rt": 469, "stimulus": "<p id='stroop-text' class='stroop-red'>RED</p>", "response": "r", "stimulus-type": "congruent", "word": "red", "color": "red", "correct_response": "r", "trial_id": "stroop-trial-1-congruent-28", "trial_type": "html-keyboard-response", "trial_index": 125, "time_elapsed": 337921, "internal_node_id": "0.0-6.0-30.0"}}, {"uniqueid": "w65371345:a11983381", "current_trial": 126, "dateTime": 1664371052712, "trialdata": {"rt": 636, "stimulus": "<p id='stroop-text' class='stroop-yellow'>YELLOW</p>", "response": "y", "stimulus-type": "congruent", "word": "yellow", "color": "yellow", "correct_response": "y", "trial_id": "stroop-trial-1-congruent-13", "trial_type": "html-keyboard-response", "trial_index": 126, "time_elapsed": 339064, "internal_node_id": "0.0-6.0-31.0"}}, {"uniqueid": "w65371345:a11983381", "current_trial": 127, "dateTime": 1664371054268, "trialdata": {"rt": 1050, "stimulus": "<p id='stroop-text' class='stroop-green'>CHAIR</p>", "response": "g", "stimulus-type": "unrelated", "word": "CHAIR", "color": "green", "correct_response": "g", "trial_id": "stroop-trial-1-unrelated-26", "trial_type": "html-keyboard-response", "trial_index": 127, "time_elapsed": 340621, "internal_node_id": "0.0-6.0-32.0"}}, {"uniqueid": "w65371345:a11983381", "current_trial": 128, "dateTime": 1664371055355, "trialdata": {"rt": 574, "stimulus": "<p id='stroop-text' class='stroop-red'>RED</p>", "response": "r", "stimulus-type": "congruent", "word": "red", "color": "red", "correct_response": "r", "trial_id": "stroop-trial-1-congruent-14", "trial_type": "html-keyboard-response", "trial_index": 128, "time_elapsed": 341707, "internal_node_id": "0.0-6.0-33.0"}}, {"uniqueid": "w65371345:a11983381", "current_trial": 129, "dateTime": 1664371056278, "trialdata": {"rt": 419, "stimulus": "<p id='stroop-text' class='stroop-green'>RED</p>", "response": "r", "stimulus-type": "incongruent", "word": "red", "color": "green", "correct_response": "g", "trial_id": "stroop-trial-1-incongruent-19", "trial_type": "html-keyboard-response", "trial_index": 129, "time_elapsed": 342631, "internal_node_id": "0.0-6.0-34.0"}}, {"uniqueid": "w65371345:a11983381", "current_trial": 130, "dateTime": 1664371057623, "trialdata": {"rt": 841, "stimulus": "<p id='stroop-text' class='stroop-green'>GREEN</p>", "response": "g", "stimulus-type": "congruent", "word": "green", "color": "green", "correct_response": "g", "trial_id": "stroop-trial-1-congruent-1", "trial_type": "html-keyboard-response", "trial_index": 130, "time_elapsed": 343975, "internal_node_id": "0.0-6.0-35.0"}}, {"uniqueid": "w65371345:a11983381", "current_trial": 131, "dateTime": 1664371058630, "trialdata": {"rt": 503, "stimulus": "<p id='stroop-text' class='stroop-red'>RED</p>", "response": "r", "stimulus-type": "congruent", "word": "red", "color": "red", "correct_response": "r", "trial_id": "stroop-trial-1-congruent-23", "trial_type": "html-keyboard-response", "trial_index": 131, "time_elapsed": 344983, "internal_node_id": "0.0-6.0-36.0"}}, {"uniqueid": "w65371345:a11983381", "current_trial": 132, "dateTime": 1664371059764, "trialdata": {"rt": 628, "stimulus": "<p id='stroop-text' class='stroop-blue'>GREEN</p>", "response": "b", "stimulus-type": "incongruent", "word": "green", "color": "blue", "correct_response": "b", "trial_id": "stroop-trial-1-incongruent-22", "trial_type": "html-keyboard-response", "trial_index": 132, "time_elapsed": 346117, "internal_node_id": "0.0-6.0-37.0"}}, {"uniqueid": "w65371345:a11983381", "current_trial": 133, "dateTime": 1664371062276, "trialdata": {"rt": 2005, "stimulus": "<p id='stroop-text' class='stroop-green'>YELLOW</p>", "response": "g", "stimulus-type": "incongruent", "word": "yellow", "color": "green", "correct_response": "g", "trial_id": "stroop-trial-1-incongruent-8", "trial_type": "html-keyboard-response", "trial_index": 133, "time_elapsed": 348629, "internal_node_id": "0.0-6.0-38.0"}}, {"uniqueid": "w65371345:a11983381", "current_trial": 134, "dateTime": 1664371063468, "trialdata": {"rt": 682, "stimulus": "<p id='stroop-text' class='stroop-yellow'>YELLOW</p>", "response": "y", "stimulus-type": "congruent", "word": "yellow", "color": "yellow", "correct_response": "y", "trial_id": "stroop-trial-1-congruent-5", "trial_type": "html-keyboard-response", "trial_index": 134, "time_elapsed": 349820, "internal_node_id": "0.0-6.0-39.0"}}, {"uniqueid": "w65371345:a11983381", "current_trial": 135, "dateTime": 1664371064981, "trialdata": {"rt": 1006, "stimulus": "<p id='stroop-text' class='stroop-yellow'>BLUE</p>", "response": "y", "stimulus-type": "incongruent", "word": "blue", "color": "yellow", "correct_response": "y", "trial_id": "stroop-trial-1-incongruent-24", "trial_type": "html-keyboard-response", "trial_index": 135, "time_elapsed": 351333, "internal_node_id": "0.0-6.0-40.0"}}, {"uniqueid": "w65371345:a11983381", "current_trial": 136, "dateTime": 1664371066018, "trialdata": {"rt": 529, "stimulus": "<p id='stroop-text' class='stroop-yellow'>GREEN</p>", "response": "y", "stimulus-type": "incongruent", "word": "green", "color": "yellow", "correct_response": "y", "trial_id": "stroop-trial-1-incongruent-30", "trial_type": "html-keyboard-response", "trial_index": 136, "time_elapsed": 352370, "internal_node_id": "0.0-6.0-41.0"}}, {"uniqueid": "w65371345:a11983381", "current_trial": 137, "dateTime": 1664371067174, "trialdata": {"rt": 651, "stimulus": "<p id='stroop-text' class='stroop-red'>YELLOW</p>", "response": "r", "stimulus-type": "incongruent", "word": "yellow", "color": "red", "correct_response": "r", "trial_id": "stroop-trial-1-incongruent-11", "trial_type": "html-keyboard-response", "trial_index": 137, "time_elapsed": 353526, "internal_node_id": "0.0-6.0-42.0"}}, {"uniqueid": "w65371345:a11983381", "current_trial": 138, "dateTime": 1664371068503, "trialdata": {"rt": 824, "stimulus": "<p id='stroop-text' class='stroop-blue'>GREEN</p>", "response": "b", "stimulus-type": "incongruent", "word": "green", "color": "blue", "correct_response": "b", "trial_id": "stroop-trial-1-incongruent-10", "trial_type": "html-keyboard-response", "trial_index": 138, "time_elapsed": 354856, "internal_node_id": "0.0-6.0-43.0"}}, {"uniqueid": "w65371345:a11983381", "current_trial": 139, "dateTime": 1664371069578, "trialdata": {"rt": 559, "stimulus": "<p id='stroop-text' class='stroop-yellow'>YELLOW</p>", "response": "y", "stimulus-type": "congruent", "word": "yellow", "color": "yellow", "correct_response": "y", "trial_id": "stroop-trial-1-congruent-17", "trial_type": "html-keyboard-response", "trial_index": 139, "time_elapsed": 355931, "internal_node_id": "0.0-6.0-44.0"}}, {"uniqueid": "w65371345:a11983381", "current_trial": 140, "dateTime": 1664371070851, "trialdata": {"rt": 764, "stimulus": "<p id='stroop-text' class='stroop-blue'>BLUE</p>", "response": "b", "stimulus-type": "congruent", "word": "blue", "color": "blue", "correct_response": "b", "trial_id": "stroop-trial-1-congruent-29", "trial_type": "html-keyboard-response", "trial_index": 140, "time_elapsed": 357203, "internal_node_id": "0.0-6.0-45.0"}}, {"uniqueid": "w65371345:a11983381", "current_trial": 141, "dateTime": 1664371072080, "trialdata": {"rt": 724, "stimulus": "<p id='stroop-text' class='stroop-green'>BOAT</p>", "response": "g", "stimulus-type": "unrelated", "word": "BOAT", "color": "green", "correct_response": "g", "trial_id": "stroop-trial-1-unrelated-14", "trial_type": "html-keyboard-response", "trial_index": 141, "time_elapsed": 358432, "internal_node_id": "0.0-6.0-46.0"}}, {"uniqueid": "w65371345:a11983381", "current_trial": 142, "dateTime": 1664371073735, "trialdata": {"rt": 1150, "stimulus": "<p id='stroop-text' class='stroop-blue'>CHAIR</p>", "response": "b", "stimulus-type": "unrelated", "word": "CHAIR", "color": "blue", "correct_response": "b", "trial_id": "stroop-trial-1-unrelated-23", "trial_type": "html-keyboard-response", "trial_index": 142, "time_elapsed": 360087, "internal_node_id": "0.0-6.0-47.0"}}, {"uniqueid": "w65371345:a11983381", "current_trial": 143, "dateTime": 1664371075014, "trialdata": {"rt": 772, "stimulus": "<p id='stroop-text' class='stroop-red'>FORK</p>", "response": "r", "stimulus-type": "unrelated", "word": "FORK", "color": "red", "correct_response": "r", "trial_id": "stroop-trial-1-unrelated-24", "trial_type": "html-keyboard-response", "trial_index": 143, "time_elapsed": 361367, "internal_node_id": "0.0-6.0-48.0"}}, {"uniqueid": "w65371345:a11983381", "current_trial": 144, "dateTime": 1664371076778, "trialdata": {"rt": 1258, "stimulus": "<p id='stroop-text' class='stroop-blue'>GREEN</p>", "response": "b", "stimulus-type": "incongruent", "word": "green", "color": "blue", "correct_response": "b", "trial_id": "stroop-trial-1-incongruent-4", "trial_type": "html-keyboard-response", "trial_index": 144, "time_elapsed": 363130, "internal_node_id": "0.0-6.0-49.0"}}, {"uniqueid": "w65371345:a11983381", "current_trial": 145, "dateTime": 1664371077927, "trialdata": {"rt": 643, "stimulus": "<p id='stroop-text' class='stroop-yellow'>YELLOW</p>", "response": "y", "stimulus-type": "congruent", "word": "yellow", "color": "yellow", "correct_response": "y", "trial_id": "stroop-trial-1-congruent-11", "trial_type": "html-keyboard-response", "trial_index": 145, "time_elapsed": 364279, "internal_node_id": "0.0-6.0-50.0"}}, {"uniqueid": "w65371345:a11983381", "current_trial": 146, "dateTime": 1664371079229, "trialdata": {"rt": 795, "stimulus": "<p id='stroop-text' class='stroop-red'>YELLOW</p>", "response": "r", "stimulus-type": "incongruent", "word": "yellow", "color": "red", "correct_response": "r", "trial_id": "stroop-trial-1-incongruent-29", "trial_type": "html-keyboard-response", "trial_index": 146, "time_elapsed": 365581, "internal_node_id": "0.0-6.0-51.0"}}, {"uniqueid": "w65371345:a11983381", "current_trial": 147, "dateTime": 1664371080464, "trialdata": {"rt": 729, "stimulus": "<p id='stroop-text' class='stroop-blue'>BLUE</p>", "response": "b", "stimulus-type": "congruent", "word": "blue", "color": "blue", "correct_response": "b", "trial_id": "stroop-trial-1-congruent-6", "trial_type": "html-keyboard-response", "trial_index": 147, "time_elapsed": 366817, "internal_node_id": "0.0-6.0-52.0"}}, {"uniqueid": "w65371345:a11983381", "current_trial": 148, "dateTime": 1664371081969, "trialdata": {"rt": 999, "stimulus": "<p id='stroop-text' class='stroop-yellow'>SHIP</p>", "response": "y", "stimulus-type": "unrelated", "word": "SHIP", "color": "yellow", "correct_response": "y", "trial_id": "stroop-trial-1-unrelated-7", "trial_type": "html-keyboard-response", "trial_index": 148, "time_elapsed": 368321, "internal_node_id": "0.0-6.0-53.0"}}, {"uniqueid": "w65371345:a11983381", "current_trial": 149, "dateTime": 1664371083026, "trialdata": {"rt": 552, "stimulus": "<p id='stroop-text' class='stroop-red'>RED</p>", "response": "r", "stimulus-type": "congruent", "word": "red", "color": "red", "correct_response": "r", "trial_id": "stroop-trial-1-congruent-19", "trial_type": "html-keyboard-response", "trial_index": 149, "time_elapsed": 369379, "internal_node_id": "0.0-6.0-54.0"}}, {"uniqueid": "w65371345:a11983381", "current_trial": 150, "dateTime": 1664371084587, "trialdata": {"rt": 1055, "stimulus": "<p id='stroop-text' class='stroop-red'>GREEN</p>", "response": "r", "stimulus-type": "incongruent", "word": "green", "color": "red", "correct_response": "r", "trial_id": "stroop-trial-1-incongruent-16", "trial_type": "html-keyboard-response", "trial_index": 150, "time_elapsed": 370939, "internal_node_id": "0.0-6.0-55.0"}}, {"uniqueid": "w65371345:a11983381", "current_trial": 151, "dateTime": 1664371085724, "trialdata": {"rt": 631, "stimulus": "<p id='stroop-text' class='stroop-green'>GREEN</p>", "response": "g", "stimulus-type": "congruent", "word": "green", "color": "green", "correct_response": "g", "trial_id": "stroop-trial-1-congruent-2", "trial_type": "html-keyboard-response", "trial_index": 151, "time_elapsed": 372076, "internal_node_id": "0.0-6.0-56.0"}}, {"uniqueid": "w65371345:a11983381", "current_trial": 152, "dateTime": 1664371087495, "trialdata": {"rt": 1264, "stimulus": "<p id='stroop-text' class='stroop-yellow'>SHIP</p>", "response": "y", "stimulus-type": "unrelated", "word": "SHIP", "color": "yellow", "correct_response": "y", "trial_id": "stroop-trial-1-unrelated-30", "trial_type": "html-keyboard-response", "trial_index": 152, "time_elapsed": 373848, "internal_node_id": "0.0-6.0-57.0"}}, {"uniqueid": "w65371345:a11983381", "current_trial": 153, "dateTime": 1664371088785, "trialdata": {"rt": 783, "stimulus": "<p id='stroop-text' class='stroop-blue'>DOG</p>", "response": "b", "stimulus-type": "unrelated", "word": "DOG", "color": "blue", "correct_response": "b", "trial_id": "stroop-trial-1-unrelated-16", "trial_type": "html-keyboard-response", "trial_index": 153, "time_elapsed": 375137, "internal_node_id": "0.0-6.0-58.0"}}, {"uniqueid": "w65371345:a11983381", "current_trial": 154, "dateTime": 1664371089996, "trialdata": {"rt": 703, "stimulus": "<p id='stroop-text' class='stroop-green'>GREEN</p>", "response": "r", "stimulus-type": "congruent", "word": "green", "color": "green", "correct_response": "g", "trial_id": "stroop-trial-1-congruent-16", "trial_type": "html-keyboard-response", "trial_index": 154, "time_elapsed": 376349, "internal_node_id": "0.0-6.0-59.0"}}, {"uniqueid": "w65371345:a11983381", "current_trial": 155, "dateTime": 1664371091080, "trialdata": {"rt": 575, "stimulus": "<p id='stroop-text' class='stroop-green'>GREEN</p>", "response": "g", "stimulus-type": "congruent", "word": "green", "color": "green", "correct_response": "g", "trial_id": "stroop-trial-1-congruent-4", "trial_type": "html-keyboard-response", "trial_index": 155, "time_elapsed": 377432, "internal_node_id": "0.0-6.0-60.0"}}, {"uniqueid": "w65371345:a11983381", "current_trial": 156, "dateTime": 1664371092570, "trialdata": {"rt": 985, "stimulus": "<p id='stroop-text' class='stroop-blue'>FORK</p>", "response": "b", "stimulus-type": "unrelated", "word": "FORK", "color": "blue", "correct_response": "b", "trial_id": "stroop-trial-1-unrelated-10", "trial_type": "html-keyboard-response", "trial_index": 156, "time_elapsed": 378923, "internal_node_id": "0.0-6.0-61.0"}}, {"uniqueid": "w65371345:a11983381", "current_trial": 157, "dateTime": 1664371093694, "trialdata": {"rt": 617, "stimulus": "<p id='stroop-text' class='stroop-red'>GREEN</p>", "response": "r", "stimulus-type": "incongruent", "word": "green", "color": "red", "correct_response": "r", "trial_id": "stroop-trial-1-incongruent-21", "trial_type": "html-keyboard-response", "trial_index": 157, "time_elapsed": 380047, "internal_node_id": "0.0-6.0-62.0"}}, {"uniqueid": "w65371345:a11983381", "current_trial": 158, "dateTime": 1664371094731, "trialdata": {"rt": 528, "stimulus": "<p id='stroop-text' class='stroop-blue'>BLUE</p>", "response": "b", "stimulus-type": "congruent", "word": "blue", "color": "blue", "correct_response": "b", "trial_id": "stroop-trial-1-congruent-12", "trial_type": "html-keyboard-response", "trial_index": 158, "time_elapsed": 381083, "internal_node_id": "0.0-6.0-63.0"}}, {"uniqueid": "w65371345:a11983381", "current_trial": 159, "dateTime": 1664371095671, "trialdata": {"rt": 435, "stimulus": "<p id='stroop-text' class='stroop-blue'>GREEN</p>", "response": "b", "stimulus-type": "incongruent", "word": "green", "color": "blue", "correct_response": "b", "trial_id": "stroop-trial-1-incongruent-13", "trial_type": "html-keyboard-response", "trial_index": 159, "time_elapsed": 382024, "internal_node_id": "0.0-6.0-64.0"}}, {"uniqueid": "w65371345:a11983381", "current_trial": 160, "dateTime": 1664371096523, "trialdata": {"rt": 348, "stimulus": "<p id='stroop-text' class='stroop-blue'>WINDOW</p>", "response": "b", "stimulus-type": "unrelated", "word": "WINDOW", "color": "blue", "correct_response": "b", "trial_id": "stroop-trial-1-unrelated-19", "trial_type": "html-keyboard-response", "trial_index": 160, "time_elapsed": 382876, "internal_node_id": "0.0-6.0-65.0"}}, {"uniqueid": "w65371345:a11983381", "current_trial": 161, "dateTime": 1664371097788, "trialdata": {"rt": 757, "stimulus": "<p id='stroop-text' class='stroop-yellow'>GREEN</p>", "response": "y", "stimulus-type": "incongruent", "word": "green", "color": "yellow", "correct_response": "y", "trial_id": "stroop-trial-1-incongruent-17", "trial_type": "html-keyboard-response", "trial_index": 161, "time_elapsed": 384141, "internal_node_id": "0.0-6.0-66.0"}}, {"uniqueid": "w65371345:a11983381", "current_trial": 162, "dateTime": 1664371098835, "trialdata": {"rt": 538, "stimulus": "<p id='stroop-text' class='stroop-red'>RED</p>", "response": "r", "stimulus-type": "congruent", "word": "red", "color": "red", "correct_response": "r", "trial_id": "stroop-trial-1-congruent-18", "trial_type": "html-keyboard-response", "trial_index": 162, "time_elapsed": 385187, "internal_node_id": "0.0-6.0-67.0"}}, {"uniqueid": "w65371345:a11983381", "current_trial": 163, "dateTime": 1664371099757, "trialdata": {"rt": 417, "stimulus": "<p id='stroop-text' class='stroop-red'>YELLOW</p>", "response": "r", "stimulus-type": "incongruent", "word": "yellow", "color": "red", "correct_response": "r", "trial_id": "stroop-trial-1-incongruent-6", "trial_type": "html-keyboard-response", "trial_index": 163, "time_elapsed": 386110, "internal_node_id": "0.0-6.0-68.0"}}, {"uniqueid": "w65371345:a11983381", "current_trial": 164, "dateTime": 1664371101503, "trialdata": {"rt": 1238, "stimulus": "<p id='stroop-text' class='stroop-green'>DOG</p>", "response": "g", "stimulus-type": "unrelated", "word": "DOG", "color": "green", "correct_response": "g", "trial_id": "stroop-trial-1-unrelated-28", "trial_type": "html-keyboard-response", "trial_index": 164, "time_elapsed": 387856, "internal_node_id": "0.0-6.0-69.0"}}, {"uniqueid": "w65371345:a11983381", "current_trial": 165, "dateTime": 1664371102886, "trialdata": {"rt": 876, "stimulus": "<p id='stroop-text' class='stroop-blue'>BOTTLE</p>", "response": "b", "stimulus-type": "unrelated", "word": "BOTTLE", "color": "blue", "correct_response": "b", "trial_id": "stroop-trial-1-unrelated-9", "trial_type": "html-keyboard-response", "trial_index": 165, "time_elapsed": 389238, "internal_node_id": "0.0-6.0-70.0"}}, {"uniqueid": "w65371345:a11983381", "current_trial": 166, "dateTime": 1664371103883, "trialdata": {"rt": 489, "stimulus": "<p id='stroop-text' class='stroop-blue'>YELLOW</p>", "response": "b", "stimulus-type": "incongruent", "word": "yellow", "color": "blue", "correct_response": "b", "trial_id": "stroop-trial-1-incongruent-5", "trial_type": "html-keyboard-response", "trial_index": 166, "time_elapsed": 390235, "internal_node_id": "0.0-6.0-71.0"}}, {"uniqueid": "w65371345:a11983381", "current_trial": 167, "dateTime": 1664371104755, "trialdata": {"rt": 365, "stimulus": "<p id='stroop-text' class='stroop-blue'>BLUE</p>", "response": "b", "stimulus-type": "congruent", "word": "blue", "color": "blue", "correct_response": "b", "trial_id": "stroop-trial-1-congruent-3", "trial_type": "html-keyboard-response", "trial_index": 167, "time_elapsed": 391107, "internal_node_id": "0.0-6.0-72.0"}}, {"uniqueid": "w65371345:a11983381", "current_trial": 168, "dateTime": 1664371105714, "trialdata": {"rt": 453, "stimulus": "<p id='stroop-text' class='stroop-yellow'>RED</p>", "response": "r", "stimulus-type": "incongruent", "word": "red", "color": "yellow", "correct_response": "y", "trial_id": "stroop-trial-1-incongruent-18", "trial_type": "html-keyboard-response", "trial_index": 168, "time_elapsed": 392066, "internal_node_id": "0.0-6.0-73.0"}}, {"uniqueid": "w65371345:a11983381", "current_trial": 169, "dateTime": 1664371107246, "trialdata": {"rt": 1024, "stimulus": "<p id='stroop-text' class='stroop-red'>SHIP</p>", "response": "r", "stimulus-type": "unrelated", "word": "SHIP", "color": "red", "correct_response": "r", "trial_id": "stroop-trial-1-unrelated-13", "trial_type": "html-keyboard-response", "trial_index": 169, "time_elapsed": 393598, "internal_node_id": "0.0-6.0-74.0"}}, {"uniqueid": "w65371345:a11983381", "current_trial": 170, "dateTime": 1664371108304, "trialdata": {"rt": 548, "stimulus": "<p id='stroop-text' class='stroop-yellow'>YELLOW</p>", "response": "y", "stimulus-type": "congruent", "word": "yellow", "color": "yellow", "correct_response": "y", "trial_id": "stroop-trial-1-congruent-9", "trial_type": "html-keyboard-response", "trial_index": 170, "time_elapsed": 394656, "internal_node_id": "0.0-6.0-75.0"}}, {"uniqueid": "w65371345:a11983381", "current_trial": 171, "dateTime": 1664371109452, "trialdata": {"rt": 642, "stimulus": "<p id='stroop-text' class='stroop-red'>BOTTLE</p>", "response": "r", "stimulus-type": "unrelated", "word": "BOTTLE", "color": "red", "correct_response": "r", "trial_id": "stroop-trial-1-unrelated-2", "trial_type": "html-keyboard-response", "trial_index": 171, "time_elapsed": 395804, "internal_node_id": "0.0-6.0-76.0"}}, {"uniqueid": "w65371345:a11983381", "current_trial": 172, "dateTime": 1664371110722, "trialdata": {"rt": 765, "stimulus": "<p id='stroop-text' class='stroop-red'>BLUE</p>", "response": "r", "stimulus-type": "incongruent", "word": "blue", "color": "red", "correct_response": "r", "trial_id": "stroop-trial-1-incongruent-12", "trial_type": "html-keyboard-response", "trial_index": 172, "time_elapsed": 397075, "internal_node_id": "0.0-6.0-77.0"}}, {"uniqueid": "w65371345:a11983381", "current_trial": 173, "dateTime": 1664371112071, "trialdata": {"rt": 844, "stimulus": "<p id='stroop-text' class='stroop-red'>YELLOW</p>", "response": "r", "stimulus-type": "incongruent", "word": "yellow", "color": "red", "correct_response": "r", "trial_id": "stroop-trial-1-incongruent-27", "trial_type": "html-keyboard-response", "trial_index": 173, "time_elapsed": 398424, "internal_node_id": "0.0-6.0-78.0"}}, {"uniqueid": "w65371345:a11983381", "current_trial": 174, "dateTime": 1664371113036, "trialdata": {"rt": 458, "stimulus": "<p id='stroop-text' class='stroop-red'>RED</p>", "response": "r", "stimulus-type": "congruent", "word": "red", "color": "red", "correct_response": "r", "trial_id": "stroop-trial-1-congruent-20", "trial_type": "html-keyboard-response", "trial_index": 174, "time_elapsed": 399389, "internal_node_id": "0.0-6.0-79.0"}}, {"uniqueid": "w65371345:a11983381", "current_trial": 175, "dateTime": 1664371114256, "trialdata": {"rt": 709, "stimulus": "<p id='stroop-text' class='stroop-blue'>BOTTLE</p>", "response": "b", "stimulus-type": "unrelated", "word": "BOTTLE", "color": "blue", "correct_response": "b", "trial_id": "stroop-trial-1-unrelated-6", "trial_type": "html-keyboard-response", "trial_index": 175, "time_elapsed": 400609, "internal_node_id": "0.0-6.0-80.0"}}, {"uniqueid": "w65371345:a11983381", "current_trial": 176, "dateTime": 1664371115244, "trialdata": {"rt": 481, "stimulus": "<p id='stroop-text' class='stroop-red'>RED</p>", "response": "r", "stimulus-type": "congruent", "word": "red", "color": "red", "correct_response": "r", "trial_id": "stroop-trial-1-congruent-27", "trial_type": "html-keyboard-response", "trial_index": 176, "time_elapsed": 401596, "internal_node_id": "0.0-6.0-81.0"}}, {"uniqueid": "w65371345:a11983381", "current_trial": 177, "dateTime": 1664371116944, "trialdata": {"rt": 1192, "stimulus": "<p id='stroop-text' class='stroop-green'>BLUE</p>", "response": "g", "stimulus-type": "incongruent", "word": "blue", "color": "green", "correct_response": "g", "trial_id": "stroop-trial-1-incongruent-28", "trial_type": "html-keyboard-response", "trial_index": 177, "time_elapsed": 403297, "internal_node_id": "0.0-6.0-82.0"}}, {"uniqueid": "w65371345:a11983381", "current_trial": 178, "dateTime": 1664371118053, "trialdata": {"rt": 602, "stimulus": "<p id='stroop-text' class='stroop-red'>FORK</p>", "response": "r", "stimulus-type": "unrelated", "word": "FORK", "color": "red", "correct_response": "r", "trial_id": "stroop-trial-1-unrelated-20", "trial_type": "html-keyboard-response", "trial_index": 178, "time_elapsed": 404405, "internal_node_id": "0.0-6.0-83.0"}}, {"uniqueid": "w65371345:a11983381", "current_trial": 179, "dateTime": 1664371119382, "trialdata": {"rt": 822, "stimulus": "<p id='stroop-text' class='stroop-yellow'>WINDOW</p>", "response": "y", "stimulus-type": "unrelated", "word": "WINDOW", "color": "yellow", "correct_response": "y", "trial_id": "stroop-trial-1-unrelated-8", "trial_type": "html-keyboard-response", "trial_index": 179, "time_elapsed": 405734, "internal_node_id": "0.0-6.0-84.0"}}, {"uniqueid": "w65371345:a11983381", "current_trial": 180, "dateTime": 1664371120574, "trialdata": {"rt": 685, "stimulus": "<p id='stroop-text' class='stroop-red'>MONKEY</p>", "response": "r", "stimulus-type": "unrelated", "word": "MONKEY", "color": "red", "correct_response": "r", "trial_id": "stroop-trial-1-unrelated-4", "trial_type": "html-keyboard-response", "trial_index": 180, "time_elapsed": 406926, "internal_node_id": "0.0-6.0-85.0"}}, {"uniqueid": "w65371345:a11983381", "current_trial": 181, "dateTime": 1664371121820, "trialdata": {"rt": 738, "stimulus": "<p id='stroop-text' class='stroop-green'>STONE</p>", "response": "g", "stimulus-type": "unrelated", "word": "STONE", "color": "green", "correct_response": "g", "trial_id": "stroop-trial-1-unrelated-11", "trial_type": "html-keyboard-response", "trial_index": 181, "time_elapsed": 408173, "internal_node_id": "0.0-6.0-86.0"}}, {"uniqueid": "w65371345:a11983381", "current_trial": 182, "dateTime": 1664371123166, "trialdata": {"rt": 839, "stimulus": "<p id='stroop-text' class='stroop-blue'>GREEN</p>", "response": "y", "stimulus-type": "incongruent", "word": "green", "color": "blue", "correct_response": "b", "trial_id": "stroop-trial-1-incongruent-7", "trial_type": "html-keyboard-response", "trial_index": 182, "time_elapsed": 409518, "internal_node_id": "0.0-6.0-87.0"}}, {"uniqueid": "w65371345:a11983381", "current_trial": 183, "dateTime": 1664371124284, "trialdata": {"rt": 611, "stimulus": "<p id='stroop-text' class='stroop-yellow'>RED</p>", "response": "y", "stimulus-type": "incongruent", "word": "red", "color": "yellow", "correct_response": "y", "trial_id": "stroop-trial-1-incongruent-26", "trial_type": "html-keyboard-response", "trial_index": 183, "time_elapsed": 410636, "internal_node_id": "0.0-6.0-88.0"}}, {"uniqueid": "w65371345:a11983381", "current_trial": 184, "dateTime": 1664371125467, "trialdata": {"rt": 675, "stimulus": "<p id='stroop-text' class='stroop-red'>STONE</p>", "response": "r", "stimulus-type": "unrelated", "word": "STONE", "color": "red", "correct_response": "r", "trial_id": "stroop-trial-1-unrelated-12", "trial_type": "html-keyboard-response", "trial_index": 184, "time_elapsed": 411819, "internal_node_id": "0.0-6.0-89.0"}}, {"uniqueid": "w65371345:a11983381", "current_trial": 185, "dateTime": 1664371126868, "trialdata": {"rt": 895, "stimulus": "  <h1> End of block! </h1>\n\n  You have reached the end of the block 2/5. If you need a short break, feel free to take one now before moving on.\n\n  <br><br>\n  In the next block, you will complete another 90 rounds of this game.\n\n  <br><br>\n  <div style='text-align: center;'>Press <code>space</code> to begin.</div>\n  <br><br>\n<div style='text-align: center;'>(If the experiment doesn't continue, try clicking on the text and then pressing <code>space</code>.)</div>", "response": " ", "trial_id": "stroop_1_ready_3", "trial_type": "html-keyboard-response", "trial_index": 185, "time_elapsed": 413221, "internal_node_id": "0.0-7.0"}}, {"uniqueid": "w65371345:a11983381", "current_trial": 186, "dateTime": 1664371128157, "trialdata": {"rt": 1282, "stimulus": "<p id='stroop-text' class='stroop-yellow'>DOG</p>", "response": "y", "stimulus-type": "unrelated", "word": "DOG", "color": "yellow", "correct_response": "y", "trial_id": "stroop-trial-1-unrelated-4", "trial_type": "html-keyboard-response", "trial_index": 186, "time_elapsed": 414509, "internal_node_id": "0.0-8.0-0.0"}}, {"uniqueid": "w65371345:a11983381", "current_trial": 187, "dateTime": 1664371129220, "trialdata": {"rt": 556, "stimulus": "<p id='stroop-text' class='stroop-red'>BRAIN</p>", "response": "b", "stimulus-type": "unrelated", "word": "BRAIN", "color": "red", "correct_response": "r", "trial_id": "stroop-trial-1-unrelated-13", "trial_type": "html-keyboard-response", "trial_index": 187, "time_elapsed": 415572, "internal_node_id": "0.0-8.0-1.0"}}, {"uniqueid": "w65371345:a11983381", "current_trial": 188, "dateTime": 1664371130279, "trialdata": {"rt": 551, "stimulus": "<p id='stroop-text' class='stroop-red'>YELLOW</p>", "response": "r", "stimulus-type": "incongruent", "word": "yellow", "color": "red", "correct_response": "r", "trial_id": "stroop-trial-1-incongruent-23", "trial_type": "html-keyboard-response", "trial_index": 188, "time_elapsed": 416631, "internal_node_id": "0.0-8.0-2.0"}}, {"uniqueid": "w65371345:a11983381", "current_trial": 189, "dateTime": 1664371131385, "trialdata": {"rt": 598, "stimulus": "<p id='stroop-text' class='stroop-yellow'>YELLOW</p>", "response": "y", "stimulus-type": "congruent", "word": "yellow", "color": "yellow", "correct_response": "y", "trial_id": "stroop-trial-1-congruent-22", "trial_type": "html-keyboard-response", "trial_index": 189, "time_elapsed": 417738, "internal_node_id": "0.0-8.0-3.0"}}, {"uniqueid": "w65371345:a11983381", "current_trial": 190, "dateTime": 1664371132677, "trialdata": {"rt": 780, "stimulus": "<p id='stroop-text' class='stroop-green'>GREEN</p>", "response": "g", "stimulus-type": "congruent", "word": "green", "color": "green", "correct_response": "g", "trial_id": "stroop-trial-1-congruent-6", "trial_type": "html-keyboard-response", "trial_index": 190, "time_elapsed": 419029, "internal_node_id": "0.0-8.0-4.0"}}, {"uniqueid": "w65371345:a11983381", "current_trial": 191, "dateTime": 1664371133934, "trialdata": {"rt": 748, "stimulus": "<p id='stroop-text' class='stroop-blue'>BLUE</p>", "response": "b", "stimulus-type": "congruent", "word": "blue", "color": "blue", "correct_response": "b", "trial_id": "stroop-trial-1-congruent-10", "trial_type": "html-keyboard-response", "trial_index": 191, "time_elapsed": 420286, "internal_node_id": "0.0-8.0-5.0"}}, {"uniqueid": "w65371345:a11983381", "current_trial": 192, "dateTime": 1664371135055, "trialdata": {"rt": 613, "stimulus": "<p id='stroop-text' class='stroop-green'>GREEN</p>", "response": "g", "stimulus-type": "congruent", "word": "green", "color": "green", "correct_response": "g", "trial_id": "stroop-trial-1-congruent-24", "trial_type": "html-keyboard-response", "trial_index": 192, "time_elapsed": 421407, "internal_node_id": "0.0-8.0-6.0"}}, {"uniqueid": "w65371345:a11983381", "current_trial": 193, "dateTime": 1664371136293, "trialdata": {"rt": 729, "stimulus": "<p id='stroop-text' class='stroop-red'>CHAIR</p>", "response": "r", "stimulus-type": "unrelated", "word": "CHAIR", "color": "red", "correct_response": "r", "trial_id": "stroop-trial-1-unrelated-23", "trial_type": "html-keyboard-response", "trial_index": 193, "time_elapsed": 422645, "internal_node_id": "0.0-8.0-7.0"}}, {"uniqueid": "w65371345:a11983381", "current_trial": 194, "dateTime": 1664371137411, "trialdata": {"rt": 613, "stimulus": "<p id='stroop-text' class='stroop-blue'>BRAIN</p>", "response": "b", "stimulus-type": "unrelated", "word": "BRAIN", "color": "blue", "correct_response": "b", "trial_id": "stroop-trial-1-unrelated-15", "trial_type": "html-keyboard-response", "trial_index": 194, "time_elapsed": 423763, "internal_node_id": "0.0-8.0-8.0"}}, {"uniqueid": "w65371345:a11983381", "current_trial": 195, "dateTime": 1664371138507, "trialdata": {"rt": 590, "stimulus": "<p id='stroop-text' class='stroop-blue'>BOAT</p>", "response": "b", "stimulus-type": "unrelated", "word": "BOAT", "color": "blue", "correct_response": "b", "trial_id": "stroop-trial-1-unrelated-29", "trial_type": "html-keyboard-response", "trial_index": 195, "time_elapsed": 424859, "internal_node_id": "0.0-8.0-9.0"}}, {"uniqueid": "w65371345:a11983381", "current_trial": 196, "dateTime": 1664371139703, "trialdata": {"rt": 688, "stimulus": "<p id='stroop-text' class='stroop-green'>GREEN</p>", "response": "g", "stimulus-type": "congruent", "word": "green", "color": "green", "correct_response": "g", "trial_id": "stroop-trial-1-congruent-11", "trial_type": "html-keyboard-response", "trial_index": 196, "time_elapsed": 426056, "internal_node_id": "0.0-8.0-10.0"}}, {"uniqueid": "w65371345:a11983381", "current_trial": 197, "dateTime": 1664371141001, "trialdata": {"rt": 792, "stimulus": "<p id='stroop-text' class='stroop-red'>SHIP</p>", "response": "r", "stimulus-type": "unrelated", "word": "SHIP", "color": "red", "correct_response": "r", "trial_id": "stroop-trial-1-unrelated-7", "trial_type": "html-keyboard-response", "trial_index": 197, "time_elapsed": 427353, "internal_node_id": "0.0-8.0-11.0"}}, {"uniqueid": "w65371345:a11983381", "current_trial": 198, "dateTime": 1664371141979, "trialdata": {"rt": 473, "stimulus": "<p id='stroop-text' class='stroop-red'>BLUE</p>", "response": "r", "stimulus-type": "incongruent", "word": "blue", "color": "red", "correct_response": "r", "trial_id": "stroop-trial-1-incongruent-2", "trial_type": "html-keyboard-response", "trial_index": 198, "time_elapsed": 428332, "internal_node_id": "0.0-8.0-12.0"}}, {"uniqueid": "w65371345:a11983381", "current_trial": 199, "dateTime": 1664371143187, "trialdata": {"rt": 699, "stimulus": "<p id='stroop-text' class='stroop-green'>BOAT</p>", "response": "g", "stimulus-type": "unrelated", "word": "BOAT", "color": "green", "correct_response": "g", "trial_id": "stroop-trial-1-unrelated-27", "trial_type": "html-keyboard-response", "trial_index": 199, "time_elapsed": 429540, "internal_node_id": "0.0-8.0-13.0"}}, {"uniqueid": "w65371345:a11983381", "current_trial": 200, "dateTime": 1664371144507, "trialdata": {"rt": 813, "stimulus": "<p id='stroop-text' class='stroop-blue'>YELLOW</p>", "response": "b", "stimulus-type": "incongruent", "word": "yellow", "color": "blue", "correct_response": "b", "trial_id": "stroop-trial-1-incongruent-20", "trial_type": "html-keyboard-response", "trial_index": 200, "time_elapsed": 430859, "internal_node_id": "0.0-8.0-14.0"}}, {"uniqueid": "w65371345:a11983381", "current_trial": 201, "dateTime": 1664371145548, "trialdata": {"rt": 529, "stimulus": "<p id='stroop-text' class='stroop-red'>BRAIN</p>", "response": "r", "stimulus-type": "unrelated", "word": "BRAIN", "color": "red", "correct_response": "r", "trial_id": "stroop-trial-1-unrelated-26", "trial_type": "html-keyboard-response", "trial_index": 201, "time_elapsed": 431900, "internal_node_id": "0.0-8.0-15.0"}}, {"uniqueid": "w65371345:a11983381", "current_trial": 202, "dateTime": 1664371146659, "trialdata": {"rt": 604, "stimulus": "<p id='stroop-text' class='stroop-red'>RED</p>", "response": "r", "stimulus-type": "congruent", "word": "red", "color": "red", "correct_response": "r", "trial_id": "stroop-trial-1-congruent-12", "trial_type": "html-keyboard-response", "trial_index": 202, "time_elapsed": 433011, "internal_node_id": "0.0-8.0-16.0"}}, {"uniqueid": "w65371345:a11983381", "current_trial": 203, "dateTime": 1664371147786, "trialdata": {"rt": 619, "stimulus": "<p id='stroop-text' class='stroop-yellow'>YELLOW</p>", "response": "y", "stimulus-type": "congruent", "word": "yellow", "color": "yellow", "correct_response": "y", "trial_id": "stroop-trial-1-congruent-4", "trial_type": "html-keyboard-response", "trial_index": 203, "time_elapsed": 434139, "internal_node_id": "0.0-8.0-17.0"}}, {"uniqueid": "w65371345:a11983381", "current_trial": 204, "dateTime": 1664371148833, "trialdata": {"rt": 542, "stimulus": "<p id='stroop-text' class='stroop-yellow'>MONKEY</p>", "response": "y", "stimulus-type": "unrelated", "word": "MONKEY", "color": "yellow", "correct_response": "y", "trial_id": "stroop-trial-1-unrelated-30", "trial_type": "html-keyboard-response", "trial_index": 204, "time_elapsed": 435186, "internal_node_id": "0.0-8.0-18.0"}}, {"uniqueid": "w65371345:a11983381", "current_trial": 205, "dateTime": 1664371149935, "trialdata": {"rt": 598, "stimulus": "<p id='stroop-text' class='stroop-blue'>YELLOW</p>", "response": "r", "stimulus-type": "incongruent", "word": "yellow", "color": "blue", "correct_response": "b", "trial_id": "stroop-trial-1-incongruent-5", "trial_type": "html-keyboard-response", "trial_index": 205, "time_elapsed": 436288, "internal_node_id": "0.0-8.0-19.0"}}, {"uniqueid": "w65371345:a11983381", "current_trial": 206, "dateTime": 1664371151159, "trialdata": {"rt": 707, "stimulus": "<p id='stroop-text' class='stroop-green'>BLUE</p>", "response": "g", "stimulus-type": "incongruent", "word": "blue", "color": "green", "correct_response": "g", "trial_id": "stroop-trial-1-incongruent-13", "trial_type": "html-keyboard-response", "trial_index": 206, "time_elapsed": 437511, "internal_node_id": "0.0-8.0-20.0"}}, {"uniqueid": "w65371345:a11983381", "current_trial": 207, "dateTime": 1664371152607, "trialdata": {"rt": 942, "stimulus": "<p id='stroop-text' class='stroop-blue'>BLUE</p>", "response": "b", "stimulus-type": "congruent", "word": "blue", "color": "blue", "correct_response": "b", "trial_id": "stroop-trial-1-congruent-17", "trial_type": "html-keyboard-response", "trial_index": 207, "time_elapsed": 438960, "internal_node_id": "0.0-8.0-21.0"}}, {"uniqueid": "w65371345:a11983381", "current_trial": 208, "dateTime": 1664371153606, "trialdata": {"rt": 492, "stimulus": "<p id='stroop-text' class='stroop-blue'>MONKEY</p>", "response": "b", "stimulus-type": "unrelated", "word": "MONKEY", "color": "blue", "correct_response": "b", "trial_id": "stroop-trial-1-unrelated-9", "trial_type": "html-keyboard-response", "trial_index": 208, "time_elapsed": 439958, "internal_node_id": "0.0-8.0-22.0"}}, {"uniqueid": "w65371345:a11983381", "current_trial": 209, "dateTime": 1664371154544, "trialdata": {"rt": 434, "stimulus": "<p id='stroop-text' class='stroop-blue'>BOTTLE</p>", "response": "b", "stimulus-type": "unrelated", "word": "BOTTLE", "color": "blue", "correct_response": "b", "trial_id": "stroop-trial-1-unrelated-1", "trial_type": "html-keyboard-response", "trial_index": 209, "time_elapsed": 440896, "internal_node_id": "0.0-8.0-23.0"}}, {"uniqueid": "w65371345:a11983381", "current_trial": 210, "dateTime": 1664371156070, "trialdata": {"rt": 1020, "stimulus": "<p id='stroop-text' class='stroop-yellow'>MONKEY</p>", "response": "y", "stimulus-type": "unrelated", "word": "MONKEY", "color": "yellow", "correct_response": "y", "trial_id": "stroop-trial-1-unrelated-16", "trial_type": "html-keyboard-response", "trial_index": 210, "time_elapsed": 442423, "internal_node_id": "0.0-8.0-24.0"}}, {"uniqueid": "w65371345:a11983381", "current_trial": 211, "dateTime": 1664371159250, "trialdata": {"rt": 2672, "stimulus": "<p id='stroop-text' class='stroop-blue'>RED</p>", "response": "b", "stimulus-type": "incongruent", "word": "red", "color": "blue", "correct_response": "b", "trial_id": "stroop-trial-1-incongruent-11", "trial_type": "html-keyboard-response", "trial_index": 211, "time_elapsed": 445603, "internal_node_id": "0.0-8.0-25.0"}}, {"uniqueid": "w65371345:a11983381", "current_trial": 212, "dateTime": 1664371160372, "trialdata": {"rt": 616, "stimulus": "<p id='stroop-text' class='stroop-yellow'>YELLOW</p>", "response": "y", "stimulus-type": "congruent", "word": "yellow", "color": "yellow", "correct_response": "y", "trial_id": "stroop-trial-1-congruent-13", "trial_type": "html-keyboard-response", "trial_index": 212, "time_elapsed": 446724, "internal_node_id": "0.0-8.0-26.0"}}, {"uniqueid": "w65371345:a11983381", "current_trial": 213, "dateTime": 1664371161376, "trialdata": {"rt": 498, "stimulus": "<p id='stroop-text' class='stroop-yellow'>BRIDGE</p>", "response": "y", "stimulus-type": "unrelated", "word": "BRIDGE", "color": "yellow", "correct_response": "y", "trial_id": "stroop-trial-1-unrelated-8", "trial_type": "html-keyboard-response", "trial_index": 213, "time_elapsed": 447728, "internal_node_id": "0.0-8.0-27.0"}}, {"uniqueid": "w65371345:a11983381", "current_trial": 214, "dateTime": 1664371162427, "trialdata": {"rt": 543, "stimulus": "<p id='stroop-text' class='stroop-red'>BRIDGE</p>", "response": "r", "stimulus-type": "unrelated", "word": "BRIDGE", "color": "red", "correct_response": "r", "trial_id": "stroop-trial-1-unrelated-28", "trial_type": "html-keyboard-response", "trial_index": 214, "time_elapsed": 448780, "internal_node_id": "0.0-8.0-28.0"}}, {"uniqueid": "w65371345:a11983381", "current_trial": 215, "dateTime": 1664371163546, "trialdata": {"rt": 613, "stimulus": "<p id='stroop-text' class='stroop-green'>GREEN</p>", "response": "g", "stimulus-type": "congruent", "word": "green", "color": "green", "correct_response": "g", "trial_id": "stroop-trial-1-congruent-27", "trial_type": "html-keyboard-response", "trial_index": 215, "time_elapsed": 449898, "internal_node_id": "0.0-8.0-29.0"}}, {"uniqueid": "w65371345:a11983381", "current_trial": 216, "dateTime": 1664371164512, "trialdata": {"rt": 463, "stimulus": "<p id='stroop-text' class='stroop-red'>RED</p>", "response": "r", "stimulus-type": "congruent", "word": "red", "color": "red", "correct_response": "r", "trial_id": "stroop-trial-1-congruent-29", "trial_type": "html-keyboard-response", "trial_index": 216, "time_elapsed": 450865, "internal_node_id": "0.0-8.0-30.0"}}, {"uniqueid": "w65371345:a11983381", "current_trial": 217, "dateTime": 1664371165630, "trialdata": {"rt": 597, "stimulus": "<p id='stroop-text' class='stroop-green'>GREEN</p>", "response": "g", "stimulus-type": "congruent", "word": "green", "color": "green", "correct_response": "g", "trial_id": "stroop-trial-1-congruent-30", "trial_type": "html-keyboard-response", "trial_index": 217, "time_elapsed": 451983, "internal_node_id": "0.0-8.0-31.0"}}, {"uniqueid": "w65371345:a11983381", "current_trial": 218, "dateTime": 1664371166860, "trialdata": {"rt": 724, "stimulus": "<p id='stroop-text' class='stroop-yellow'>WINDOW</p>", "response": "y", "stimulus-type": "unrelated", "word": "WINDOW", "color": "yellow", "correct_response": "y", "trial_id": "stroop-trial-1-unrelated-14", "trial_type": "html-keyboard-response", "trial_index": 218, "time_elapsed": 453213, "internal_node_id": "0.0-8.0-32.0"}}, {"uniqueid": "w65371345:a11983381", "current_trial": 219, "dateTime": 1664371168185, "trialdata": {"rt": 817, "stimulus": "<p id='stroop-text' class='stroop-blue'>BRIDGE</p>", "response": "b", "stimulus-type": "unrelated", "word": "BRIDGE", "color": "blue", "correct_response": "b", "trial_id": "stroop-trial-1-unrelated-10", "trial_type": "html-keyboard-response", "trial_index": 219, "time_elapsed": 454537, "internal_node_id": "0.0-8.0-33.0"}}, {"uniqueid": "w65371345:a11983381", "current_trial": 220, "dateTime": 1664371169319, "trialdata": {"rt": 627, "stimulus": "<p id='stroop-text' class='stroop-green'>GREEN</p>", "response": "g", "stimulus-type": "congruent", "word": "green", "color": "green", "correct_response": "g", "trial_id": "stroop-trial-1-congruent-16", "trial_type": "html-keyboard-response", "trial_index": 220, "time_elapsed": 455671, "internal_node_id": "0.0-8.0-34.0"}}, {"uniqueid": "w65371345:a11983381", "current_trial": 221, "dateTime": 1664371170946, "trialdata": {"rt": 1121, "stimulus": "<p id='stroop-text' class='stroop-red'>YELLOW</p>", "response": "r", "stimulus-type": "incongruent", "word": "yellow", "color": "red", "correct_response": "r", "trial_id": "stroop-trial-1-incongruent-25", "trial_type": "html-keyboard-response", "trial_index": 221, "time_elapsed": 457299, "internal_node_id": "0.0-8.0-35.0"}}, {"uniqueid": "w65371345:a11983381", "current_trial": 222, "dateTime": 1664371172538, "trialdata": {"rt": 1085, "stimulus": "<p id='stroop-text' class='stroop-green'>BOAT</p>", "response": "g", "stimulus-type": "unrelated", "word": "BOAT", "color": "green", "correct_response": "g", "trial_id": "stroop-trial-1-unrelated-24", "trial_type": "html-keyboard-response", "trial_index": 222, "time_elapsed": 458890, "internal_