{"condition": 0, "counterbalance": 0, "assignmentId": "a27378966", "workerId": "w39558626", "hitId": "h98242751", "currenttrial": 959, "bonus": 0, "data": [{"uniqueid": "w39558626:a27378966", "current_trial": 0, "dateTime": 1664554925601, "trialdata": {"success": true, "trial_type": "fullscreen", "trial_index": 0, "time_elapsed": 4879, "internal_node_id": "0.0-0.0"}}, {"uniqueid": "w39558626:a27378966", "current_trial": 1, "dateTime": 1664554946021, "trialdata": {"view_history": [{"page_index": 0, "viewing_time": 20411}], "rt": 20411, "trial_id": "exp_instructions_distractor", "trial_type": "instructions", "trial_index": 1, "time_elapsed": 25299, "internal_node_id": "0.0-1.0"}}, {"uniqueid": "w39558626:a27378966", "current_trial": 2, "dateTime": 1664554967477, "trialdata": {"view_history": [{"page_index": 0, "viewing_time": 21454}], "rt": 21454, "trial_id": "color_game_instructions", "trial_type": "instructions", "trial_index": 2, "time_elapsed": 46755, "internal_node_id": "0.0-2.0"}}, {"uniqueid": "w39558626:a27378966", "current_trial": 3, "dateTime": 1664554975320, "trialdata": {"rt": 7839, "stimulus": "<h1> Get ready to start the game! </h1>\n\nThank you for reading the instructions. Get ready start with the first of 5 block(s) of this game.\n<br><br>\nIn this first block, you will complete 90 rounds of this game before moving on.\n<br><br>\nRemember, the better you perform, the bigger your bonus will be!\n<br><br>\n<div style='text-align: center;'>Press <code>space</code> to begin.</div>", "response": " ", "trial_id": "stroop_1_ready_1", "trial_type": "html-keyboard-response", "trial_index": 3, "time_elapsed": 54598, "internal_node_id": "0.0-3.0"}}, {"uniqueid": "w39558626:a27378966", "current_trial": 4, "dateTime": 1664554976804, "trialdata": {"rt": 1477, "stimulus": "<p id='stroop-text' class='stroop-red'>YELLOW</p>", "response": "r", "stimulus-type": "incongruent", "word": "yellow", "color": "red", "correct_response": "r", "trial_id": "stroop-trial-1-incongruent-6", "trial_type": "html-keyboard-response", "trial_index": 4, "time_elapsed": 56082, "internal_node_id": "0.0-4.0-0.0"}}, {"uniqueid": "w39558626:a27378966", "current_trial": 5, "dateTime": 1664554978262, "trialdata": {"rt": 943, "stimulus": "<p id='stroop-text' class='stroop-red'>BLUE</p>", "response": "r", "stimulus-type": "incongruent", "word": "blue", "color": "red", "correct_response": "r", "trial_id": "stroop-trial-1-incongruent-3", "trial_type": "html-keyboard-response", "trial_index": 5, "time_elapsed": 57538, "internal_node_id": "0.0-4.0-1.0"}}, {"uniqueid": "w39558626:a27378966", "current_trial": 6, "dateTime": 1664554979653, "trialdata": {"rt": 887, "stimulus": "<p id='stroop-text' class='stroop-blue'>BOTTLE</p>", "response": "b", "stimulus-type": "unrelated", "word": "BOTTLE", "color": "blue", "correct_response": "b", "trial_id": "stroop-trial-1-unrelated-23", "trial_type": "html-keyboard-response", "trial_index": 6, "time_elapsed": 58930, "internal_node_id": "0.0-4.0-2.0"}}, {"uniqueid": "w39558626:a27378966", "current_trial": 7, "dateTime": 1664554981342, "trialdata": {"rt": 1181, "stimulus": "<p id='stroop-text' class='stroop-green'>YELLOW</p>", "response": "g", "stimulus-type": "incongruent", "word": "yellow", "color": "green", "correct_response": "g", "trial_id": "stroop-trial-1-incongruent-11", "trial_type": "html-keyboard-response", "trial_index": 7, "time_elapsed": 60619, "internal_node_id": "0.0-4.0-3.0"}}, {"uniqueid": "w39558626:a27378966", "current_trial": 8, "dateTime": 1664554982533, "trialdata": {"rt": 680, "stimulus": "<p id='stroop-text' class='stroop-green'>BOAT</p>", "response": "g", "stimulus-type": "unrelated", "word": "BOAT", "color": "green", "correct_response": "g", "trial_id": "stroop-trial-1-unrelated-2", "trial_type": "html-keyboard-response", "trial_index": 8, "time_elapsed": 61810, "internal_node_id": "0.0-4.0-4.0"}}, {"uniqueid": "w39558626:a27378966", "current_trial": 9, "dateTime": 1664554983813, "trialdata": {"rt": 776, "stimulus": "<p id='stroop-text' class='stroop-blue'>BOAT</p>", "response": "b", "stimulus-type": "unrelated", "word": "BOAT", "color": "blue", "correct_response": "b", "trial_id": "stroop-trial-1-unrelated-27", "trial_type": "html-keyboard-response", "trial_index": 9, "time_elapsed": 63090, "internal_node_id": "0.0-4.0-5.0"}}, {"uniqueid": "w39558626:a27378966", "current_trial": 10, "dateTime": 1664554984957, "trialdata": {"rt": 637, "stimulus": "<p id='stroop-text' class='stroop-blue'>GREEN</p>", "response": "b", "stimulus-type": "incongruent", "word": "green", "color": "blue", "correct_response": "b", "trial_id": "stroop-trial-1-incongruent-4", "trial_type": "html-keyboard-response", "trial_index": 10, "time_elapsed": 64234, "internal_node_id": "0.0-4.0-6.0"}}, {"uniqueid": "w39558626:a27378966", "current_trial": 11, "dateTime": 1664554986126, "trialdata": {"rt": 663, "stimulus": "<p id='stroop-text' class='stroop-yellow'>YELLOW</p>", "response": "y", "stimulus-type": "congruent", "word": "yellow", "color": "yellow", "correct_response": "y", "trial_id": "stroop-trial-1-congruent-4", "trial_type": "html-keyboard-response", "trial_index": 11, "time_elapsed": 65403, "internal_node_id": "0.0-4.0-7.0"}}, {"uniqueid": "w39558626:a27378966", "current_trial": 12, "dateTime": 1664554987525, "trialdata": {"rt": 892, "stimulus": "<p id='stroop-text' class='stroop-red'>YELLOW</p>", "response": "r", "stimulus-type": "incongruent", "word": "yellow", "color": "red", "correct_response": "r", "trial_id": "stroop-trial-1-incongruent-7", "trial_type": "html-keyboard-response", "trial_index": 12, "time_elapsed": 66802, "internal_node_id": "0.0-4.0-8.0"}}, {"uniqueid": "w39558626:a27378966", "current_trial": 13, "dateTime": 1664554989173, "trialdata": {"rt": 1133, "stimulus": "<p id='stroop-text' class='stroop-yellow'>STONE</p>", "response": "y", "stimulus-type": "unrelated", "word": "STONE", "color": "yellow", "correct_response": "y", "trial_id": "stroop-trial-1-unrelated-12", "trial_type": "html-keyboard-response", "trial_index": 13, "time_elapsed": 68450, "internal_node_id": "0.0-4.0-9.0"}}, {"uniqueid": "w39558626:a27378966", "current_trial": 14, "dateTime": 1664554990584, "trialdata": {"rt": 890, "stimulus": "<p id='stroop-text' class='stroop-red'>GREEN</p>", "response": "r", "stimulus-type": "incongruent", "word": "green", "color": "red", "correct_response": "r", "trial_id": "stroop-trial-1-incongruent-25", "trial_type": "html-keyboard-response", "trial_index": 14, "time_elapsed": 69860, "internal_node_id": "0.0-4.0-10.0"}}, {"uniqueid": "w39558626:a27378966", "current_trial": 15, "dateTime": 1664554991998, "trialdata": {"rt": 902, "stimulus": "<p id='stroop-text' class='stroop-green'>DOG</p>", "response": "g", "stimulus-type": "unrelated", "word": "DOG", "color": "green", "correct_response": "g", "trial_id": "stroop-trial-1-unrelated-24", "trial_type": "html-keyboard-response", "trial_index": 15, "time_elapsed": 71275, "internal_node_id": "0.0-4.0-11.0"}}, {"uniqueid": "w39558626:a27378966", "current_trial": 16, "dateTime": 1664554993235, "trialdata": {"rt": 725, "stimulus": "<p id='stroop-text' class='stroop-yellow'>RED</p>", "response": "y", "stimulus-type": "incongruent", "word": "red", "color": "yellow", "correct_response": "y", "trial_id": "stroop-trial-1-incongruent-14", "trial_type": "html-keyboard-response", "trial_index": 16, "time_elapsed": 72513, "internal_node_id": "0.0-4.0-12.0"}}, {"uniqueid": "w39558626:a27378966", "current_trial": 17, "dateTime": 1664554994301, "trialdata": {"rt": 552, "stimulus": "<p id='stroop-text' class='stroop-blue'>RED</p>", "response": "b", "stimulus-type": "incongruent", "word": "red", "color": "blue", "correct_response": "b", "trial_id": "stroop-trial-1-incongruent-20", "trial_type": "html-keyboard-response", "trial_index": 17, "time_elapsed": 73578, "internal_node_id": "0.0-4.0-13.0"}}, {"uniqueid": "w39558626:a27378966", "current_trial": 18, "dateTime": 1664554995311, "trialdata": {"rt": 492, "stimulus": "<p id='stroop-text' class='stroop-blue'>BLUE</p>", "response": "b", "stimulus-type": "congruent", "word": "blue", "color": "blue", "correct_response": "b", "trial_id": "stroop-trial-1-congruent-25", "trial_type": "html-keyboard-response", "trial_index": 18, "time_elapsed": 74587, "internal_node_id": "0.0-4.0-14.0"}}, {"uniqueid": "w39558626:a27378966", "current_trial": 19, "dateTime": 1664554996326, "trialdata": {"rt": 490, "stimulus": "<p id='stroop-text' class='stroop-blue'>GREEN</p>", "response": "b", "stimulus-type": "incongruent", "word": "green", "color": "blue", "correct_response": "b", "trial_id": "stroop-trial-1-incongruent-27", "trial_type": "html-keyboard-response", "trial_index": 19, "time_elapsed": 75603, "internal_node_id": "0.0-4.0-15.0"}}, {"uniqueid": "w39558626:a27378966", "current_trial": 20, "dateTime": 1664554997269, "trialdata": {"rt": 428, "stimulus": "<p id='stroop-text' class='stroop-blue'>RED</p>", "response": "b", "stimulus-type": "incongruent", "word": "red", "color": "blue", "correct_response": "b", "trial_id": "stroop-trial-1-incongruent-8", "trial_type": "html-keyboard-response", "trial_index": 20, "time_elapsed": 76546, "internal_node_id": "0.0-4.0-16.0"}}, {"uniqueid": "w39558626:a27378966", "current_trial": 21, "dateTime": 1664554998387, "trialdata": {"rt": 605, "stimulus": "<p id='stroop-text' class='stroop-yellow'>FORK</p>", "response": "y", "stimulus-type": "unrelated", "word": "FORK", "color": "yellow", "correct_response": "y", "trial_id": "stroop-trial-1-unrelated-19", "trial_type": "html-keyboard-response", "trial_index": 21, "time_elapsed": 77664, "internal_node_id": "0.0-4.0-17.0"}}, {"uniqueid": "w39558626:a27378966", "current_trial": 22, "dateTime": 1664554999331, "trialdata": {"rt": 438, "stimulus": "<p id='stroop-text' class='stroop-yellow'>BOAT</p>", "response": "y", "stimulus-type": "unrelated", "word": "BOAT", "color": "yellow", "correct_response": "y", "trial_id": "stroop-trial-1-unrelated-10", "trial_type": "html-keyboard-response", "trial_index": 22, "time_elapsed": 78608, "internal_node_id": "0.0-4.0-18.0"}}, {"uniqueid": "w39558626:a27378966", "current_trial": 23, "dateTime": 1664555000349, "trialdata": {"rt": 508, "stimulus": "<p id='stroop-text' class='stroop-green'>GREEN</p>", "response": "g", "stimulus-type": "congruent", "word": "green", "color": "green", "correct_response": "g", "trial_id": "stroop-trial-1-congruent-23", "trial_type": "html-keyboard-response", "trial_index": 23, "time_elapsed": 79626, "internal_node_id": "0.0-4.0-19.0"}}, {"uniqueid": "w39558626:a27378966", "current_trial": 24, "dateTime": 1664555001388, "trialdata": {"rt": 526, "stimulus": "<p id='stroop-text' class='stroop-blue'>CHAIR</p>", "response": "b", "stimulus-type": "unrelated", "word": "CHAIR", "color": "blue", "correct_response": "b", "trial_id": "stroop-trial-1-unrelated-8", "trial_type": "html-keyboard-response", "trial_index": 24, "time_elapsed": 80665, "internal_node_id": "0.0-4.0-20.0"}}, {"uniqueid": "w39558626:a27378966", "current_trial": 25, "dateTime": 1664555003677, "trialdata": {"rt": 1781, "stimulus": "<p id='stroop-text' class='stroop-yellow'>BLUE</p>", "response": "y", "stimulus-type": "incongruent", "word": "blue", "color": "yellow", "correct_response": "y", "trial_id": "stroop-trial-1-incongruent-23", "trial_type": "html-keyboard-response", "trial_index": 25, "time_elapsed": 82954, "internal_node_id": "0.0-4.0-21.0"}}, {"uniqueid": "w39558626:a27378966", "current_trial": 26, "dateTime": 1664555004925, "trialdata": {"rt": 733, "stimulus": "<p id='stroop-text' class='stroop-green'>WINDOW</p>", "response": "g", "stimulus-type": "unrelated", "word": "WINDOW", "color": "green", "correct_response": "g", "trial_id": "stroop-trial-1-unrelated-11", "trial_type": "html-keyboard-response", "trial_index": 26, "time_elapsed": 84202, "internal_node_id": "0.0-4.0-22.0"}}, {"uniqueid": "w39558626:a27378966", "current_trial": 27, "dateTime": 1664555007141, "trialdata": {"rt": 1698, "stimulus": "<p id='stroop-text' class='stroop-red'>BLUE</p>", "response": "r", "stimulus-type": "incongruent", "word": "blue", "color": "red", "correct_response": "r", "trial_id": "stroop-trial-1-incongruent-28", "trial_type": "html-keyboard-response", "trial_index": 27, "time_elapsed": 86419, "internal_node_id": "0.0-4.0-23.0"}}, {"uniqueid": "w39558626:a27378966", "current_trial": 28, "dateTime": 1664555008351, "trialdata": {"rt": 698, "stimulus": "<p id='stroop-text' class='stroop-blue'>BLUE</p>", "response": "b", "stimulus-type": "congruent", "word": "blue", "color": "blue", "correct_response": "b", "trial_id": "stroop-trial-1-congruent-20", "trial_type": "html-keyboard-response", "trial_index": 28, "time_elapsed": 87628, "internal_node_id": "0.0-4.0-24.0"}}, {"uniqueid": "w39558626:a27378966", "current_trial": 29, "dateTime": 1664555009437, "trialdata": {"rt": 579, "stimulus": "<p id='stroop-text' class='stroop-yellow'>WINDOW</p>", "response": "y", "stimulus-type": "unrelated", "word": "WINDOW", "color": "yellow", "correct_response": "y", "trial_id": "stroop-trial-1-unrelated-20", "trial_type": "html-keyboard-response", "trial_index": 29, "time_elapsed": 88714, "internal_node_id": "0.0-4.0-25.0"}}, {"uniqueid": "w39558626:a27378966", "current_trial": 30, "dateTime": 1664555010660, "trialdata": {"rt": 708, "stimulus": "<p id='stroop-text' class='stroop-red'>BRAIN</p>", "response": "r", "stimulus-type": "unrelated", "word": "BRAIN", "color": "red", "correct_response": "r", "trial_id": "stroop-trial-1-unrelated-21", "trial_type": "html-keyboard-response", "trial_index": 30, "time_elapsed": 89937, "internal_node_id": "0.0-4.0-26.0"}}, {"uniqueid": "w39558626:a27378966", "current_trial": 31, "dateTime": 1664555011869, "trialdata": {"rt": 698, "stimulus": "<p id='stroop-text' class='stroop-blue'>BLUE</p>", "response": "b", "stimulus-type": "congruent", "word": "blue", "color": "blue", "correct_response": "b", "trial_id": "stroop-trial-1-congruent-17", "trial_type": "html-keyboard-response", "trial_index": 31, "time_elapsed": 91146, "internal_node_id": "0.0-4.0-27.0"}}, {"uniqueid": "w39558626:a27378966", "current_trial": 32, "dateTime": 1664555013120, "trialdata": {"rt": 743, "stimulus": "<p id='stroop-text' class='stroop-red'>YELLOW</p>", "response": "r", "stimulus-type": "incongruent", "word": "yellow", "color": "red", "correct_response": "r", "trial_id": "stroop-trial-1-incongruent-24", "trial_type": "html-keyboard-response", "trial_index": 32, "time_elapsed": 92396, "internal_node_id": "0.0-4.0-28.0"}}, {"uniqueid": "w39558626:a27378966", "current_trial": 33, "dateTime": 1664555014213, "trialdata": {"rt": 586, "stimulus": "<p id='stroop-text' class='stroop-blue'>WINDOW</p>", "response": "b", "stimulus-type": "unrelated", "word": "WINDOW", "color": "blue", "correct_response": "b", "trial_id": "stroop-trial-1-unrelated-7", "trial_type": "html-keyboard-response", "trial_index": 33, "time_elapsed": 93491, "internal_node_id": "0.0-4.0-29.0"}}, {"uniqueid": "w39558626:a27378966", "current_trial": 34, "dateTime": 1664555015212, "trialdata": {"rt": 490, "stimulus": "<p id='stroop-text' class='stroop-blue'>RED</p>", "response": "b", "stimulus-type": "incongruent", "word": "red", "color": "blue", "correct_response": "b", "trial_id": "stroop-trial-1-incongruent-21", "trial_type": "html-keyboard-response", "trial_index": 34, "time_elapsed": 94490, "internal_node_id": "0.0-4.0-30.0"}}, {"uniqueid": "w39558626:a27378966", "current_trial": 35, "dateTime": 1664555016236, "trialdata": {"rt": 508, "stimulus": "<p id='stroop-text' class='stroop-yellow'>BOAT</p>", "response": "y", "stimulus-type": "unrelated", "word": "BOAT", "color": "yellow", "correct_response": "y", "trial_id": "stroop-trial-1-unrelated-5", "trial_type": "html-keyboard-response", "trial_index": 35, "time_elapsed": 95514, "internal_node_id": "0.0-4.0-31.0"}}, {"uniqueid": "w39558626:a27378966", "current_trial": 36, "dateTime": 1664555017654, "trialdata": {"rt": 905, "stimulus": "<p id='stroop-text' class='stroop-green'>GREEN</p>", "response": "g", "stimulus-type": "congruent", "word": "green", "color": "green", "correct_response": "g", "trial_id": "stroop-trial-1-congruent-11", "trial_type": "html-keyboard-response", "trial_index": 36, "time_elapsed": 96930, "internal_node_id": "0.0-4.0-32.0"}}, {"uniqueid": "w39558626:a27378966", "current_trial": 37, "dateTime": 1664555018694, "trialdata": {"rt": 521, "stimulus": "<p id='stroop-text' class='stroop-green'>GREEN</p>", "response": "g", "stimulus-type": "congruent", "word": "green", "color": "green", "correct_response": "g", "trial_id": "stroop-trial-1-congruent-7", "trial_type": "html-keyboard-response", "trial_index": 37, "time_elapsed": 97970, "internal_node_id": "0.0-4.0-33.0"}}, {"uniqueid": "w39558626:a27378966", "current_trial": 38, "dateTime": 1664555019829, "trialdata": {"rt": 626, "stimulus": "<p id='stroop-text' class='stroop-red'>YELLOW</p>", "response": "y", "stimulus-type": "incongruent", "word": "yellow", "color": "red", "correct_response": "r", "trial_id": "stroop-trial-1-incongruent-19", "trial_type": "html-keyboard-response", "trial_index": 38, "time_elapsed": 99106, "internal_node_id": "0.0-4.0-34.0"}}, {"uniqueid": "w39558626:a27378966", "current_trial": 39, "dateTime": 1664555021084, "trialdata": {"rt": 744, "stimulus": "<p id='stroop-text' class='stroop-yellow'>CHAIR</p>", "response": "y", "stimulus-type": "unrelated", "word": "CHAIR", "color": "yellow", "correct_response": "y", "trial_id": "stroop-trial-1-unrelated-17", "trial_type": "html-keyboard-response", "trial_index": 39, "time_elapsed": 100362, "internal_node_id": "0.0-4.0-35.0"}}, {"uniqueid": "w39558626:a27378966", "current_trial": 40, "dateTime": 1664555022157, "trialdata": {"rt": 553, "stimulus": "<p id='stroop-text' class='stroop-yellow'>YELLOW</p>", "response": "y", "stimulus-type": "congruent", "word": "yellow", "color": "yellow", "correct_response": "y", "trial_id": "stroop-trial-1-congruent-22", "trial_type": "html-keyboard-response", "trial_index": 40, "time_elapsed": 101435, "internal_node_id": "0.0-4.0-36.0"}}, {"uniqueid": "w39558626:a27378966", "current_trial": 41, "dateTime": 1664555023140, "trialdata": {"rt": 475, "stimulus": "<p id='stroop-text' class='stroop-yellow'>RED</p>", "response": "y", "stimulus-type": "incongruent", "word": "red", "color": "yellow", "correct_response": "y", "trial_id": "stroop-trial-1-incongruent-1", "trial_type": "html-keyboard-response", "trial_index": 41, "time_elapsed": 102418, "internal_node_id": "0.0-4.0-37.0"}}, {"uniqueid": "w39558626:a27378966", "current_trial": 42, "dateTime": 1664555024213, "trialdata": {"rt": 561, "stimulus": "<p id='stroop-text' class='stroop-red'>GREEN</p>", "response": "g", "stimulus-type": "incongruent", "word": "green", "color": "red", "correct_response": "r", "trial_id": "stroop-trial-1-incongruent-22", "trial_type": "html-keyboard-response", "trial_index": 42, "time_elapsed": 103490, "internal_node_id": "0.0-4.0-38.0"}}, {"uniqueid": "w39558626:a27378966", "current_trial": 43, "dateTime": 1664555025325, "trialdata": {"rt": 593, "stimulus": "<p id='stroop-text' class='stroop-yellow'>CHAIR</p>", "response": "y", "stimulus-type": "unrelated", "word": "CHAIR", "color": "yellow", "correct_response": "y", "trial_id": "stroop-trial-1-unrelated-22", "trial_type": "html-keyboard-response", "trial_index": 43, "time_elapsed": 104602, "internal_node_id": "0.0-4.0-39.0"}}, {"uniqueid": "w39558626:a27378966", "current_trial": 44, "dateTime": 1664555026764, "trialdata": {"rt": 921, "stimulus": "<p id='stroop-text' class='stroop-yellow'>YELLOW</p>", "response": "y", "stimulus-type": "congruent", "word": "yellow", "color": "yellow", "correct_response": "y", "trial_id": "stroop-trial-1-congruent-30", "trial_type": "html-keyboard-response", "trial_index": 44, "time_elapsed": 106042, "internal_node_id": "0.0-4.0-40.0"}}, {"uniqueid": "w39558626:a27378966", "current_trial": 45, "dateTime": 1664555027853, "trialdata": {"rt": 571, "stimulus": "<p id='stroop-text' class='stroop-yellow'>WINDOW</p>", "response": "y", "stimulus-type": "unrelated", "word": "WINDOW", "color": "yellow", "correct_response": "y", "trial_id": "stroop-trial-1-unrelated-4", "trial_type": "html-keyboard-response", "trial_index": 45, "time_elapsed": 107131, "internal_node_id": "0.0-4.0-41.0"}}, {"uniqueid": "w39558626:a27378966", "current_trial": 46, "dateTime": 1664555028893, "trialdata": {"rt": 528, "stimulus": "<p id='stroop-text' class='stroop-blue'>BOTTLE</p>", "response": "b", "stimulus-type": "unrelated", "word": "BOTTLE", "color": "blue", "correct_response": "b", "trial_id": "stroop-trial-1-unrelated-25", "trial_type": "html-keyboard-response", "trial_index": 46, "time_elapsed": 108170, "internal_node_id": "0.0-4.0-42.0"}}, {"uniqueid": "w39558626:a27378966", "current_trial": 47, "dateTime": 1664555029981, "trialdata": {"rt": 581, "stimulus": "<p id='stroop-text' class='stroop-green'>GREEN</p>", "response": "g", "stimulus-type": "congruent", "word": "green", "color": "green", "correct_response": "g", "trial_id": "stroop-trial-1-congruent-9", "trial_type": "html-keyboard-response", "trial_index": 47, "time_elapsed": 109258, "internal_node_id": "0.0-4.0-43.0"}}, {"uniqueid": "w39558626:a27378966", "current_trial": 48, "dateTime": 1664555031093, "trialdata": {"rt": 597, "stimulus": "<p id='stroop-text' class='stroop-red'>BOAT</p>", "response": "r", "stimulus-type": "unrelated", "word": "BOAT", "color": "red", "correct_response": "r", "trial_id": "stroop-trial-1-unrelated-15", "trial_type": "html-keyboard-response", "trial_index": 48, "time_elapsed": 110370, "internal_node_id": "0.0-4.0-44.0"}}, {"uniqueid": "w39558626:a27378966", "current_trial": 49, "dateTime": 1664555032230, "trialdata": {"rt": 625, "stimulus": "<p id='stroop-text' class='stroop-green'>GREEN</p>", "response": "g", "stimulus-type": "congruent", "word": "green", "color": "green", "correct_response": "g", "trial_id": "stroop-trial-1-congruent-16", "trial_type": "html-keyboard-response", "trial_index": 49, "time_elapsed": 111507, "internal_node_id": "0.0-4.0-45.0"}}, {"uniqueid": "w39558626:a27378966", "current_trial": 50, "dateTime": 1664555033333, "trialdata": {"rt": 591, "stimulus": "<p id='stroop-text' class='stroop-green'>YELLOW</p>", "response": "y", "stimulus-type": "incongruent", "word": "yellow", "color": "green", "correct_response": "g", "trial_id": "stroop-trial-1-incongruent-29", "trial_type": "html-keyboard-response", "trial_index": 50, "time_elapsed": 112610, "internal_node_id": "0.0-4.0-46.0"}}, {"uniqueid": "w39558626:a27378966", "current_trial": 51, "dateTime": 1664555035269, "trialdata": {"rt": 1417, "stimulus": "<p id='stroop-text' class='stroop-blue'>GREEN</p>", "response": "g", "stimulus-type": "incongruent", "word": "green", "color": "blue", "correct_response": "b", "trial_id": "stroop-trial-1-incongruent-26", "trial_type": "html-keyboard-response", "trial_index": 51, "time_elapsed": 114546, "internal_node_id": "0.0-4.0-47.0"}}, {"uniqueid": "w39558626:a27378966", "current_trial": 52, "dateTime": 1664555036965, "trialdata": {"rt": 1182, "stimulus": "<p id='stroop-text' class='stroop-yellow'>WINDOW</p>", "response": "y", "stimulus-type": "unrelated", "word": "WINDOW", "color": "yellow", "correct_response": "y", "trial_id": "stroop-trial-1-unrelated-30", "trial_type": "html-keyboard-response", "trial_index": 52, "time_elapsed": 116242, "internal_node_id": "0.0-4.0-48.0"}}, {"uniqueid": "w39558626:a27378966", "current_trial": 53, "dateTime": 1664555038197, "trialdata": {"rt": 717, "stimulus": "<p id='stroop-text' class='stroop-blue'>BRAIN</p>", "response": "b", "stimulus-type": "unrelated", "word": "BRAIN", "color": "blue", "correct_response": "b", "trial_id": "stroop-trial-1-unrelated-16", "trial_type": "html-keyboard-response", "trial_index": 53, "time_elapsed": 117474, "internal_node_id": "0.0-4.0-49.0"}}, {"uniqueid": "w39558626:a27378966", "current_trial": 54, "dateTime": 1664555039501, "trialdata": {"rt": 787, "stimulus": "<p id='stroop-text' class='stroop-red'>FORK</p>", "response": "r", "stimulus-type": "unrelated", "word": "FORK", "color": "red", "correct_response": "r", "trial_id": "stroop-trial-1-unrelated-18", "trial_type": "html-keyboard-response", "trial_index": 54, "time_elapsed": 118778, "internal_node_id": "0.0-4.0-50.0"}}, {"uniqueid": "w39558626:a27378966", "current_trial": 55, "dateTime": 1664555040813, "trialdata": {"rt": 803, "stimulus": "<p id='stroop-text' class='stroop-yellow'>YELLOW</p>", "response": "y", "stimulus-type": "congruent", "word": "yellow", "color": "yellow", "correct_response": "y", "trial_id": "stroop-trial-1-congruent-2", "trial_type": "html-keyboard-response", "trial_index": 55, "time_elapsed": 120090, "internal_node_id": "0.0-4.0-51.0"}}, {"uniqueid": "w39558626:a27378966", "current_trial": 56, "dateTime": 1664555042013, "trialdata": {"rt": 692, "stimulus": "<p id='stroop-text' class='stroop-red'>DOG</p>", "response": "r", "stimulus-type": "unrelated", "word": "DOG", "color": "red", "correct_response": "r", "trial_id": "stroop-trial-1-unrelated-1", "trial_type": "html-keyboard-response", "trial_index": 56, "time_elapsed": 121290, "internal_node_id": "0.0-4.0-52.0"}}, {"uniqueid": "w39558626:a27378966", "current_trial": 57, "dateTime": 1664555045245, "trialdata": {"rt": 2721, "stimulus": "<p id='stroop-text' class='stroop-yellow'>BLUE</p>", "response": "y", "stimulus-type": "incongruent", "word": "blue", "color": "yellow", "correct_response": "y", "trial_id": "stroop-trial-1-incongruent-10", "trial_type": "html-keyboard-response", "trial_index": 57, "time_elapsed": 124522, "internal_node_id": "0.0-4.0-53.0"}}, {"uniqueid": "w39558626:a27378966", "current_trial": 58, "dateTime": 1664555046509, "trialdata": {"rt": 743, "stimulus": "<p id='stroop-text' class='stroop-green'>FORK</p>", "response": "g", "stimulus-type": "unrelated", "word": "FORK", "color": "green", "correct_response": "g", "trial_id": "stroop-trial-1-unrelated-6", "trial_type": "html-keyboard-response", "trial_index": 58, "time_elapsed": 125786, "internal_node_id": "0.0-4.0-54.0"}}, {"uniqueid": "w39558626:a27378966", "current_trial": 59, "dateTime": 1664555047933, "trialdata": {"rt": 914, "stimulus": "<p id='stroop-text' class='stroop-green'>BOTTLE</p>", "response": "g", "stimulus-type": "unrelated", "word": "BOTTLE", "color": "green", "correct_response": "g", "trial_id": "stroop-trial-1-unrelated-14", "trial_type": "html-keyboard-response", "trial_index": 59, "time_elapsed": 127210, "internal_node_id": "0.0-4.0-55.0"}}, {"uniqueid": "w39558626:a27378966", "current_trial": 60, "dateTime": 1664555048975, "trialdata": {"rt": 528, "stimulus": "<p id='stroop-text' class='stroop-red'>BLUE</p>", "response": "r", "stimulus-type": "incongruent", "word": "blue", "color": "red", "correct_response": "r", "trial_id": "stroop-trial-1-incongruent-15", "trial_type": "html-keyboard-response", "trial_index": 60, "time_elapsed": 128253, "internal_node_id": "0.0-4.0-56.0"}}, {"uniqueid": "w39558626:a27378966", "current_trial": 61, "dateTime": 1664555049973, "trialdata": {"rt": 478, "stimulus": "<p id='stroop-text' class='stroop-yellow'>YELLOW</p>", "response": "y", "stimulus-type": "congruent", "word": "yellow", "color": "yellow", "correct_response": "y", "trial_id": "stroop-trial-1-congruent-13", "trial_type": "html-keyboard-response", "trial_index": 61, "time_elapsed": 129250, "internal_node_id": "0.0-4.0-57.0"}}, {"uniqueid": "w39558626:a27378966", "current_trial": 62, "dateTime": 1664555051029, "trialdata": {"rt": 546, "stimulus": "<p id='stroop-text' class='stroop-red'>RED</p>", "response": "r", "stimulus-type": "congruent", "word": "red", "color": "red", "correct_response": "r", "trial_id": "stroop-trial-1-congruent-27", "trial_type": "html-keyboard-response", "trial_index": 62, "time_elapsed": 130306, "internal_node_id": "0.0-4.0-58.0"}}, {"uniqueid": "w39558626:a27378966", "current_trial": 63, "dateTime": 1664555051989, "trialdata": {"rt": 440, "stimulus": "<p id='stroop-text' class='stroop-red'>RED</p>", "response": "r", "stimulus-type": "congruent", "word": "red", "color": "red", "correct_response": "r", "trial_id": "stroop-trial-1-congruent-8", "trial_type": "html-keyboard-response", "trial_index": 63, "time_elapsed": 131267, "internal_node_id": "0.0-4.0-59.0"}}, {"uniqueid": "w39558626:a27378966", "current_trial": 64, "dateTime": 1664555053078, "trialdata": {"rt": 573, "stimulus": "<p id='stroop-text' class='stroop-red'>BOAT</p>", "response": "r", "stimulus-type": "unrelated", "word": "BOAT", "color": "red", "correct_response": "r", "trial_id": "stroop-trial-1-unrelated-13", "trial_type": "html-keyboard-response", "trial_index": 64, "time_elapsed": 132354, "internal_node_id": "0.0-4.0-60.0"}}, {"uniqueid": "w39558626:a27378966", "current_trial": 65, "dateTime": 1664555054125, "trialdata": {"rt": 539, "stimulus": "<p id='stroop-text' class='stroop-yellow'>YELLOW</p>", "response": "y", "stimulus-type": "congruent", "word": "yellow", "color": "yellow", "correct_response": "y", "trial_id": "stroop-trial-1-congruent-29", "trial_type": "html-keyboard-response", "trial_index": 65, "time_elapsed": 133402, "internal_node_id": "0.0-4.0-61.0"}}, {"uniqueid": "w39558626:a27378966", "current_trial": 66, "dateTime": 1664555055200, "trialdata": {"rt": 562, "stimulus": "<p id='stroop-text' class='stroop-green'>GREEN</p>", "response": "g", "stimulus-type": "congruent", "word": "green", "color": "green", "correct_response": "g", "trial_id": "stroop-trial-1-congruent-10", "trial_type": "html-keyboard-response", "trial_index": 66, "time_elapsed": 134476, "internal_node_id": "0.0-4.0-62.0"}}, {"uniqueid": "w39558626:a27378966", "current_trial": 67, "dateTime": 1664555056246, "trialdata": {"rt": 526, "stimulus": "<p id='stroop-text' class='stroop-red'>RED</p>", "response": "r", "stimulus-type": "congruent", "word": "red", "color": "red", "correct_response": "r", "trial_id": "stroop-trial-1-congruent-14", "trial_type": "html-keyboard-response", "trial_index": 67, "time_elapsed": 135523, "internal_node_id": "0.0-4.0-63.0"}}, {"uniqueid": "w39558626:a27378966", "current_trial": 68, "dateTime": 1664555057646, "trialdata": {"rt": 880, "stimulus": "<p id='stroop-text' class='stroop-green'>BLUE</p>", "response": "g", "stimulus-type": "incongruent", "word": "blue", "color": "green", "correct_response": "g", "trial_id": "stroop-trial-1-incongruent-2", "trial_type": "html-keyboard-response", "trial_index": 68, "time_elapsed": 136923, "internal_node_id": "0.0-4.0-64.0"}}, {"uniqueid": "w39558626:a27378966", "current_trial": 69, "dateTime": 1664555058686, "trialdata": {"rt": 532, "stimulus": "<p id='stroop-text' class='stroop-blue'>GREEN</p>", "response": "b", "stimulus-type": "incongruent", "word": "green", "color": "blue", "correct_response": "b", "trial_id": "stroop-trial-1-incongruent-16", "trial_type": "html-keyboard-response", "trial_index": 69, "time_elapsed": 137963, "internal_node_id": "0.0-4.0-65.0"}}, {"uniqueid": "w39558626:a27378966", "current_trial": 70, "dateTime": 1664555059830, "trialdata": {"rt": 624, "stimulus": "<p id='stroop-text' class='stroop-yellow'>YELLOW</p>", "response": "y", "stimulus-type": "congruent", "word": "yellow", "color": "yellow", "correct_response": "y", "trial_id": "stroop-trial-1-congruent-18", "trial_type": "html-keyboard-response", "trial_index": 70, "time_elapsed": 139106, "internal_node_id": "0.0-4.0-66.0"}}, {"uniqueid": "w39558626:a27378966", "current_trial": 71, "dateTime": 1664555060879, "trialdata": {"rt": 529, "stimulus": "<p id='stroop-text' class='stroop-yellow'>RED</p>", "response": "y", "stimulus-type": "incongruent", "word": "red", "color": "yellow", "correct_response": "y", "trial_id": "stroop-trial-1-incongruent-5", "trial_type": "html-keyboard-response", "trial_index": 71, "time_elapsed": 140154, "internal_node_id": "0.0-4.0-67.0"}}, {"uniqueid": "w39558626:a27378966", "current_trial": 72, "dateTime": 1664555061910, "trialdata": {"rt": 511, "stimulus": "<p id='stroop-text' class='stroop-blue'>BLUE</p>", "response": "b", "stimulus-type": "congruent", "word": "blue", "color": "blue", "correct_response": "b", "trial_id": "stroop-trial-1-congruent-5", "trial_type": "html-keyboard-response", "trial_index": 72, "time_elapsed": 141187, "internal_node_id": "0.0-4.0-68.0"}}, {"uniqueid": "w39558626:a27378966", "current_trial": 73, "dateTime": 1664555063013, "trialdata": {"rt": 583, "stimulus": "<p id='stroop-text' class='stroop-green'>GREEN</p>", "response": "g", "stimulus-type": "congruent", "word": "green", "color": "green", "correct_response": "g", "trial_id": "stroop-trial-1-congruent-6", "trial_type": "html-keyboard-response", "trial_index": 73, "time_elapsed": 142290, "internal_node_id": "0.0-4.0-69.0"}}, {"uniqueid": "w39558626:a27378966", "current_trial": 74, "dateTime": 1664555064077, "trialdata": {"rt": 551, "stimulus": "<p id='stroop-text' class='stroop-red'>WINDOW</p>", "response": "r", "stimulus-type": "unrelated", "word": "WINDOW", "color": "red", "correct_response": "r", "trial_id": "stroop-trial-1-unrelated-29", "trial_type": "html-keyboard-response", "trial_index": 74, "time_elapsed": 143354, "internal_node_id": "0.0-4.0-70.0"}}, {"uniqueid": "w39558626:a27378966", "current_trial": 75, "dateTime": 1664555065605, "trialdata": {"rt": 1014, "stimulus": "<p id='stroop-text' class='stroop-green'>BLUE</p>", "response": "g", "stimulus-type": "incongruent", "word": "blue", "color": "green", "correct_response": "g", "trial_id": "stroop-trial-1-incongruent-12", "trial_type": "html-keyboard-response", "trial_index": 75, "time_elapsed": 144882, "internal_node_id": "0.0-4.0-71.0"}}, {"uniqueid": "w39558626:a27378966", "current_trial": 76, "dateTime": 1664555066678, "trialdata": {"rt": 558, "stimulus": "<p id='stroop-text' class='stroop-yellow'>CHAIR</p>", "response": "y", "stimulus-type": "unrelated", "word": "CHAIR", "color": "yellow", "correct_response": "y", "trial_id": "stroop-trial-1-unrelated-9", "trial_type": "html-keyboard-response", "trial_index": 76, "time_elapsed": 145955, "internal_node_id": "0.0-4.0-72.0"}}, {"uniqueid": "w39558626:a27378966", "current_trial": 77, "dateTime": 1664555067909, "trialdata": {"rt": 710, "stimulus": "<p id='stroop-text' class='stroop-green'>BRAIN</p>", "response": "g", "stimulus-type": "unrelated", "word": "BRAIN", "color": "green", "correct_response": "g", "trial_id": "stroop-trial-1-unrelated-26", "trial_type": "html-keyboard-response", "trial_index": 77, "time_elapsed": 147187, "internal_node_id": "0.0-4.0-73.0"}}, {"uniqueid": "w39558626:a27378966", "current_trial": 78, "dateTime": 1664555069693, "trialdata": {"rt": 1264, "stimulus": "<p id='stroop-text' class='stroop-yellow'>YELLOW</p>", "response": "y", "stimulus-type": "congruent", "word": "yellow", "color": "yellow", "correct_response": "y", "trial_id": "stroop-trial-1-congruent-26", "trial_type": "html-keyboard-response", "trial_index": 78, "time_elapsed": 148970, "internal_node_id": "0.0-4.0-74.0"}}, {"uniqueid": "w39558626:a27378966", "current_trial": 79, "dateTime": 1664555070685, "trialdata": {"rt": 472, "stimulus": "<p id='stroop-text' class='stroop-yellow'>YELLOW</p>", "response": "y", "stimulus-type": "congruent", "word": "yellow", "color": "yellow", "correct_response": "y", "trial_id": "stroop-trial-1-congruent-3", "trial_type": "html-keyboard-response", "trial_index": 79, "time_elapsed": 149962, "internal_node_id": "0.0-4.0-75.0"}}, {"uniqueid": "w39558626:a27378966", "current_trial": 80, "dateTime": 1664555072317, "trialdata": {"rt": 1118, "stimulus": "<p id='stroop-text' class='stroop-green'>YELLOW</p>", "response": "g", "stimulus-type": "incongruent", "word": "yellow", "color": "green", "correct_response": "g", "trial_id": "stroop-trial-1-incongruent-17", "trial_type": "html-keyboard-response", "trial_index": 80, "time_elapsed": 151594, "internal_node_id": "0.0-4.0-76.0"}}, {"uniqueid": "w39558626:a27378966", "current_trial": 81, "dateTime": 1664555073708, "trialdata": {"rt": 873, "stimulus": "<p id='stroop-text' class='stroop-green'>BLUE</p>", "response": "g", "stimulus-type": "incongruent", "word": "blue", "color": "green", "correct_response": "g", "trial_id": "stroop-trial-1-incongruent-13", "trial_type": "html-keyboard-response", "trial_index": 81, "time_elapsed": 152986, "internal_node_id": "0.0-4.0-77.0"}}, {"uniqueid": "w39558626:a27378966", "current_trial": 82, "dateTime": 1664555074789, "trialdata": {"rt": 560, "stimulus": "<p id='stroop-text' class='stroop-green'>BLUE</p>", "response": "g", "stimulus-type": "incongruent", "word": "blue", "color": "green", "correct_response": "g", "trial_id": "stroop-trial-1-incongruent-18", "trial_type": "html-keyboard-response", "trial_index": 82, "time_elapsed": 154066, "internal_node_id": "0.0-4.0-78.0"}}, {"uniqueid": "w39558626:a27378966", "current_trial": 83, "dateTime": 1664555075901, "trialdata": {"rt": 597, "stimulus": "<p id='stroop-text' class='stroop-red'>RED</p>", "response": "r", "stimulus-type": "congruent", "word": "red", "color": "red", "correct_response": "r", "trial_id": "stroop-trial-1-congruent-1", "trial_type": "html-keyboard-response", "trial_index": 83, "time_elapsed": 155178, "internal_node_id": "0.0-4.0-79.0"}}, {"uniqueid": "w39558626:a27378966", "current_trial": 84, "dateTime": 1664555077044, "trialdata": {"rt": 631, "stimulus": "<p id='stroop-text' class='stroop-green'>GREEN</p>", "response": "g", "stimulus-type": "congruent", "word": "green", "color": "green", "correct_response": "g", "trial_id": "stroop-trial-1-congruent-24", "trial_type": "html-keyboard-response", "trial_index": 84, "time_elapsed": 156321, "internal_node_id": "0.0-4.0-80.0"}}, {"uniqueid": "w39558626:a27378966", "current_trial": 85, "dateTime": 1664555078224, "trialdata": {"rt": 669, "stimulus": "<p id='stroop-text' class='stroop-red'>GREEN</p>", "response": "r", "stimulus-type": "incongruent", "word": "green", "color": "red", "correct_response": "r", "trial_id": "stroop-trial-1-incongruent-30", "trial_type": "html-keyboard-response", "trial_index": 85, "time_elapsed": 157502, "internal_node_id": "0.0-4.0-81.0"}}, {"uniqueid": "w39558626:a27378966", "current_trial": 86, "dateTime": 1664555079285, "trialdata": {"rt": 540, "stimulus": "<p id='stroop-text' class='stroop-red'>RED</p>", "response": "r", "stimulus-type": "congruent", "word": "red", "color": "red", "correct_response": "r", "trial_id": "stroop-trial-1-congruent-15", "trial_type": "html-keyboard-response", "trial_index": 86, "time_elapsed": 158562, "internal_node_id": "0.0-4.0-82.0"}}, {"uniqueid": "w39558626:a27378966", "current_trial": 87, "dateTime": 1664555080229, "trialdata": {"rt": 432, "stimulus": "<p id='stroop-text' class='stroop-red'>RED</p>", "response": "r", "stimulus-type": "congruent", "word": "red", "color": "red", "correct_response": "r", "trial_id": "stroop-trial-1-congruent-21", "trial_type": "html-keyboard-response", "trial_index": 87, "time_elapsed": 159506, "internal_node_id": "0.0-4.0-83.0"}}, {"uniqueid": "w39558626:a27378966", "current_trial": 88, "dateTime": 1664555081220, "trialdata": {"rt": 483, "stimulus": "<p id='stroop-text' class='stroop-blue'>BOAT</p>", "response": "b", "stimulus-type": "unrelated", "word": "BOAT", "color": "blue", "correct_response": "b", "trial_id": "stroop-trial-1-unrelated-28", "trial_type": "html-keyboard-response", "trial_index": 88, "time_elapsed": 160498, "internal_node_id": "0.0-4.0-84.0"}}, {"uniqueid": "w39558626:a27378966", "current_trial": 89, "dateTime": 1664555082275, "trialdata": {"rt": 548, "stimulus": "<p id='stroop-text' class='stroop-red'>RED</p>", "response": "r", "stimulus-type": "congruent", "word": "red", "color": "red", "correct_response": "r", "trial_id": "stroop-trial-1-congruent-19", "trial_type": "html-keyboard-response", "trial_index": 89, "time_elapsed": 161552, "internal_node_id": "0.0-4.0-85.0"}}, {"uniqueid": "w39558626:a27378966", "current_trial": 90, "dateTime": 1664555083227, "trialdata": {"rt": 437, "stimulus": "<p id='stroop-text' class='stroop-blue'>CHAIR</p>", "response": "b", "stimulus-type": "unrelated", "word": "CHAIR", "color": "blue", "correct_response": "b", "trial_id": "stroop-trial-1-unrelated-3", "trial_type": "html-keyboard-response", "trial_index": 90, "time_elapsed": 162504, "internal_node_id": "0.0-4.0-86.0"}}, {"uniqueid": "w39558626:a27378966", "current_trial": 91, "dateTime": 1664555084293, "trialdata": {"rt": 561, "stimulus": "<p id='stroop-text' class='stroop-yellow'>YELLOW</p>", "response": "y", "stimulus-type": "congruent", "word": "yellow", "color": "yellow", "correct_response": "y", "trial_id": "stroop-trial-1-congruent-28", "trial_type": "html-keyboard-response", "trial_index": 91, "time_elapsed": 163570, "internal_node_id": "0.0-4.0-87.0"}}, {"uniqueid": "w39558626:a27378966", "current_trial": 92, "dateTime": 1664555085485, "trialdata": {"rt": 684, "stimulus": "<p id='stroop-text' class='stroop-blue'>RED</p>", "response": "b", "stimulus-type": "incongruent", "word": "red", "color": "blue", "correct_response": "b", "trial_id": "stroop-trial-1-incongruent-9", "trial_type": "html-keyboard-response", "trial_index": 92, "time_elapsed": 164762, "internal_node_id": "0.0-4.0-88.0"}}, {"uniqueid": "w39558626:a27378966", "current_trial": 93, "dateTime": 1664555086541, "trialdata": {"rt": 548, "stimulus": "<p id='stroop-text' class='stroop-green'>GREEN</p>", "response": "g", "stimulus-type": "congruent", "word": "green", "color": "green", "correct_response": "g", "trial_id": "stroop-trial-1-congruent-12", "trial_type": "html-keyboard-response", "trial_index": 93, "time_elapsed": 165818, "internal_node_id": "0.0-4.0-89.0"}}, {"uniqueid": "w39558626:a27378966", "current_trial": 94, "dateTime": 1664555174653, "trialdata": {"rt": 87593, "stimulus": "  <h1> End of block! </h1>\n\n  You have reached the end of the block 1/5. If you need a short break, feel free to take one now before moving on.\n\n  <br><br>\n  In the next block, you will complete another 90 rounds of this game.\n\n  <br><br>\n  <div style='text-align: center;'>Press <code>space</code> to begin.</div>\n  <br><br>\n<div style='text-align: center;'>(If the experiment doesn't continue, try clicking on the text and then pressing <code>space</code>.)</div>", "response": " ", "trial_id": "stroop_1_ready_2", "trial_type": "html-keyboard-response", "trial_index": 94, "time_elapsed": 253931, "internal_node_id": "0.0-5.0"}}, {"uniqueid": "w39558626:a27378966", "current_trial": 95, "dateTime": 1664555175653, "trialdata": {"rt": 990, "stimulus": "<p id='stroop-text' class='stroop-green'>RED</p>", "response": "g", "stimulus-type": "incongruent", "word": "red", "color": "green", "correct_response": "g", "trial_id": "stroop-trial-1-incongruent-19", "trial_type": "html-keyboard-response", "trial_index": 95, "time_elapsed": 254930, "internal_node_id": "0.0-6.0-0.0"}}, {"uniqueid": "w39558626:a27378966", "current_trial": 96, "dateTime": 1664555176868, "trialdata": {"rt": 706, "stimulus": "<p id='stroop-text' class='stroop-blue'>CHAIR</p>", "response": "b", "stimulus-type": "unrelated", "word": "CHAIR", "color": "blue", "correct_response": "b", "trial_id": "stroop-trial-1-unrelated-15", "trial_type": "html-keyboard-response", "trial_index": 96, "time_elapsed": 256146, "internal_node_id": "0.0-6.0-1.0"}}, {"uniqueid": "w39558626:a27378966", "current_trial": 97, "dateTime": 1664555178028, "trialdata": {"rt": 650, "stimulus": "<p id='stroop-text' class='stroop-yellow'>CHAIR</p>", "response": "y", "stimulus-type": "unrelated", "word": "CHAIR", "color": "yellow", "correct_response": "y", "trial_id": "stroop-trial-1-unrelated-11", "trial_type": "html-keyboard-response", "trial_index": 97, "time_elapsed": 257306, "internal_node_id": "0.0-6.0-2.0"}}, {"uniqueid": "w39558626:a27378966", "current_trial": 98, "dateTime": 1664555179085, "trialdata": {"rt": 537, "stimulus": "<p id='stroop-text' class='stroop-red'>WINDOW</p>", "response": "r", "stimulus-type": "unrelated", "word": "WINDOW", "color": "red", "correct_response": "r", "trial_id": "stroop-trial-1-unrelated-9", "trial_type": "html-keyboard-response", "trial_index": 98, "time_elapsed": 258362, "internal_node_id": "0.0-6.0-3.0"}}, {"uniqueid": "w39558626:a27378966", "current_trial": 99, "dateTime": 1664555180229, "trialdata": {"rt": 630, "stimulus": "<p id='stroop-text' class='stroop-green'>BOTTLE</p>", "response": "g", "stimulus-type": "unrelated", "word": "BOTTLE", "color": "green", "correct_response": "g", "trial_id": "stroop-trial-1-unrelated-18", "trial_type": "html-keyboard-response", "trial_index": 99, "time_elapsed": 259507, "internal_node_id": "0.0-6.0-4.0"}}, {"uniqueid": "w39558626:a27378966", "current_trial": 100, "dateTime": 1664555181222, "trialdata": {"rt": 479, "stimulus": "<p id='stroop-text' class='stroop-yellow'>FORK</p>", "response": "y", "stimulus-type": "unrelated", "word": "FORK", "color": "yellow", "correct_response": "y", "trial_id": "stroop-trial-1-unrelated-4", "trial_type": "html-keyboard-response", "trial_index": 100, "time_elapsed": 260499, "internal_node_id": "0.0-6.0-5.0"}}, {"uniqueid": "w39558626:a27378966", "current_trial": 101, "dateTime": 1664555182197, "trialdata": {"rt": 467, "stimulus": "<p id='stroop-text' class='stroop-red'>RED</p>", "response": "r", "stimulus-type": "congruent", "word": "red", "color": "red", "correct_response": "r", "trial_id": "stroop-trial-1-congruent-21", "trial_type": "html-keyboard-response", "trial_index": 101, "time_elapsed": 261475, "internal_node_id": "0.0-6.0-6.0"}}, {"uniqueid": "w39558626:a27378966", "current_trial": 102, "dateTime": 1664555183117, "trialdata": {"rt": 399, "stimulus": "<p id='stroop-text' class='stroop-red'>RED</p>", "response": "r", "stimulus-type": "congruent", "word": "red", "color": "red", "correct_response": "r", "trial_id": "stroop-trial-1-congruent-28", "trial_type": "html-keyboard-response", "trial_index": 102, "time_elapsed": 262394, "internal_node_id": "0.0-6.0-7.0"}}, {"uniqueid": "w39558626:a27378966", "current_trial": 103, "dateTime": 1664555184141, "trialdata": {"rt": 510, "stimulus": "<p id='stroop-text' class='stroop-blue'>RED</p>", "response": "b", "stimulus-type": "incongruent", "word": "red", "color": "blue", "correct_response": "b", "trial_id": "stroop-trial-1-incongruent-24", "trial_type": "html-keyboard-response", "trial_index": 103, "time_elapsed": 263418, "internal_node_id": "0.0-6.0-8.0"}}, {"uniqueid": "w39558626:a27378966", "current_trial": 104, "dateTime": 1664555185141, "trialdata": {"rt": 490, "stimulus": "<p id='stroop-text' class='stroop-blue'>CHAIR</p>", "response": "b", "stimulus-type": "unrelated", "word": "CHAIR", "color": "blue", "correct_response": "b", "trial_id": "stroop-trial-1-unrelated-6", "trial_type": "html-keyboard-response", "trial_index": 104, "time_elapsed": 264418, "internal_node_id": "0.0-6.0-9.0"}}, {"uniqueid": "w39558626:a27378966", "current_trial": 105, "dateTime": 1664555186012, "trialdata": {"rt": 352, "stimulus": "<p id='stroop-text' class='stroop-blue'>BLUE</p>", "response": "b", "stimulus-type": "congruent", "word": "blue", "color": "blue", "correct_response": "b", "trial_id": "stroop-trial-1-congruent-18", "trial_type": "html-keyboard-response", "trial_index": 105, "time_elapsed": 265289, "internal_node_id": "0.0-6.0-10.0"}}, {"uniqueid": "w39558626:a27378966", "current_trial": 106, "dateTime": 1664555187093, "trialdata": {"rt": 567, "stimulus": "<p id='stroop-text' class='stroop-yellow'>BOAT</p>", "response": "y", "stimulus-type": "unrelated", "word": "BOAT", "color": "yellow", "correct_response": "y", "trial_id": "stroop-trial-1-unrelated-20", "trial_type": "html-keyboard-response", "trial_index": 106, "time_elapsed": 266370, "internal_node_id": "0.0-6.0-11.0"}}, {"uniqueid": "w39558626:a27378966", "current_trial": 107, "dateTime": 1664555188258, "trialdata": {"rt": 653, "stimulus": "<p id='stroop-text' class='stroop-green'>SHIP</p>", "response": "g", "stimulus-type": "unrelated", "word": "SHIP", "color": "green", "correct_response": "g", "trial_id": "stroop-trial-1-unrelated-24", "trial_type": "html-keyboard-response", "trial_index": 107, "time_elapsed": 267536, "internal_node_id": "0.0-6.0-12.0"}}, {"uniqueid": "w39558626:a27378966", "current_trial": 108, "dateTime": 1664555189309, "trialdata": {"rt": 539, "stimulus": "<p id='stroop-text' class='stroop-blue'>BLUE</p>", "response": "b", "stimulus-type": "congruent", "word": "blue", "color": "blue", "correct_response": "b", "trial_id": "stroop-trial-1-congruent-20", "trial_type": "html-keyboard-response", "trial_index": 108, "time_elapsed": 268586, "internal_node_id": "0.0-6.0-13.0"}}, {"uniqueid": "w39558626:a27378966", "current_trial": 109, "dateTime": 1664555190373, "trialdata": {"rt": 553, "stimulus": "<p id='stroop-text' class='stroop-red'>BOTTLE</p>", "response": "r", "stimulus-type": "unrelated", "word": "BOTTLE", "color": "red", "correct_response": "r", "trial_id": "stroop-trial-1-unrelated-19", "trial_type": "html-keyboard-response", "trial_index": 109, "time_elapsed": 269650, "internal_node_id": "0.0-6.0-14.0"}}, {"uniqueid": "w39558626:a27378966", "current_trial": 110, "dateTime": 1664555191629, "trialdata": {"rt": 746, "stimulus": "<p id='stroop-text' class='stroop-red'>YELLOW</p>", "response": "r", "stimulus-type": "incongruent", "word": "yellow", "color": "red", "correct_response": "r", "trial_id": "stroop-trial-1-incongruent-5", "trial_type": "html-keyboard-response", "trial_index": 110, "time_elapsed": 270906, "internal_node_id": "0.0-6.0-15.0"}}, {"uniqueid": "w39558626:a27378966", "current_trial": 111, "dateTime": 1664555192709, "trialdata": {"rt": 562, "stimulus": "<p id='stroop-text' class='stroop-blue'>BLUE</p>", "response": "b", "stimulus-type": "congruent", "word": "blue", "color": "blue", "correct_response": "b", "trial_id": "stroop-trial-1-congruent-13", "trial_type": "html-keyboard-response", "trial_index": 111, "time_elapsed": 271986, "internal_node_id": "0.0-6.0-16.0"}}, {"uniqueid": "w39558626:a27378966", "current_trial": 112, "dateTime": 1664555193653, "trialdata": {"rt": 425, "stimulus": "<p id='stroop-text' class='stroop-yellow'>YELLOW</p>", "response": "y", "stimulus-type": "congruent", "word": "yellow", "color": "yellow", "correct_response": "y", "trial_id": "stroop-trial-1-congruent-14", "trial_type": "html-keyboard-response", "trial_index": 112, "time_elapsed": 272930, "internal_node_id": "0.0-6.0-17.0"}}, {"uniqueid": "w39558626:a27378966", "current_trial": 113, "dateTime": 1664555194557, "trialdata": {"rt": 398, "stimulus": "<p id='stroop-text' class='stroop-yellow'>YELLOW</p>", "response": "y", "stimulus-type": "congruent", "word": "yellow", "color": "yellow", "correct_response": "y", "trial_id": "stroop-trial-1-congruent-9", "trial_type": "html-keyboard-response", "trial_index": 113, "time_elapsed": 273834, "internal_node_id": "0.0-6.0-18.0"}}, {"uniqueid": "w39558626:a27378966", "current_trial": 114, "dateTime": 1664555195845, "trialdata": {"rt": 771, "stimulus": "<p id='stroop-text' class='stroop-red'>BRAIN</p>", "response": "r", "stimulus-type": "unrelated", "word": "BRAIN", "color": "red", "correct_response": "r", "trial_id": "stroop-trial-1-unrelated-26", "trial_type": "html-keyboard-response", "trial_index": 114, "time_elapsed": 275122, "internal_node_id": "0.0-6.0-19.0"}}, {"uniqueid": "w39558626:a27378966", "current_trial": 115, "dateTime": 1664555196893, "trialdata": {"rt": 539, "stimulus": "<p id='stroop-text' class='stroop-red'>GREEN</p>", "response": "r", "stimulus-type": "incongruent", "word": "green", "color": "red", "correct_response": "r", "trial_id": "stroop-trial-1-incongruent-9", "trial_type": "html-keyboard-response", "trial_index": 115, "time_elapsed": 276170, "internal_node_id": "0.0-6.0-20.0"}}, {"uniqueid": "w39558626:a27378966", "current_trial": 116, "dateTime": 1664555197917, "trialdata": {"rt": 514, "stimulus": "<p id='stroop-text' class='stroop-yellow'>RED</p>", "response": "y", "stimulus-type": "incongruent", "word": "red", "color": "yellow", "correct_response": "y", "trial_id": "stroop-trial-1-incongruent-14", "trial_type": "html-keyboard-response", "trial_index": 116, "time_elapsed": 277194, "internal_node_id": "0.0-6.0-21.0"}}, {"uniqueid": "w39558626:a27378966", "current_trial": 117, "dateTime": 1664555199005, "trialdata": {"rt": 570, "stimulus": "<p id='stroop-text' class='stroop-yellow'>BLUE</p>", "response": "y", "stimulus-type": "incongruent", "word": "blue", "color": "yellow", "correct_response": "y", "trial_id": "stroop-trial-1-incongruent-3", "trial_type": "html-keyboard-response", "trial_index": 117, "time_elapsed": 278283, "internal_node_id": "0.0-6.0-22.0"}}, {"uniqueid": "w39558626:a27378966", "current_trial": 118, "dateTime": 1664555200237, "trialdata": {"rt": 727, "stimulus": "<p id='stroop-text' class='stroop-red'>CHAIR</p>", "response": "r", "stimulus-type": "unrelated", "word": "CHAIR", "color": "red", "correct_response": "r", "trial_id": "stroop-trial-1-unrelated-8", "trial_type": "html-keyboard-response", "trial_index": 118, "time_elapsed": 279514, "internal_node_id": "0.0-6.0-23.0"}}, {"uniqueid": "w39558626:a27378966", "current_trial": 119, "dateTime": 1664555201477, "trialdata": {"rt": 733, "stimulus": "<p id='stroop-text' class='stroop-green'>YELLOW</p>", "response": "g", "stimulus-type": "incongruent", "word": "yellow", "color": "green", "correct_response": "g", "trial_id": "stroop-trial-1-incongruent-28", "trial_type": "html-keyboard-response", "trial_index": 119, "time_elapsed": 280754, "internal_node_id": "0.0-6.0-24.0"}}, {"uniqueid": "w39558626:a27378966", "current_trial": 120, "dateTime": 1664555202653, "trialdata": {"rt": 658, "stimulus": "<p id='stroop-text' class='stroop-red'>YELLOW</p>", "response": "r", "stimulus-type": "incongruent", "word": "yellow", "color": "red", "correct_response": "r", "trial_id": "stroop-trial-1-incongruent-21", "trial_type": "html-keyboard-response", "trial_index": 120, "time_elapsed": 281930, "internal_node_id": "0.0-6.0-25.0"}}, {"uniqueid": "w39558626:a27378966", "current_trial": 121, "dateTime": 1664555203677, "trialdata": {"rt": 513, "stimulus": "<p id='stroop-text' class='stroop-blue'>BLUE</p>", "response": "b", "stimulus-type": "congruent", "word": "blue", "color": "blue", "correct_response": "b", "trial_id": "stroop-trial-1-congruent-12", "trial_type": "html-keyboard-response", "trial_index": 121, "time_elapsed": 282954, "internal_node_id": "0.0-6.0-26.0"}}, {"uniqueid": "w39558626:a27378966", "current_trial": 122, "dateTime": 1664555204709, "trialdata": {"rt": 510, "stimulus": "<p id='stroop-text' class='stroop-red'>STONE</p>", "response": "r", "stimulus-type": "unrelated", "word": "STONE", "color": "red", "correct_response": "r", "trial_id": "stroop-trial-1-unrelated-25", "trial_type": "html-keyboard-response", "trial_index": 122, "time_elapsed": 283986, "internal_node_id": "0.0-6.0-27.0"}}, {"uniqueid": "w39558626:a27378966", "current_trial": 123, "dateTime": 1664555205908, "trialdata": {"rt": 683, "stimulus": "<p id='stroop-text' class='stroop-red'>GREEN</p>", "response": "r", "stimulus-type": "incongruent", "word": "green", "color": "red", "correct_response": "r", "trial_id": "stroop-trial-1-incongruent-8", "trial_type": "html-keyboard-response", "trial_index": 123, "time_elapsed": 285185, "internal_node_id": "0.0-6.0-28.0"}}, {"uniqueid": "w39558626:a27378966", "current_trial": 124, "dateTime": 1664555207061, "trialdata": {"rt": 645, "stimulus": "<p id='stroop-text' class='stroop-yellow'>BLUE</p>", "response": "y", "stimulus-type": "incongruent", "word": "blue", "color": "yellow", "correct_response": "y", "trial_id": "stroop-trial-1-incongruent-29", "trial_type": "html-keyboard-response", "trial_index": 124, "time_elapsed": 286338, "internal_node_id": "0.0-6.0-29.0"}}, {"uniqueid": "w39558626:a27378966", "current_trial": 125, "dateTime": 1664555208084, "trialdata": {"rt": 506, "stimulus": "<p id='stroop-text' class='stroop-green'>RED</p>", "response": "g", "stimulus-type": "incongruent", "word": "red", "color": "green", "correct_response": "g", "trial_id": "stroop-trial-1-incongruent-26", "trial_type": "html-keyboard-response", "trial_index": 125, "time_elapsed": 287362, "internal_node_id": "0.0-6.0-30.0"}}, {"uniqueid": "w39558626:a27378966", "current_trial": 126, "dateTime": 1664555209085, "trialdata": {"rt": 485, "stimulus": "<p id='stroop-text' class='stroop-green'>GREEN</p>", "response": "g", "stimulus-type": "congruent", "word": "green", "color": "green", "correct_response": "g", "trial_id": "stroop-trial-1-congruent-2", "trial_type": "html-keyboard-response", "trial_index": 126, "time_elapsed": 288362, "internal_node_id": "0.0-6.0-31.0"}}, {"uniqueid": "w39558626:a27378966", "current_trial": 127, "dateTime": 1664555209972, "trialdata": {"rt": 370, "stimulus": "<p id='stroop-text' class='stroop-green'>GREEN</p>", "response": "g", "stimulus-type": "congruent", "word": "green", "color": "green", "correct_response": "g", "trial_id": "stroop-trial-1-congruent-8", "trial_type": "html-keyboard-response", "trial_index": 127, "time_elapsed": 289250, "internal_node_id": "0.0-6.0-32.0"}}, {"uniqueid": "w39558626:a27378966", "current_trial": 128, "dateTime": 1664555210981, "trialdata": {"rt": 501, "stimulus": "<p id='stroop-text' class='stroop-yellow'>STONE</p>", "response": "y", "stimulus-type": "unrelated", "word": "STONE", "color": "yellow", "correct_response": "y", "trial_id": "stroop-trial-1-unrelated-5", "trial_type": "html-keyboard-response", "trial_index": 128, "time_elapsed": 290258, "internal_node_id": "0.0-6.0-33.0"}}, {"uniqueid": "w39558626:a27378966", "current_trial": 129, "dateTime": 1664555211965, "trialdata": {"rt": 467, "stimulus": "<p id='stroop-text' class='stroop-blue'>GREEN</p>", "response": "b", "stimulus-type": "incongruent", "word": "green", "color": "blue", "correct_response": "b", "trial_id": "stroop-trial-1-incongruent-20", "trial_type": "html-keyboard-response", "trial_index": 129, "time_elapsed": 291242, "internal_node_id": "0.0-6.0-34.0"}}, {"uniqueid": "w39558626:a27378966", "current_trial": 130, "dateTime": 1664555212909, "trialdata": {"rt": 426, "stimulus": "<p id='stroop-text' class='stroop-blue'>BOAT</p>", "response": "b", "stimulus-type": "unrelated", "word": "BOAT", "color": "blue", "correct_response": "b", "trial_id": "stroop-trial-1-unrelated-21", "trial_type": "html-keyboard-response", "trial_index": 130, "time_elapsed": 292186, "internal_node_id": "0.0-6.0-35.0"}}, {"uniqueid": "w39558626:a27378966", "current_trial": 131, "dateTime": 1664555214669, "trialdata": {"rt": 1243, "stimulus": "<p id='stroop-text' class='stroop-yellow'>GREEN</p>", "response": "y", "stimulus-type": "incongruent", "word": "green", "color": "yellow", "correct_response": "y", "trial_id": "stroop-trial-1-incongruent-15", "trial_type": "html-keyboard-response", "trial_index": 131, "time_elapsed": 293945, "internal_node_id": "0.0-6.0-36.0"}}, {"uniqueid": "w39558626:a27378966", "current_trial": 132, "dateTime": 1664555215771, "trialdata": {"rt": 586, "stimulus": "<p id='stroop-text' class='stroop-green'>BLUE</p>", "response": "g", "stimulus-type": "incongruent", "word": "blue", "color": "green", "correct_response": "g", "trial_id": "stroop-trial-1-incongruent-22", "trial_type": "html-keyboard-response", "trial_index": 132, "time_elapsed": 295049, "internal_node_id": "0.0-6.0-37.0"}}, {"uniqueid": "w39558626:a27378966", "current_trial": 133, "dateTime": 1664555216965, "trialdata": {"rt": 686, "stimulus": "<p id='stroop-text' class='stroop-blue'>BLUE</p>", "response": "b", "stimulus-type": "congruent", "word": "blue", "color": "blue", "correct_response": "b", "trial_id": "stroop-trial-1-congruent-1", "trial_type": "html-keyboard-response", "trial_index": 133, "time_elapsed": 296242, "internal_node_id": "0.0-6.0-38.0"}}, {"uniqueid": "w39558626:a27378966", "current_trial": 134, "dateTime": 1664555217837, "trialdata": {"rt": 352, "stimulus": "<p id='stroop-text' class='stroop-red'>BRIDGE</p>", "response": "r", "stimulus-type": "unrelated", "word": "BRIDGE", "color": "red", "correct_response": "r", "trial_id": "stroop-trial-1-unrelated-1", "trial_type": "html-keyboard-response", "trial_index": 134, "time_elapsed": 297114, "internal_node_id": "0.0-6.0-39.0"}}, {"uniqueid": "w39558626:a27378966", "current_trial": 135, "dateTime": 1664555218789, "trialdata": {"rt": 438, "stimulus": "<p id='stroop-text' class='stroop-green'>BLUE</p>", "response": "g", "stimulus-type": "incongruent", "word": "blue", "color": "green", "correct_response": "g", "trial_id": "stroop-trial-1-incongruent-25", "trial_type": "html-keyboard-response", "trial_index": 135, "time_elapsed": 298066, "internal_node_id": "0.0-6.0-40.0"}}, {"uniqueid": "w39558626:a27378966", "current_trial": 136, "dateTime": 1664555219717, "trialdata": {"rt": 410, "stimulus": "<p id='stroop-text' class='stroop-blue'>BRIDGE</p>", "response": "b", "stimulus-type": "unrelated", "word": "BRIDGE", "color": "blue", "correct_response": "b", "trial_id": "stroop-trial-1-unrelated-2", "trial_type": "html-keyboard-response", "trial_index": 136, "time_elapsed": 298994, "internal_node_id": "0.0-6.0-41.0"}}, {"uniqueid": "w39558626:a27378966", "current_trial": 137, "dateTime": 1664555220612, "trialdata": {"rt": 376, "stimulus": "<p id='stroop-text' class='stroop-blue'>RED</p>", "response": "b", "stimulus-type": "incongruent", "word": "red", "color": "blue", "correct_response": "b", "trial_id": "stroop-trial-1-incongruent-4", "trial_type": "html-keyboard-response", "trial_index": 137, "time_elapsed": 299890, "internal_node_id": "0.0-6.0-42.0"}}, {"uniqueid": "w39558626:a27378966", "current_trial": 138, "dateTime": 1664555221648, "trialdata": {"rt": 514, "stimulus": "<p id='stroop-text' class='stroop-green'>GREEN</p>", "response": "g", "stimulus-type": "congruent", "word": "green", "color": "green", "correct_response": "g", "trial_id": "stroop-trial-1-congruent-15", "trial_type": "html-keyboard-response", "trial_index": 138, "time_elapsed": 300925, "internal_node_id": "0.0-6.0-43.0"}}, {"uniqueid": "w39558626:a27378966", "current_trial": 139, "dateTime": 1664555222573, "trialdata": {"rt": 419, "stimulus": "<p id='stroop-text' class='stroop-yellow'>YELLOW</p>", "response": "y", "stimulus-type": "congruent", "word": "yellow", "color": "yellow", "correct_response": "y", "trial_id": "stroop-trial-1-congruent-23", "trial_type": "html-keyboard-response", "trial_index": 139, "time_elapsed": 301850, "internal_node_id": "0.0-6.0-44.0"}}, {"uniqueid": "w39558626:a27378966", "current_trial": 140, "dateTime": 1664555223741, "trialdata": {"rt": 655, "stimulus": "<p id='stroop-text' class='stroop-yellow'>BLUE</p>", "response": "y", "stimulus-type": "incongruent", "word": "blue", "color": "yellow", "correct_response": "y", "trial_id": "stroop-trial-1-incongruent-10", "trial_type": "html-keyboard-response", "trial_index": 140, "time_elapsed": 303018, "internal_node_id": "0.0-6.0-45.0"}}, {"uniqueid": "w39558626:a27378966", "current_trial": 141, "dateTime": 1664555224853, "trialdata": {"rt": 605, "stimulus": "<p id='stroop-text' class='stroop-blue'>BRIDGE</p>", "response": "b", "stimulus-type": "unrelated", "word": "BRIDGE", "color": "blue", "correct_response": "b", "trial_id": "stroop-trial-1-unrelated-12", "trial_type": "html-keyboard-response", "trial_index": 141, "time_elapsed": 304130, "internal_node_id": "0.0-6.0-46.0"}}, {"uniqueid": "w39558626:a27378966", "current_trial": 142, "dateTime": 1664555225870, "trialdata": {"rt": 509, "stimulus": "<p id='stroop-text' class='stroop-green'>BLUE</p>", "response": "g", "stimulus-type": "incongruent", "word": "blue", "color": "green", "correct_response": "g", "trial_id": "stroop-trial-1-incongruent-27", "trial_type": "html-keyboard-response", "trial_index": 142, "time_elapsed": 305147, "internal_node_id": "0.0-6.0-47.0"}}, {"uniqueid": "w39558626:a27378966", "current_trial": 143, "dateTime": 1664555226765, "trialdata": {"rt": 374, "stimulus": "<p id='stroop-text' class='stroop-blue'>BLUE</p>", "response": "b", "stimulus-type": "congruent", "word": "blue", "color": "blue", "correct_response": "b", "trial_id": "stroop-trial-1-congruent-16", "trial_type": "html-keyboard-response", "trial_index": 143, "time_elapsed": 306042, "internal_node_id": "0.0-6.0-48.0"}}, {"uniqueid": "w39558626:a27378966", "current_trial": 144, "dateTime": 1664555227804, "trialdata": {"rt": 533, "stimulus": "<p id='stroop-text' class='stroop-red'>YELLOW</p>", "response": "r", "stimulus-type": "incongruent", "word": "yellow", "color": "red", "correct_response": "r", "trial_id": "stroop-trial-1-incongruent-6", "trial_type": "html-keyboard-response", "trial_index": 144, "time_elapsed": 307081, "internal_node_id": "0.0-6.0-49.0"}}, {"uniqueid": "w39558626:a27378966", "current_trial": 145, "dateTime": 1664555228684, "trialdata": {"rt": 364, "stimulus": "<p id='stroop-text' class='stroop-red'>RED</p>", "response": "r", "stimulus-type": "congruent", "word": "red", "color": "red", "correct_response": "r", "trial_id": "stroop-trial-1-congruent-11", "trial_type": "html-keyboard-response", "trial_index": 145, "time_elapsed": 307961, "internal_node_id": "0.0-6.0-50.0"}}, {"uniqueid": "w39558626:a27378966", "current_trial": 146, "dateTime": 1664555229650, "trialdata": {"rt": 448, "stimulus": "<p id='stroop-text' class='stroop-red'>RED</p>", "response": "r", "stimulus-type": "congruent", "word": "red", "color": "red", "correct_response": "r", "trial_id": "stroop-trial-1-congruent-7", "trial_type": "html-keyboard-response", "trial_index": 146, "time_elapsed": 308928, "internal_node_id": "0.0-6.0-51.0"}}, {"uniqueid": "w39558626:a27378966", "current_trial": 147, "dateTime": 1664555230693, "trialdata": {"rt": 533, "stimulus": "<p id='stroop-text' class='stroop-green'>CHAIR</p>", "response": "g", "stimulus-type": "unrelated", "word": "CHAIR", "color": "green", "correct_response": "g", "trial_id": "stroop-trial-1-unrelated-17", "trial_type": "html-keyboard-response", "trial_index": 147, "time_elapsed": 309970, "internal_node_id": "0.0-6.0-52.0"}}, {"uniqueid": "w39558626:a27378966", "current_trial": 148, "dateTime": 1664555231772, "trialdata": {"rt": 561, "stimulus": "<p id='stroop-text' class='stroop-blue'>STONE</p>", "response": "b", "stimulus-type": "unrelated", "word": "STONE", "color": "blue", "correct_response": "b", "trial_id": "stroop-trial-1-unrelated-10", "trial_type": "html-keyboard-response", "trial_index": 148, "time_elapsed": 311050, "internal_node_id": "0.0-6.0-53.0"}}, {"uniqueid": "w39558626:a27378966", "current_trial": 149, "dateTime": 1664555232716, "trialdata": {"rt": 423, "stimulus": "<p id='stroop-text' class='stroop-yellow'>BOAT</p>", "response": "y", "stimulus-type": "unrelated", "word": "BOAT", "color": "yellow", "correct_response": "y", "trial_id": "stroop-trial-1-unrelated-27", "trial_type": "html-keyboard-response", "trial_index": 149, "time_elapsed": 311994, "internal_node_id": "0.0-6.0-54.0"}}, {"uniqueid": "w39558626:a27378966", "current_trial": 150, "dateTime": 1664555233732, "trialdata": {"rt": 496, "stimulus": "<p id='stroop-text' class='stroop-blue'>YELLOW</p>", "response": "b", "stimulus-type": "incongruent", "word": "yellow", "color": "blue", "correct_response": "b", "trial_id": "stroop-trial-1-incongruent-1", "trial_type": "html-keyboard-response", "trial_index": 150, "time_elapsed": 313009, "internal_node_id": "0.0-6.0-55.0"}}, {"uniqueid": "w39558626:a27378966", "current_trial": 151, "dateTime": 1664555234701, "trialdata": {"rt": 447, "stimulus": "<p id='stroop-text' class='stroop-blue'>BLUE</p>", "response": "b", "stimulus-type": "congruent", "word": "blue", "color": "blue", "correct_response": "b", "trial_id": "stroop-trial-1-congruent-22", "trial_type": "html-keyboard-response", "trial_index": 151, "time_elapsed": 313979, "internal_node_id": "0.0-6.0-56.0"}}, {"uniqueid": "w39558626:a27378966", "current_trial": 152, "dateTime": 1664555235573, "trialdata": {"rt": 361, "stimulus": "<p id='stroop-text' class='stroop-blue'>GREEN</p>", "response": "b", "stimulus-type": "incongruent", "word": "green", "color": "blue", "correct_response": "b", "trial_id": "stroop-trial-1-incongruent-17", "trial_type": "html-keyboard-response", "trial_index": 152, "time_elapsed": 314850, "internal_node_id": "0.0-6.0-57.0"}}, {"uniqueid": "w39558626:a27378966", "current_trial": 153, "dateTime": 1664555236540, "trialdata": {"rt": 448, "stimulus": "<p id='stroop-text' class='stroop-red'>RED</p>", "response": "r", "stimulus-type": "congruent", "word": "red", "color": "red", "correct_response": "r", "trial_id": "stroop-trial-1-congruent-30", "trial_type": "html-keyboard-response", "trial_index": 153, "time_elapsed": 315818, "internal_node_id": "0.0-6.0-58.0"}}, {"uniqueid": "w39558626:a27378966", "current_trial": 154, "dateTime": 1664555238405, "trialdata": {"rt": 1357, "stimulus": "<p id='stroop-text' class='stroop-yellow'>GREEN</p>", "response": "y", "stimulus-type": "incongruent", "word": "green", "color": "yellow", "correct_response": "y", "trial_id": "stroop-trial-1-incongruent-2", "trial_type": "html-keyboard-response", "trial_index": 154, "time_elapsed": 317682, "internal_node_id": "0.0-6.0-59.0"}}, {"uniqueid": "w39558626:a27378966", "current_trial": 155, "dateTime": 1664555239461, "trialdata": {"rt": 548, "stimulus": "<p id='stroop-text' class='stroop-green'>BOTTLE</p>", "response": "g", "stimulus-type": "unrelated", "word": "BOTTLE", "color": "green", "correct_response": "g", "trial_id": "stroop-trial-1-unrelated-30", "trial_type": "html-keyboard-response", "trial_index": 155, "time_elapsed": 318738, "internal_node_id": "0.0-6.0-60.0"}}, {"uniqueid": "w39558626:a27378966", "current_trial": 156, "dateTime": 1664555240541, "trialdata": {"rt": 563, "stimulus": "<p id='stroop-text' class='stroop-yellow'>YELLOW</p>", "response": "y", "stimulus-type": "congruent", "word": "yellow", "color": "yellow", "correct_response": "y", "trial_id": "stroop-trial-1-congruent-24", "trial_type": "html-keyboard-response", "trial_index": 156, "time_elapsed": 319818, "internal_node_id": "0.0-6.0-61.0"}}, {"uniqueid": "w39558626:a27378966", "current_trial": 157, "dateTime": 1664555241917, "trialdata": {"rt": 856, "stimulus": "<p id='stroop-text' class='stroop-blue'>FORK</p>", "response": "b", "stimulus-type": "unrelated", "word": "FORK", "color": "blue", "correct_response": "b", "trial_id": "stroop-trial-1-unrelated-23", "trial_type": "html-keyboard-response", "trial_index": 157, "time_elapsed": 321194, "internal_node_id": "0.0-6.0-62.0"}}, {"uniqueid": "w39558626:a27378966", "current_trial": 158, "dateTime": 1664555243165, "trialdata": {"rt": 731, "stimulus": "<p id='stroop-text' class='stroop-yellow'>MONKEY</p>", "response": "y", "stimulus-type": "unrelated", "word": "MONKEY", "color": "yellow", "correct_response": "y", "trial_id": "stroop-trial-1-unrelated-28", "trial_type": "html-keyboard-response", "trial_index": 158, "time_elapsed": 322442, "internal_node_id": "0.0-6.0-63.0"}}, {"uniqueid": "w39558626:a27378966", "current_trial": 159, "dateTime": 1664555244108, "trialdata": {"rt": 429, "stimulus": "<p id='stroop-text' class='stroop-yellow'>YELLOW</p>", "response": "y", "stimulus-type": "congruent", "word": "yellow", "color": "yellow", "correct_response": "y", "trial_id": "stroop-trial-1-congruent-6", "trial_type": "html-keyboard-response", "trial_index": 159, "time_elapsed": 323386, "internal_node_id": "0.0-6.0-64.0"}}, {"uniqueid": "w39558626:a27378966", "current_trial": 160, "dateTime": 1664555245452, "trialdata": {"rt": 837, "stimulus": "<p id='stroop-text' class='stroop-blue'>FORK</p>", "response": "b", "stimulus-type": "unrelated", "word": "FORK", "color": "blue", "correct_response": "b", "trial_id": "stroop-trial-1-unrelated-7", "trial_type": "html-keyboard-response", "trial_index": 160, "time_elapsed": 324730, "internal_node_id": "0.0-6.0-65.0"}}, {"uniqueid": "w39558626:a27378966", "current_trial": 161, "dateTime": 1664555246440, "trialdata": {"rt": 481, "stimulus": "<p id='stroop-text' class='stroop-yellow'>YELLOW</p>", "response": "y", "stimulus-type": "congruent", "word": "yellow", "color": "yellow", "correct_response": "y", "trial_id": "stroop-trial-1-congruent-27", "trial_type": "html-keyboard-response", "trial_index": 161, "time_elapsed": 325717, "internal_node_id": "0.0-6.0-66.0"}}, {"uniqueid": "w39558626:a27378966", "current_trial": 162, "dateTime": 1664555247541, "trialdata": {"rt": 593, "stimulus": "<p id='stroop-text' class='stroop-red'>BLUE</p>", "response": "r", "stimulus-type": "incongruent", "word": "blue", "color": "red", "correct_response": "r", "trial_id": "stroop-trial-1-incongruent-7", "trial_type": "html-keyboard-response", "trial_index": 162, "time_elapsed": 326818, "internal_node_id": "0.0-6.0-67.0"}}, {"uniqueid": "w39558626:a27378966", "current_trial": 163, "dateTime": 1664555248452, "trialdata": {"rt": 402, "stimulus": "<p id='stroop-text' class='stroop-red'>RED</p>", "response": "r", "stimulus-type": "congruent", "word": "red", "color": "red", "correct_response": "r", "trial_id": "stroop-trial-1-congruent-3", "trial_type": "html-keyboard-response", "trial_index": 163, "time_elapsed": 327730, "internal_node_id": "0.0-6.0-68.0"}}, {"uniqueid": "w39558626:a27378966", "current_trial": 164, "dateTime": 1664555249660, "trialdata": {"rt": 701, "stimulus": "<p id='stroop-text' class='stroop-green'>WINDOW</p>", "response": "g", "stimulus-type": "unrelated", "word": "WINDOW", "color": "green", "correct_response": "g", "trial_id": "stroop-trial-1-unrelated-3", "trial_type": "html-keyboard-response", "trial_index": 164, "time_elapsed": 328938, "internal_node_id": "0.0-6.0-69.0"}}, {"uniqueid": "w39558626:a27378966", "current_trial": 165, "dateTime": 1664555250558, "trialdata": {"rt": 386, "stimulus": "<p id='stroop-text' class='stroop-green'>YELLOW</p>", "response": "r", "stimulus-type": "incongruent", "word": "yellow", "color": "green", "correct_response": "g", "trial_id": "stroop-trial-1-incongruent-16", "trial_type": "html-keyboard-response", "trial_index": 165, "time_elapsed": 329835, "internal_node_id": "0.0-6.0-70.0"}}, {"uniqueid": "w39558626:a27378966", "current_trial": 166, "dateTime": 1664555251701, "trialdata": {"rt": 633, "stimulus": "<p id='stroop-text' class='stroop-blue'>BRAIN</p>", "response": "b", "stimulus-type": "unrelated", "word": "BRAIN", "color": "blue", "correct_response": "b", "trial_id": "stroop-trial-1-unrelated-22", "trial_type": "html-keyboard-response", "trial_index": 166, "time_elapsed": 330978, "internal_node_id": "0.0-6.0-71.0"}}, {"uniqueid": "w39558626:a27378966", "current_trial": 167, "dateTime": 1664555253380, "trialdata": {"rt": 1167, "stimulus": "<p id='stroop-text' class='stroop-red'>MONKEY</p>", "response": "r", "stimulus-type": "unrelated", "word": "MONKEY", "color": "red", "correct_response": "r", "trial_id": "stroop-trial-1-unrelated-14", "trial_type": "html-keyboard-response", "trial_index": 167, "time_elapsed": 332658, "internal_node_id": "0.0-6.0-72.0"}}, {"uniqueid": "w39558626:a27378966", "current_trial": 168, "dateTime": 1664555254347, "trialdata": {"rt": 451, "stimulus": "<p id='stroop-text' class='stroop-red'>CHAIR</p>", "response": "r", "stimulus-type": "unrelated", "word": "CHAIR", "color": "red", "correct_response": "r", "trial_id": "stroop-trial-1-unrelated-29", "trial_type": "html-keyboard-response", "trial_index": 168, "time_elapsed": 333625, "internal_node_id": "0.0-6.0-73.0"}}, {"uniqueid": "w39558626:a27378966", "current_trial": 169, "dateTime": 1664555255237, "trialdata": {"rt": 378, "stimulus": "<p id='stroop-text' class='stroop-red'>RED</p>", "response": "r", "stimulus-type": "congruent", "word": "red", "color": "red", "correct_response": "r", "trial_id": "stroop-trial-1-congruent-10", "trial_type": "html-keyboard-response", "trial_index": 169, "time_elapsed": 334514, "internal_node_id": "0.0-6.0-74.0"}}, {"uniqueid": "w39558626:a27378966", "current_trial": 170, "dateTime": 1664555256572, "trialdata": {"rt": 816, "stimulus": "<p id='stroop-text' class='stroop-yellow'>BLUE</p>", "response": "y", "stimulus-type": "incongruent", "word": "blue", "color": "yellow", "correct_response": "y", "trial_id": "stroop-trial-1-incongruent-18", "trial_type": "html-keyboard-response", "trial_index": 170, "time_elapsed": 335850, "internal_node_id": "0.0-6.0-75.0"}}, {"uniqueid": "w39558626:a27378966", "current_trial": 171, "dateTime": 1664555257501, "trialdata": {"rt": 415, "stimulus": "<p id='stroop-text' class='stroop-yellow'>YELLOW</p>", "response": "y", "stimulus-type": "congruent", "word": "yellow", "color": "yellow", "correct_response": "y", "trial_id": "stroop-trial-1-congruent-5", "trial_type": "html-keyboard-response", "trial_index": 171, "time_elapsed": 336778, "internal_node_id": "0.0-6.0-76.0"}}, {"uniqueid": "w39558626:a27378966", "current_trial": 172, "dateTime": 1664555258595, "trialdata": {"rt": 580, "stimulus": "<p id='stroop-text' class='stroop-blue'>BLUE</p>", "response": "b", "stimulus-type": "congruent", "word": "blue", "color": "blue", "correct_response": "b", "trial_id": "stroop-trial-1-congruent-29", "trial_type": "html-keyboard-response", "trial_index": 172, "time_elapsed": 337873, "internal_node_id": "0.0-6.0-77.0"}}, {"uniqueid": "w39558626:a27378966", "current_trial": 173, "dateTime": 1664555259557, "trialdata": {"rt": 444, "stimulus": "<p id='stroop-text' class='stroop-yellow'>YELLOW</p>", "response": "y", "stimulus-type": "congruent", "word": "yellow", "color": "yellow", "correct_response": "y", "trial_id": "stroop-trial-1-congruent-4", "trial_type": "html-keyboard-response", "trial_index": 173, "time_elapsed": 338834, "internal_node_id": "0.0-6.0-78.0"}}, {"uniqueid": "w39558626:a27378966", "current_trial": 174, "dateTime": 1664555260797, "trialdata": {"rt": 723, "stimulus": "<p id='stroop-text' class='stroop-red'>BRIDGE</p>", "response": "r", "stimulus-type": "unrelated", "word": "BRIDGE", "color": "red", "correct_response": "r", "trial_id": "stroop-trial-1-unrelated-13", "trial_type": "html-keyboard-response", "trial_index": 174, "time_elapsed": 340074, "internal_node_id": "0.0-6.0-79.0"}}, {"uniqueid": "w39558626:a27378966", "current_trial": 175, "dateTime": 1664555261829, "trialdata": {"rt": 514, "stimulus": "<p id='stroop-text' class='stroop-red'>GREEN</p>", "response": "r", "stimulus-type": "incongruent", "word": "green", "color": "red", "correct_response": "r", "trial_id": "stroop-trial-1-incongruent-12", "trial_type": "html-keyboard-response", "trial_index": 175, "time_elapsed": 341106, "internal_node_id": "0.0-6.0-80.0"}}, {"uniqueid": "w39558626:a27378966", "current_trial": 176, "dateTime": 1664555262733, "trialdata": {"rt": 385, "stimulus": "<p id='stroop-text' class='stroop-red'>BLUE</p>", "response": "r", "stimulus-type": "incongruent", "word": "blue", "color": "red", "correct_response": "r", "trial_id": "stroop-trial-1-incongruent-13", "trial_type": "html-keyboard-response", "trial_index": 176, "time_elapsed": 342010, "internal_node_id": "0.0-6.0-81.0"}}, {"uniqueid": "w39558626:a27378966", "current_trial": 177, "dateTime": 1664555263757, "trialdata": {"rt": 516, "stimulus": "<p id='stroop-text' class='stroop-green'>YELLOW</p>", "response": "y", "stimulus-type": "incongruent", "word": "yellow", "color": "green", "correct_response": "g", "trial_id": "stroop-trial-1-incongruent-11", "trial_type": "html-keyboard-response", "trial_index": 177, "time_elapsed": 343034, "internal_node_id": "0.0-6.0-82.0"}}, {"uniqueid": "w39558626:a27378966", "current_trial": 178, "dateTime": 1664555265475, "trialdata": {"rt": 1199, "stimulus": "<p id='stroop-text' class='stroop-yellow'>YELLOW</p>", "response": "y", "stimulus-type": "congruent", "word": "yellow", "color": "yellow", "correct_response": "y", "trial_id": "stroop-trial-1-congruent-19", "trial_type": "html-keyboard-response", "trial_index": 178, "time_elapsed": 344752, "internal_node_id": "0.0-6.0-83.0"}}, {"uniqueid": "w39558626:a27378966", "current_trial": 179, "dateTime": 1664555266484, "trialdata": {"rt": 496, "stimulus": "<p id='stroop-text' class='stroop-blue'>BLUE</p>", "response": "b", "stimulus-type": "congruent", "word": "blue", "color": "blue", "correct_response": "b", "trial_id": "stroop-trial-1-congruent-17", "trial_type": "html-keyboard-response", "trial_index": 179, "time_elapsed": 345761, "internal_node_id": "0.0-6.0-84.0"}}, {"uniqueid": "w39558626:a27378966", "current_trial": 180, "dateTime": 1664555267572, "trialdata": {"rt": 579, "stimulus": "<p id='stroop-text' class='stroop-red'>SHIP</p>", "response": "r", "stimulus-type": "unrelated", "word": "SHIP", "color": "red", "correct_response": "r", "trial_id": "stroop-trial-1-unrelated-16", "trial_type": "html-keyboard-response", "trial_index": 180, "time_elapsed": 346850, "internal_node_id": "0.0-6.0-85.0"}}, {"uniqueid": "w39558626:a27378966", "current_trial": 181, "dateTime": 1664555268477, "trialdata": {"rt": 385, "stimulus": "<p id='stroop-text' class='stroop-red'>RED</p>", "response": "r", "stimulus-type": "congruent", "word": "red", "color": "red", "correct_response": "r", "trial_id": "stroop-trial-1-congruent-25", "trial_type": "html-keyboard-response", "trial_index": 181, "time_elapsed": 347754, "internal_node_id": "0.0-6.0-86.0"}}, {"uniqueid": "w39558626:a27378966", "current_trial": 182, "dateTime": 1664555270517, "trialdata": {"rt": 1527, "stimulus": "<p id='stroop-text' class='stroop-yellow'>RED</p>", "response": "y", "stimulus-type": "incongruent", "word": "red", "color": "yellow", "correct_response": "y", "trial_id": "stroop-trial-1-incongruent-30", "trial_type": "html-keyboard-response", "trial_index": 182, "time_elapsed": 349794, "internal_node_id": "0.0-6.0-87.0"}}, {"uniqueid": "w39558626:a27378966", "current_trial": 183, "dateTime": 1664555271668, "trialdata": {"rt": 644, "stimulus": "<p id='stroop-text' class='stroop-blue'>YELLOW</p>", "response": "g", "stimulus-type": "incongruent", "word": "yellow", "color": "blue", "correct_response": "b", "trial_id": "stroop-trial-1-incongruent-23", "trial_type": "html-keyboard-response", "trial_index": 183, "time_elapsed": 350946, "internal_node_id": "0.0-6.0-88.0"}}, {"uniqueid": "w39558626:a27378966", "current_trial": 184, "dateTime": 1664555274063, "trialdata": {"rt": 1882, "stimulus": "<p id='stroop-text' class='stroop-red'>RED</p>", "response": "r", "stimulus-type": "congruent", "word": "red", "color": "red", "correct_response": "r", "trial_id": "stroop-trial-1-congruent-26", "trial_type": "html-keyboard-response", "trial_index": 184, "time_elapsed": 353340, "internal_node_id": "0.0-6.0-89.0"}}, {"uniqueid": "w39558626:a27378966", "current_trial": 185, "dateTime": 1664555418701, "trialdata": {"rt": 144117, "stimulus": "  <h1> End of block! </h1>\n\n  You have reached the end of the block 2/5. If you need a short break, feel free to take one now before moving on.\n\n  <br><br>\n  In the next block, you will complete another 90 rounds of this game.\n\n  <br><br>\n  <div style='text-align: center;'>Press <code>space</code> to begin.</div>\n  <br><br>\n<div style='text-align: center;'>(If the experiment doesn't continue, try clicking on the text and then pressing <code>space</code>.)</div>", "response": " ", "trial_id": "stroop_1_ready_3", "trial_type": "html-keyboard-response", "trial_index": 185, "time_elapsed": 497979, "internal_node_id": "0.0-7.0"}}, {"uniqueid": "w39558626:a27378966", "current_trial": 186, "dateTime": 1664555421069, "trialdata": {"rt": 2359, "stimulus": "<p id='stroop-text' class='stroop-yellow'>BLUE</p>", "response": "y", "stimulus-type": "incongruent", "word": "blue", "color": "yellow", "correct_response": "y", "trial_id": "stroop-trial-1-incongruent-17", "trial_type": "html-keyboard-response", "trial_index": 186, "time_elapsed": 500346, "internal_node_id": "0.0-8.0-0.0"}}, {"uniqueid": "w39558626:a27378966", "current_trial": 187, "dateTime": 1664555422157, "trialdata": {"rt": 568, "stimulus": "<p id='stroop-text' class='stroop-blue'>BLUE</p>", "response": "b", "stimulus-type": "congruent", "word": "blue", "color": "blue", "correct_response": "b", "trial_id": "stroop-trial-1-congruent-20", "trial_type": "html-keyboard-response", "trial_index": 187, "time_elapsed": 501434, "internal_node_id": "0.0-8.0-1.0"}}, {"uniqueid": "w39558626:a27378966", "current_trial": 188, "dateTime": 1664555423293, "trialdata": {"rt": 621, "stimulus": "<p id='stroop-text' class='stroop-blue'>BLUE</p>", "response": "b", "stimulus-type": "congruent", "word": "blue", "color": "blue", "correct_response": "b", "trial_id": "stroop-trial-1-congruent-12", "trial_type": "html-keyboard-response", "trial_index": 188, "time_elapsed": 502570, "internal_node_id": "0.0-8.0-2.0"}}, {"uniqueid": "w39558626:a27378966", "current_trial": 189, "dateTime": 1664555424382, "trialdata": {"rt": 571, "stimulus": "<p id='stroop-text' class='stroop-yellow'>DOG</p>", "response": "y", "stimulus-type": "unrelated", "word": "DOG", "color": "yellow", "correct_response": "y", "trial_id": "stroop-trial-1-unrelated-16", "trial_type": "html-keyboard-response", "trial_index": 189, "time_elapsed": 503659, "internal_node_id": "0.0-8.0-3.0"}}, {"uniqueid": "w39558626:a27378966", "current_trial": 190, "dateTime": 1664555425436, "trialdata": {"rt": 534, "stimulus": "<p id='stroop-text' class='stroop-red'>BRAIN</p>", "response": "r", "stimulus-type": "unrelated", "word": "BRAIN", "color": "red", "correct_response": "r", "trial_id": "stroop-trial-1-unrelated-9", "trial_type": "html-keyboard-response", "trial_index": 190, "time_elapsed": 504712, "internal_node_id": "0.0-8.0-4.0"}}, {"uniqueid": "w39558626:a27378966", "current_trial": 191, "dateTime": 1664555426572, "trialdata": {"rt": 626, "stimulus": "<p id='stroop-text' class='stroop-green'>YELLOW</p>", "response": "y", "stimulus-type": "incongruent", "word": "yellow", "color": "green", "correct_response": "g", "trial_id": "stroop-trial-1-incongruent-28", "trial_type": "html-keyboard-response", "trial_index": 191, "time_elapsed": 505849, "internal_node_id": "0.0-8.0-5.0"}}, {"uniqueid": "w39558626:a27378966", "current_trial": 192, "dateTime": 1664555428012, "trialdata": {"rt": 926, "stimulus": "<p id='stroop-text' class='stroop-blue'>STONE</p>", "response": "b", "stimulus-type": "unrelated", "word": "STONE", "color": "blue", "correct_response": "b", "trial_id": "stroop-trial-1-unrelated-29", "trial_type": "html-keyboard-response", "trial_index": 192, "time_elapsed": 507289, "internal_node_id": "0.0-8.0-6.0"}}, {"uniqueid": "w39558626:a27378966", "current_trial": 193, "dateTime": 1664555429013, "trialdata": {"rt": 480, "stimulus": "<p id='stroop-text' class='stroop-green'>RED</p>", "response": "g", "stimulus-type": "incongruent", "word": "red", "color": "green", "correct_response": "g", "trial_id": "stroop-trial-1-incongruent-2", "trial_type": "html-keyboard-response", "trial_index": 193, "time_elapsed": 508289, "internal_node_id": "0.0-8.0-7.0"}}, {"uniqueid": "w39558626:a27378966", "current_trial": 194, "dateTime": 1664555430067, "trialdata": {"rt": 546, "stimulus": "<p id='stroop-text' class='stroop-blue'>YELLOW</p>", "response": "b", "stimulus-type": "incongruent", "word": "yellow", "color": "blue", "correct_response": "b", "trial_id": "stroop-trial-1-incongruent-1", "trial_type": "html-keyboard-response", "trial_index": 194, "time_elapsed": 509344, "internal_node_id": "0.0-8.0-8.0"}}, {"uniqueid": "w39558626:a27378966", "current_trial": 195, "dateTime": 1664555431661, "trialdata": {"rt": 1078, "stimulus": "<p id='stroop-text' class='stroop-red'>WINDOW</p>", "response": "r", "stimulus-type": "unrelated", "word": "WINDOW", "color": "red", "correct_response": "r", "trial_id": "stroop-trial-1-unrelated-26", "trial_type": "html-keyboard-response", "trial_index": 195, "time_elapsed": 510938, "internal_node_id": "0.0-8.0-9.0"}}, {"uniqueid": "w39558626:a27378966", "current_trial": 196, "dateTime": 1664555432884, "trialdata": {"rt": 712, "stimulus": "<p id='stroop-text' class='stroop-yellow'>RED</p>", "response": "y", "stimulus-type": "incongruent", "word": "red", "color": "yellow", "correct_response": "y", "trial_id": "stroop-trial-1-incongruent-12", "trial_type": "html-keyboard-response", "trial_index": 196, "time_elapsed": 512161, "internal_node_id": "0.0-8.0-10.0"}}, {"uniqueid": "w39558626:a27378966", "current_trial": 197, "dateTime": 1664555433997, "trialdata": {"rt": 594, "stimulus": "<p id='stroop-text' class='stroop-red'>WINDOW</p>", "response": "r", "stimulus-type": "unrelated", "word": "WINDOW", "color": "red", "correct_response": "r", "trial_id": "stroop-trial-1-unrelated-8", "trial_type": "html-keyboard-response", "trial_index": 197, "time_elapsed": 513274, "internal_node_id": "0.0-8.0-11.0"}}, {"uniqueid": "w39558626:a27378966", "current_trial": 198, "dateTime": 1664555435109, "trialdata": {"rt": 594, "stimulus": "<p id='stroop-text' class='stroop-yellow'>YELLOW</p>", "response": "y", "stimulus-type": "congruent", "word": "yellow", "color": "yellow", "correct_response": "y", "trial_id": "stroop-trial-1-congruent-22", "trial_type": "html-keyboard-response", "trial_index": 198, "time_elapsed": 514386, "internal_node_id": "0.0-8.0-12.0"}}, {"uniqueid": "w39558626:a27378966", "current_trial": 199, "dateTime": 1664555436203, "trialdata": {"rt": 580, "stimulus": "<p id='stroop-text' class='stroop-red'>STONE</p>", "response": "r", "stimulus-type": "unrelated", "word": "STONE", "color": "red", "correct_response": "r", "trial_id": "stroop-trial-1-unrelated-11", "trial_type": "html-keyboard-response", "trial_index": 199, "time_elapsed": 515480, "internal_node_id": "0.0-8.0-13.0"}}, {"uniqueid": "w39558626:a27378966", "current_trial": 200, "dateTime": 1664555437195, "trialdata": {"rt": 477, "stimulus": "<p id='stroop-text' class='stroop-red'>RED</p>", "response": "r", "stimulus-type": "congruent", "word": "red", "color": "red", "correct_response": "r", "trial_id": "stroop-trial-1-congruent-25", "trial_type": "html-keyboard-response", "trial_index": 200, "time_elapsed": 516473, "internal_node_id": "0.0-8.0-14.0"}}, {"uniqueid": "w39558626:a27378966", "current_trial": 201, "dateTime": 1664555438957, "trialdata": {"rt": 1247, "stimulus": "<p id='stroop-text' class='stroop-yellow'>SHIP</p>", "response": "y", "stimulus-type": "unrelated", "word": "SHIP", "color": "yellow", "correct_response": "y", "trial_id": "stroop-trial-1-unrelated-21", "trial_type": "html-keyboard-response", "trial_index": 201, "time_elapsed": 518234, "internal_node_id": "0.0-8.0-15.0"}}, {"uniqueid": "w39558626:a27378966", "current_trial": 202, "dateTime": 1664555440157, "trialdata": {"rt": 692, "stimulus": "<p id='stroop-text' class='stroop-green'>FORK</p>", "response": "g", "stimulus-type": "unrelated", "word": "FORK", "color": "green", "correct_response": "g", "trial_id": "stroop-trial-1-unrelated-14", "trial_type": "html-keyboard-response", "trial_index": 202, "time_elapsed": 519434, "internal_node_id": "0.0-8.0-16.0"}}, {"uniqueid": "w39558626:a27378966", "current_trial": 203, "dateTime": 1664555441285, "trialdata": {"rt": 616, "stimulus": "<p id='stroop-text' class='stroop-green'>BRAIN</p>", "response": "g", "stimulus-type": "unrelated", "word": "BRAIN", "color": "green", "correct_response": "g", "trial_id": "stroop-trial-1-unrelated-19", "trial_type": "html-keyboard-response", "trial_index": 203, "time_elapsed": 520561, "internal_node_id": "0.0-8.0-17.0"}}, {"uniqueid": "w39558626:a27378966", "current_trial": 204, "dateTime": 1664555442387, "trialdata": {"rt": 583, "stimulus": "<p id='stroop-text' class='stroop-yellow'>MONKEY</p>", "response": "y", "stimulus-type": "unrelated", "word": "MONKEY", "color": "yellow", "correct_response": "y", "trial_id": "stroop-trial-1-unrelated-18", "trial_type": "html-keyboard-response", "trial_index": 204, "time_elapsed": 521664, "internal_node_id": "0.0-8.0-18.0"}}, {"uniqueid": "w39558626:a27378966", "current_trial": 205, "dateTime": 1664555443484, "trialdata": {"rt": 583, "stimulus": "<p id='stroop-text' class='stroop-blue'>STONE</p>", "response": "b", "stimulus-type": "unrelated", "word": "STONE", "color": "blue", "correct_response": "b", "trial_id": "stroop-trial-1-unrelated-22", "trial_type": "html-keyboard-response", "trial_index": 205, "time_elapsed": 522762, "internal_node_id": "0.0-8.0-19.0"}}, {"uniqueid": "w39558626:a27378966", "current_trial": 206, "dateTime": 1664555444559, "trialdata": {"rt": 560, "stimulus": "<p id='stroop-text' class='stroop-red'>RED</p>", "response": "r", "stimulus-type": "congruent", "word": "red", "color": "red", "correct_response": "r", "trial_id": "stroop-trial-1-congruent-1", "trial_type": "html-keyboard-response", "trial_index": 206, "time_elapsed": 523837, "internal_node_id": "0.0-8.0-20.0"}}, {"uniqueid": "w39558626:a27378966", "current_trial": 207, "dateTime": 1664555445628, "trialdata": {"rt": 551, "stimulus": "<p id='stroop-text' class='stroop-red'>FORK</p>", "response": "r", "stimulus-type": "unrelated", "word": "FORK", "color": "red", "correct_response": "r", "trial_id": "stroop-trial-1-unrelated-10", "trial_type": "html-keyboard-response", "trial_index": 207, "time_elapsed": 524906, "internal_node_id": "0.0-8.0-21.0"}}, {"uniqueid": "w39558626:a27378966", "current_trial": 208, "dateTime": 1664555446508, "trialdata": {"rt": 367, "stimulus": "<p id='stroop-text' class='stroop-red'>RED</p>", "response": "r", "stimulus-type": "congruent", "word": "red", "color": "red", "correct_response": "r", "trial_id": "stroop-trial-1-congruent-26", "trial_type": "html-keyboard-response", "trial_index": 208, "time_elapsed": 525786, "internal_node_id": "0.0-8.0-22.0"}}, {"uniqueid": "w39558626:a27378966", "current_trial": 209, "dateTime": 1664555447477, "trialdata": {"rt": 451, "stimulus": "<p id='stroop-text' class='stroop-blue'>BLUE</p>", "response": "b", "stimulus-type": "congruent", "word": "blue", "color": "blue", "correct_response": "b", "trial_id": "stroop-trial-1-congruent-11", "trial_type": "html-keyboard-response", "trial_index": 209, "time_elapsed": 526754, "internal_node_id": "0.0-8.0-23.0"}}, {"uniqueid": "w39558626:a27378966", "current_trial": 210, "dateTime": 1664555448557, "trialdata": {"rt": 574, "stimulus": "<p id='stroop-text' class='stroop-yellow'>YELLOW</p>", "response": "y", "stimulus-type": "congruent", "word": "yellow", "color": "yellow", "correct_response": "y", "trial_id": "stroop-trial-1-congruent-2", "trial_type": "html-keyboard-response", "trial_index": 210, "time_elapsed": 527834, "internal_node_id": "0.0-8.0-24.0"}}, {"uniqueid": "w39558626:a27378966", "current_trial": 211, "dateTime": 1664555449533, "trialdata": {"rt": 469, "stimulus": "<p id='stroop-text' class='stroop-yellow'>YELLOW</p>", "response": "y", "stimulus-type": "congruent", "word": "yellow", "color": "yellow", "correct_response": "y", "trial_id": "stroop-trial-1-congruent-6", "trial_type": "html-keyboard-response", "trial_index": 211, "time_elapsed": 528810, "internal_node_id": "0.0-8.0-25.0"}}, {"uniqueid": "w39558626:a27378966", "current_trial": 212, "dateTime": 1664555450738, "trialdata": {"rt": 689, "stimulus": "<p id='stroop-text' class='stroop-blue'>GREEN</p>", "response": "b", "stimulus-type": "incongruent", "word": "green", "color": "blue", "correct_response": "b", "trial_id": "stroop-trial-1-incongruent-30", "trial_type": "html-keyboard-response", "trial_index": 212, "time_elapsed": 530016, "internal_node_id": "0.0-8.0-26.0"}}, {"uniqueid": "w39558626:a27378966", "current_trial": 213, "dateTime": 1664555451908, "trialdata": {"rt": 663, "stimulus": "<p id='stroop-text' class='stroop-red'>GREEN</p>", "response": "r", "stimulus-type": "incongruent", "word": "green", "color": "red", "correct_response": "r", "trial_id": "stroop-trial-1-incongruent-25", "trial_type": "html-keyboard-response", "trial_index": 213, "time_elapsed": 531185, "internal_node_id": "0.0-8.0-27.0"}}, {"uniqueid": "w39558626:a27378966", "current_trial": 214, "dateTime": 1664555453133, "trialdata": {"rt": 709, "stimulus": "<p id='stroop-text' class='stroop-green'>BLUE</p>", "response": "g", "stimulus-type": "incongruent", "word": "blue", "color": "green", "correct_response": "g", "trial_id": "stroop-trial-1-incongruent-23", "trial_type": "html-keyboard-response", "trial_index": 214, "time_elapsed": 532410, "internal_node_id": "0.0-8.0-28.0"}}, {"uniqueid": "w39558626:a27378966", "current_trial": 215, "dateTime": 1664555454197, "trialdata": {"rt": 555, "stimulus": "<p id='stroop-text' class='stroop-blue'>BLUE</p>", "response": "b", "stimulus-type": "congruent", "word": "blue", "color": "blue", "correct_response": "b", "trial_id": "stroop-trial-1-congruent-27", "trial_type": "html-keyboard-response", "trial_index": 215, "time_elapsed": 533474, "internal_node_id": "0.0-8.0-29.0"}}, {"uniqueid": "w39558626:a27378966", "current_trial": 216, "dateTime": 1664555455100, "trialdata": {"rt": 392, "stimulus": "<p id='stroop-text' class='stroop-blue'>YELLOW</p>", "response": "b", "stimulus-type": "incongruent", "word": "yellow", "color": "blue", "correct_response": "b", "trial_id": "stroop-trial-1-incongruent-9", "trial_type": "html-keyboard-response", "trial_index": 216, "time_elapsed": 534378, "internal_node_id": "0.0-8.0-30.0"}}, {"uniqueid": "w39558626:a27378966", "current_trial": 217, "dateTime": 1664555456189, "trialdata": {"rt": 567, "stimulus": "<p id='stroop-text' class='stroop-red'>BLUE</p>", "response": "r", "stimulus-type": "incongruent", "word": "blue", "color": "red", "correct_response": "r", "trial_id": "stroop-trial-1-incongruent-19", "trial_type": "html-keyboard-response", "trial_index": 217, "time_elapsed": 535466, "internal_node_id": "0.0-8.0-31.0"}}, {"uniqueid": "w39558626:a27378966", "current_trial": 218, "dateTime": 1664555457116, "trialdata": {"rt": 410, "stimulus": "<p id='stroop-text' class='stroop-red'>YELLOW</p>", "response": "r", "stimulus-type": "incongruent", "word": "yellow", "color": "red", "correct_response": "r", "trial_id": "stroop-trial-1-incongruent-8", "trial_type": "html-keyboard-response", "trial_index": 218, "time_elapsed": 536393, "internal_node_id": "0.0-8.0-32.0"}}, {"uniqueid": "w39558626:a27378966", "current_trial": 219, "dateTime": 1664555458388, "trialdata": {"rt": 754, "stimulus": "<p id='stroop-text' class='stroop-blue'>SHIP</p>", "response": "b", "stimulus-type": "unrelated", "word": "SHIP", "color": "blue", "correct_response": "b", "trial_id": "stroop-trial-1-unrelated-1", "trial_type": "html-keyboard-response", "trial_index": 219, "time_elapsed": 537666, "internal_node_id": "0.0-8.0-33.0"}}, {"uniqueid": "w39558626:a27378966", "current_trial": 220, "dateTime": 1664555459381, "trialdata": {"rt": 483, "stimulus": "<p id='stroop-text' class='stroop-blue'>BLUE</p>", "response": "b", "stimulus-type": "congruent", "word": "blue", "color": "blue", "correct_response": "b", "trial_id": "stroop-trial-1-congruent-10", "trial_type": "html-keyboard-response", "trial_index": 220, "time_elapsed": 538658, "internal_node_id": "0.0-8.0-34.0"}}, {"uniqueid": "w39558626:a27378966", "current_trial": 221, "dateTime": 1664555460347, "trialdata": {"rt": 450, "stimulus": "<p id='stroop-text' class='stroop-blue'>YELLOW</p>", "response": "y", "stimulus-type": "incongruent", "word": "yellow", "color": "blue", "correct_response": "b", "trial_id": "stroop-trial-1-incongruent-4", "trial_type": "html-keyboard-response", "trial_index": 221, "time_elapsed": 539625, "internal_node_id": "0.0-8.0-35.0"}}, {"uniqueid": "w39558626:a27378966", "current_trial": 222, "dateTime": 1664555461407, "trialdata": {"rt": 549, "stimulus": "<p id='stroop-text' class='stroop-yellow'>FORK</p>", "response": "y", "stimulus-type": "unrelated", "word": "FORK", "color": "yellow", "correct_response": "y", "trial_id": "stroop-trial-1-unrelated-15", "trial_type": "html-keyboard-response", "trial_index": 222, "time_elapsed": 540685, "internal_n