{"condition": 0, "counterbalance": 0, "assignmentId": "a31987482", "workerId": "w58443812", "hitId": "h16309341", "currenttrial": 971, "bonus": 0, "data": [{"uniqueid": "w58443812:a31987482", "current_trial": 0, "dateTime": 1664555099796, "trialdata": {"success": true, "trial_type": "fullscreen", "trial_index": 0, "time_elapsed": 4227, "internal_node_id": "0.0-0.0"}}, {"uniqueid": "w58443812:a31987482", "current_trial": 1, "dateTime": 1664555110515, "trialdata": {"view_history": [{"page_index": 0, "viewing_time": 10715}], "rt": 10716, "trial_id": "exp_instructions_distractor", "trial_type": "instructions", "trial_index": 1, "time_elapsed": 14946, "internal_node_id": "0.0-1.0"}}, {"uniqueid": "w58443812:a31987482", "current_trial": 2, "dateTime": 1664555151611, "trialdata": {"view_history": [{"page_index": 0, "viewing_time": 41095}], "rt": 41095, "trial_id": "color_game_instructions", "trial_type": "instructions", "trial_index": 2, "time_elapsed": 56041, "internal_node_id": "0.0-2.0"}}, {"uniqueid": "w58443812:a31987482", "current_trial": 3, "dateTime": 1664555169124, "trialdata": {"rt": 17512, "stimulus": "<h1> Get ready to start the game! </h1>\n\nThank you for reading the instructions. Get ready start with the first of 5 block(s) of this game.\n<br><br>\nIn this first block, you will complete 90 rounds of this game before moving on.\n<br><br>\nRemember, the better you perform, the bigger your bonus will be!\n<br><br>\n<div style='text-align: center;'>Press <code>space</code> to begin.</div>", "response": " ", "trial_id": "stroop_1_ready_1", "trial_type": "html-keyboard-response", "trial_index": 3, "time_elapsed": 73555, "internal_node_id": "0.0-3.0"}}, {"uniqueid": "w58443812:a31987482", "current_trial": 4, "dateTime": 1664555171028, "trialdata": {"rt": 1895, "stimulus": "<p id='stroop-text' class='stroop-green'>BOTTLE</p>", "response": "g", "stimulus-type": "unrelated", "word": "BOTTLE", "color": "green", "correct_response": "g", "trial_id": "stroop-trial-1-unrelated-1", "trial_type": "html-keyboard-response", "trial_index": 4, "time_elapsed": 75458, "internal_node_id": "0.0-4.0-0.0"}}, {"uniqueid": "w58443812:a31987482", "current_trial": 5, "dateTime": 1664555172379, "trialdata": {"rt": 850, "stimulus": "<p id='stroop-text' class='stroop-green'>GREEN</p>", "response": "g", "stimulus-type": "congruent", "word": "green", "color": "green", "correct_response": "g", "trial_id": "stroop-trial-1-congruent-8", "trial_type": "html-keyboard-response", "trial_index": 5, "time_elapsed": 76810, "internal_node_id": "0.0-4.0-1.0"}}, {"uniqueid": "w58443812:a31987482", "current_trial": 6, "dateTime": 1664555174116, "trialdata": {"rt": 1234, "stimulus": "<p id='stroop-text' class='stroop-green'>YELLOW</p>", "response": "g", "stimulus-type": "incongruent", "word": "yellow", "color": "green", "correct_response": "g", "trial_id": "stroop-trial-1-incongruent-25", "trial_type": "html-keyboard-response", "trial_index": 6, "time_elapsed": 78546, "internal_node_id": "0.0-4.0-2.0"}}, {"uniqueid": "w58443812:a31987482", "current_trial": 7, "dateTime": 1664555175299, "trialdata": {"rt": 682, "stimulus": "<p id='stroop-text' class='stroop-green'>GREEN</p>", "response": "g", "stimulus-type": "congruent", "word": "green", "color": "green", "correct_response": "g", "trial_id": "stroop-trial-1-congruent-11", "trial_type": "html-keyboard-response", "trial_index": 7, "time_elapsed": 79730, "internal_node_id": "0.0-4.0-3.0"}}, {"uniqueid": "w58443812:a31987482", "current_trial": 8, "dateTime": 1664555176747, "trialdata": {"rt": 946, "stimulus": "<p id='stroop-text' class='stroop-yellow'>GREEN</p>", "response": "y", "stimulus-type": "incongruent", "word": "green", "color": "yellow", "correct_response": "y", "trial_id": "stroop-trial-1-incongruent-3", "trial_type": "html-keyboard-response", "trial_index": 8, "time_elapsed": 81178, "internal_node_id": "0.0-4.0-4.0"}}, {"uniqueid": "w58443812:a31987482", "current_trial": 9, "dateTime": 1664555178075, "trialdata": {"rt": 826, "stimulus": "<p id='stroop-text' class='stroop-red'>RED</p>", "response": "r", "stimulus-type": "congruent", "word": "red", "color": "red", "correct_response": "r", "trial_id": "stroop-trial-1-congruent-26", "trial_type": "html-keyboard-response", "trial_index": 9, "time_elapsed": 82506, "internal_node_id": "0.0-4.0-5.0"}}, {"uniqueid": "w58443812:a31987482", "current_trial": 10, "dateTime": 1664555179467, "trialdata": {"rt": 890, "stimulus": "<p id='stroop-text' class='stroop-blue'>SHIP</p>", "response": "b", "stimulus-type": "unrelated", "word": "SHIP", "color": "blue", "correct_response": "b", "trial_id": "stroop-trial-1-unrelated-30", "trial_type": "html-keyboard-response", "trial_index": 10, "time_elapsed": 83898, "internal_node_id": "0.0-4.0-6.0"}}, {"uniqueid": "w58443812:a31987482", "current_trial": 11, "dateTime": 1664555180843, "trialdata": {"rt": 874, "stimulus": "<p id='stroop-text' class='stroop-blue'>RED</p>", "response": "b", "stimulus-type": "incongruent", "word": "red", "color": "blue", "correct_response": "b", "trial_id": "stroop-trial-1-incongruent-2", "trial_type": "html-keyboard-response", "trial_index": 11, "time_elapsed": 85274, "internal_node_id": "0.0-4.0-7.0"}}, {"uniqueid": "w58443812:a31987482", "current_trial": 12, "dateTime": 1664555181899, "trialdata": {"rt": 554, "stimulus": "<p id='stroop-text' class='stroop-red'>YELLOW</p>", "response": "r", "stimulus-type": "incongruent", "word": "yellow", "color": "red", "correct_response": "r", "trial_id": "stroop-trial-1-incongruent-1", "trial_type": "html-keyboard-response", "trial_index": 12, "time_elapsed": 86330, "internal_node_id": "0.0-4.0-8.0"}}, {"uniqueid": "w58443812:a31987482", "current_trial": 13, "dateTime": 1664555182963, "trialdata": {"rt": 562, "stimulus": "<p id='stroop-text' class='stroop-blue'>BLUE</p>", "response": "b", "stimulus-type": "congruent", "word": "blue", "color": "blue", "correct_response": "b", "trial_id": "stroop-trial-1-congruent-15", "trial_type": "html-keyboard-response", "trial_index": 13, "time_elapsed": 87394, "internal_node_id": "0.0-4.0-9.0"}}, {"uniqueid": "w58443812:a31987482", "current_trial": 14, "dateTime": 1664555183995, "trialdata": {"rt": 530, "stimulus": "<p id='stroop-text' class='stroop-green'>GREEN</p>", "response": "g", "stimulus-type": "congruent", "word": "green", "color": "green", "correct_response": "g", "trial_id": "stroop-trial-1-congruent-12", "trial_type": "html-keyboard-response", "trial_index": 14, "time_elapsed": 88426, "internal_node_id": "0.0-4.0-10.0"}}, {"uniqueid": "w58443812:a31987482", "current_trial": 15, "dateTime": 1664555184988, "trialdata": {"rt": 491, "stimulus": "<p id='stroop-text' class='stroop-blue'>BLUE</p>", "response": "b", "stimulus-type": "congruent", "word": "blue", "color": "blue", "correct_response": "b", "trial_id": "stroop-trial-1-congruent-5", "trial_type": "html-keyboard-response", "trial_index": 15, "time_elapsed": 89418, "internal_node_id": "0.0-4.0-11.0"}}, {"uniqueid": "w58443812:a31987482", "current_trial": 16, "dateTime": 1664555186907, "trialdata": {"rt": 1419, "stimulus": "<p id='stroop-text' class='stroop-green'>WINDOW</p>", "response": "g", "stimulus-type": "unrelated", "word": "WINDOW", "color": "green", "correct_response": "g", "trial_id": "stroop-trial-1-unrelated-19", "trial_type": "html-keyboard-response", "trial_index": 16, "time_elapsed": 91338, "internal_node_id": "0.0-4.0-12.0"}}, {"uniqueid": "w58443812:a31987482", "current_trial": 17, "dateTime": 1664555188259, "trialdata": {"rt": 848, "stimulus": "<p id='stroop-text' class='stroop-yellow'>RED</p>", "response": "y", "stimulus-type": "incongruent", "word": "red", "color": "yellow", "correct_response": "y", "trial_id": "stroop-trial-1-incongruent-28", "trial_type": "html-keyboard-response", "trial_index": 17, "time_elapsed": 92690, "internal_node_id": "0.0-4.0-13.0"}}, {"uniqueid": "w58443812:a31987482", "current_trial": 18, "dateTime": 1664555189227, "trialdata": {"rt": 466, "stimulus": "<p id='stroop-text' class='stroop-yellow'>GREEN</p>", "response": "y", "stimulus-type": "incongruent", "word": "green", "color": "yellow", "correct_response": "y", "trial_id": "stroop-trial-1-incongruent-29", "trial_type": "html-keyboard-response", "trial_index": 18, "time_elapsed": 93658, "internal_node_id": "0.0-4.0-14.0"}}, {"uniqueid": "w58443812:a31987482", "current_trial": 19, "dateTime": 1664555190635, "trialdata": {"rt": 906, "stimulus": "<p id='stroop-text' class='stroop-green'>GREEN</p>", "response": "g", "stimulus-type": "congruent", "word": "green", "color": "green", "correct_response": "g", "trial_id": "stroop-trial-1-congruent-16", "trial_type": "html-keyboard-response", "trial_index": 19, "time_elapsed": 95066, "internal_node_id": "0.0-4.0-15.0"}}, {"uniqueid": "w58443812:a31987482", "current_trial": 20, "dateTime": 1664555191611, "trialdata": {"rt": 474, "stimulus": "<p id='stroop-text' class='stroop-green'>YELLOW</p>", "response": "g", "stimulus-type": "incongruent", "word": "yellow", "color": "green", "correct_response": "g", "trial_id": "stroop-trial-1-incongruent-23", "trial_type": "html-keyboard-response", "trial_index": 20, "time_elapsed": 96042, "internal_node_id": "0.0-4.0-16.0"}}, {"uniqueid": "w58443812:a31987482", "current_trial": 21, "dateTime": 1664555192467, "trialdata": {"rt": 353, "stimulus": "<p id='stroop-text' class='stroop-blue'>BLUE</p>", "response": "b", "stimulus-type": "congruent", "word": "blue", "color": "blue", "correct_response": "b", "trial_id": "stroop-trial-1-congruent-10", "trial_type": "html-keyboard-response", "trial_index": 21, "time_elapsed": 96898, "internal_node_id": "0.0-4.0-17.0"}}, {"uniqueid": "w58443812:a31987482", "current_trial": 22, "dateTime": 1664555193459, "trialdata": {"rt": 489, "stimulus": "<p id='stroop-text' class='stroop-yellow'>YELLOW</p>", "response": "y", "stimulus-type": "congruent", "word": "yellow", "color": "yellow", "correct_response": "y", "trial_id": "stroop-trial-1-congruent-2", "trial_type": "html-keyboard-response", "trial_index": 22, "time_elapsed": 97890, "internal_node_id": "0.0-4.0-18.0"}}, {"uniqueid": "w58443812:a31987482", "current_trial": 23, "dateTime": 1664555194619, "trialdata": {"rt": 658, "stimulus": "<p id='stroop-text' class='stroop-blue'>GREEN</p>", "response": "b", "stimulus-type": "incongruent", "word": "green", "color": "blue", "correct_response": "b", "trial_id": "stroop-trial-1-incongruent-7", "trial_type": "html-keyboard-response", "trial_index": 23, "time_elapsed": 99050, "internal_node_id": "0.0-4.0-19.0"}}, {"uniqueid": "w58443812:a31987482", "current_trial": 24, "dateTime": 1664555195715, "trialdata": {"rt": 595, "stimulus": "<p id='stroop-text' class='stroop-red'>RED</p>", "response": "r", "stimulus-type": "congruent", "word": "red", "color": "red", "correct_response": "r", "trial_id": "stroop-trial-1-congruent-25", "trial_type": "html-keyboard-response", "trial_index": 24, "time_elapsed": 100146, "internal_node_id": "0.0-4.0-20.0"}}, {"uniqueid": "w58443812:a31987482", "current_trial": 25, "dateTime": 1664555196811, "trialdata": {"rt": 594, "stimulus": "<p id='stroop-text' class='stroop-blue'>STONE</p>", "response": "b", "stimulus-type": "unrelated", "word": "STONE", "color": "blue", "correct_response": "b", "trial_id": "stroop-trial-1-unrelated-21", "trial_type": "html-keyboard-response", "trial_index": 25, "time_elapsed": 101242, "internal_node_id": "0.0-4.0-21.0"}}, {"uniqueid": "w58443812:a31987482", "current_trial": 26, "dateTime": 1664555197739, "trialdata": {"rt": 426, "stimulus": "<p id='stroop-text' class='stroop-blue'>MONKEY</p>", "response": "b", "stimulus-type": "unrelated", "word": "MONKEY", "color": "blue", "correct_response": "b", "trial_id": "stroop-trial-1-unrelated-8", "trial_type": "html-keyboard-response", "trial_index": 26, "time_elapsed": 102170, "internal_node_id": "0.0-4.0-22.0"}}, {"uniqueid": "w58443812:a31987482", "current_trial": 27, "dateTime": 1664555198699, "trialdata": {"rt": 459, "stimulus": "<p id='stroop-text' class='stroop-green'>GREEN</p>", "response": "g", "stimulus-type": "congruent", "word": "green", "color": "green", "correct_response": "g", "trial_id": "stroop-trial-1-congruent-3", "trial_type": "html-keyboard-response", "trial_index": 27, "time_elapsed": 103130, "internal_node_id": "0.0-4.0-23.0"}}, {"uniqueid": "w58443812:a31987482", "current_trial": 28, "dateTime": 1664555199675, "trialdata": {"rt": 474, "stimulus": "<p id='stroop-text' class='stroop-blue'>BLUE</p>", "response": "b", "stimulus-type": "congruent", "word": "blue", "color": "blue", "correct_response": "b", "trial_id": "stroop-trial-1-congruent-30", "trial_type": "html-keyboard-response", "trial_index": 28, "time_elapsed": 104106, "internal_node_id": "0.0-4.0-24.0"}}, {"uniqueid": "w58443812:a31987482", "current_trial": 29, "dateTime": 1664555200804, "trialdata": {"rt": 626, "stimulus": "<p id='stroop-text' class='stroop-red'>MONKEY</p>", "response": "r", "stimulus-type": "unrelated", "word": "MONKEY", "color": "red", "correct_response": "r", "trial_id": "stroop-trial-1-unrelated-15", "trial_type": "html-keyboard-response", "trial_index": 29, "time_elapsed": 105235, "internal_node_id": "0.0-4.0-25.0"}}, {"uniqueid": "w58443812:a31987482", "current_trial": 30, "dateTime": 1664555201923, "trialdata": {"rt": 616, "stimulus": "<p id='stroop-text' class='stroop-red'>GREEN</p>", "response": "r", "stimulus-type": "incongruent", "word": "green", "color": "red", "correct_response": "r", "trial_id": "stroop-trial-1-incongruent-14", "trial_type": "html-keyboard-response", "trial_index": 30, "time_elapsed": 106354, "internal_node_id": "0.0-4.0-26.0"}}, {"uniqueid": "w58443812:a31987482", "current_trial": 31, "dateTime": 1664555203172, "trialdata": {"rt": 746, "stimulus": "<p id='stroop-text' class='stroop-blue'>BLUE</p>", "response": "b", "stimulus-type": "congruent", "word": "blue", "color": "blue", "correct_response": "b", "trial_id": "stroop-trial-1-congruent-27", "trial_type": "html-keyboard-response", "trial_index": 31, "time_elapsed": 107602, "internal_node_id": "0.0-4.0-27.0"}}, {"uniqueid": "w58443812:a31987482", "current_trial": 32, "dateTime": 1664555204211, "trialdata": {"rt": 537, "stimulus": "<p id='stroop-text' class='stroop-red'>GREEN</p>", "response": "r", "stimulus-type": "incongruent", "word": "green", "color": "red", "correct_response": "r", "trial_id": "stroop-trial-1-incongruent-9", "trial_type": "html-keyboard-response", "trial_index": 32, "time_elapsed": 108642, "internal_node_id": "0.0-4.0-28.0"}}, {"uniqueid": "w58443812:a31987482", "current_trial": 33, "dateTime": 1664555205123, "trialdata": {"rt": 409, "stimulus": "<p id='stroop-text' class='stroop-yellow'>BOAT</p>", "response": "y", "stimulus-type": "unrelated", "word": "BOAT", "color": "yellow", "correct_response": "y", "trial_id": "stroop-trial-1-unrelated-20", "trial_type": "html-keyboard-response", "trial_index": 33, "time_elapsed": 109554, "internal_node_id": "0.0-4.0-29.0"}}, {"uniqueid": "w58443812:a31987482", "current_trial": 34, "dateTime": 1664555206460, "trialdata": {"rt": 835, "stimulus": "<p id='stroop-text' class='stroop-green'>RED</p>", "response": "g", "stimulus-type": "incongruent", "word": "red", "color": "green", "correct_response": "g", "trial_id": "stroop-trial-1-incongruent-8", "trial_type": "html-keyboard-response", "trial_index": 34, "time_elapsed": 110891, "internal_node_id": "0.0-4.0-30.0"}}, {"uniqueid": "w58443812:a31987482", "current_trial": 35, "dateTime": 1664555207620, "trialdata": {"rt": 657, "stimulus": "<p id='stroop-text' class='stroop-yellow'>YELLOW</p>", "response": "y", "stimulus-type": "congruent", "word": "yellow", "color": "yellow", "correct_response": "y", "trial_id": "stroop-trial-1-congruent-23", "trial_type": "html-keyboard-response", "trial_index": 35, "time_elapsed": 112051, "internal_node_id": "0.0-4.0-31.0"}}, {"uniqueid": "w58443812:a31987482", "current_trial": 36, "dateTime": 1664555208668, "trialdata": {"rt": 547, "stimulus": "<p id='stroop-text' class='stroop-yellow'>RED</p>", "response": "y", "stimulus-type": "incongruent", "word": "red", "color": "yellow", "correct_response": "y", "trial_id": "stroop-trial-1-incongruent-13", "trial_type": "html-keyboard-response", "trial_index": 36, "time_elapsed": 113099, "internal_node_id": "0.0-4.0-32.0"}}, {"uniqueid": "w58443812:a31987482", "current_trial": 37, "dateTime": 1664555210212, "trialdata": {"rt": 1042, "stimulus": "<p id='stroop-text' class='stroop-green'>BOAT</p>", "response": "g", "stimulus-type": "unrelated", "word": "BOAT", "color": "green", "correct_response": "g", "trial_id": "stroop-trial-1-unrelated-4", "trial_type": "html-keyboard-response", "trial_index": 37, "time_elapsed": 114643, "internal_node_id": "0.0-4.0-33.0"}}, {"uniqueid": "w58443812:a31987482", "current_trial": 38, "dateTime": 1664555211188, "trialdata": {"rt": 474, "stimulus": "<p id='stroop-text' class='stroop-green'>GREEN</p>", "response": "g", "stimulus-type": "congruent", "word": "green", "color": "green", "correct_response": "g", "trial_id": "stroop-trial-1-congruent-1", "trial_type": "html-keyboard-response", "trial_index": 38, "time_elapsed": 115619, "internal_node_id": "0.0-4.0-34.0"}}, {"uniqueid": "w58443812:a31987482", "current_trial": 39, "dateTime": 1664555212148, "trialdata": {"rt": 458, "stimulus": "<p id='stroop-text' class='stroop-green'>DOG</p>", "response": "g", "stimulus-type": "unrelated", "word": "DOG", "color": "green", "correct_response": "g", "trial_id": "stroop-trial-1-unrelated-25", "trial_type": "html-keyboard-response", "trial_index": 39, "time_elapsed": 116579, "internal_node_id": "0.0-4.0-35.0"}}, {"uniqueid": "w58443812:a31987482", "current_trial": 40, "dateTime": 1664555213236, "trialdata": {"rt": 586, "stimulus": "<p id='stroop-text' class='stroop-yellow'>YELLOW</p>", "response": "y", "stimulus-type": "congruent", "word": "yellow", "color": "yellow", "correct_response": "y", "trial_id": "stroop-trial-1-congruent-17", "trial_type": "html-keyboard-response", "trial_index": 40, "time_elapsed": 117667, "internal_node_id": "0.0-4.0-36.0"}}, {"uniqueid": "w58443812:a31987482", "current_trial": 41, "dateTime": 1664555214540, "trialdata": {"rt": 788, "stimulus": "<p id='stroop-text' class='stroop-red'>BLUE</p>", "response": "r", "stimulus-type": "incongruent", "word": "blue", "color": "red", "correct_response": "r", "trial_id": "stroop-trial-1-incongruent-30", "trial_type": "html-keyboard-response", "trial_index": 41, "time_elapsed": 118971, "internal_node_id": "0.0-4.0-37.0"}}, {"uniqueid": "w58443812:a31987482", "current_trial": 42, "dateTime": 1664555215540, "trialdata": {"rt": 498, "stimulus": "<p id='stroop-text' class='stroop-red'>BOTTLE</p>", "response": "r", "stimulus-type": "unrelated", "word": "BOTTLE", "color": "red", "correct_response": "r", "trial_id": "stroop-trial-1-unrelated-27", "trial_type": "html-keyboard-response", "trial_index": 42, "time_elapsed": 119971, "internal_node_id": "0.0-4.0-38.0"}}, {"uniqueid": "w58443812:a31987482", "current_trial": 43, "dateTime": 1664555216684, "trialdata": {"rt": 642, "stimulus": "<p id='stroop-text' class='stroop-blue'>DOG</p>", "response": "b", "stimulus-type": "unrelated", "word": "DOG", "color": "blue", "correct_response": "b", "trial_id": "stroop-trial-1-unrelated-10", "trial_type": "html-keyboard-response", "trial_index": 43, "time_elapsed": 121115, "internal_node_id": "0.0-4.0-39.0"}}, {"uniqueid": "w58443812:a31987482", "current_trial": 44, "dateTime": 1664555217764, "trialdata": {"rt": 577, "stimulus": "<p id='stroop-text' class='stroop-blue'>DOG</p>", "response": "b", "stimulus-type": "unrelated", "word": "DOG", "color": "blue", "correct_response": "b", "trial_id": "stroop-trial-1-unrelated-29", "trial_type": "html-keyboard-response", "trial_index": 44, "time_elapsed": 122195, "internal_node_id": "0.0-4.0-40.0"}}, {"uniqueid": "w58443812:a31987482", "current_trial": 45, "dateTime": 1664555218932, "trialdata": {"rt": 666, "stimulus": "<p id='stroop-text' class='stroop-yellow'>SHIP</p>", "response": "y", "stimulus-type": "unrelated", "word": "SHIP", "color": "yellow", "correct_response": "y", "trial_id": "stroop-trial-1-unrelated-14", "trial_type": "html-keyboard-response", "trial_index": 45, "time_elapsed": 123363, "internal_node_id": "0.0-4.0-41.0"}}, {"uniqueid": "w58443812:a31987482", "current_trial": 46, "dateTime": 1664555219988, "trialdata": {"rt": 548, "stimulus": "<p id='stroop-text' class='stroop-blue'>WINDOW</p>", "response": "b", "stimulus-type": "unrelated", "word": "WINDOW", "color": "blue", "correct_response": "b", "trial_id": "stroop-trial-1-unrelated-7", "trial_type": "html-keyboard-response", "trial_index": 46, "time_elapsed": 124419, "internal_node_id": "0.0-4.0-42.0"}}, {"uniqueid": "w58443812:a31987482", "current_trial": 47, "dateTime": 1664555221316, "trialdata": {"rt": 825, "stimulus": "<p id='stroop-text' class='stroop-green'>RED</p>", "response": "g", "stimulus-type": "incongruent", "word": "red", "color": "green", "correct_response": "g", "trial_id": "stroop-trial-1-incongruent-4", "trial_type": "html-keyboard-response", "trial_index": 47, "time_elapsed": 125747, "internal_node_id": "0.0-4.0-43.0"}}, {"uniqueid": "w58443812:a31987482", "current_trial": 48, "dateTime": 1664555222508, "trialdata": {"rt": 689, "stimulus": "<p id='stroop-text' class='stroop-yellow'>BOTTLE</p>", "response": "y", "stimulus-type": "unrelated", "word": "BOTTLE", "color": "yellow", "correct_response": "y", "trial_id": "stroop-trial-1-unrelated-24", "trial_type": "html-keyboard-response", "trial_index": 48, "time_elapsed": 126939, "internal_node_id": "0.0-4.0-44.0"}}, {"uniqueid": "w58443812:a31987482", "current_trial": 49, "dateTime": 1664555223516, "trialdata": {"rt": 507, "stimulus": "<p id='stroop-text' class='stroop-yellow'>GREEN</p>", "response": "y", "stimulus-type": "incongruent", "word": "green", "color": "yellow", "correct_response": "y", "trial_id": "stroop-trial-1-incongruent-27", "trial_type": "html-keyboard-response", "trial_index": 49, "time_elapsed": 127947, "internal_node_id": "0.0-4.0-45.0"}}, {"uniqueid": "w58443812:a31987482", "current_trial": 50, "dateTime": 1664555224596, "trialdata": {"rt": 578, "stimulus": "<p id='stroop-text' class='stroop-green'>BLUE</p>", "response": "g", "stimulus-type": "incongruent", "word": "blue", "color": "green", "correct_response": "g", "trial_id": "stroop-trial-1-incongruent-5", "trial_type": "html-keyboard-response", "trial_index": 50, "time_elapsed": 129027, "internal_node_id": "0.0-4.0-46.0"}}, {"uniqueid": "w58443812:a31987482", "current_trial": 51, "dateTime": 1664555225580, "trialdata": {"rt": 482, "stimulus": "<p id='stroop-text' class='stroop-blue'>GREEN</p>", "response": "b", "stimulus-type": "incongruent", "word": "green", "color": "blue", "correct_response": "b", "trial_id": "stroop-trial-1-incongruent-19", "trial_type": "html-keyboard-response", "trial_index": 51, "time_elapsed": 130011, "internal_node_id": "0.0-4.0-47.0"}}, {"uniqueid": "w58443812:a31987482", "current_trial": 52, "dateTime": 1664555226652, "trialdata": {"rt": 570, "stimulus": "<p id='stroop-text' class='stroop-blue'>BOAT</p>", "response": "b", "stimulus-type": "unrelated", "word": "BOAT", "color": "blue", "correct_response": "b", "trial_id": "stroop-trial-1-unrelated-3", "trial_type": "html-keyboard-response", "trial_index": 52, "time_elapsed": 131083, "internal_node_id": "0.0-4.0-48.0"}}, {"uniqueid": "w58443812:a31987482", "current_trial": 53, "dateTime": 1664555227572, "trialdata": {"rt": 417, "stimulus": "<p id='stroop-text' class='stroop-blue'>GREEN</p>", "response": "b", "stimulus-type": "incongruent", "word": "green", "color": "blue", "correct_response": "b", "trial_id": "stroop-trial-1-incongruent-22", "trial_type": "html-keyboard-response", "trial_index": 53, "time_elapsed": 132003, "internal_node_id": "0.0-4.0-49.0"}}, {"uniqueid": "w58443812:a31987482", "current_trial": 54, "dateTime": 1664555228668, "trialdata": {"rt": 592, "stimulus": "<p id='stroop-text' class='stroop-green'>WINDOW</p>", "response": "g", "stimulus-type": "unrelated", "word": "WINDOW", "color": "green", "correct_response": "g", "trial_id": "stroop-trial-1-unrelated-11", "trial_type": "html-keyboard-response", "trial_index": 54, "time_elapsed": 133099, "internal_node_id": "0.0-4.0-50.0"}}, {"uniqueid": "w58443812:a31987482", "current_trial": 55, "dateTime": 1664555229580, "trialdata": {"rt": 395, "stimulus": "<p id='stroop-text' class='stroop-green'>YELLOW</p>", "response": "g", "stimulus-type": "incongruent", "word": "yellow", "color": "green", "correct_response": "g", "trial_id": "stroop-trial-1-incongruent-20", "trial_type": "html-keyboard-response", "trial_index": 55, "time_elapsed": 134011, "internal_node_id": "0.0-4.0-51.0"}}, {"uniqueid": "w58443812:a31987482", "current_trial": 56, "dateTime": 1664555231332, "trialdata": {"rt": 1250, "stimulus": "<p id='stroop-text' class='stroop-red'>BLUE</p>", "response": "r", "stimulus-type": "incongruent", "word": "blue", "color": "red", "correct_response": "r", "trial_id": "stroop-trial-1-incongruent-21", "trial_type": "html-keyboard-response", "trial_index": 56, "time_elapsed": 135763, "internal_node_id": "0.0-4.0-52.0"}}, {"uniqueid": "w58443812:a31987482", "current_trial": 57, "dateTime": 1664555232708, "trialdata": {"rt": 873, "stimulus": "<p id='stroop-text' class='stroop-yellow'>STONE</p>", "response": "y", "stimulus-type": "unrelated", "word": "STONE", "color": "yellow", "correct_response": "y", "trial_id": "stroop-trial-1-unrelated-13", "trial_type": "html-keyboard-response", "trial_index": 57, "time_elapsed": 137139, "internal_node_id": "0.0-4.0-53.0"}}, {"uniqueid": "w58443812:a31987482", "current_trial": 58, "dateTime": 1664555234300, "trialdata": {"rt": 1090, "stimulus": "<p id='stroop-text' class='stroop-red'>BLUE</p>", "response": "r", "stimulus-type": "incongruent", "word": "blue", "color": "red", "correct_response": "r", "trial_id": "stroop-trial-1-incongruent-16", "trial_type": "html-keyboard-response", "trial_index": 58, "time_elapsed": 138731, "internal_node_id": "0.0-4.0-54.0"}}, {"uniqueid": "w58443812:a31987482", "current_trial": 59, "dateTime": 1664555235412, "trialdata": {"rt": 609, "stimulus": "<p id='stroop-text' class='stroop-red'>DOG</p>", "response": "r", "stimulus-type": "unrelated", "word": "DOG", "color": "red", "correct_response": "r", "trial_id": "stroop-trial-1-unrelated-18", "trial_type": "html-keyboard-response", "trial_index": 59, "time_elapsed": 139843, "internal_node_id": "0.0-4.0-55.0"}}, {"uniqueid": "w58443812:a31987482", "current_trial": 60, "dateTime": 1664555236452, "trialdata": {"rt": 537, "stimulus": "<p id='stroop-text' class='stroop-red'>YELLOW</p>", "response": "r", "stimulus-type": "incongruent", "word": "yellow", "color": "red", "correct_response": "r", "trial_id": "stroop-trial-1-incongruent-18", "trial_type": "html-keyboard-response", "trial_index": 60, "time_elapsed": 140883, "internal_node_id": "0.0-4.0-56.0"}}, {"uniqueid": "w58443812:a31987482", "current_trial": 61, "dateTime": 1664555237364, "trialdata": {"rt": 411, "stimulus": "<p id='stroop-text' class='stroop-red'>YELLOW</p>", "response": "r", "stimulus-type": "incongruent", "word": "yellow", "color": "red", "correct_response": "r", "trial_id": "stroop-trial-1-incongruent-6", "trial_type": "html-keyboard-response", "trial_index": 61, "time_elapsed": 141795, "internal_node_id": "0.0-4.0-57.0"}}, {"uniqueid": "w58443812:a31987482", "current_trial": 62, "dateTime": 1664555238324, "trialdata": {"rt": 457, "stimulus": "<p id='stroop-text' class='stroop-red'>WINDOW</p>", "response": "r", "stimulus-type": "unrelated", "word": "WINDOW", "color": "red", "correct_response": "r", "trial_id": "stroop-trial-1-unrelated-5", "trial_type": "html-keyboard-response", "trial_index": 62, "time_elapsed": 142755, "internal_node_id": "0.0-4.0-58.0"}}, {"uniqueid": "w58443812:a31987482", "current_trial": 63, "dateTime": 1664555239396, "trialdata": {"rt": 570, "stimulus": "<p id='stroop-text' class='stroop-red'>CHAIR</p>", "response": "r", "stimulus-type": "unrelated", "word": "CHAIR", "color": "red", "correct_response": "r", "trial_id": "stroop-trial-1-unrelated-22", "trial_type": "html-keyboard-response", "trial_index": 63, "time_elapsed": 143827, "internal_node_id": "0.0-4.0-59.0"}}, {"uniqueid": "w58443812:a31987482", "current_trial": 64, "dateTime": 1664555240260, "trialdata": {"rt": 362, "stimulus": "<p id='stroop-text' class='stroop-red'>RED</p>", "response": "r", "stimulus-type": "congruent", "word": "red", "color": "red", "correct_response": "r", "trial_id": "stroop-trial-1-congruent-18", "trial_type": "html-keyboard-response", "trial_index": 64, "time_elapsed": 144691, "internal_node_id": "0.0-4.0-60.0"}}, {"uniqueid": "w58443812:a31987482", "current_trial": 65, "dateTime": 1664555241612, "trialdata": {"rt": 849, "stimulus": "<p id='stroop-text' class='stroop-yellow'>BOAT</p>", "response": "y", "stimulus-type": "unrelated", "word": "BOAT", "color": "yellow", "correct_response": "y", "trial_id": "stroop-trial-1-unrelated-23", "trial_type": "html-keyboard-response", "trial_index": 65, "time_elapsed": 146043, "internal_node_id": "0.0-4.0-61.0"}}, {"uniqueid": "w58443812:a31987482", "current_trial": 66, "dateTime": 1664555243292, "trialdata": {"rt": 1178, "stimulus": "<p id='stroop-text' class='stroop-green'>FORK</p>", "response": "g", "stimulus-type": "unrelated", "word": "FORK", "color": "green", "correct_response": "g", "trial_id": "stroop-trial-1-unrelated-6", "trial_type": "html-keyboard-response", "trial_index": 66, "time_elapsed": 147723, "internal_node_id": "0.0-4.0-62.0"}}, {"uniqueid": "w58443812:a31987482", "current_trial": 67, "dateTime": 1664555244956, "trialdata": {"rt": 1162, "stimulus": "<p id='stroop-text' class='stroop-yellow'>GREEN</p>", "response": "y", "stimulus-type": "incongruent", "word": "green", "color": "yellow", "correct_response": "y", "trial_id": "stroop-trial-1-incongruent-15", "trial_type": "html-keyboard-response", "trial_index": 67, "time_elapsed": 149387, "internal_node_id": "0.0-4.0-63.0"}}, {"uniqueid": "w58443812:a31987482", "current_trial": 68, "dateTime": 1664555246300, "trialdata": {"rt": 842, "stimulus": "<p id='stroop-text' class='stroop-red'>SHIP</p>", "response": "r", "stimulus-type": "unrelated", "word": "SHIP", "color": "red", "correct_response": "r", "trial_id": "stroop-trial-1-unrelated-12", "trial_type": "html-keyboard-response", "trial_index": 68, "time_elapsed": 150731, "internal_node_id": "0.0-4.0-64.0"}}, {"uniqueid": "w58443812:a31987482", "current_trial": 69, "dateTime": 1664555247380, "trialdata": {"rt": 578, "stimulus": "<p id='stroop-text' class='stroop-blue'>BLUE</p>", "response": "b", "stimulus-type": "congruent", "word": "blue", "color": "blue", "correct_response": "b", "trial_id": "stroop-trial-1-congruent-4", "trial_type": "html-keyboard-response", "trial_index": 69, "time_elapsed": 151811, "internal_node_id": "0.0-4.0-65.0"}}, {"uniqueid": "w58443812:a31987482", "current_trial": 70, "dateTime": 1664555248660, "trialdata": {"rt": 778, "stimulus": "<p id='stroop-text' class='stroop-yellow'>YELLOW</p>", "response": "y", "stimulus-type": "congruent", "word": "yellow", "color": "yellow", "correct_response": "y", "trial_id": "stroop-trial-1-congruent-28", "trial_type": "html-keyboard-response", "trial_index": 70, "time_elapsed": 153091, "internal_node_id": "0.0-4.0-66.0"}}, {"uniqueid": "w58443812:a31987482", "current_trial": 71, "dateTime": 1664555249652, "trialdata": {"rt": 490, "stimulus": "<p id='stroop-text' class='stroop-yellow'>YELLOW</p>", "response": "y", "stimulus-type": "congruent", "word": "yellow", "color": "yellow", "correct_response": "y", "trial_id": "stroop-trial-1-congruent-7", "trial_type": "html-keyboard-response", "trial_index": 71, "time_elapsed": 154083, "internal_node_id": "0.0-4.0-67.0"}}, {"uniqueid": "w58443812:a31987482", "current_trial": 72, "dateTime": 1664555250508, "trialdata": {"rt": 354, "stimulus": "<p id='stroop-text' class='stroop-yellow'>YELLOW</p>", "response": "y", "stimulus-type": "congruent", "word": "yellow", "color": "yellow", "correct_response": "y", "trial_id": "stroop-trial-1-congruent-21", "trial_type": "html-keyboard-response", "trial_index": 72, "time_elapsed": 154939, "internal_node_id": "0.0-4.0-68.0"}}, {"uniqueid": "w58443812:a31987482", "current_trial": 73, "dateTime": 1664555251932, "trialdata": {"rt": 923, "stimulus": "<p id='stroop-text' class='stroop-green'>YELLOW</p>", "response": "g", "stimulus-type": "incongruent", "word": "yellow", "color": "green", "correct_response": "g", "trial_id": "stroop-trial-1-incongruent-26", "trial_type": "html-keyboard-response", "trial_index": 73, "time_elapsed": 156363, "internal_node_id": "0.0-4.0-69.0"}}, {"uniqueid": "w58443812:a31987482", "current_trial": 74, "dateTime": 1664555252884, "trialdata": {"rt": 448, "stimulus": "<p id='stroop-text' class='stroop-green'>YELLOW</p>", "response": "y", "stimulus-type": "incongruent", "word": "yellow", "color": "green", "correct_response": "g", "trial_id": "stroop-trial-1-incongruent-11", "trial_type": "html-keyboard-response", "trial_index": 74, "time_elapsed": 157315, "internal_node_id": "0.0-4.0-70.0"}}, {"uniqueid": "w58443812:a31987482", "current_trial": 75, "dateTime": 1664555254340, "trialdata": {"rt": 953, "stimulus": "<p id='stroop-text' class='stroop-red'>BOAT</p>", "response": "r", "stimulus-type": "unrelated", "word": "BOAT", "color": "red", "correct_response": "r", "trial_id": "stroop-trial-1-unrelated-16", "trial_type": "html-keyboard-response", "trial_index": 75, "time_elapsed": 158771, "internal_node_id": "0.0-4.0-71.0"}}, {"uniqueid": "w58443812:a31987482", "current_trial": 76, "dateTime": 1664555255532, "trialdata": {"rt": 690, "stimulus": "<p id='stroop-text' class='stroop-blue'>YELLOW</p>", "response": "b", "stimulus-type": "incongruent", "word": "yellow", "color": "blue", "correct_response": "b", "trial_id": "stroop-trial-1-incongruent-24", "trial_type": "html-keyboard-response", "trial_index": 76, "time_elapsed": 159963, "internal_node_id": "0.0-4.0-72.0"}}, {"uniqueid": "w58443812:a31987482", "current_trial": 77, "dateTime": 1664555256844, "trialdata": {"rt": 809, "stimulus": "<p id='stroop-text' class='stroop-blue'>GREEN</p>", "response": "b", "stimulus-type": "incongruent", "word": "green", "color": "blue", "correct_response": "b", "trial_id": "stroop-trial-1-incongruent-10", "trial_type": "html-keyboard-response", "trial_index": 77, "time_elapsed": 161275, "internal_node_id": "0.0-4.0-73.0"}}, {"uniqueid": "w58443812:a31987482", "current_trial": 78, "dateTime": 1664555257876, "trialdata": {"rt": 530, "stimulus": "<p id='stroop-text' class='stroop-blue'>BLUE</p>", "response": "b", "stimulus-type": "congruent", "word": "blue", "color": "blue", "correct_response": "b", "trial_id": "stroop-trial-1-congruent-20", "trial_type": "html-keyboard-response", "trial_index": 78, "time_elapsed": 162307, "internal_node_id": "0.0-4.0-74.0"}}, {"uniqueid": "w58443812:a31987482", "current_trial": 79, "dateTime": 1664555258900, "trialdata": {"rt": 522, "stimulus": "<p id='stroop-text' class='stroop-blue'>YELLOW</p>", "response": "b", "stimulus-type": "incongruent", "word": "yellow", "color": "blue", "correct_response": "b", "trial_id": "stroop-trial-1-incongruent-17", "trial_type": "html-keyboard-response", "trial_index": 79, "time_elapsed": 163331, "internal_node_id": "0.0-4.0-75.0"}}, {"uniqueid": "w58443812:a31987482", "current_trial": 80, "dateTime": 1664555259956, "trialdata": {"rt": 553, "stimulus": "<p id='stroop-text' class='stroop-blue'>BLUE</p>", "response": "b", "stimulus-type": "congruent", "word": "blue", "color": "blue", "correct_response": "b", "trial_id": "stroop-trial-1-congruent-13", "trial_type": "html-keyboard-response", "trial_index": 80, "time_elapsed": 164387, "internal_node_id": "0.0-4.0-76.0"}}, {"uniqueid": "w58443812:a31987482", "current_trial": 81, "dateTime": 1664555261028, "trialdata": {"rt": 571, "stimulus": "<p id='stroop-text' class='stroop-blue'>MONKEY</p>", "response": "b", "stimulus-type": "unrelated", "word": "MONKEY", "color": "blue", "correct_response": "b", "trial_id": "stroop-trial-1-unrelated-2", "trial_type": "html-keyboard-response", "trial_index": 81, "time_elapsed": 165459, "internal_node_id": "0.0-4.0-77.0"}}, {"uniqueid": "w58443812:a31987482", "current_trial": 82, "dateTime": 1664555262940, "trialdata": {"rt": 1410, "stimulus": "<p id='stroop-text' class='stroop-green'>GREEN</p>", "response": "g", "stimulus-type": "congruent", "word": "green", "color": "green", "correct_response": "g", "trial_id": "stroop-trial-1-congruent-9", "trial_type": "html-keyboard-response", "trial_index": 82, "time_elapsed": 167371, "internal_node_id": "0.0-4.0-78.0"}}, {"uniqueid": "w58443812:a31987482", "current_trial": 83, "dateTime": 1664555264036, "trialdata": {"rt": 594, "stimulus": "<p id='stroop-text' class='stroop-blue'>BRAIN</p>", "response": "b", "stimulus-type": "unrelated", "word": "BRAIN", "color": "blue", "correct_response": "b", "trial_id": "stroop-trial-1-unrelated-17", "trial_type": "html-keyboard-response", "trial_index": 83, "time_elapsed": 168467, "internal_node_id": "0.0-4.0-79.0"}}, {"uniqueid": "w58443812:a31987482", "current_trial": 84, "dateTime": 1664555265068, "trialdata": {"rt": 530, "stimulus": "<p id='stroop-text' class='stroop-red'>RED</p>", "response": "r", "stimulus-type": "congruent", "word": "red", "color": "red", "correct_response": "r", "trial_id": "stroop-trial-1-congruent-29", "trial_type": "html-keyboard-response", "trial_index": 84, "time_elapsed": 169499, "internal_node_id": "0.0-4.0-80.0"}}, {"uniqueid": "w58443812:a31987482", "current_trial": 85, "dateTime": 1664555266108, "trialdata": {"rt": 538, "stimulus": "<p id='stroop-text' class='stroop-green'>GREEN</p>", "response": "g", "stimulus-type": "congruent", "word": "green", "color": "green", "correct_response": "g", "trial_id": "stroop-trial-1-congruent-14", "trial_type": "html-keyboard-response", "trial_index": 85, "time_elapsed": 170539, "internal_node_id": "0.0-4.0-81.0"}}, {"uniqueid": "w58443812:a31987482", "current_trial": 86, "dateTime": 1664555267156, "trialdata": {"rt": 546, "stimulus": "<p id='stroop-text' class='stroop-green'>GREEN</p>", "response": "g", "stimulus-type": "congruent", "word": "green", "color": "green", "correct_response": "g", "trial_id": "stroop-trial-1-congruent-24", "trial_type": "html-keyboard-response", "trial_index": 86, "time_elapsed": 171587, "internal_node_id": "0.0-4.0-82.0"}}, {"uniqueid": "w58443812:a31987482", "current_trial": 87, "dateTime": 1664555268124, "trialdata": {"rt": 466, "stimulus": "<p id='stroop-text' class='stroop-blue'>BOTTLE</p>", "response": "b", "stimulus-type": "unrelated", "word": "BOTTLE", "color": "blue", "correct_response": "b", "trial_id": "stroop-trial-1-unrelated-26", "trial_type": "html-keyboard-response", "trial_index": 87, "time_elapsed": 172555, "internal_node_id": "0.0-4.0-83.0"}}, {"uniqueid": "w58443812:a31987482", "current_trial": 88, "dateTime": 1664555269324, "trialdata": {"rt": 699, "stimulus": "<p id='stroop-text' class='stroop-yellow'>YELLOW</p>", "response": "y", "stimulus-type": "congruent", "word": "yellow", "color": "yellow", "correct_response": "y", "trial_id": "stroop-trial-1-congruent-6", "trial_type": "html-keyboard-response", "trial_index": 88, "time_elapsed": 173755, "internal_node_id": "0.0-4.0-84.0"}}, {"uniqueid": "w58443812:a31987482", "current_trial": 89, "dateTime": 1664555270884, "trialdata": {"rt": 1058, "stimulus": "<p id='stroop-text' class='stroop-blue'>BLUE</p>", "response": "b", "stimulus-type": "congruent", "word": "blue", "color": "blue", "correct_response": "b", "trial_id": "stroop-trial-1-congruent-19", "trial_type": "html-keyboard-response", "trial_index": 89, "time_elapsed": 175315, "internal_node_id": "0.0-4.0-85.0"}}, {"uniqueid": "w58443812:a31987482", "current_trial": 90, "dateTime": 1664555272300, "trialdata": {"rt": 914, "stimulus": "<p id='stroop-text' class='stroop-yellow'>YELLOW</p>", "response": "y", "stimulus-type": "congruent", "word": "yellow", "color": "yellow", "correct_response": "y", "trial_id": "stroop-trial-1-congruent-22", "trial_type": "html-keyboard-response", "trial_index": 90, "time_elapsed": 176731, "internal_node_id": "0.0-4.0-86.0"}}, {"uniqueid": "w58443812:a31987482", "current_trial": 91, "dateTime": 1664555273308, "trialdata": {"rt": 505, "stimulus": "<p id='stroop-text' class='stroop-yellow'>FORK</p>", "response": "y", "stimulus-type": "unrelated", "word": "FORK", "color": "yellow", "correct_response": "y", "trial_id": "stroop-trial-1-unrelated-28", "trial_type": "html-keyboard-response", "trial_index": 91, "time_elapsed": 177739, "internal_node_id": "0.0-4.0-87.0"}}, {"uniqueid": "w58443812:a31987482", "current_trial": 92, "dateTime": 1664555274780, "trialdata": {"rt": 970, "stimulus": "<p id='stroop-text' class='stroop-green'>BRIDGE</p>", "response": "g", "stimulus-type": "unrelated", "word": "BRIDGE", "color": "green", "correct_response": "g", "trial_id": "stroop-trial-1-unrelated-9", "trial_type": "html-keyboard-response", "trial_index": 92, "time_elapsed": 179211, "internal_node_id": "0.0-4.0-88.0"}}, {"uniqueid": "w58443812:a31987482", "current_trial": 93, "dateTime": 1664555276004, "trialdata": {"rt": 719, "stimulus": "<p id='stroop-text' class='stroop-red'>BLUE</p>", "response": "r", "stimulus-type": "incongruent", "word": "blue", "color": "red", "correct_response": "r", "trial_id": "stroop-trial-1-incongruent-12", "trial_type": "html-keyboard-response", "trial_index": 93, "time_elapsed": 180435, "internal_node_id": "0.0-4.0-89.0"}}, {"uniqueid": "w58443812:a31987482", "current_trial": 94, "dateTime": 1664555362020, "trialdata": {"rt": 85513, "stimulus": "  <h1> End of block! </h1>\n\n  You have reached the end of the block 1/5. If you need a short break, feel free to take one now before moving on.\n\n  <br><br>\n  In the next block, you will complete another 90 rounds of this game.\n\n  <br><br>\n  <div style='text-align: center;'>Press <code>space</code> to begin.</div>\n  <br><br>\n<div style='text-align: center;'>(If the experiment doesn't continue, try clicking on the text and then pressing <code>space</code>.)</div>", "response": " ", "trial_id": "stroop_1_ready_2", "trial_type": "html-keyboard-response", "trial_index": 94, "time_elapsed": 266451, "internal_node_id": "0.0-5.0"}}, {"uniqueid": "w58443812:a31987482", "current_trial": 95, "dateTime": 1664555363580, "trialdata": {"rt": 1558, "stimulus": "<p id='stroop-text' class='stroop-yellow'>BOAT</p>", "response": "y", "stimulus-type": "unrelated", "word": "BOAT", "color": "yellow", "correct_response": "y", "trial_id": "stroop-trial-1-unrelated-3", "trial_type": "html-keyboard-response", "trial_index": 95, "time_elapsed": 268010, "internal_node_id": "0.0-6.0-0.0"}}, {"uniqueid": "w58443812:a31987482", "current_trial": 96, "dateTime": 1664555364716, "trialdata": {"rt": 633, "stimulus": "<p id='stroop-text' class='stroop-red'>STONE</p>", "response": "r", "stimulus-type": "unrelated", "word": "STONE", "color": "red", "correct_response": "r", "trial_id": "stroop-trial-1-unrelated-26", "trial_type": "html-keyboard-response", "trial_index": 96, "time_elapsed": 269147, "internal_node_id": "0.0-6.0-1.0"}}, {"uniqueid": "w58443812:a31987482", "current_trial": 97, "dateTime": 1664555366212, "trialdata": {"rt": 985, "stimulus": "<p id='stroop-text' class='stroop-blue'>GREEN</p>", "response": "b", "stimulus-type": "incongruent", "word": "green", "color": "blue", "correct_response": "b", "trial_id": "stroop-trial-1-incongruent-30", "trial_type": "html-keyboard-response", "trial_index": 97, "time_elapsed": 270643, "internal_node_id": "0.0-6.0-2.0"}}, {"uniqueid": "w58443812:a31987482", "current_trial": 98, "dateTime": 1664555367564, "trialdata": {"rt": 850, "stimulus": "<p id='stroop-text' class='stroop-yellow'>YELLOW</p>", "response": "y", "stimulus-type": "congruent", "word": "yellow", "color": "yellow", "correct_response": "y", "trial_id": "stroop-trial-1-congruent-7", "trial_type": "html-keyboard-response", "trial_index": 98, "time_elapsed": 271994, "internal_node_id": "0.0-6.0-3.0"}}, {"uniqueid": "w58443812:a31987482", "current_trial": 99, "dateTime": 1664555368812, "trialdata": {"rt": 745, "stimulus": "<p id='stroop-text' class='stroop-green'>YELLOW</p>", "response": "g", "stimulus-type": "incongruent", "word": "yellow", "color": "green", "correct_response": "g", "trial_id": "stroop-trial-1-incongruent-27", "trial_type": "html-keyboard-response", "trial_index": 99, "time_elapsed": 273243, "internal_node_id": "0.0-6.0-4.0"}}, {"uniqueid": "w58443812:a31987482", "current_trial": 100, "dateTime": 1664555369868, "trialdata": {"rt": 554, "stimulus": "<p id='stroop-text' class='stroop-blue'>BLUE</p>", "response": "b", "stimulus-type": "congruent", "word": "blue", "color": "blue", "correct_response": "b", "trial_id": "stroop-trial-1-congruent-22", "trial_type": "html-keyboard-response", "trial_index": 100, "time_elapsed": 274298, "internal_node_id": "0.0-6.0-5.0"}}, {"uniqueid": "w58443812:a31987482", "current_trial": 101, "dateTime": 1664555370948, "trialdata": {"rt": 578, "stimulus": "<p id='stroop-text' class='stroop-green'>MONKEY</p>", "response": "g", "stimulus-type": "unrelated", "word": "MONKEY", "color": "green", "correct_response": "g", "trial_id": "stroop-trial-1-unrelated-25", "trial_type": "html-keyboard-response", "trial_index": 101, "time_elapsed": 275378, "internal_node_id": "0.0-6.0-6.0"}}, {"uniqueid": "w58443812:a31987482", "current_trial": 102, "dateTime": 1664555371844, "trialdata": {"rt": 394, "stimulus": "<p id='stroop-text' class='stroop-green'>WINDOW</p>", "response": "g", "stimulus-type": "unrelated", "word": "WINDOW", "color": "green", "correct_response": "g", "trial_id": "stroop-trial-1-unrelated-16", "trial_type": "html-keyboard-response", "trial_index": 102, "time_elapsed": 276275, "internal_node_id": "0.0-6.0-7.0"}}, {"uniqueid": "w58443812:a31987482", "current_trial": 103, "dateTime": 1664555372844, "trialdata": {"rt": 497, "stimulus": "<p id='stroop-text' class='stroop-yellow'>YELLOW</p>", "response": "y", "stimulus-type": "congruent", "word": "yellow", "color": "yellow", "correct_response": "y", "trial_id": "stroop-trial-1-congruent-30", "trial_type": "html-keyboard-response", "trial_index": 103, "time_elapsed": 277275, "internal_node_id": "0.0-6.0-8.0"}}, {"uniqueid": "w58443812:a31987482", "current_trial": 104, "dateTime": 1664555373908, "trialdata": {"rt": 561, "stimulus": "<p id='stroop-text' class='stroop-blue'>BRAIN</p>", "response": "b", "stimulus-type": "unrelated", "word": "BRAIN", "color": "blue", "correct_response": "b", "trial_id": "stroop-trial-1-unrelated-8", "trial_type": "html-keyboard-response", "trial_index": 104, "time_elapsed": 278338, "internal_node_id": "0.0-6.0-9.0"}}, {"uniqueid": "w58443812:a31987482", "current_trial": 105, "dateTime": 1664555374796, "trialdata": {"rt": 376, "stimulus": "<p id='stroop-text' class='stroop-blue'>SHIP</p>", "response": "b", "stimulus-type": "unrelated", "word": "SHIP", "color": "blue", "correct_response": "b", "trial_id": "stroop-trial-1-unrelated-21", "trial_type": "html-keyboard-response", "trial_index": 105, "time_elapsed": 279227, "internal_node_id": "0.0-6.0-10.0"}}, {"uniqueid": "w58443812:a31987482", "current_trial": 106, "dateTime": 1664555375644, "trialdata": {"rt": 336, "stimulus": "<p id='stroop-text' class='stroop-blue'>RED</p>", "response": "b", "stimulus-type": "incongruent", "word": "red", "color": "blue", "correct_response": "b", "trial_id": "stroop-trial-1-incongruent-11", "trial_type": "html-keyboard-response", "trial_index": 106, "time_elapsed": 280074, "internal_node_id": "0.0-6.0-11.0"}}, {"uniqueid": "w58443812:a31987482", "current_trial": 107, "dateTime": 1664555376652, "trialdata": {"rt": 506, "stimulus": "<p id='stroop-text' class='stroop-green'>CHAIR</p>", "response": "g", "stimulus-type": "unrelated", "word": "CHAIR", "color": "green", "correct_response": "g", "trial_id": "stroop-trial-1-unrelated-19", "trial_type": "html-keyboard-response", "trial_index": 107, "time_elapsed": 281083, "internal_node_id": "0.0-6.0-12.0"}}, {"uniqueid": "w58443812:a31987482", "current_trial": 108, "dateTime": 1664555377724, "trialdata": {"rt": 569, "stimulus": "<p id='stroop-text' class='stroop-blue'>BLUE</p>", "response": "b", "stimulus-type": "congruent", "word": "blue", "color": "blue", "correct_response": "b", "trial_id": "stroop-trial-1-congruent-8", "trial_type": "html-keyboard-response", "trial_index": 108, "time_elapsed": 282154, "internal_node_id": "0.0-6.0-13.0"}}, {"uniqueid": "w58443812:a31987482", "current_trial": 109, "dateTime": 1664555378820, "trialdata": {"rt": 593, "stimulus": "<p id='stroop-text' class='stroop-green'>BRAIN</p>", "response": "g", "stimulus-type": "unrelated", "word": "BRAIN", "color": "green", "correct_response": "g", "trial_id": "stroop-trial-1-unrelated-29", "trial_type": "html-keyboard-response", "trial_index": 109, "time_elapsed": 283250, "internal_node_id": "0.0-6.0-14.0"}}, {"uniqueid": "w58443812:a31987482", "current_trial": 110, "dateTime": 1664555379860, "trialdata": {"rt": 538, "stimulus": "<p id='stroop-text' class='stroop-red'>RED</p>", "response": "r", "stimulus-type": "congruent", "word": "red", "color": "red", "correct_response": "r", "trial_id": "stroop-trial-1-congruent-15", "trial_type": "html-keyboard-response", "trial_index": 110, "time_elapsed": 284291, "internal_node_id": "0.0-6.0-15.0"}}, {"uniqueid": "w58443812:a31987482", "current_trial": 111, "dateTime": 1664555380940, "trialdata": {"rt": 578, "stimulus": "<p id='stroop-text' class='stroop-yellow'>YELLOW</p>", "response": "y", "stimulus-type": "congruent", "word": "yellow", "color": "yellow", "correct_response": "y", "trial_id": "stroop-trial-1-congruent-9", "trial_type": "html-keyboard-response", "trial_index": 111, "time_elapsed": 285370, "internal_node_id": "0.0-6.0-16.0"}}, {"uniqueid": "w58443812:a31987482", "current_trial": 112, "dateTime": 1664555381860, "trialdata": {"rt": 418, "stimulus": "<p id='stroop-text' class='stroop-yellow'>YELLOW</p>", "response": "y", "stimulus-type": "congruent", "word": "yellow", "color": "yellow", "correct_response": "y", "trial_id": "stroop-trial-1-congruent-20", "trial_type": "html-keyboard-response", "trial_index": 112, "time_elapsed": 286290, "internal_node_id": "0.0-6.0-17.0"}}, {"uniqueid": "w58443812:a31987482", "current_trial": 113, "dateTime": 1664555383036, "trialdata": {"rt": 674, "stimulus": "<p id='stroop-text' class='stroop-green'>YELLOW</p>", "response": "g", "stimulus-type": "incongruent", "word": "yellow", "color": "green", "correct_response": "g", "trial_id": "stroop-trial-1-incongruent-13", "trial_type": "html-keyboard-response", "trial_index": 113, "time_elapsed": 287467, "internal_node_id": "0.0-6.0-18.0"}}, {"uniqueid": "w58443812:a31987482", "current_trial": 114, "dateTime": 1664555384668, "trialdata": {"rt": 1130, "stimulus": "<p id='stroop-text' class='stroop-green'>MONKEY</p>", "response": "g", "stimulus-type": "unrelated", "word": "MONKEY", "color": "green", "correct_response": "g", "trial_id": "stroop-trial-1-unrelated-11", "trial_type": "html-keyboard-response", "trial_index": 114, "time_elapsed": 289098, "internal_node_id": "0.0-6.0-19.0"}}, {"uniqueid": "w58443812:a31987482", "current_trial": 115, "dateTime": 1664555385572, "trialdata": {"rt": 401, "stimulus": "<p id='stroop-text' class='stroop-green'>GREEN</p>", "response": "g", "stimulus-type": "congruent", "word": "green", "color": "green", "correct_response": "g", "trial_id": "stroop-trial-1-congruent-1", "trial_type": "html-keyboard-response", "trial_index": 115, "time_elapsed": 290002, "internal_node_id": "0.0-6.0-20.0"}}, {"uniqueid": "w58443812:a31987482", "current_trial": 116, "dateTime": 1664555386652, "trialdata": {"rt": 578, "stimulus": "<p id='stroop-text' class='stroop-red'>RED</p>", "response": "r", "stimulus-type": "congruent", "word": "red", "color": "red", "correct_response": "r", "trial_id": "stroop-trial-1-congruent-4", "trial_type": "html-keyboard-response", "trial_index": 116, "time_elapsed": 291082, "internal_node_id": "0.0-6.0-21.0"}}, {"uniqueid": "w58443812:a31987482", "current_trial": 117, "dateTime": 1664555387764, "trialdata": {"rt": 610, "stimulus": "<p id='stroop-text' class='stroop-green'>BLUE</p>", "response": "b", "stimulus-type": "incongruent", "word": "blue", "color": "green", "correct_response": "g", "trial_id": "stroop-trial-1-incongruent-21", "trial_type": "html-keyboard-response", "trial_index": 117, "time_elapsed": 292195, "internal_node_id": "0.0-6.0-22.0"}}, {"uniqueid": "w58443812:a31987482", "current_trial": 118, "dateTime": 1664555389116, "trialdata": {"rt": 850, "stimulus": "<p id='stroop-text' class='stroop-blue'>RED</p>", "response": "b", "stimulus-type": "incongruent", "word": "red", "color": "blue", "correct_response": "b", "trial_id": "stroop-trial-1-incongruent-26", "trial_type": "html-keyboard-response", "trial_index": 118, "time_elapsed": 293547, "internal_node_id": "0.0-6.0-23.0"}}, {"uniqueid": "w58443812:a31987482", "current_trial": 119, "dateTime": 1664555391188, "trialdata": {"rt": 1570, "stimulus": "<p id='stroop-text' class='stroop-yellow'>YELLOW</p>", "response": "y", "stimulus-type": "congruent", "word": "yellow", "color": "yellow", "correct_response": "y", "trial_id": "stroop-trial-1-congruent-10", "trial_type": "html-keyboard-response", "trial_index": 119, "time_elapsed": 295618, "internal_node_id": "0.0-6.0-24.0"}}, {"uniqueid": "w58443812:a31987482", "current_trial": 120, "dateTime": 1664555393060, "trialdata": {"rt": 1370, "stimulus": "<p id='stroop-text' class='stroop-red'>CHAIR</p>", "response": "r", "stimulus-type": "unrelated", "word": "CHAIR", "color": "red", "correct_response": "r", "trial_id": "stroop-trial-1-unrelated-23", "trial_type": "html-keyboard-response", "trial_index": 120, "time_elapsed": 297491, "internal_node_id": "0.0-6.0-25.0"}}, {"uniqueid": "w58443812:a31987482", "current_trial": 121, "dateTime": 1664555394164, "trialdata": {"rt": 602, "stimulus": "<p id='stroop-text' class='stroop-red'>WINDOW</p>", "response": "r", "stimulus-type": "unrelated", "word": "WINDOW", "color": "red", "correct_response": "r", "trial_id": "stroop-trial-1-unrelated-18", "trial_type": "html-keyboard-response", "trial_index": 121, "time_elapsed": 298595, "internal_node_id": "0.0-6.0-26.0"}}, {"uniqueid": "w58443812:a31987482", "current_trial": 122, "dateTime": 1664555395204, "trialdata": {"rt": 538, "stimulus": "<p id='stroop-text' class='stroop-blue'>BLUE</p>", "response": "y", "stimulus-type": "congruent", "word": "blue", "color": "blue", "correct_response": "b", "trial_id": "stroop-trial-1-congruent-5", "trial_type": "html-keyboard-response", "trial_index": 122, "time_elapsed": 299635, "internal_node_id": "0.0-6.0-27.0"}}, {"uniqueid": "w58443812:a31987482", "current_trial": 123, "dateTime": 1664555396948, "trialdata": {"rt": 1241, "stimulus": "<p id='stroop-text' class='stroop-yellow'>RED</p>", "response": "y", "stimulus-type": "incongruent", "word": "red", "color": "yellow", "correct_response": "y", "trial_id": "stroop-trial-1-incongruent-16", "trial_type": "html-keyboard-response", "trial_index": 123, "time_elapsed": 301378, "internal_node_id": "0.0-6.0-28.0"}}, {"uniqueid": "w58443812:a31987482", "current_trial": 124, "dateTime": 1664555398660, "trialdata": {"rt": 1210, "stimulus": "<p id='stroop-text' class='stroop-red'>RED</p>", "response": "r", "stimulus-type": "congruent", "word": "red", "color": "red", "correct_response": "r", "trial_id": "stroop-trial-1-congruent-29", "trial_type": "html-keyboard-response", "trial_index": 124, "time_elapsed": 303090, "internal_node_id": "0.0-6.0-29.0"}}, {"uniqueid": "w58443812:a31987482", "current_trial": 125, "dateTime": 1664555401172, "trialdata": {"rt": 2010, "stimulus": "<p id='stroop-text' class='stroop-blue'>YELLOW</p>", "response": "b", "stimulus-type": "incongruent", "word": "yellow", "color": "blue", "correct_response": "b", "trial_id": "stroop-trial-1-incongruent-9", "trial_type": "html-keyboard-response", "trial_index": 125, "time_elapsed": 305602, "internal_node_id": "0.0-6.0-30.0"}}, {"uniqueid": "w58443812:a31987482", "current_trial": 126, "dateTime": 1664555402956, "trialdata": {"rt": 1281, "stimulus": "<p id='stroop-text' class='stroop-yellow'>SHIP</p>", "response": "y", "stimulus-type": "unrelated", "word": "SHIP", "color": "yellow", "correct_response": "y", "trial_id": "stroop-trial-1-unrelated-22", "trial_type": "html-keyboard-response", "trial_index": 126, "time_elapsed": 307387, "internal_node_id": "0.0-6.0-31.0"}}, {"uniqueid": "w58443812:a31987482", "current_trial": 127, "dateTime": 1664555404052, "trialdata": {"rt": 594, "stimulus": "<p id='stroop-text' class='stroop-yellow'>MONKEY</p>", "response": "y", "stimulus-type": "unrelated", "word": "MONKEY", "color": "yellow", "correct_response": "y", "trial_id": "stroop-trial-1-unrelated-4", "trial_type": "html-keyboard-response", "trial_index": 127, "time_elapsed": 308483, "internal_node_id": "0.0-6.0-32.0"}}, {"uniqueid": "w58443812:a31987482", "current_trial": 128, "dateTime": 1664555405284, "trialdata": {"rt": 730, "stimulus": "<p id='stroop-text' class='stroop-red'>BOTTLE</p>", "response": "r", "stimulus-type": "unrelated", "word": "BOTTLE", "color": "red", "correct_response": "r", "trial_id": "stroop-trial-1-unrelated-12", "trial_type": "html-keyboard-response", "trial_index": 128, "time_elapsed": 309715, "internal_node_id": "0.0-6.0-33.0"}}, {"uniqueid": "w58443812:a31987482", "current_trial": 129, "dateTime": 1664555406532, "trialdata": {"rt": 746, "stimulus": "<p id='stroop-text' class='stroop-green'>GREEN</p>", "response": "r", "stimulus-type": "congruent", "word": "green", "color": "green", "correct_response": "g", "trial_id": "stroop-trial-1-congruent-19", "trial_type": "html-keyboard-response", "trial_index": 129, "time_elapsed": 310963, "internal_node_id": "0.0-6.0-34.0"}}, {"uniqueid": "w58443812:a31987482", "current_trial": 130, "dateTime": 1664555407860, "trialdata": {"rt": 825, "stimulus": "<p id='stroop-text' class='stroop-blue'>BLUE</p>", "response": "b", "stimulus-type": "congruent", "word": "blue", "color": "blue", "correct_response": "b", "trial_id": "stroop-trial-1-congruent-18", "trial_type": "html-keyboard-response", "trial_index": 130, "time_elapsed": 312291, "internal_node_id": "0.0-6.0-35.0"}}, {"uniqueid": "w58443812:a31987482", "current_trial": 131, "dateTime": 1664555409460, "trialdata": {"rt": 1097, "stimulus": "<p id='stroop-text' class='stroop-green'>GREEN</p>", "response": "g", "stimulus-type": "congruent", "word": "green", "color": "green", "correct_response": "g", "trial_id": "stroop-trial-1-congruent-24", "trial_type": "html-keyboard-response", "trial_index": 131, "time_elapsed": 313891, "internal_node_id": "0.0-6.0-36.0"}}, {"uniqueid": "w58443812:a31987482", "current_trial": 132, "dateTime": 1664555410428, "trialdata": {"rt": 457, "stimulus": "<p id='stroop-text' class='stroop-green'>GREEN</p>", "response": "g", "stimulus-type": "congruent", "word": "green", "color": "green", "correct_response": "g", "trial_id": "stroop-trial-1-congruent-27", "trial_type": "html-keyboard-response", "trial_index": 132, "time_elapsed": 314859, "internal_node_id": "0.0-6.0-37.0"}}, {"uniqueid": "w58443812:a31987482", "current_trial": 133, "dateTime": 1664555411452, "trialdata": {"rt": 522, "stimulus": "<p id='stroop-text' class='stroop-blue'>BLUE</p>", "response": "b", "stimulus-type": "congruent", "word": "blue", "color": "blue", "correct_response": "b", "trial_id": "stroop-trial-1-congruent-23", "trial_type": "html-keyboard-response", "trial_index": 133, "time_elapsed": 315883, "internal_node_id": "0.0-6.0-38.0"}}, {"uniqueid": "w58443812:a31987482", "current_trial": 134, "dateTime": 1664555413164, "trialdata": {"rt": 1210, "stimulus": "<p id='stroop-text' class='stroop-green'>SHIP</p>", "response": "y", "stimulus-type": "unrelated", "word": "SHIP", "color": "green", "correct_response": "g", "trial_id": "stroop-trial-1-unrelated-5", "trial_type": "html-keyboard-response", "trial_index": 134, "time_elapsed": 317594, "internal_node_id": "0.0-6.0-39.0"}}, {"uniqueid": "w58443812:a31987482", "current_trial": 135, "dateTime": 1664555414340, "trialdata": {"rt": 674, "stimulus": "<p id='stroop-text' class='stroop-yellow'>FORK</p>", "response": "y", "stimulus-type": "unrelated", "word": "FORK", "color": "yellow", "correct_response": "y", "trial_id": "stroop-trial-1-unrelated-13", "trial_type": "html-keyboard-response", "trial_index": 135, "time_elapsed": 318771, "internal_node_id": "0.0-6.0-40.0"}}, {"uniqueid": "w58443812:a31987482", "current_trial": 136, "dateTime": 1664555415364, "trialdata": {"rt": 522, "stimulus": "<p id='stroop-text' class='stroop-yellow'>YELLOW</p>", "response": "y", "stimulus-type": "congruent", "word": "yellow", "color": "yellow", "correct_response": "y", "trial_id": "stroop-trial-1-congruent-12", "trial_type": "html-keyboard-response", "trial_index": 136, "time_elapsed": 319795, "internal_node_id": "0.0-6.0-41.0"}}, {"uniqueid": "w58443812:a31987482", "current_trial": 137, "dateTime": 1664555416708, "trialdata": {"rt": 842, "stimulus": "<p id='stroop-text' class='stroop-blue'>RED</p>", "response": "b", "stimulus-type": "incongruent", "word": "red", "color": "blue", "correct_response": "b", "trial_id": "stroop-trial-1-incongruent-14", "trial_type": "html-keyboard-response", "trial_index": 137, "time_elapsed": 321139, "internal_node_id": "0.0-6.0-42.0"}}, {"uniqueid": "w58443812:a31987482", "current_trial": 138, "dateTime": 1664555419284, "trialdata": {"rt": 2074, "stimulus": "<p id='stroop-text' class='stroop-yellow'>GREEN</p>", "response": "y", "stimulus-type": "incongruent", "word": "green", "color": "yellow", "correct_response": "y", "trial_id": "stroop-trial-1-incongruent-2", "trial_type": "html-keyboard-response", "trial_index": 138, "time_elapsed": 323715, "internal_node_id": "0.0-6.0-43.0"}}, {"uniqueid": "w58443812:a31987482", "current_trial": 139, "dateTime": 1664555420404, "trialdata": {"rt": 618, "stimulus": "<p id='stroop-text' class='stroop-red'>WINDOW</p>", "response": "r", "stimulus-type": "unrelated", "word": "WINDOW", "color": "red", "correct_response": "r", "trial_id": "stroop-trial-1-unrelated-17", "trial_type": "html-keyboard-response", "trial_index": 139, "time_elapsed": 324835, "internal_node_id": "0.0-6.0-44.0"}}, {"uniqueid": "w58443812:a31987482", "current_trial": 140, "dateTime": 1664555421532, "trialdata": {"rt": 625, "stimulus": "<p id='stroop-text' class='stroop-green'>BRIDGE</p>", "response": "g", "stimulus-type": "unrelated", "word": "BRIDGE", "color": "green", "correct_response": "g", "trial_id": "stroop-trial-1-unrelated-7", "trial_type": "html-keyboard-response", "trial_index": 140, "time_elapsed": 325963, "internal_node_id": "0.0-6.0-45.0"}}, {"uniqueid": "w58443812:a31987482", "current_trial": 141, "dateTime": 1664555422412, "trialdata": {"rt": 377, "stimulus": "<p id='stroop-text' class='stroop-green'>GREEN</p>", "response": "g", "stimulus-type": "congruent", "word": "green", "color": "green", "correct_response": "g", "trial_id": "stroop-trial-1-congruent-3", "trial_type": "html-keyboard-response", "trial_index": 141, "time_elapsed": 326843, "internal_node_id": "0.0-6.0-46.0"}}, {"uniqueid": "w58443812:a31987482", "current_trial": 142, "dateTime": 1664555423492, "trialdata": {"rt": 578, "stimulus": "<p id='stroop-text' class='stroop-green'>BLUE</p>", "response": "g", "stimulus-type": "incongruent", "word": "blue", "color": "green", "correct_response": "g", "trial_id": "stroop-trial-1-incongruent-24", "trial_type": "html-keyboard-response", "trial_index": 142, "time_elapsed": 327923, "internal_node_id": "0.0-6.0-47.0"}}, {"uniqueid": "w58443812:a31987482", "current_trial": 143, "dateTime": 1664555424773, "trialdata": {"rt": 778, "stimulus": "<p id='stroop-text' class='stroop-yellow'>BLUE</p>", "response": "y", "stimulus-type": "incongruent", "word": "blue", "color": "yellow", "correct_response": "y", "trial_id": "stroop-trial-1-incongruent-3", "trial_type": "html-keyboard-response", "trial_index": 143, "time_elapsed": 329203, "internal_node_id": "0.0-6.0-48.0"}}, {"uniqueid": "w58443812:a31987482", "current_trial": 144, "dateTime": 1664555426020, "trialdata": {"rt": 745, "stimulus": "<p id='stroop-text' class='stroop-blue'>BLUE</p>", "response": "b", "stimulus-type": "congruent", "word": "blue", "color": "blue", "correct_response": "b", "trial_id": "stroop-trial-1-congruent-14", "trial_type": "html-keyboard-response", "trial_index": 144, "time_elapsed": 330451, "internal_node_id": "0.0-6.0-49.0"}}, {"uniqueid": "w58443812:a31987482", "current_trial": 145, "dateTime": 1664555427052, "trialdata": {"rt": 529, "stimulus": "<p id='stroop-text' class='stroop-red'>FORK</p>", "response": "r", "stimulus-type": "unrelated", "word": "FORK", "color": "red", "correct_response": "r", "trial_id": "stroop-trial-1-unrelated-28", "trial_type": "html-keyboard-response", "trial_index": 145, "time_elapsed": 331483, "internal_node_id": "0.0-6.0-50.0"}}, {"uniqueid": "w58443812:a31987482", "current_trial": 146, "dateTime": 1664555428372, "trialdata": {"rt": 817, "stimulus": "<p id='stroop-text' class='stroop-blue'>YELLOW</p>", "response": "b", "stimulus-type": "incongruent", "word": "yellow", "color": "blue", "correct_response": "b", "trial_id": "stroop-trial-1-incongruent-17", "trial_type": "html-keyboard-response", "trial_index": 146, "time_elapsed": 332803, "internal_node_id": "0.0-6.0-51.0"}}, {"uniqueid": "w58443812:a31987482", "current_trial": 147, "dateTime": 1664555429228, "trialdata": {"rt": 352, "stimulus": "<p id='stroop-text' class='stroop-blue'>BLUE</p>", "response": "b", "stimulus-type": "congruent", "word": "blue", "color": "blue", "correct_response": "b", "trial_id": "stroop-trial-1-congruent-6", "trial_type": "html-keyboard-response", "trial_index": 147, "time_elapsed": 333659, "internal_node_id": "0.0-6.0-52.0"}}, {"uniqueid": "w58443812:a31987482", "current_trial": 148, "dateTime": 1664555430404, "trialdata": {"rt": 674, "stimulus": "<p id='stroop-text' class='stroop-yellow'>GREEN</p>", "response": "y", "stimulus-type": "incongruent", "word": "green", "color": "yellow", "correct_response": "y", "trial_id": "stroop-trial-1-incongruent-7", "trial_type": "html-keyboard-response", "trial_index": 148, "time_elapsed": 334835, "internal_node_id": "0.0-6.0-53.0"}}, {"uniqueid": "w58443812:a31987482", "current_trial": 149, "dateTime": 1664555431708, "trialdata": {"rt": 802, "stimulus": "<p id='stroop-text' class='stroop-green'>BLUE</p>", "response": "g", "stimulus-type": "incongruent", "word": "blue", "color": "green", "correct_response": "g", "trial_id": "stroop-trial-1-incongruent-25", "trial_type": "html-keyboard-response", "trial_index": 149, "time_elapsed": 336139, "internal_node_id": "0.0-6.0-54.0"}}, {"uniqueid": "w58443812:a31987482", "current_trial": 150, "dateTime": 1664555433036, "trialdata": {"rt": 812, "stimulus": "<p id='stroop-text' class='stroop-green'>BRAIN</p>", "response": "g", "stimulus-type": "unrelated", "word": "BRAIN", "color": "green", "correct_response": "g", "trial_id": "stroop-trial-1-unrelated-20", "trial_type": "html-keyboard-response", "trial_index": 150, "time_elapsed": 337467, "internal_node_id": "0.0-6.0-55.0"}}, {"uniqueid": "w58443812:a31987482", "current_trial": 151, "dateTime": 1664555434228, "trialdata": {"rt": 689, "stimulus": "<p id='stroop-text' class='stroop-yellow'>STONE</p>", "response": "y", "stimulus-type": "unrelated", "word": "STONE", "color": "yellow", "correct_response": "y", "trial_id": "stroop-trial-1-unrelated-14", "trial_type": "html-keyboard-response", "trial_index": 151, "time_elapsed": 338659, "internal_node_id": "0.0-6.0-56.0"}}, {"uniqueid": "w58443812:a31987482", "current_trial": 152, "dateTime": 1664555435684, "trialdata": {"rt": 954, "stimulus": "<p id='stroop-text' class='stroop-green'>DOG</p>", "response": "g", "stimulus-type": "unrelated", "word": "DOG", "color": "green", "correct_response": "g", "trial_id": "stroop-trial-1-unrelated-27", "trial_type": "html-keyboard-response", "trial_index": 152, "time_elapsed": 340115, "internal_node_id": "0.0-6.0-57.0"}}, {"uniqueid": "w58443812:a31987482", "current_trial": 153, "dateTime": 1664555437060, "trialdata": {"rt": 873, "stimulus": "<p id='stroop-text' class='stroop-green'>BLUE</p>", "response": "g", "stimulus-type": "incongruent", "word": "blue", "color": "green", "correct_response": "g", "trial_id": "stroop-trial-1-incongruent-12", "trial_type": "html-keyboard-response", "trial_index": 153, "time_elapsed": 341491, "internal_node_id": "0.0-6.0-58.0"}}, {"uniqueid": "w58443812:a31987482", "current_trial": 154, "dateTime": 1664555438268, "trialdata": {"rt": 705, "stimulus": "<p id='stroop-text' class='stroop-yellow'>BLUE</p>", "response": "y", "stimulus-type": "incongruent", "word": "blue", "color": "yellow", "correct_response": "y", "trial_id": "stroop-trial-1-incongruent-4", "trial_type": "html-keyboard-response", "trial_index": 154, "time_elapsed": 342699, "internal_node_id": "0.0-6.0-59.0"}}, {"uniqueid": "w58443812:a31987482", "current_trial": 155, "dateTime": 1664555439276, "trialdata": {"rt": 506, "stimulus": "<p id='stroop-text' class='stroop-green'>BOAT</p>", "response": "g", "stimulus-type": "unrelated", "word": "BOAT", "color": "green", "correct_response": "g", "trial_id": "stroop-trial-1-unrelated-30", "trial_type": "html-keyboard-response", "trial_index": 155, "time_elapsed": 343707, "internal_node_id": "0.0-6.0-60.0"}}, {"uniqueid": "w58443812:a31987482", "current_trial": 156, "dateTime": 1664555440596, "trialdata": {"rt": 818, "stimulus": "<p id='stroop-text' class='stroop-blue'>BLUE</p>", "response": "b", "stimulus-type": "congruent", "word": "blue", "color": "blue", "correct_response": "b", "trial_id": "stroop-trial-1-congruent-11", "trial_type": "html-keyboard-response", "trial_index": 156, "time_elapsed": 345027, "internal_node_id": "0.0-6.0-61.0"}}, {"uniqueid": "w58443812:a31987482", "current_trial": 157, "dateTime": 1664555442316, "trialdata": {"rt": 1218, "stimulus": "<p id='stroop-text' class='stroop-green'>BLUE</p>", "response": "g", "stimulus-type": "incongruent", "word": "blue", "color": "green", "correct_response": "g", "trial_id": "stroop-trial-1-incongruent-22", "trial_type": "html-keyboard-response", "trial_index": 157, "time_elapsed": 346747, "internal_node_id": "0.0-6.0-62.0"}}, {"uniqueid": "w58443812:a31987482", "current_trial": 158, "dateTime": 1664555443452, "trialdata": {"rt": 623, "stimulus": "<p id='stroop-text' class='stroop-green'>BLUE</p>", "response": "g", "stimulus-type": "incongruent", "word": "blue", "color": "green", "correct_response": "g", "trial_id": "stroop-trial-1-incongruent-20", "trial_type": "html-keyboard-response", "trial_index": 158, "time_elapsed": 347883, "internal_node_id": "0.0-6.0-63.0"}}, {"uniqueid": "w58443812:a31987482", "current_trial": 159, "dateTime": 1664555446148, "trialdata": {"rt": 2194, "stimulus": "<p id='stroop-text' class='stroop-green'>GREEN</p>", "response": "g", "stimulus-type": "congruent", "word": "green", "color": "green", "correct_response": "g", "trial_id": "stroop-trial-1-congruent-25", "trial_type": "html-keyboard-response", "trial_index": 159, "time_elapsed": 350579, "internal_node_id": "0.0-6.0-64.0"}}, {"uniqueid": "w58443812:a31987482", "current_trial": 160, "dateTime": 1664555447228, "trialdata": {"rt": 578, "stimulus": "<p id='stroop-text' class='stroop-yellow'>GREEN</p>", "response": "y", "stimulus-type": "incongruent", "word": "green", "color": "yellow", "correct_response": "y", "trial_id": "stroop-trial-1-incongruent-29", "trial_type": "html-keyboard-response", "trial_index": 160, "time_elapsed": 351659, "internal_node_id": "0.0-6.0-65.0"}}, {"uniqueid": "w58443812:a31987482", "current_trial": 161, "dateTime": 1664555448572, "trialdata": {"rt": 840, "stimulus": "<p id='stroop-text' class='stroop-red'>WINDOW</p>", "response": "r", "stimulus-type": "unrelated", "word": "WINDOW", "color": "red", "correct_response": "r", "trial_id": "stroop-trial-1-unrelated-24", "trial_type": "html-keyboard-response", "trial_index": 161, "time_elapsed": 353003, "internal_node_id": "0.0-6.0-66.0"}}, {"uniqueid": "w58443812:a31987482", "current_trial": 162, "dateTime": 1664555450260, "trialdata": {"rt": 1186, "stimulus": "<p id='stroop-text' class='stroop-blue'>BOAT</p>", "response": "b", "stimulus-type": "unrelated", "word": "BOAT", "color": "blue", "correct_response": "b", "trial_id": "stroop-trial-1-unrelated-9", "trial_type": "html-keyboard-response", "trial_index": 162, "time_elapsed": 354691, "internal_node_id": "0.0-6.0-67.0"}}, {"uniqueid": "w58443812:a31987482", "current_trial": 163, "dateTime": 1664555451468, "trialdata": {"rt": 705, "stimulus": "<p id='stroop-text' class='stroop-blue'>GREEN</p>", "response": "b", "stimulus-type": "incongruent", "word": "green", "color": "blue", "correct_response": "b", "trial_id": "stroop-trial-1-incongruent-23", "trial_type": "html-keyboard-response", "trial_index": 163, "time_elapsed": 355899, "internal_node_id": "0.0-6.0-68.0"}}, {"uniqueid": "w58443812:a31987482", "current_trial": 164, "dateTime": 1664555452676, "trialdata": {"rt": 705, "stimulus": "<p id='stroop-text' class='stroop-red'>FORK</p>", "response": "r", "stimulus-type": "unrelated", "word": "FORK", "color": "red", "correct_response": "r", "trial_id": "stroop-trial-1-unrelated-6", "trial_type": "html-keyboard-response", "trial_index": 164, "time_elapsed": 357107, "internal_node_id": "0.0-6.0-69.0"}}, {"uniqueid": "w58443812:a31987482", "current_trial": 165, "dateTime": 1664555454212, "trialdata": {"rt": 1032, "stimulus": "<p id='stroop-text' class='stroop-yellow'>BLUE</p>", "response": "y", "stimulus-type": "incongruent", "word": "blue", "color": "yellow", "correct_response": "y", "trial_id": "stroop-trial-1-incongruent-15", "trial_type": "html-keyboard-response", "trial_index": 165, "time_elapsed": 358643, "internal_node_id": "0.0-6.0-70.0"}}, {"uniqueid": "w58443812:a31987482", "current_trial": 166, "dateTime": 1664555455804, "trialdata": {"rt": 1090, "stimulus": "<p id='stroop-text' class='stroop-green'>DOG</p>", "response": "g", "stimulus-type": "unrelated", "word": "DOG", "color": "green", "correct_response": "g", "trial_id": "stroop-trial-1-unrelated-2", "trial_type": "html-keyboard-response", "trial_index": 166, "time_elapsed": 360235, "internal_node_id": "0.0-6.0-71.0"}}, {"uniqueid": "w58443812:a31987482", "current_trial": 167, "dateTime": 1664555457068, "trialdata": {"rt": 761, "stimulus": "<p id='stroop-text' class='stroop-yellow'>BLUE</p>", "response": "y", "stimulus-type": "incongruent", "word": "blue", "color": "yellow", "correct_response": "y", "trial_id": "stroop-trial-1-incongruent-19", "trial_type": "html-keyboard-response", "trial_index": 167, "time_elapsed": 361499, "internal_node_id": "0.0-6.0-72.0"}}, {"uniqueid": "w58443812:a31987482", "current_trial": 168, "dateTime": 1664555459260, "trialdata": {"rt": 1690, "stimulus": "<p id='stroop-text' class='stroop-red'>RED</p>", "response": "r", "stimulus-type": "congruent", "word": "red", "color": "red", "correct_response": "r", "trial_id": "stroop-trial-1-congruent-26", "trial_type": "html-keyboard-response", "trial_index": 168, "time_elapsed": 363691, "internal_node_id": "0.0-6.0-73.0"}}, {"uniqueid": "w58443812:a31987482", "current_trial": 169, "dateTime": 1664555460308, "trialdata": {"rt": 545, "stimulus": "<p id='stroop-text' class='stroop-blue'>MONKEY</p>", "response": "b", "stimulus-type": "unrelated", "word": "MONKEY", "color": "blue", "correct_response": "b", "trial_id": "stroop-trial-1-unrelated-15", "trial_type": "html-keyboard-response", "trial_index": 169, "time_elapsed": 364739, "internal_node_id": "0.0-6.0-74.0"}}, {"uniqueid": "w58443812:a31987482", "current_trial": 170, "dateTime": 1664555461476, "trialdata": {"rt": 666, "stimulus": "<p id='stroop-text' class='stroop-green'>RED</p>", "response": "g", "stimulus-type": "incongruent", "word": "red", "color": "green", "correct_response": "g", "trial_id": "stroop-trial-1-incongruent-6", "trial_type": "html-keyboard-response", "trial_index": 170, "time_elapsed": 365907, "internal_node_id": "0.0-6.0-75.0"}}, {"uniqueid": "w58443812:a31987482", "current_trial": 171, "dateTime": 1664555462532, "trialdata": {"rt": 554, "stimulus": "<p id='stroop-text' class='stroop-green'>GREEN</p>", "response": "g", "stimulus-type": "congruent", "word": "green", "color": "green", "correct_response": "g", "trial_id": "stroop-trial-1-congruent-21", "trial_type": "html-keyboard-response", "trial_index": 171, "time_elapsed": 366963, "internal_node_id": "0.0-6.0-76.0"}}, {"uniqueid": "w58443812:a31987482", "current_trial": 172, "dateTime": 1664555464332, "trialdata": {"rt": 1296, "stimulus": "<p id='stroop-text' class='stroop-red'>BLUE</p>", "response": "r", "stimulus-type": "incongruent", "word": "blue", "color": "red", "correct_response": "r", "trial_id": "stroop-trial-1-incongruent-1", "trial_type": "html-keyboard-response", "trial_index": 172, "time_elapsed": 368763, "internal_node_id": "0.0-6.0-77.0"}}, {"uniqueid": "w58443812:a31987482", "current_trial": 173, "dateTime": 1664555465828, "trialdata": {"rt": 992, "stimulus": "<p id='stroop-text' class='stroop-green'>GREEN</p>", "response": "g", "stimulus-type": "congruent", "word": "green", "color": "green", "correct_response": "g", "trial_id": "stroop-trial-1-congruent-13", "trial_type": "html-keyboard-response", "trial_index": 173, "time_elapsed": 370259, "internal_node_id": "0.0-6.0-78.0"}}, {"uniqueid": "w58443812:a31987482", "current_trial": 174, "dateTime": 1664555466836, "trialdata": {"rt": 506, "stimulus": "<p id='stroop-text' class='stroop-green'>GREEN</p>", "response": "g", "stimulus-type": "congruent", "word": "green", "color": "green", "correct_response": "g", "trial_id": "stroop-trial-1-congruent-2", "trial_type": "html-keyboard-response", "trial_index": 174, "time_elapsed": 371267, "internal_node_id": "0.0-6.0-79.0"}}, {"uniqueid": "w58443812:a31987482", "current_trial": 175, "dateTime": 1664555468212, "trialdata": {"rt": 874, "stimulus": "<p id='stroop-text' class='stroop-blue'>BLUE</p>", "response": "b", "stimulus-type": "congruent", "word": "blue", "color": "blue", "correct_response": "b", "trial_id": "stroop-trial-1-congruent-17", "trial_type": "html-keyboard-response", "trial_index": 175, "time_elapsed": 372643, "internal_node_id": "0.0-6.0-80.0"}}, {"uniqueid": "w58443812:a31987482", "current_trial": 176, "dateTime": 1664555469644, "trialdata": {"rt": 930, "stimulus": "<p id='stroop-text' class='stroop-yellow'>YELLOW</p>", "response": "y", "stimulus-type": "congruent", "word": "yellow", "color": "yellow", "correct_response": "y", "trial_id": "stroop-trial-1-congruent-28", "trial_type": "html-keyboard-response", "trial_index": 176, "time_elapsed": 374075, "internal_node_id": "0.0-6.0-81.0"}}, {"uniqueid": "w58443812:a31987482", "current_trial": 177, "dateTime": 1664555470988, "trialdata": {"rt": 841, "stimulus": "<p id='stroop-text' class='stroop-yellow'>GREEN</p>", "response": "y", "stimulus-type": "incongruent", "word": "green", "color": "yellow", "correct_response": "y", "trial_id": "stroop-trial-1-incongruent-10", "trial_type": "html-keyboard-response", "trial_index": 177, "time_elapsed": 375419, "internal_node_id": "0.0-6.0-82.0"}}, {"uniqueid": "w58443812:a31987482", "current_trial": 178, "dateTime": 1664555471932, "trialdata": {"rt": 442, "stimulus": "<p id='stroop-text' class='stroop-yellow'>YELLOW</p>", "response": "y", "stimulus-type": "congruent", "word": "yellow", "color": "yellow", "correct_response": "y", "trial_id": "stroop-trial-1-congruent-16", "trial_type": "html-keyboard-response", "trial_index": 178, "time_elapsed": 376363, "internal_node_id": "0.0-6.0-83.0"}}, {"uniqueid": "w58443812:a31987482", "current_trial": 179, "dateTime": 1664555473004, "trialdata": {"rt": 570, "stimulus": "<p id='stroop-text' class='stroop-red'>YELLOW</p>", "response": "r", "stimulus-type": "incongruent", "word": "yellow", "color": "red", "correct_response": "r", "trial_id": "stroop-trial-1-incongruent-5", "trial_type": "html-keyboard-response", "trial_index": 179, "time_elapsed": 377435, "internal_node_id": "0.0-6.0-84.0"}}, {"uniqueid": "w58443812:a31987482", "current_trial": 180, "dateTime": 1664555474260, "trialdata": {"rt": 752, "stimulus": "<p id='stroop-text' class='stroop-blue'>STONE</p>", "response": "b", "stimulus-type": "unrelated", "word": "STONE", "color": "blue", "correct_response": "b", "trial_id": "stroop-trial-1-unrelated-1", "trial_type": "html-keyboard-response", "trial_index": 180, "time_elapsed": 378691, "internal_node_id": "0.0-6.0-85.0"}}, {"uniqueid": "w58443812:a31987482", "current_trial": 181, "dateTime": 1664555475332, "trialdata": {"rt": 569, "stimulus": "<p id='stroop-text' class='stroop-blue'>YELLOW</p>", "response": "b", "stimulus-type": "incongruent", "word": "yellow", "color": "blue", "correct_response": "b", "trial_id": "stroop-trial-1-incongruent-18", "trial_type": "html-keyboard-response", "trial_index": 181, "time_elapsed": 379763, "internal_node_id": "0.0-6.0-86.0"}}, {"uniqueid": "w58443812:a31987482", "current_trial": 182, "dateTime": 1664555476548, "trialdata": {"rt": 714, "stimulus": "<p id='stroop-text' class='stroop-red'>GREEN</p>", "response": "r", "stimulus-type": "incongruent", "word": "green", "color": "red", "correct_response": "r", "trial_id": "stroop-trial-1-incongruent-28", "trial_type": "html-keyboard-response", "trial_index": 182, "time_elapsed": 380979, "internal_node_id": "0.0-6.0-87.0"}}, {"uniqueid": "w58443812:a31987482", "current_trial": 183, "dateTime": 1664555477540, "trialdata": {"rt": 490, "stimulus": "<p id='stroop-text' class='stroop-blue'>BRAIN</p>", "response": "b", "stimulus-type": "unrelated", "word": "BRAIN", "color": "blue", "correct_response": "b", "trial_id": "stroop-trial-1-unrelated-10", "trial_type": "html-keyboard-response", "trial_index": 183, "time_elapsed": 381971, "internal_node_id": "0.0-6.0-88.0"}}, {"uniqueid": "w58443812:a31987482", "current_trial": 184, "dateTime": 1664555478844, "trialdata": {"rt": 801, "stimulus": "<p id='stroop-text' class='stroop-yellow'>GREEN</p>", "response": "y", "stimulus-type": "incongruent", "word": "green", "color": "yellow", "correct_response": "y", "trial_id": "stroop-trial-1-incongruent-8", "trial_type": "html-keyboard-response", "trial_index": 184, "time_elapsed": 383275, "internal_node_id": "0.0-6.0-89.0"}}, {"uniqueid": "w58443812:a31987482", "current_trial": 185, "dateTime": 1664555629492, "trialdata": {"rt": 150144, "stimulus": "  <h1> End of block! </h1>\n\n  You have reached the end of the block 2/5. If you need a short break, feel free to take one now before moving on.\n\n  <br><br>\n  In the next block, you will complete another 90 rounds of this game.\n\n  <br><br>\n  <div style='text-align: center;'>Press <code>space</code> to begin.</div>\n  <br><br>\n<div style='text-align: center;'>(If the experiment doesn't continue, try clicking on the text and then pressing <code>space</code>.)</div>", "response": " ", "trial_id": "stroop_1_ready_3", "trial_type": "html-keyboard-response", "trial_index": 185, "time_elapsed": 533923, "internal_node_id": "0.0-7.0"}}, {"uniqueid": "w58443812:a31987482", "current_trial": 186, "dateTime": 1664555630820, "trialdata": {"rt": 1325, "stimulus": "<p id='stroop-text' class='stroop-blue'>BOTTLE</p>", "response": "b", "stimulus-type": "unrelated", "word": "BOTTLE", "color": "blue", "correct_response": "b", "trial_id": "stroop-trial-1-unrelated-19", "trial_type": "html-keyboard-response", "trial_index": 186, "time_elapsed": 535250, "internal_node_id": "0.0-8.0-0.0"}}, {"uniqueid": "w58443812:a31987482", "current_trial": 187, "dateTime": 1664555631884, "trialdata": {"rt": 562, "stimulus": "<p id='stroop-text' class='stroop-red'>RED</p>", "response": "r", "stimulus-type": "congruent", "word": "red", "color": "red", "correct_response": "r", "trial_id": "stroop-trial-1-congruent-3", "trial_type": "html-keyboard-response", "trial_index": 187, "time_elapsed": 536315, "internal_node_id": "0.0-8.0-1.0"}}, {"uniqueid": "w58443812:a31987482", "current_trial": 188, "dateTime": 1664555632972, "trialdata": {"rt": 586, "stimulus": "<p id='stroop-text' class='stroop-blue'>FORK</p>", "response": "b", "stimulus-type": "unrelated", "word": "FORK", "color": "blue", "correct_response": "b", "trial_id": "stroop-trial-1-unrelated-25", "trial_type": "html-keyboard-response", "trial_index": 188, "time_elapsed": 537402, "internal_node_id": "0.0-8.0-2.0"}}, {"uniqueid": "w58443812:a31987482", "current_trial": 189, "dateTime": 1664555633932, "trialdata": {"rt": 457, "stimulus": "<p id='stroop-text' class='stroop-yellow'>RED</p>", "response": "y", "stimulus-type": "incongruent", "word": "red", "color": "yellow", "correct_response": "y", "trial_id": "stroop-trial-1-incongruent-3", "trial_type": "html-keyboard-response", "trial_index": 189, "time_elapsed": 538362, "internal_node_id": "0.0-8.0-3.0"}}, {"uniqueid": "w58443812:a31987482", "current_trial": 190, "dateTime": 1664555635004, "trialdata": {"rt": 570, "stimulus": "<p id='stroop-text' class='stroop-green'>BOAT</p>", "response": "g", "stimulus-type": "unrelated", "word": "BOAT", "color": "green", "correct_response": "g", "trial_id": "stroop-trial-1-unrelated-10", "trial_type": "html-keyboard-response", "trial_index": 190, "time_elapsed": 539434, "internal_node_id": "0.0-8.0-4.0"}}, {"uniqueid": "w58443812:a31987482", "current_trial": 191, "dateTime": 1664555635835, "trialdata": {"rt": 329, "stimulus": "<p id='stroop-text' class='stroop-green'>GREEN</p>", "response": "g", "stimulus-type": "congruent", "word": "green", "color": "green", "correct_response": "g", "trial_id": "stroop-trial-1-congruent-5", "trial_type": "html-keyboard-response", "trial_index": 191, "time_elapsed": 540266, "internal_node_id": "0.0-8.0-5.0"}}, {"uniqueid": "w58443812:a31987482", "current_trial": 192, "dateTime": 1664555637028, "trialdata": {"rt": 689, "stimulus": "<p id='stroop-text' class='stroop-yellow'>GREEN</p>", "response": "y", "stimulus-type": "incongruent", "word": "green", "color": "yellow", "correct_response": "y", "trial_id": "stroop-trial-1-incongruent-19", "trial_type": "html-keyboard-response", "trial_index": 192, "time_elapsed": 541458, "internal_node_id": "0.0-8.0-6.0"}}, {"uniqueid": "w58443812:a31987482", "current_trial": 193, "dateTime": 1664555638924, "trialdata": {"rt": 1392, "stimulus": "<p id='stroop-text' class='stroop-red'>STONE</p>", "response": "r", "stimulus-type": "unrelated", "word": "STONE", "color": "red", "correct_response": "r", "trial_id": "stroop-trial-1-unrelated-28", "trial_type": "html-keyboard-response", "trial_index": 193, "time_elapsed": 543354, "internal_node_id": "0.0-8.0-7.0"}}, {"uniqueid": "w58443812:a31987482", "current_trial": 194, "dateTime": 1664555640052, "trialdata": {"rt": 625, "stimulus": "<p id='stroop-text' class='stroop-yellow'>YELLOW</p>", "response": "y", "stimulus-type": "congruent", "word": "yellow", "color": "yellow", "correct_response": "y", "trial_id": "stroop-trial-1-congruent-4", "trial_type": "html-keyboard-response", "trial_index": 194, "time_elapsed": 544482, "internal_node_id": "0.0-8.0-8.0"}}, {"uniqueid": "w58443812:a31987482", "current_trial": 195, "dateTime": 1664555641620, "trialdata": {"rt": 1065, "stimulus": "<p id='stroop-text' class='stroop-blue'>BLUE</p>", "response": "b", "stimulus-type": "congruent", "word": "blue", "color": "blue", "correct_response": "b", "trial_id": "stroop-trial-1-congruent-1", "trial_type": "html-keyboard-response", "trial_index": 195, "time_elapsed": 546050, "internal_node_id": "0.0-8.0-9.0"}}, {"uniqueid": "w58443812:a31987482", "current_trial": 196, "dateTime": 1664555642956, "trialdata": {"rt": 834, "stimulus": "<p id='stroop-text' class='stroop-green'>RED</p>", "response": "g", "stimulus-type": "incongruent", "word": "red", "color": "green", "correct_response": "g", "trial_id": "stroop-trial-1-incongruent-1", "trial_type": "html-keyboard-response", "trial_index": 196, "time_elapsed": 547387, "internal_node_id": "0.0-8.0-10.0"}}, {"uniqueid": "w58443812:a31987482", "current_trial": 197, "dateTime": 1664555643852, "trialdata": {"rt": 382, "stimulus": "<p id='stroop-text' class='stroop-green'>YELLOW</p>", "response": "g", "stimulus-type": "incongruent", "word": "yellow", "color": "green", "correct_response": "g", "trial_id": "stroop-trial-1-incongruent-20", "trial_type": "html-keyboard-response", "trial_index": 197, "time_elapsed": 548282, "internal_node_id": "0.0-8.0-11.0"}}, {"uniqueid": "w58443812:a31987482", "current_trial": 198, "dateTime": 1664555645028, "trialdata": {"rt": 674, "stimulus": "<p id='stroop-text' class='stroop-blue'>YELLOW</p>", "response": "b", "stimulus-type": "incongruent", "word": "yellow", "color": "blue", "correct_response": "b", "trial_id": "stroop-trial-1-incongruent-13", "trial_type": "html-keyboard-response", "trial_index": 198, "time_elapsed": 549458, "internal_node_id": "0.0-8.0-12.0"}}, {"uniqueid": "w58443812:a31987482", "current_trial": 199, "dateTime": 1664555645964, "trialdata": {"rt": 432, "stimulus": "<p id='stroop-text' class='stroop-blue'>CHAIR</p>", "response": "b", "stimulus-type": "unrelated", "word": "CHAIR", "color": "blue", "correct_response": "b", "trial_id": "stroop-trial-1-unrelated-20", "trial_type": "html-keyboard-response", "trial_index": 199, "time_elapsed": 550394, "internal_node_id": "0.0-8.0-13.0"}}, {"uniqueid": "w58443812:a31987482", "current_trial": 200, "dateTime": 1664555646860, "trialdata": {"rt": 394, "stimulus": "<p id='stroop-text' class='stroop-blue'>RED</p>", "response": "b", "stimulus-type": "incongruent", "word": "red", "color": "blue", "correct_response": "b", "trial_id": "stroop-trial-1-incongruent-25", "trial_type": "html-keyboard-response", "trial_index": 200, "time_elapsed": 551290, "internal_node_id": "0.0-8.0-14.0"}}, {"uniqueid": "w58443812:a31987482", "current_trial": 201, "dateTime": 1664555647716, "trialdata": {"rt": 353, "stimulus": "<p id='stroop-text' class='stroop-blue'>BOTTLE</p>", "response": "b", "stimulus-type": "unrelated", "word": "BOTTLE", "color": "blue", "correct_response": "b", "trial_id": "stroop-trial-1-unrelated-6", "trial_type": "html-keyboard-response", "trial_index": 201, "time_elapsed": 552146, "internal_node_id": "0.0-8.0-15.0"}}, {"uniqueid": "w58443812:a31987482", "current_trial": 202, "dateTime": 1664555648540, "trialdata": {"rt": 320, "stimulus": "<p id='stroop-text' class='stroop-blue'>STONE</p>", "response": "b", "stimulus-type": "unrelated", "word": "STONE", "color": "blue", "correct_response": "b", "trial_id": "stroop-trial-1-unrelated-11", "trial_type": "html-keyboard-response", "trial_index": 202, "time_elapsed": 552970, "internal_node_id": "0.0-8.0-16.0"}}, {"uniqueid": "w58443812:a31987482", "current_trial": 203, "dateTime": 1664555649716, "trialdata": {"rt": 673, "stimulus": "<p id='stroop-text' class='stroop-green'>GREEN</p>", "response": "g", "stimulus-type": "congruent", "word": "green", "color": "green", "correct_response": "g", "trial_id": "stroop-trial-1-congruent-18", "trial_type": "html-keyboard-response", "trial_index": 203, "time_elapsed": 554146, "internal_node_id": "0.0-8.0-17.0"}}, {"uniqueid": "w58443812:a31987482", "current_trial": 204, "dateTime": 1664555650644, "trialdata": {"rt": 424, "stimulus": "<p id='stroop-text' class='stroop-blue'>BLUE</p>", "response": "b", "stimulus-type": "congruent", "word": "blue", "color": "blue", "correct_response": "b", "trial_id": "stroop-trial-1-congruent-17", "trial_type": "html-keyboard-response", "trial_index": 204, "time_elapsed": 555075, "internal_node_id": "0.0-8.0-18.0"}}, {"uniqueid": "w58443812:a31987482", "current_trial": 205, "dateTime": 1664555651676, "trialdata": {"rt": 528, "stimulus": "<p id='stroop-text' class='stroop-yellow'>MONKEY</p>", "response": "y", "stimulus-type": "unrelated", "word": "MONKEY", "color": "yellow", "correct_response": "y", "trial_id": "stroop-trial-1-unrelated-9", "trial_type": "html-keyboard-response", "trial_index": 205, "time_elapsed": 556106, "internal_node_id": "0.0-8.0-19.0"}}, {"uniqueid": "w58443812:a31987482", "current_trial": 206, "dateTime": 1664555652556, "trialdata": {"rt": 378, "stimulus": "<p id='stroop-text' class='stroop-yellow'>RED</p>", "response": "y", "stimulus-type": "incongruent", "word": "red", "color": "yellow", "correct_response": "y", "trial_id": "stroop-trial-1-incongruent-24", "trial_type": "html-keyboard-response", "trial_index": 206, "time_elapsed": 556986, "internal_node_id": "0.0-8.0-20.0"}}, {"uniqueid": "w58443812:a31987482", "current_trial": 207, "dateTime": 1664555653428, "trialdata": {"rt": 368, "stimulus": "<p id='stroop-text' class='stroop-yellow'>RED</p>", "response": "y", "stimulus-type": "incongruent", "word": "red", "color": "yellow", "correct_response": "y", "trial_id": "stroop-trial-1-incongruent-2", "trial_type": "html-keyboard-response", "trial_index": 207, "time_elapsed": 557858, "internal_node_id": "0.0-8.0-21.0"}}, {"uniqueid": "w58443812:a31987482", "current_trial": 208, "dateTime": 1664555654492, "trialdata": {"rt": 561, "stimulus": "<p id='stroop-text' class='stroop-red'>RED</p>", "response": "r", "stimulus-type": "congruent", "word": "red", "color": "red", "correct_response": "r", "trial_id": "stroop-trial-1-congruent-28", "trial_type": "html-keyboard-response", "trial_index": 208, "time_elapsed": 558922, "internal_node_id": "0.0-8.0-22.0"}}, {"uniqueid": "w58443812:a31987482", "current_trial": 209, "dateTime": 1664555655676, "trialdata": {"rt": 681, "stimulus": "<p id='stroop-text' class='stroop-green'>YELLOW</p>", "response": "g", "stimulus-type": "incongruent", "word": "yellow", "color": "green", "correct_response": "g", "trial_id": "stroop-trial-1-incongruent-28", "trial_type": "html-keyboard-response", "trial_index": 209, "time_elapsed": 560106, "internal_node_id": "0.0-8.0-23.0"}}, {"uniqueid": "w58443812:a31987482", "current_trial": 210, "dateTime": 1664555656796, "trialdata": {"rt": 617, "stimulus": "<p id='stroop-text' class='stroop-blue'>MONKEY</p>", "response": "b", "stimulus-type": "unrelated", "word": "MONKEY", "color": "blue", "correct_response": "b", "trial_id": "stroop-trial-1-unrelated-24", "trial_type": "html-keyboard-response", "trial_index": 210, "time_elapsed": 561226, "internal_node_id": "0.0-8.0-24.0"}}, {"uniqueid": "w58443812:a31987482", "current_trial": 211, "dateTime": 1664555657652, "trialdata": {"rt": 352, "stimulus": "<p id='stroop-text' class='stroop-blue'>BLUE</p>", "response": "b", "stimulus-type": "congruent", "word": "blue", "color": "blue", "correct_response": "b", "trial_id": "stroop-trial-1-congruent-29", "trial_type": "html-keyboard-response", "trial_index": 211, "time_elapsed": 562082, "internal_node_id": "0.0-8.0-25.0"}}, {"uniqueid": "w58443812:a31987482", "current_trial": 212, "dateTime": 1664555658483, "trialdata": {"rt": 329, "stimulus": "<p id='stroop-text' class='stroop-blue'>BLUE</p>", "response": "b", "stimulus-type": "congruent", "word": "blue", "color": "blue", "correct_response": "b", "trial_id": "stroop-trial-1-congruent-24", "trial_type": "html-keyboard-response", "trial_index": 212, "time_elapsed": 562914, "internal_node_id": "0.0-8.0-26.0"}}, {"uniqueid": "w58443812:a31987482", "current_trial": 213, "dateTime": 1664555659444, "trialdata": {"rt": 457, "stimulus": "<p id='stroop-text' class='stroop-green'>RED</p>", "response": "y", "stimulus-type": "incongruent", "word": "red", "color": "green", "correct_response": "g", "trial_id": "stroop-trial-1-incongruent-27", "trial_type": "html-keyboard-response", "trial_index": 213, "time_elapsed": 563874, "internal_node_id": "0.0-8.0-27.0"}}, {"uniqueid": "w58443812:a31987482", "current_trial": 214, "dateTime": 1664555661004, "trialdata": {"rt": 1058, "stimulus": "<p id='stroop-text' class='stroop-blue'>YELLOW</p>", "response": "b", "stimulus-type": "incongruent", "word": "yellow", "color": "blue", "correct_response": "b", "trial_id": "stroop-trial-1-incongruent-15", "trial_type": "html-keyboard-response", "trial_index": 214, "time_elapsed": 565435, "internal_node_id": "0.0-8.0-28.0"}}, {"uniqueid": "w58443812:a31987482", "current_trial": 215, "dateTime": 1664555662028, "trialdata": {"rt": 520, "stimulus": "<p id='stroop-text' class='stroop-blue'>BLUE</p>", "response": "b", "stimulus-type": "congruent", "word": "blue", "color": "blue", "correct_response": "b", "trial_id": "stroop-trial-1-congruent-27", "trial_type": "html-keyboard-response", "trial_index": 215, "time_elapsed": 566458, "internal_node_id": "0.0-8.0-29.0"}}, {"uniqueid": "w58443812:a31987482", "current_trial": 216, "dateTime": 1664555663300, "trialdata": {"rt": 770, "stimulus": "<p id='stroop-text' class='stroop-green'>BOAT</p>", "response": "g", "stimulus-type": "unrelated", "word": "BOAT", "color": "green", "correct_response": "g", "trial_id": "stroop-trial-1-unrelated-29", "trial_type": "html-keyboard-response", "trial_index": 216, "time_elapsed": 567730, "internal_node_id": "0.0-8.0-30.0"}}, {"uniqueid": "w58443812:a31987482", "current_trial": 217, "dateTime": 1664555664347, "trialdata": {"rt": 545, "stimulus": "<p id='stroop-text' class='stroop-yellow'>YELLOW</p>", "response": "y", "stimulus-type": "congruent", "word": "yellow", "color": "yellow", "correct_response": "y", "trial_id": "stroop-trial-1-congruent-12", "trial_type": "html-keyboard-response", "trial_index": 217, "time_elapsed": 568778, "internal_node_id": "0.0-8.0-31.0"}}, {"uniqueid": "w58443812:a31987482", "current_trial": 218, "dateTime": 1664555665252, "trialdata": {"rt": 402, "stimulus": "<p id='stroop-text' class='stroop-yellow'>YELLOW</p>", "response": "g", "stimulus-type": "congruent", "word": "yellow", "color": "yellow", "correct_response": "y", "trial_id": "stroop-trial-1-congruent-11", "trial_type": "html-keyboard-response", "trial_index": 218, "time_elapsed": 569682, "internal_node_id": "0.0-8.0-32.0"}}, {"uniqueid": "w58443812:a31987482", "current_trial": 219, "dateTime": 1664555666444, "trialdata": {"rt": 690, "stimulus": "<p id='stroop-text' class='stroop-green'>RED</p>", "response": "g", "stimulus-type": "incongruent", "word": "red", "color": "green", "correct_response": "g", "trial_id": "stroop-trial-1-incongruent-6", "trial_type": "html-keyboard-response", "trial_index": 219, "time_elapsed": 570875, "internal_node_id": "0.0-8.0-33.0"}}, {"uniqueid": "w58443812:a31987482", "current_trial": 220, "dateTime": 1664555667980, "trialdata": {"rt": 1032, "stimulus": "<p id='stroop-text' class='stroop-red'>BLUE</p>", "response": "r", "stimulus-type": "incongruent", "word": "blue", "color": "red", "correct_response": "r", "trial_id": "stroop-trial-1-incongruent-23", "trial_type": "html-keyboard-response", "trial_index": 220, "time_elapsed": 572411, "internal_node_id": "0.0-8.0-34.0"}}, {"uniqueid": "w58443812:a31987482", "current_trial": 221, "dateTime": 1664555669019, "trialdata": {"rt": 537, "stimulus": "<p id='stroop-text' class='stroop-green'>GREEN</p>", "response": "g", "stimulus-type": "congruent", "word": "green", "color": "green", "correct_response": "g", "trial_id": "stroop-trial-1-congruent-30", "trial_type": "html-keyboard-response", "trial_index": 221, "time_elapsed": 573450, "internal_node_id": "0.0-8.0-35.0"}}, {"uniqueid": "w58443812:a31987482", "current_trial": 222, "dateTime": 1664555669988, "trialdata": {"rt": 464, "stimulus": "<p id='stroop-text' class='stroop-green'>GREEN</p>", "response": "g", "stimulus-type": "congruent", "word": "green", "color": "green", "correct_response": "g", "trial_id": "stroop-trial-