{"condition": 1, "counterbalance": 0, "assignmentId": "a86974745", "workerId": "w50530256", "hitId": "h61448038", "currenttrial": 143, "bonus": 0, "data": [{"uniqueid": "w50530256:a86974745", "current_trial": 0, "dateTime": 1664463921076, "trialdata": {"success": true, "trial_type": "fullscreen", "trial_index": 0, "time_elapsed": 7059, "internal_node_id": "0.0-0.0"}}, {"uniqueid": "w50530256:a86974745", "current_trial": 1, "dateTime": 1664463939784, "trialdata": {"view_history": [{"page_index": 0, "viewing_time": 18704}], "rt": 18705, "trial_id": "exp_instructions_no_distractor", "trial_type": "instructions", "trial_index": 1, "time_elapsed": 25768, "internal_node_id": "0.0-1.0"}}, {"uniqueid": "w50530256:a86974745", "current_trial": 2, "dateTime": 1664463943647, "trialdata": {"success": true, "trial_type": "fullscreen", "trial_index": 2, "time_elapsed": 29631, "internal_node_id": "0.0-2.0-0.0"}}, {"uniqueid": "w50530256:a86974745", "current_trial": 3, "dateTime": 1664464056797, "trialdata": {"view_history": [{"page_index": 0, "viewing_time": 38950}, {"page_index": 1, "viewing_time": 29424}, {"page_index": 2, "viewing_time": 12552}, {"page_index": 3, "viewing_time": 9656}, {"page_index": 4, "viewing_time": 22568}], "rt": 113150, "trial_id": "mouselab_instructions_1", "trial_type": "instructions", "trial_index": 3, "time_elapsed": 142781, "internal_node_id": "0.0-2.0-1.0"}}, {"uniqueid": "w50530256:a86974745", "current_trial": 4, "dateTime": 1664464076026, "trialdata": {"revealed_states": [], "num_clicks_accrued": [0, 0, 0, 0, 0, 0, 0, 0, 0, 0, 0, 0, 0], "stateRewards": ["", 10, 10, 10, 10, 10, 10, 10, -10, 10, -10, 10, 10], "withholdReward": false, "trial_id": "practice_1", "block": "test", "trialIndex": 0, "score": 31.75, "costs": -0.25, "simulationMode": [null, null, null], "rewards": [10, 10, 10], "path": ["0", "0", "1", "2", "3"], "rt": [9928, 601, 312], "actions": ["up", "up", "right"], "actionTimes": [12279, 13381, 14209], "queries": {"click": {"state": {"target": ["2"], "time": [7207]}, "edge": {"target": [], "time": []}}, "mouseover": {"state": {"target": ["0", "3", "2", "7"], "time": [2796, 6262, 6396, 7879]}, "edge": {"target": [], "time": []}}, "mouseout": {"state": {"target": ["7", "6", "5", "0", "0", "3", "2", "7"], "time": [78, 1896, 2013, 2110, 2829, 6328, 7845, 7895]}, "edge": {"target": [], "time": []}}}, "displayed_time": "14.71", "trialTime": 18952, "trial_type": "mouselab-mdp", "trial_index": 4, "time_elapsed": 162009, "internal_node_id": "0.0-2.0-2.0-0.0"}}, {"uniqueid": "w50530256:a86974745", "current_trial": 5, "dateTime": 1664464090314, "trialdata": {"revealed_states": [], "num_clicks_accrued": [0, 0, 0, 0, 0, 0, 0, 0, 0, 0, 0, 0, 0], "stateRewards": ["", -10, -10, 10, -10, 10, 10, 10, -10, -10, -10, -10, 10], "withholdReward": false, "trial_id": "practice_2", "block": "test", "trialIndex": 1, "score": 31.5, "costs": -0.5, "simulationMode": [null, null, null], "rewards": [10, 10, 10], "path": ["0", "0", "5", "6", "7"], "rt": [6939, 136, 1213], "actions": ["right", "right", "up"], "actionTimes": [9349, 9977, 11687], "queries": {"click": {"state": {"target": ["9", "6"], "time": [4712, 8112]}, "edge": {"target": [], "time": []}}, "mouseover": {"state": {"target": ["0", "9", "0", "5", "5", "6"], "time": [3238, 3755, 4989, 5710, 6956, 7889]}, "edge": {"target": [], "time": []}}, "mouseout": {"state": {"target": ["5", "0", "0", "9", "0", "5", "5", "6"], "time": [1806, 2759, 3472, 4955, 5005, 5823, 7739, 8356]}, "edge": {"target": [], "time": []}}}, "displayed_time": "12.19", "trialTime": 14249, "trial_type": "mouselab-mdp", "trial_index": 5, "time_elapsed": 176298, "internal_node_id": "0.0-2.0-2.0-1.0"}}, {"uniqueid": "w50530256:a86974745", "current_trial": 6, "dateTime": 1664464152688, "trialdata": {"view_history": [{"page_index": 0, "viewing_time": 45386}, {"page_index": 1, "viewing_time": 10648}, {"page_index": 2, "viewing_time": 6336}], "rt": 62371, "trial_id": "mouselab_instructions_2_scarce", "trial_type": "instructions", "trial_index": 6, "time_elapsed": 238672, "internal_node_id": "0.0-2.0-3.0"}}, {"uniqueid": "w50530256:a86974745", "current_trial": 7, "dateTime": 1664464195785, "trialdata": {"rt": 43093, "response": {"Q0": "$-48 to $48", "Q1": "The cost is always $0.25.", "Q2": "The better I perform the higher my bonus will be.", "Q3": "Yes.", "Q4": "The values of the nodes walked through from start to finish.", "Q5": "No, the spider might forget to count the money on some rounds."}, "question_order": [0, 1, 2, 3, 4, 5], "correct": {"Q0": "$-48 to $48", "Q1": "The cost is always $0.25.", "Q2": "The better I perform the higher my bonus will be.", "Q3": "No, the amount of cash at each node of the web may be different each time.", "Q4": "The values of the nodes walked through from start to finish.", "Q5": "No, the spider might forget to count the money on some rounds."}, "trial_id": "mouselab_quiz_scarce", "trial_type": "survey-multi-choice", "trial_index": 7, "time_elapsed": 281768, "internal_node_id": "0.0-2.0-4.0"}}, {"uniqueid": "w50530256:a86974745", "current_trial": 8, "dateTime": 1664464208133, "trialdata": {"success": true, "trial_type": "fullscreen", "trial_index": 8, "time_elapsed": 294117, "internal_node_id": "0.0-2.1-0.1"}}, {"uniqueid": "w50530256:a86974745", "current_trial": 9, "dateTime": 1664464251215, "trialdata": {"view_history": [{"page_index": 0, "viewing_time": 17664}, {"page_index": 1, "viewing_time": 7368}, {"page_index": 2, "viewing_time": 7136}, {"page_index": 3, "viewing_time": 6696}, {"page_index": 4, "viewing_time": 4216}], "rt": 43080, "trial_id": "mouselab_instructions_1", "trial_type": "instructions", "trial_index": 9, "time_elapsed": 337199, "internal_node_id": "0.0-2.1-1.1"}}, {"uniqueid": "w50530256:a86974745", "current_trial": 10, "dateTime": 1664464259546, "trialdata": {"revealed_states": [], "num_clicks_accrued": [0, 0, 0, 0, 0, 0, 0, 0, 0, 0, 0, 0, 0], "stateRewards": ["", 10, 10, 10, 10, 10, 10, 10, -10, 10, -10, 10, 10], "withholdReward": false, "trial_id": "practice_1", "block": "test", "trialIndex": 2, "score": 31.75, "costs": -0.25, "simulationMode": [null, null, null], "rewards": [10, 10, 10], "path": ["0", "0", "1", "2", "3"], "rt": [2343, 201, 141], "actions": ["up", "up", "right"], "actionTimes": [4887, 5596, 6253], "queries": {"click": {"state": {"target": ["2"], "time": [4543]}, "edge": {"target": [], "time": []}}, "mouseover": {"state": {"target": ["1", "2"], "time": [4128, 4395]}, "edge": {"target": [], "time": []}}, "mouseout": {"state": {"target": ["0", "1", "2", "0"], "time": [4062, 4211, 4829, 7262]}, "edge": {"target": [], "time": []}}}, "displayed_time": "6.78", "trialTime": 8290, "trial_type": "mouselab-mdp", "trial_index": 10, "time_elapsed": 345530, "internal_node_id": "0.0-2.1-2.1-0.1"}}, {"uniqueid": "w50530256:a86974745", "current_trial": 11, "dateTime": 1664464270167, "trialdata": {"revealed_states": [], "num_clicks_accrued": [0, 0, 0, 0, 0, 0, 0, 0, 0, 0, 0, 0, 0], "stateRewards": ["", -10, -10, 10, -10, 10, 10, 10, -10, -10, -10, -10, 10], "withholdReward": false, "trial_id": "practice_2", "block": "test", "trialIndex": 3, "score": -28.25, "costs": -0.25, "simulationMode": [null, null, null], "rewards": [-10, -10, -10], "path": ["0", "0", "9", "10", "11"], "rt": [1737, 522, 863], "actions": ["left", "left", "up"], "actionTimes": [5901, 6927, 8285], "queries": {"click": {"state": {"target": ["10"], "time": [5627]}, "edge": {"target": [], "time": []}}, "mouseover": {"state": {"target": ["9", "10"], "time": [5170, 5438]}, "edge": {"target": [], "time": []}}, "mouseout": {"state": {"target": ["9", "0", "9", "10"], "time": [3754, 5137, 5220, 6154]}, "edge": {"target": [], "time": []}}}, "displayed_time": "8.79", "trialTime": 10586, "trial_type": "mouselab-mdp", "trial_index": 11, "time_elapsed": 356151, "internal_node_id": "0.0-2.1-2.1-1.1"}}, {"uniqueid": "w50530256:a86974745", "current_trial": 12, "dateTime": 1664464303285, "trialdata": {"view_history": [{"page_index": 0, "viewing_time": 24828}, {"page_index": 1, "viewing_time": 5824}, {"page_index": 2, "viewing_time": 2464}], "rt": 33117, "trial_id": "mouselab_instructions_2_scarce", "trial_type": "instructions", "trial_index": 12, "time_elapsed": 389269, "internal_node_id": "0.0-2.1-3.1"}}, {"uniqueid": "w50530256:a86974745", "current_trial": 13, "dateTime": 1664464352013, "trialdata": {"rt": 48726, "response": {"Q0": "$-48 to $48", "Q1": "The cost is always $0.25.", "Q2": "The better I perform the higher my bonus will be.", "Q3": "No, the amount of cash at each node of the web may be different each time.", "Q4": "The values of the nodes walked through from start to finish.", "Q5": "No, the spider might forget to count the money on some rounds."}, "question_order": [0, 1, 2, 3, 4, 5], "correct": {"Q0": "$-48 to $48", "Q1": "The cost is always $0.25.", "Q2": "The better I perform the higher my bonus will be.", "Q3": "No, the amount of cash at each node of the web may be different each time.", "Q4": "The values of the nodes walked through from start to finish.", "Q5": "No, the spider might forget to count the money on some rounds."}, "trial_id": "mouselab_quiz_scarce", "trial_type": "survey-multi-choice", "trial_index": 13, "time_elapsed": 437997, "internal_node_id": "0.0-2.1-4.1"}}, {"uniqueid": "w50530256:a86974745", "current_trial": 14, "dateTime": 1664464360968, "trialdata": {"rt": 8951, "stimulus": "\n<h1> Get ready to start the game! </h1>\n\nThank you for reading the instructions. Get ready start with the first of 4 block(s) of this game.\n<br><br>\nIn this first block, you will complete 30 rounds of this game before moving on.\n<br><br>\nRemember, the more money the spider gets, the bigger your bonus will be!\n<br><br>\n<div style='text-align: center;'>Press <code>space</code> to begin.</div>\n\n<br><br>\n(If, at any point, the <code>space</code> key does not take you to the next page, click once on the text and try again.)", "response": " ", "trial_id": "mdp_ready_1", "trial_type": "html-keyboard-response", "trial_index": 14, "time_elapsed": 446952, "internal_node_id": "0.0-4.0-0.0"}}, {"uniqueid": "w50530256:a86974745", "current_trial": 15, "dateTime": 1664464373387, "trialdata": {"revealed_states": [], "num_clicks_accrued": [0, 0, 0, 0, 0, 0, 0, 0, 0, 0, 0, 0, 0], "stateRewards": ["", -4, 4, -24, 24, -2, -4, 48, 24, 2, 8, -48, 24], "withholdReward": true, "trial_id": "mdp_150340189492", "block": "test1", "trialIndex": 4, "score": -33.25, "costs": -0.25, "simulationMode": [null, null, null], "rewards": [2, 8, -48], "path": ["0", "0", "9", "10", "11"], "rt": [2672, 103, 338], "actions": ["left", "left", "up"], "actionTimes": [4645, 5237, 6073], "queries": {"click": {"state": {"target": ["10"], "time": [3283]}, "edge": {"target": [], "time": []}}, "mouseover": {"state": {"target": ["0", "9", "10", "9", "0", "5"], "time": [2666, 2734, 3150, 3517, 3733, 3883]}, "edge": {"target": [], "time": []}}, "mouseout": {"state": {"target": ["5", "0", "0", "9", "10", "9", "0", "5"], "time": [1650, 2417, 2683, 2967, 3467, 3601, 3800, 3917]}, "edge": {"target": [], "time": []}}}, "displayed_time": "9.98", "trialTime": 12384, "trial_type": "mouselab-mdp", "trial_index": 15, "time_elapsed": 459371, "internal_node_id": "0.0-4.0-1.0-0.0"}}, {"uniqueid": "w50530256:a86974745", "current_trial": 16, "dateTime": 1664464385608, "trialdata": {"revealed_states": [], "num_clicks_accrued": [0, 0, 0, 0, 0, 0, 0, 0, 0, 0, 0, 0, 0], "stateRewards": ["", -2, 8, -24, 24, 2, -8, 48, -24, 2, 8, -24, -24], "withholdReward": false, "trial_id": "mdp_674708270444", "block": "test1", "trialIndex": 5, "score": 34.5, "costs": -0.5, "simulationMode": [null, null, null], "rewards": [-2, 8, 24], "path": ["0", "0", "1", "2", "4"], "rt": [4417, 29, 384], "actions": ["up", "up", "left"], "actionTimes": [6510, 7042, 7930], "queries": {"click": {"state": {"target": ["6", "2"], "time": [3076, 5284]}, "edge": {"target": [], "time": []}}, "mouseover": {"state": {"target": ["5", "6", "0", "9", "11", "10", "1", "2"], "time": [2578, 2678, 3495, 3545, 3644, 4086, 4462, 5095]}, "edge": {"target": [], "time": []}}, "mouseout": {"state": {"target": ["3", "0", "5", "6", "0", "9", "11", "10", "1", "2"], "time": [1495, 2545, 2611, 3378, 3528, 3594, 3862, 4312, 5045, 5562]}, "edge": {"target": [], "time": []}}}, "displayed_time": "11.10", "trialTime": 12185, "trial_type": "mouselab-mdp", "trial_index": 16, "time_elapsed": 471592, "internal_node_id": "0.0-4.0-1.0-1.0"}}, {"uniqueid": "w50530256:a86974745", "current_trial": 17, "dateTime": 1664464399860, "trialdata": {"revealed_states": [], "num_clicks_accrued": [0, 0, 0, 0, 0, 0, 0, 0, 0, 0, 0, 0, 0], "stateRewards": ["", -2, -8, -24, 48, -2, -8, -48, -48, 2, -8, -48, 24], "withholdReward": true, "trial_id": "mdp_288324580942", "block": "test1", "trialIndex": 6, "score": -30.25, "costs": -1.25, "simulationMode": [null, null, null], "rewards": [-2, -8, -24], "path": ["0", "0", "1", "2", "3"], "rt": [9301, 34, 405], "actions": ["up", "up", "right"], "actionTimes": [11132, 11676, 12597], "queries": {"click": {"state": {"target": ["2", "10", "6", "9", "8"], "time": [2854, 3829, 4542, 7350, 9503]}, "edge": {"target": [], "time": []}}, "mouseover": {"state": {"target": ["1", "2", "1", "9", "10", "9", "0", "5", "6", "5", "0", "9", "1", "1", "9", "5", "8"], "time": [2460, 2674, 3140, 3423, 3623, 4006, 4057, 4207, 4274, 5157, 5273, 5406, 6407, 6613, 7040, 8274, 9261]}, "edge": {"target": [], "time": []}}, "mouseout": {"state": {"target": ["5", "0", "1", "2", "1", "9", "10", "9", "0", "5", "6", "6", "5", "0", "9", "1", "1", "9", "5", "8", "6"], "time": [1389, 2040, 2540, 3107, 3240, 3540, 3990, 4040, 4107, 4240, 4740, 5057, 5206, 5357, 5690, 6457, 6989, 7573, 9013, 9674, 10173]}, "edge": {"target": [], "time": []}}}, "displayed_time": "13.09", "trialTime": 14214, "trial_type": "mouselab-mdp", "trial_index": 17, "time_elapsed": 485844, "internal_node_id": "0.0-4.0-1.0-2.0"}}, {"uniqueid": "w50530256:a86974745", "current_trial": 18, "dateTime": 1664464410890, "trialdata": {"revealed_states": [], "num_clicks_accrued": [0, 0, 0, 0, 0, 0, 0, 0, 0, 0, 0, 0, 0], "stateRewards": ["", -4, -4, 24, -48, -2, 8, -24, -48, -4, 4, 24, -48], "withholdReward": true, "trial_id": "mdp_934626330092", "block": "test1", "trialIndex": 7, "score": -13.75, "costs": -0.75, "simulationMode": [null, null, null], "rewards": [-2, 8, -24], "path": ["0", "0", "5", "6", "7"], "rt": [5254, 29, 579], "actions": ["right", "right", "up"], "actionTimes": [6720, 7252, 8319], "queries": {"click": {"state": {"target": ["10", "2", "6"], "time": [3314, 4027, 4714]}, "edge": {"target": [], "time": []}}, "mouseover": {"state": {"target": ["9", "11", "10", "2", "6", "5", "0", "5"], "time": [1888, 2841, 3055, 3755, 4505, 4904, 5222, 5988]}, "edge": {"target": [], "time": []}}, "mouseout": {"state": {"target": ["0", "0", "9", "11", "10", "2", "6", "5", "0", "5"], "time": [905, 1822, 2472, 2988, 3489, 4205, 4888, 4938, 5472, 6072]}, "edge": {"target": [], "time": []}}}, "displayed_time": "10.47", "trialTime": 10992, "trial_type": "mouselab-mdp", "trial_index": 18, "time_elapsed": 496874, "internal_node_id": "0.0-4.0-1.0-3.0"}}, {"uniqueid": "w50530256:a86974745", "current_trial": 19, "dateTime": 1664464423770, "trialdata": {"revealed_states": [], "num_clicks_accrued": [0, 0, 0, 0, 0, 0, 0, 0, 0, 0, 0, 0, 0], "stateRewards": ["", -4, -8, 48, -24, 4, -8, 48, 48, -2, 4, -48, -24], "withholdReward": true, "trial_id": "mdp_925905402462", "block": "test1", "trialIndex": 8, "score": -41.75, "costs": -0.75, "simulationMode": [null, null, null], "rewards": [-2, 4, -48], "path": ["0", "0", "9", "10", "11"], "rt": [6018, 65, 730], "actions": ["left", "left", "up"], "actionTimes": [8239, 8810, 10042], "queries": {"click": {"state": {"target": ["10", "2", "6"], "time": [3966, 5053, 5933]}, "edge": {"target": [], "time": []}}, "mouseover": {"state": {"target": ["9", "10", "10", "9", "2", "6", "9", "5"], "time": [2910, 3310, 3594, 4260, 4910, 5476, 6810, 7476]}, "edge": {"target": [], "time": []}}, "mouseout": {"state": {"target": ["5", "0", "9", "10", "10", "9", "2", "6", "9", "5", "0"], "time": [1809, 2860, 3276, 3343, 4160, 4476, 5293, 6177, 7027, 7493, 11093]}, "edge": {"target": [], "time": []}}}, "displayed_time": "11.22", "trialTime": 12844, "trial_type": "mouselab-mdp", "trial_index": 19, "time_elapsed": 509754, "internal_node_id": "0.0-4.0-1.0-4.0"}}, {"uniqueid": "w50530256:a86974745", "current_trial": 20, "dateTime": 1664464434030, "trialdata": {"revealed_states": [], "num_clicks_accrued": [0, 0, 0, 0, 0, 0, 0, 0, 0, 0, 0, 0, 0], "stateRewards": ["", -2, 8, 24, -48, -4, -8, -24, -48, -4, 8, -24, 48], "withholdReward": true, "trial_id": "mdp_464339499860", "block": "test1", "trialIndex": 9, "score": 34.25, "costs": -0.75, "simulationMode": [null, null, null], "rewards": [-2, 8, 24], "path": ["0", "0", "1", "2", "3"], "rt": [4204, 542, 64], "actions": ["up", "up", "right"], "actionTimes": [5554, 6605, 7178], "queries": {"click": {"state": {"target": ["11", "8", "3"], "time": [1956, 3141, 4212]}, "edge": {"target": [], "time": []}}, "mouseover": {"state": {"target": ["11", "9", "0", "8", "5", "1", "2", "3", "5"], "time": [1680, 2229, 2498, 2929, 3330, 3429, 3595, 4062, 4962]}, "edge": {"target": [], "time": []}}, "mouseout": {"state": {"target": ["9", "0", "11", "9", "0", "8", "5", "1", "2", "3", "5"], "time": [879, 1195, 2163, 2313, 2612, 3295, 3363, 3530, 3835, 4395, 9329]}, "edge": {"target": [], "time": []}}}, "displayed_time": "9.35", "trialTime": 10222, "trial_type": "mouselab-mdp", "trial_index": 20, "time_elapsed": 520014, "internal_node_id": "0.0-4.0-1.0-5.0"}}, {"uniqueid": "w50530256:a86974745", "current_trial": 21, "dateTime": 1664464445016, "trialdata": {"revealed_states": [], "num_clicks_accrued": [0, 0, 0, 0, 0, 0, 0, 0, 0, 0, 0, 0, 0], "stateRewards": ["", 2, 4, -48, 48, -4, 8, -48, -24, -4, -4, 48, 48], "withholdReward": true, "trial_id": "mdp_613582696541", "block": "test1", "trialIndex": 10, "score": 44.5, "costs": -0.5, "simulationMode": [null, null, null], "rewards": [-4, -4, 48], "path": ["0", "0", "9", "10", "12"], "rt": [4155, 20, 53], "actions": ["left", "left", "down"], "actionTimes": [6020, 6558, 7125], "queries": {"click": {"state": {"target": ["3", "12"], "time": [2816, 4673]}, "edge": {"target": [], "time": []}}, "mouseover": {"state": {"target": ["1", "3", "1", "10", "12", "8"], "time": [2470, 2654, 3070, 3687, 4453, 5304]}, "edge": {"target": [], "time": []}}, "mouseout": {"state": {"target": ["5", "0", "1", "3", "1", "10", "12", "8"], "time": [385, 1687, 2520, 3020, 3121, 4103, 4837, 5337]}, "edge": {"target": [], "time": []}}}, "displayed_time": "9.87", "trialTime": 10947, "trial_type": "mouselab-mdp", "trial_index": 21, "time_elapsed": 531000, "internal_node_id": "0.0-4.0-1.0-6.0"}}, {"uniqueid": "w50530256:a86974745", "current_trial": 22, "dateTime": 1664464455682, "trialdata": {"revealed_states": [], "num_clicks_accrued": [0, 0, 0, 0, 0, 0, 0, 0, 0, 0, 0, 0, 0], "stateRewards": ["", 2, 8, 24, 24, 2, -8, -24, -48, 2, 8, -48, 48], "withholdReward": true, "trial_id": "mdp_745175888812", "block": "test1", "trialIndex": 11, "score": 38.5, "costs": -0.5, "simulationMode": [null, null, null], "rewards": [2, 8, 24], "path": ["0", "0", "1", "2", "4"], "rt": [3287, 70, 51], "actions": ["up", "up", "left"], "actionTimes": [5280, 5842, 6405], "queries": {"click": {"state": {"target": ["4", "8"], "time": [2720, 3737]}, "edge": {"target": [], "time": []}}, "mouseover": {"state": {"target": ["1", "4", "1", "5", "8", "9"], "time": [2287, 2553, 2970, 3203, 3386, 4153]}, "edge": {"target": [], "time": []}}, "mouseout": {"state": {"target": ["8", "0", "1", "4", "1", "5", "8", "9"], "time": [1537, 1636, 2320, 2903, 3020, 3336, 3903, 4203]}, "edge": {"target": [], "time": []}}}, "displayed_time": "10.00", "trialTime": 10629, "trial_type": "mouselab-mdp", "trial_index": 22, "time_elapsed": 541666, "internal_node_id": "0.0-4.0-1.0-7.0"}}, {"uniqueid": "w50530256:a86974745", "current_trial": 23, "dateTime": 1664464467231, "trialdata": {"revealed_states": [], "num_clicks_accrued": [0, 0, 0, 0, 0, 0, 0, 0, 0, 0, 0, 0, 0], "stateRewards": ["", 2, 8, -48, 48, -4, -8, 24, 24, -2, -8, 24, -24], "withholdReward": true, "trial_id": "mdp_910248289075", "block": "test1", "trialIndex": 12, "score": 18, "costs": -1, "simulationMode": [null, null, null], "rewards": [-2, -8, 24], "path": ["0", "0", "9", "10", "11"], "rt": [6624, 70, 356], "actions": ["left", "left", "up"], "actionTimes": [8231, 8809, 9678], "queries": {"click": {"state": {"target": ["3", "12", "7", "11"], "time": [2207, 3471, 4479, 6975]}, "edge": {"target": [], "time": []}}, "mouseover": {"state": {"target": ["3", "1", "9", "10", "12", "9", "1", "7", "6", "6", "8", "5", "11", "5", "6"], "time": [2021, 2571, 2705, 2938, 3271, 3721, 4071, 4155, 4888, 5388, 6022, 6238, 6838, 7338, 7504]}, "edge": {"target": [], "time": []}}, "mouseout": {"state": {"target": ["1", "9", "0", "3", "1", "9", "10", "12", "9", "1", "7", "6", "6", "8", "5", "11", "5", "6"], "time": [1104, 1271, 1437, 2538, 2605, 2788, 3172, 3671, 3738, 4087, 4772, 5088, 5755, 6221, 6254, 7121, 7455, 7554]}, "edge": {"target": [], "time": []}}}, "displayed_time": "10.17", "trialTime": 11512, "trial_type": "mouselab-mdp", "trial_index": 23, "time_elapsed": 553214, "internal_node_id": "0.0-4.0-1.0-8.0"}}, {"uniqueid": "w50530256:a86974745", "current_trial": 24, "dateTime": 1664464478750, "trialdata": {"revealed_states": [], "num_clicks_accrued": [0, 0, 0, 0, 0, 0, 0, 0, 0, 0, 0, 0, 0], "stateRewards": ["", -2, 4, -24, -24, -2, 4, 48, 24, -4, -8, 24, -48], "withholdReward": false, "trial_id": "mdp_191839460481", "block": "test1", "trialIndex": 13, "score": 16.25, "costs": -0.75, "simulationMode": [null, null, null], "rewards": [-4, -8, 24], "path": ["0", "0", "9", "10", "11"], "rt": [3639, 421, 70], "actions": ["left", "left", "up"], "actionTimes": [4663, 5595, 6161], "queries": {"click": {"state": {"target": ["4", "8", "11"], "time": [2042, 2769, 3690]}, "edge": {"target": [], "time": []}}, "mouseover": {"state": {"target": ["1", "2", "4", "1", "5", "8", "10", "11", "9", "0"], "time": [1456, 1573, 1905, 2289, 2356, 2573, 3240, 3456, 3940, 3973]}, "edge": {"target": [], "time": []}}, "mouseout": {"state": {"target": ["6", "1", "2", "4", "1", "5", "8", "10", "11", "9", "0"], "time": [272, 1522, 1756, 2256, 2322, 2390, 2910, 3309, 3889, 3957, 3990]}, "edge": {"target": [], "time": []}}}, "displayed_time": "10.03", "trialTime": 11483, "trial_type": "mouselab-mdp", "trial_index": 24, "time_elapsed": 564734, "internal_node_id": "0.0-4.0-1.0-9.0"}}, {"uniqueid": "w50530256:a86974745", "current_trial": 25, "dateTime": 1664464489222, "trialdata": {"revealed_states": [], "num_clicks_accrued": [0, 0, 0, 0, 0, 0, 0, 0, 0, 0, 0, 0, 0], "stateRewards": ["", 4, -4, 48, -48, -4, -4, 48, -48, 4, 4, -48, -24], "withholdReward": true, "trial_id": "mdp_490058671112", "block": "test1", "trialIndex": 14, "score": 52.25, "costs": -0.75, "simulationMode": [null, null, null], "rewards": [4, -4, 48], "path": ["0", "0", "1", "2", "3"], "rt": [4235, 65, 45], "actions": ["up", "up", "right"], "actionTimes": [5232, 5803, 6350], "queries": {"click": {"state": {"target": ["4", "8", "3"], "time": [1962, 3049, 3946]}, "edge": {"target": [], "time": []}}, "mouseover": {"state": {"target": ["1", "2", "4", "1", "5", "6", "8", "0", "1", "3", "7", "6"], "time": [1504, 1586, 1736, 2286, 2386, 2520, 2853, 3537, 3603, 3736, 4187, 4237]}, "edge": {"target": [], "time": []}}, "mouseout": {"state": {"target": ["0", "1", "2", "4", "1", "5", "6", "8", "0", "1", "3", "7", "6", "8"], "time": [1353, 1552, 1704, 2220, 2320, 2486, 2602, 3369, 3553, 3653, 4153, 4220, 4376, 8620]}, "edge": {"target": [], "time": []}}}, "displayed_time": "9.01", "trialTime": 10435, "trial_type": "mouselab-mdp", "trial_index": 25, "time_elapsed": 575206, "internal_node_id": "0.0-4.0-1.0-10.0"}}, {"uniqueid": "w50530256:a86974745", "current_trial": 26, "dateTime": 1664464498966, "trialdata": {"revealed_states": [], "num_clicks_accrued": [0, 0, 0, 0, 0, 0, 0, 0, 0, 0, 0, 0, 0], "stateRewards": ["", -2, 8, -48, 48, 4, -8, -48, 48, 4, -4, -24, 48], "withholdReward": true, "trial_id": "mdp_144739116828", "block": "test1", "trialIndex": 15, "score": 58.5, "costs": -0.5, "simulationMode": [null, null, null], "rewards": [-2, 8, 48], "path": ["0", "0", "1", "2", "4"], "rt": [2772, 46, 433], "actions": ["up", "up", "left"], "actionTimes": [3399, 3947, 4884], "queries": {"click": {"state": {"target": ["3", "4"], "time": [1643, 2386]}, "edge": {"target": [], "time": []}}, "mouseover": {"state": {"target": ["1", "3", "3", "1", "4", "1", "0"], "time": [916, 1132, 1549, 1965, 2115, 2732, 2816]}, "edge": {"target": [], "time": []}}, "mouseout": {"state": {"target": ["0", "1", "3", "3", "1", "4", "1", "0", "5"], "time": [416, 982, 1232, 1882, 2065, 2616, 2750, 2849, 8801]}, "edge": {"target": [], "time": []}}}, "displayed_time": "8.63", "trialTime": 9707, "trial_type": "mouselab-mdp", "trial_index": 26, "time_elapsed": 584950, "internal_node_id": "0.0-4.0-1.0-11.0"}}, {"uniqueid": "w50530256:a86974745", "current_trial": 27, "dateTime": 1664464510388, "trialdata": {"revealed_states": [], "num_clicks_accrued": [0, 0, 0, 0, 0, 0, 0, 0, 0, 0, 0, 0, 0], "stateRewards": ["", 2, 4, 48, 24, -4, 8, 48, 48, 2, -4, -48, -24], "withholdReward": false, "trial_id": "mdp_822099887466", "block": "test1", "trialIndex": 16, "score": 58.25, "costs": -0.75, "simulationMode": [null, null, null], "rewards": [2, 4, 48], "path": ["0", "0", "1", "2", "3"], "rt": [3957, 45, 454], "actions": ["up", "up", "right"], "actionTimes": [4947, 5503, 6479], "queries": {"click": {"state": {"target": ["4", "11", "3"], "time": [1589, 2852, 3732]}, "edge": {"target": [], "time": []}}, "mouseover": {"state": {"target": ["1", "4", "2", "3", "1", "11", "1", "3", "7"], "time": [1207, 1474, 1906, 2107, 2473, 2673, 3107, 3457, 4024]}, "edge": {"target": [], "time": []}}, "mouseout": {"state": {"target": ["0", "1", "4", "2", "3", "1", "11", "1", "3"], "time": [1115, 1257, 1840, 1990, 2357, 2490, 3024, 3357, 3947]}, "edge": {"target": [], "time": []}}}, "displayed_time": "10.00", "trialTime": 11384, "trial_type": "mouselab-mdp", "trial_index": 27, "time_elapsed": 596371, "internal_node_id": "0.0-4.0-1.0-12.0"}}, {"uniqueid": "w50530256:a86974745", "current_trial": 28, "dateTime": 1664464520429, "trialdata": {"revealed_states": [], "num_clicks_accrued": [0, 0, 0, 0, 0, 0, 0, 0, 0, 0, 0, 0, 0], "stateRewards": ["", 4, 4, 48, -24, 2, -4, 48, 24, -4, -4, -48, 24], "withholdReward": true, "trial_id": "mdp_496003763005", "block": "test1", "trialIndex": 17, "score": 60.75, "costs": -0.25, "simulationMode": [null, null, null], "rewards": [4, 4, 48], "path": ["0", "0", "1", "2", "3"], "rt": [2212, 58, 44], "actions": ["up", "up", "right"], "actionTimes": [3557, 4128, 4664], "queries": {"click": {"state": {"target": ["3"], "time": [2175]}, "edge": {"target": [], "time": []}}, "mouseover": {"state": {"target": ["3", "1"], "time": [2003, 2536]}, "edge": {"target": [], "time": []}}, "mouseout": {"state": {"target": ["7", "6", "5", "3", "1", "0"], "time": [620, 902, 970, 2454, 2570, 9620]}, "edge": {"target": [], "time": []}}}, "displayed_time": "9.35", "trialTime": 10004, "trial_type": "mouselab-mdp", "trial_index": 28, "time_elapsed": 606413, "internal_node_id": "0.0-4.0-1.0-13.0"}}, {"uniqueid": "w50530256:a86974745", "current_trial": 29, "dateTime": 1664464531131, "trialdata": {"revealed_states": [], "num_clicks_accrued": [0, 0, 0, 0, 0, 0, 0, 0, 0, 0, 0, 0, 0], "stateRewards": ["", 4, -4, 48, -48, 2, 8, -48, 24, -2, -4, -24, 48], "withholdReward": false, "trial_id": "mdp_937564992306", "block": "test1", "trialIndex": 18, "score": 52.25, "costs": -0.75, "simulationMode": [null, null, null], "rewards": [4, -4, 48], "path": ["0", "0", "1", "2", "3"], "rt": [3213, 67, 419], "actions": ["up", "up", "right"], "actionTimes": [4114, 4694, 5612], "queries": {"click": {"state": {"target": ["4", "7", "3"], "time": [1484, 2347, 2940]}, "edge": {"target": [], "time": []}}, "mouseover": {"state": {"target": ["1", "4", "4", "1", "6", "7", "3", "1", "9"], "time": [1109, 1177, 1360, 1826, 2009, 2129, 2709, 3210, 3276]}, "edge": {"target": [], "time": []}}, "mouseout": {"state": {"target": ["0", "1", "4", "4", "1", "6", "7", "3", "1", "9", "7", "1"], "time": [329, 1127, 1209, 1726, 1909, 2043, 2626, 3176, 3226, 3426, 8826, 9376]}, "edge": {"target": [], "time": []}}}, "displayed_time": "9.91", "trialTime": 10663, "trial_type": "mouselab-mdp", "trial_index": 29, "time_elapsed": 617115, "internal_node_id": "0.0-4.0-1.0-14.0"}}, {"uniqueid": "w50530256:a86974745", "current_trial": 30, "dateTime": 1664464541914, "trialdata": {"revealed_states": [], "num_clicks_accrued": [0, 0, 0, 0, 0, 0, 0, 0, 0, 0, 0, 0, 0], "stateRewards": ["", -2, -8, 48, 24, 2, 4, 24, -24, -2, -4, 48, -48], "withholdReward": true, "trial_id": "mdp_411152402386", "block": "test1", "trialIndex": 19, "score": 42.75, "costs": -0.25, "simulationMode": [null, null, null], "rewards": [-2, -8, 48], "path": ["0", "0", "1", "2", "3"], "rt": [1647, 23, 69], "actions": ["up", "up", "right"], "actionTimes": [2761, 3300, 3864], "queries": {"click": {"state": {"target": ["3"], "time": [1679]}, "edge": {"target": [], "time": []}}, "mouseover": {"state": {"target": ["3", "2"], "time": [1510, 2160]}, "edge": {"target": [], "time": []}}, "mouseout": {"state": {"target": ["1", "3", "2"], "time": [776, 1943, 2194]}, "edge": {"target": [], "time": []}}}, "displayed_time": "10.12", "trialTime": 10745, "trial_type": "mouselab-mdp", "trial_index": 30, "time_elapsed": 627897, "internal_node_id": "0.0-4.0-1.0-15.0"}}, {"uniqueid": "w50530256:a86974745", "current_trial": 31, "dateTime": 1664464551955, "trialdata": {"revealed_states": [], "num_clicks_accrued": [0, 0, 0, 0, 0, 0, 0, 0, 0, 0, 0, 0, 0], "stateRewards": ["", -2, -8, -48, 24, 2, -4, -48, 48, 2, 4, 24, -24], "withholdReward": true, "trial_id": "mdp_849341543762", "block": "test1", "trialIndex": 20, "score": 50, "costs": -1, "simulationMode": [null, null, null], "rewards": [2, -4, 48], "path": ["0", "0", "5", "6", "8"], "rt": [4015, 38, 82], "actions": ["right", "right", "down"], "actionTimes": [5177, 5731, 6325], "queries": {"click": {"state": {"target": ["4", "11", "12", "8"], "time": [1767, 2590, 3239, 4054]}, "edge": {"target": [], "time": []}}, "mouseover": {"state": {"target": ["4", "11", "12", "8", "6", "7"], "time": [1575, 2392, 2997, 3925, 4425, 4609]}, "edge": {"target": [], "time": []}}, "mouseout": {"state": {"target": ["1", "9", "0", "4", "11", "12", "8", "6"], "time": [575, 742, 1375, 2192, 2741, 3425, 4358, 4525]}, "edge": {"target": [], "time": []}}}, "displayed_time": "9.16", "trialTime": 10001, "trial_type": "mouselab-mdp", "trial_index": 31, "time_elapsed": 637938, "internal_node_id": "0.0-4.0-1.0-16.0"}}, {"uniqueid": "w50530256:a86974745", "current_trial": 32, "dateTime": 1664464563095, "trialdata": {"revealed_states": [], "num_clicks_accrued": [0, 0, 0, 0, 0, 0, 0, 0, 0, 0, 0, 0, 0], "stateRewards": ["", -4, -4, -48, 48, -4, -8, -24, -48, -2, 8, 48, 24], "withholdReward": true, "trial_id": "mdp_365393526663", "block": "test1", "trialIndex": 21, "score": 44.25, "costs": -0.75, "simulationMode": [null, null, null], "rewards": [-4, -4, 48], "path": ["0", "0", "1", "2", "4"], "rt": [3552, 48, 364], "actions": ["up", "up", "left"], "actionTimes": [5205, 5748, 6630], "queries": {"click": {"state": {"target": ["8", "3", "4"], "time": [2527, 3387, 4010]}, "edge": {"target": [], "time": []}}, "mouseover": {"state": {"target": ["5", "8", "8", "6", "7", "3", "2", "4", "1"], "time": [2087, 2253, 2404, 2887, 2954, 3070, 3633, 3833, 4533]}, "edge": {"target": [], "time": []}}, "mouseout": {"state": {"target": ["7", "5", "8", "8", "6", "7", "3", "2", "4", "1"], "time": [774, 2103, 2303, 2854, 2920, 2970, 3600, 3665, 4265, 4549]}, "edge": {"target": [], "time": []}}}, "displayed_time": "10.66", "trialTime": 11103, "trial_type": "mouselab-mdp", "trial_index": 32, "time_elapsed": 649079, "internal_node_id": "0.0-4.0-1.0-17.0"}}, {"uniqueid": "w50530256:a86974745", "current_trial": 33, "dateTime": 1664464574571, "trialdata": {"revealed_states": [], "num_clicks_accrued": [0, 0, 0, 0, 0, 0, 0, 0, 0, 0, 0, 0, 0], "stateRewards": ["", 2, -8, -24, 48, -4, -8, 24, -48, 4, -8, -24, -24], "withholdReward": true, "trial_id": "mdp_928911266656", "block": "test1", "trialIndex": 22, "score": 46.75, "costs": -0.25, "simulationMode": [null, null, null], "rewards": [2, -8, 48], "path": ["0", "0", "1", "2", "4"], "rt": [2033, 462, 115], "actions": ["up", "up", "left"], "actionTimes": [3601, 4555, 5175], "queries": {"click": {"state": {"target": ["4"], "time": [2430]}, "edge": {"target": [], "time": []}}, "mouseover": {"state": {"target": ["2", "4"], "time": [1975, 2225]}, "edge": {"target": [], "time": []}}, "mouseout": {"state": {"target": ["1", "0", "0", "2", "4"], "time": [808, 1124, 1825, 2158, 2826]}, "edge": {"target": [], "time": []}}}, "displayed_time": "10.57", "trialTime": 11438, "trial_type": "mouselab-mdp", "trial_index": 33, "time_elapsed": 660555, "internal_node_id": "0.0-4.0-1.0-18.0"}}, {"uniqueid": "w50530256:a86974745", "current_trial": 34, "dateTime": 1664464584669, "trialdata": {"revealed_states": [], "num_clicks_accrued": [0, 0, 0, 0, 0, 0, 0, 0, 0, 0, 0, 0, 0], "stateRewards": ["", -4, -8, -48, -48, 4, -8, 48, 48, 2, 8, 48, 24], "withholdReward": true, "trial_id": "mdp_880437222492", "block": "test1", "trialIndex": 23, "score": 48.25, "costs": -0.75, "simulationMode": [null, null, null], "rewards": [4, -8, 48], "path": ["0", "0", "5", "6", "7"], "rt": [4698, 156, 209], "actions": ["right", "right", "up"], "actionTimes": [6108, 6771, 7474], "queries": {"click": {"state": {"target": ["4", "3", "7"], "time": [2295, 3576, 4880]}, "edge": {"target": [], "time": []}}, "mouseover": {"state": {"target": ["4", "10", "11", "3", "3", "7", "6", "7", "6", "6"], "time": [2148, 2815, 2981, 3165, 3431, 4165, 4315, 4498, 5198, 5350]}, "edge": {"target": [], "time": []}}, "mouseout": {"state": {"target": ["5", "5", "0", "4", "10", "11", "3", "3", "7", "6", "7", "6", "6"], "time": [847, 1031, 1887, 2531, 2864, 3081, 3181, 3847, 4198, 4447, 5165, 5214, 5382]}, "edge": {"target": [], "time": []}}}, "displayed_time": "9.41", "trialTime": 10058, "trial_type": "mouselab-mdp", "trial_index": 34, "time_elapsed": 670653, "internal_node_id": "0.0-4.0-1.0-19.0"}}, {"uniqueid": "w50530256:a86974745", "current_trial": 35, "dateTime": 1664464596824, "trialdata": {"revealed_states": [], "num_clicks_accrued": [0, 0, 0, 0, 0, 0, 0, 0, 0, 0, 0, 0, 0], "stateRewards": ["", 4, 4, 48, -24, -4, -8, 24, -24, 2, -8, -24, 24], "withholdReward": true, "trial_id": "mdp_933201675789", "block": "test1", "trialIndex": 24, "score": 60.5, "costs": -0.5, "simulationMode": [null, null, null], "rewards": [4, 4, 48], "path": ["0", "0", "1", "2", "3"], "rt": [2528, 49, 13], "actions": ["up", "up", "right"], "actionTimes": [4082, 4636, 5167], "queries": {"click": {"state": {"target": ["7", "3"], "time": [2304, 2976]}, "edge": {"target": [], "time": []}}, "mouseover": {"state": {"target": ["5", "7", "3", "2", "2"], "time": [1952, 2119, 2803, 3170, 3486]}, "edge": {"target": [], "time": []}}, "mouseout": {"state": {"target": ["6", "5", "0", "5", "7", "3", "2", "2", "5"], "time": [1070, 1186, 1921, 2019, 2536, 3136, 3253, 3519, 10387]}, "edge": {"target": [], "time": []}}}, "displayed_time": "10.56", "trialTime": 12117, "trial_type": "mouselab-mdp", "trial_index": 35, "time_elapsed": 682808, "internal_node_id": "0.0-4.0-1.0-20.0"}}, {"uniqueid": "w50530256:a86974745", "current_trial": 36, "dateTime": 1664464607603, "trialdata": {"revealed_states": [], "num_clicks_accrued": [0, 0, 0, 0, 0, 0, 0, 0, 0, 0, 0, 0, 0], "stateRewards": ["", 4, 8, 48, -48, -4, 8, -24, -24, -4, 8, 48, 48], "withholdReward": true, "trial_id": "mdp_377640328420", "block": "test1", "trialIndex": 25, "score": 64.5, "costs": -0.5, "simulationMode": [null, null, null], "rewards": [4, 8, 48], "path": ["0", "0", "1", "2", "3"], "rt": [2399, 24, 135], "actions": ["up", "up", "right"], "actionTimes": [3191, 3733, 4362], "queries": {"click": {"state": {"target": ["4", "3"], "time": [1384, 2183]}, "edge": {"target": [], "time": []}}, "mouseover": {"state": {"target": ["4", "1", "3"], "time": [1243, 1809, 1976]}, "edge": {"target": [], "time": []}}, "mouseout": {"state": {"target": ["0", "4", "1", "3"], "time": [641, 1625, 1859, 2375]}, "edge": {"target": [], "time": []}}}, "displayed_time": "9.79", "trialTime": 10736, "trial_type": "mouselab-mdp", "trial_index": 36, "time_elapsed": 693587, "internal_node_id": "0.0-4.0-1.0-21.0"}}, {"uniqueid": "w50530256:a86974745", "current_trial": 37, "dateTime": 1664464619258, "trialdata": {"revealed_states": [], "num_clicks_accrued": [0, 0, 0, 0, 0, 0, 0, 0, 0, 0, 0, 0, 0], "stateRewards": ["", -2, -4, 48, -24, 2, -4, -24, -48, 2, 8, -48, -24], "withholdReward": false, "trial_id": "mdp_238243948191", "block": "test1", "trialIndex": 26, "score": 46.75, "costs": -0.25, "simulationMode": [null, null, null], "rewards": [-2, -4, 48], "path": ["0", "0", "1", "2", "3"], "rt": [1643, 85, 60], "actions": ["up", "up", "right"], "actionTimes": [3012, 3584, 4142], "queries": {"click": {"state": {"target": ["3"], "time": [1958]}, "edge": {"target": [], "time": []}}, "mouseover": {"state": {"target": ["3", "1"], "time": [1798, 2398]}, "edge": {"target": [], "time": []}}, "mouseout": {"state": {"target": ["3", "1"], "time": [2181, 2448]}, "edge": {"target": [], "time": []}}}, "displayed_time": "10.38", "trialTime": 11613, "trial_type": "mouselab-mdp", "trial_index": 37, "time_elapsed": 705242, "internal_node_id": "0.0-4.0-1.0-22.0"}}, {"uniqueid": "w50530256:a86974745", "current_trial": 38, "dateTime": 1664464631318, "trialdata": {"revealed_states": [], "num_clicks_accrued": [0, 0, 0, 0, 0, 0, 0, 0, 0, 0, 0, 0, 0], "stateRewards": ["", -2, 8, 48, -24, 2, 4, -48, -24, -4, 8, -48, -48], "withholdReward": false, "trial_id": "mdp_539167561933", "block": "test1", "trialIndex": 27, "score": 57.5, "costs": -1.5, "simulationMode": [null, null, null], "rewards": [-2, 8, 48], "path": ["0", "0", "1", "2", "3"], "rt": [7436, 482, 12], "actions": ["up", "up", "right"], "actionTimes": [8620, 9617, 10130], "queries": {"click": {"state": {"target": ["4", "7", "8", "11", "12", "3"], "time": [2254, 3534, 4701, 5869, 6565, 7629]}, "edge": {"target": [], "time": []}}, "mouseover": {"state": {"target": ["3", "2", "4", "1", "3", "7", "6", "5", "9", "8", "0", "9", "10", "11", "10", "12", "9", "1", "2", "3"], "time": [1534, 1834, 2068, 2784, 2940, 3351, 3767, 3917, 4051, 4333, 5134, 5251, 5368, 5717, 6217, 6334, 6984, 7155, 7285, 7484]}, "edge": {"target": [], "time": []}}, "mouseout": {"state": {"target": ["1", "1", "3", "2", "4", "1", "3", "7", "6", "5", "9", "8", "0", "9", "10", "11", "10", "12", "9", "1", "2", "3"], "time": [533, 850, 1801, 1933, 2484, 2868, 3251, 3734, 3885, 3950, 4184, 5100, 5167, 5350, 5668, 6172, 6284, 6933, 7034, 7184, 7418, 7834]}, "edge": {"target": [], "time": []}}}, "displayed_time": "10.63", "trialTime": 12019, "trial_type": "mouselab-mdp", "trial_index": 38, "time_elapsed": 717302, "internal_node_id": "0.0-4.0-1.0-23.0"}}, {"uniqueid": "w50530256:a86974745", "current_trial": 39, "dateTime": 1664464641829, "trialdata": {"revealed_states": [], "num_clicks_accrued": [0, 0, 0, 0, 0, 0, 0, 0, 0, 0, 0, 0, 0], "stateRewards": ["", 4, -8, -48, -24, 2, -8, -48, 48, -4, 8, 48, -48], "withholdReward": false, "trial_id": "mdp_605757196263", "block": "test1", "trialIndex": 28, "score": 46, "costs": -1, "simulationMode": [null, null, null], "rewards": [2, -8, 48], "path": ["0", "0", "5", "6", "8"], "rt": [3620, 303, 97], "actions": ["right", "right", "down"], "actionTimes": [5576, 6378, 6989], "queries": {"click": {"state": {"target": ["4", "3", "7", "8"], "time": [2506, 3361, 3857, 4512]}, "edge": {"target": [], "time": []}}, "mouseover": {"state": {"target": ["4", "2", "3", "7", "6", "8", "6"], "time": [2375, 2958, 3174, 3656, 4091, 4291, 5024]}, "edge": {"target": [], "time": []}}, "mouseout": {"state": {"target": ["5", "0", "4", "2", "3", "7", "6", "8"], "time": [1457, 2063, 2908, 3008, 3591, 4057, 4191, 4691]}, "edge": {"target": [], "time": []}}}, "displayed_time": "9.98", "trialTime": 10470, "trial_type": "mouselab-mdp", "trial_index": 39, "time_elapsed": 727813, "internal_node_id": "0.0-4.0-1.0-24.0"}}, {"uniqueid": "w50530256:a86974745", "current_trial": 40, "dateTime": 1664464652175, "trialdata": {"revealed_states": [], "num_clicks_accrued": [0, 0, 0, 0, 0, 0, 0, 0, 0, 0, 0, 0, 0], "stateRewards": ["", -2, -4, -48, 48, -2, -4, 24, 48, -4, -8, -24, 24], "withholdReward": true, "trial_id": "mdp_917590390609", "block": "test1", "trialIndex": 29, "score": 46.5, "costs": -0.5, "simulationMode": [null, null, null], "rewards": [-2, -4, 48], "path": ["0", "0", "1", "2", "4"], "rt": [3308, 531, 152], "actions": ["up", "up", "left"], "actionTimes": [4952, 5996, 6635], "queries": {"click": {"state": {"target": ["12", "4"], "time": [2403, 3763]}, "edge": {"target": [], "time": []}}, "mouseover": {"state": {"target": ["9", "12", "12", "10", "11", "4", "1", "6"], "time": [1848, 2031, 2265, 2965, 3130, 3531, 4215, 4347]}, "edge": {"target": [], "time": []}}, "mouseout": {"state": {"target": ["6", "0", "9", "12", "12", "10", "11", "4", "1", "6"], "time": [1097, 1831, 1881, 2114, 2931, 3065, 3432, 4098, 4248, 4381]}, "edge": {"target": [], "time": []}}}, "displayed_time": "9.65", "trialTime": 10307, "trial_type": "mouselab-mdp", "trial_index": 40, "time_elapsed": 738159, "internal_node_id": "0.0-4.0-1.0-25.0"}}, {"uniqueid": "w50530256:a86974745", "current_trial": 41, "dateTime": 1664464663891, "trialdata": {"revealed_states": [], "num_clicks_accrued": [0, 0, 0, 0, 0, 0, 0, 0, 0, 0, 0, 0, 0], "stateRewards": ["", -2, -8, 48, 24, -2, 8, -48, -24, -2, 4, -48, 48], "withholdReward": true, "trial_id": "mdp_295220852217", "block": "test1", "trialIndex": 30, "score": 42.5, "costs": -0.5, "simulationMode": [null, null, null], "rewards": [-2, -8, 48], "path": ["0", "0", "1", "2", "3"], "rt": [2329, 137, 61], "actions": ["up", "up", "right"], "actionTimes": [3973, 4625, 5182], "queries": {"click": {"state": {"target": ["4", "3"], "time": [2234, 2843]}, "edge": {"target": [], "time": []}}, "mouseover": {"state": {"target": ["4", "2", "3", "7"], "time": [2054, 2486, 2653, 3104]}, "edge": {"target": [], "time": []}}, "mouseout": {"state": {"target": ["5", "0", "4", "2", "3", "7"], "time": [1252, 1853, 2433, 2520, 3020, 3353]}, "edge": {"target": [], "time": []}}}, "displayed_time": "10.64", "trialTime": 11678, "trial_type": "mouselab-mdp", "trial_index": 41, "time_elapsed": 749875, "internal_node_id": "0.0-4.0-1.0-26.0"}}, {"uniqueid": "w50530256:a86974745", "current_trial": 42, "dateTime": 1664464675347, "trialdata": {"revealed_states": [], "num_clicks_accrued": [0, 0, 0, 0, 0, 0, 0, 0, 0, 0, 0, 0, 0], "stateRewards": ["", 4, 8, 24, 24, 2, -4, 48, -24, -4, 8, -24, 24], "withholdReward": false, "trial_id": "mdp_932292142091", "block": "test1", "trialIndex": 31, "score": 49.5, "costs": -1.5, "simulationMode": [null, null, null], "rewards": [2, -4, 48], "path": ["0", "0", "5", "6", "7"], "rt": [6211, 315, 119], "actions": ["right", "right", "up"], "actionTimes": [8121, 8935, 9572], "queries": {"click": {"state": {"target": ["3", "4", "11", "12", "8", "7"], "time": [3780, 4572, 5156, 5805, 6492, 7077]}, "edge": {"target": [], "time": []}}, "mouseover": {"state": {"target": ["5", "6", "3", "2", "4", "11", "10", "12", "8", "6", "7"], "time": [2102, 2135, 3635, 4186, 4452, 4936, 5403, 5603, 6252, 6720, 6836]}, "edge": {"target": [], "time": []}}, "mouseout": {"state": {"target": ["6", "0", "5", "6", "3", "2", "4", "11", "10", "12", "8", "6", "7"], "time": [1452, 1803, 2118, 2152, 4102, 4386, 4786, 5353, 5486, 6019, 6686, 6786, 7303]}, "edge": {"target": [], "time": []}}}, "displayed_time": "10.07", "trialTime": 11416, "trial_type": "mouselab-mdp", "trial_index": 42, "time_elapsed": 761331, "internal_node_id": "0.0-4.0-1.0-27.0"}}, {"uniqueid": "w50530256:a86974745", "current_trial": 43, "dateTime": 1664464686806, "trialdata": {"revealed_states": [], "num_clicks_accrued": [0, 0, 0, 0, 0, 0, 0, 0, 0, 0, 0, 0, 0], "stateRewards": ["", 2, 8, 48, -48, -2, -4, -24, 24, 4, -4, 48, -48], "withholdReward": true, "trial_id": "mdp_105734044587", "block": "test1", "trialIndex": 32, "score": 62.5, "costs": -0.5, "simulationMode": [null, null, null], "rewards": [2, 8, 48], "path": ["0", "0", "1", "2", "3"], "rt": [2524, 53, 68], "actions": ["up", "up", "right"], "actionTimes": [3896, 4459, 5041], "queries": {"click": {"state": {"target": ["4", "3"], "time": [2124, 2788]}, "edge": {"target": [], "time": []}}, "mouseover": {"state": {"target": ["4", "2", "3", "7"], "time": [2038, 2488, 2588, 3055]}, "edge": {"target": [], "time": []}}, "mouseout": {"state": {"target": ["6", "5", "0", "4", "2", "3", "7", "8"], "time": [938, 1071, 1626, 2418, 2522, 2988, 3272, 6371]}, "edge": {"target": [], "time": []}}}, "displayed_time": "10.38", "trialTime": 11418, "trial_type": "mouselab-mdp", "trial_index": 43, "time_elapsed": 772790, "internal_node_id": "0.0-4.0-1.0-28.0"}}, {"uniqueid": "w50530256:a86974745", "current_trial": 44, "dateTime": 1664464698917, "trialdata": {"revealed_states": [], "num_clicks_accrued": [0, 0, 0, 0, 0, 0, 0, 0, 0, 0, 0, 0, 0], "stateRewards": ["", -4, 8, -24, -24, 4, -8, 48, -24, -4, -8, -24, -48], "withholdReward": true, "trial_id": "mdp_391766721791", "block": "test1", "trialIndex": 33, "score": 48.25, "costs": -0.75, "simulationMode": [null, null, null], "rewards": [4, -8, 48], "path": ["0", "0", "5", "6", "7"], "rt": [3027, 472, 342], "actions": ["right", "right", "up"], "actionTimes": [5543, 6504, 7341], "queries": {"click": {"state": {"target": ["4", "3", "7"], "time": [3114, 3657, 4402]}, "edge": {"target": [], "time": []}}, "mouseover": {"state": {"target": ["4", "2", "3", "7", "6"], "time": [3015, 3397, 3514, 4248, 4713]}, "edge": {"target": [], "time": []}}, "mouseout": {"state": {"target": ["4", "2", "3", "7", "6", "5"], "time": [3364, 3448, 3947, 4681, 4881, 8231]}, "edge": {"target": [], "time": []}}}, "displayed_time": "11.52", "trialTime": 12071, "trial_type": "mouselab-mdp", "trial_index": 44, "time_elapsed": 784901, "internal_node_id": "0.0-4.0-1.0-29.0"}}, {"uniqueid": "w50530256:a86974745", "current_trial": 45, "dateTime": 1664464705863, "trialdata": {"rt": 6943, "stimulus": "<h1> End of block! </h1>\n\nYou have reached the end of the block 1/4. If you need a short break, feel free to take one now before moving on.\n\n<br><br>\nIn the next block, you will complete another 30 rounds of this game.\n\n<br><br>\n<div style='text-align: center;'>Press <code>space</code> to begin.</div>\n<br><br>\n<div style='text-align: center;'>(If the experiment doesn't continue, try clicking on the text and then pressing <code>space</code>.)</div>", "response": " ", "trial_id": "mdp_ready_2", "trial_type": "html-keyboard-response", "trial_index": 45, "time_elapsed": 791847, "internal_node_id": "0.0-4.0-2.0"}}, {"uniqueid": "w50530256:a86974745", "current_trial": 46, "dateTime": 1664464717173, "trialdata": {"revealed_states": [], "num_clicks_accrued": [0, 0, 0, 0, 0, 0, 0, 0, 0, 0, 0, 0, 0], "stateRewards": ["", 2, -4, -48, -48, -2, -4, -24, -48, -2, 8, 24, 24], "withholdReward": true, "trial_id": "mdp_656069446729", "block": "test2", "trialIndex": 34, "score": 33.5, "costs": -1.5, "simulationMode": [null, null, null], "rewards": [-2, 8, 24], "path": ["0", "0", "9", "10", "11"], "rt": [7098, 45, 90], "actions": ["left", "left", "up"], "actionTimes": [8484, 9019, 9614], "queries": {"click": {"state": {"target": ["11", "3", "4", "8", "7", "12"], "time": [2174, 2983, 3712, 4583, 5231, 6054]}, "edge": {"target": [], "time": []}}, "mouseover": {"state": {"target": ["9", "11", "1", "3", "2", "4", "1", "5", "6", "8", "6", "7", "5", "9", "12", "0", "5", "6"], "time": [1644, 1872, 2556, 2806, 3373, 3405, 4022, 4172, 4205, 4422, 4906, 5073, 5639, 5705, 5872, 6273, 6839, 6923]}, "edge": {"target": [], "time": []}}, "mouseout": {"state": {"target": ["8", "6", "5", "9", "11", "1", "3", "2", "4", "1", "5", "6", "8", "6", "7", "5", "9", "12", "0", "5", "6"], "time": [605, 805, 821, 1672, 2340, 2589, 3222, 3389, 3972, 4055, 4189, 4255, 4756, 4956, 5539, 5655, 5756, 6189, 6822, 6889, 7356]}, "edge": {"target": [], "time": []}}}, "displayed_time": "10.12", "trialTime": 11268, "trial_type": "mouselab-mdp", "trial_index": 46, "time_elapsed": 803157, "internal_node_id": "0.0-4.0-3.0-0.0"}}, {"uniqueid": "w50530256:a86974745", "current_trial": 47, "dateTime": 1664464727383, "trialdata": {"revealed_states": [], "num_clicks_accrued": [0, 0, 0, 0, 0, 0, 0, 0, 0, 0, 0, 0, 0], "stateRewards": ["", 2, -4, 24, -24, 2, -8, 48, 48, 4, -4, 24, 48], "withholdReward": false, "trial_id": "mdp_947836623875", "block": "test2", "trialIndex": 35, "score": 46.25, "costs": -0.75, "simulationMode": [null, null, null], "rewards": [2, -8, 48], "path": ["0", "0", "5", "6", "7"], "rt": [2715, 2, 50], "actions": ["right", "right", "up"], "actionTimes": [3559, 4069, 4634], "queries": {"click": {"state": {"target": ["4", "3", "7"], "time": [1396, 1940, 2451]}, "edge": {"target": [], "time": []}}, "mouseover": {"state": {"target": ["4", "2", "3", "7", "6"], "time": [1233, 1649, 1816, 2332, 2699]}, "edge": {"target": [], "time": []}}, "mouseout": {"state": {"target": ["8", "0", "4", "2", "3", "7", "6"], "time": [402, 1016, 1616, 1666, 2183, 2666, 2766]}, "edge": {"target": [], "time": []}}}, "displayed_time": "9.85", "trialTime": 10171, "trial_type": "mouselab-mdp", "trial_index": 47, "time_elapsed": 813367, "internal_node_id": "0.0-4.0-3.0-1.0"}}, {"uniqueid": "w50530256:a86974745", "current_trial": 48, "dateTime": 1664464737879, "trialdata": {"revealed_states": [], "num_clicks_accrued": [0, 0, 0, 0, 0, 0, 0, 0, 0, 0, 0, 0, 0], "stateRewards": ["", -2, 8, -24, 48, -4, 4, -48, 24, 4, -8, 48, -24], "withholdReward": true, "trial_id": "mdp_425320427962", "block": "test2", "trialIndex": 36, "score": 58.75, "costs": -0.25, "simulationMode": [null, null, null], "rewards": [-2, 8, 48], "path": ["0", "0", "1", "2", "4"], "rt": [1763, 380, 42], "actions": ["up", "up", "left"], "actionTimes": [2563, 3449, 3979], "queries": {"click": {"state": {"target": ["4"], "time": [1293]}, "edge": {"target": [], "time": []}}, "mouseover": {"state": {"target": ["4", "2", "7"], "time": [1169, 1518, 1985]}, "edge": {"target": [], "time": []}}, "mouseout": {"state": {"target": ["6", "5", "4", "2", "7"], "time": [252, 302, 1485, 1585, 2019]}, "edge": {"target": [], "time": []}}}, "displayed_time": "9.81", "trialTime": 10453, "trial_type": "mouselab-mdp", "trial_index": 48, "time_elapsed": 823863, "internal_node_id": "0.0-4.0-3.0-2.0"}}, {"uniqueid": "w50530256:a86974745", "current_trial": 49, "dateTime": 1664464747962, "trialdata": {"revealed_states": [], "num_clicks_accrued": [0, 0, 0, 0, 0, 0, 0, 0, 0, 0, 0, 0, 0], "stateRewards": ["", -4, -8, 24, -48, 2, 4, -48, -48, 2, -8, 24, 48], "withholdReward": true, "trial_id": "mdp_111262146724", "block": "test2", "trialIndex": 37, "score": 45.75, "costs": -1.25, "simulationMode": [null, null, null], "rewards": [2, -8, 48], "path": ["0", "0", "9", "10", "12"], "rt": [4674, 37, 541], "actions": ["left", "left", "down"], "actionTimes": [6146, 6700, 7755], "queries": {"click": {"state": {"target": ["4", "3", "7", "8", "12"], "time": [2139, 2898, 3523, 4212, 5043]}, "edge": {"target": [], "time": []}}, "mouseover": {"state": {"target": ["1", "4", "2", "3", "7", "6", "8", "12", "10", "2"], "time": [1696, 1863, 2378, 2795, 3378, 3746, 4045, 4746, 5379, 5579]}, "edge": {"target": [], "time": []}}, "mouseout": {"state": {"target": ["7", "1", "4", "2", "3", "7", "6", "8", "12", "10"], "time": [961, 1713, 2346, 2563, 3162, 3696, 3896, 4346, 5330, 5463]}, "edge": {"target": [], "time": []}}}, "displayed_time": "9.48", "trialTime": 10038, "trial_type": "mouselab-mdp", "trial_index": 49, "time_elapsed": 833946, "internal_node_id": "0.0-4.0-3.0-3.0"}}, {"uniqueid": "w50530256:a86974745", "current_trial": 50, "dateTime": 1664464759496, "trialdata": {"revealed_states": [], "num_clicks_accrued": [0, 0, 0, 0, 0, 0, 0, 0, 0, 0, 0, 0, 0], "stateRewards": ["", -4, 4, 48, 24, -4, 4, -24, 48, -2, -8, 24, -48], "withholdReward": true, "trial_id": "mdp_261501605436", "block": "test2", "trialIndex": 38, "score": 52, "costs": -1, "simulationMode": [null, null, null], "rewards": [-4, 4, 48], "path": ["0", "0", "1", "2", "3"], "rt": [4568, 33, 14], "actions": ["up", "up", "right"], "actionTimes": [6113, 6646, 7177], "queries": {"click": {"state": {"target": ["11", "12", "4", "3"], "time": [2512, 3471, 4255, 4880]}, "edge": {"target": [], "time": []}}, "mouseover": {"state": {"target": ["9", "10", "11", "10", "12", "4", "4", "2", "3", "7"], "time": [1812, 1894, 2295, 2846, 3311, 3878, 4112, 4512, 4762, 5379]}, "edge": {"target": [], "time": []}}, "mouseout": {"state": {"target": ["2", "0", "9", "10", "11", "10", "12", "4", "4", "2", "3", "7", "5", "8"], "time": [894, 1779, 1868, 2212, 2762, 3229, 3678, 3895, 4462, 4612, 5078, 5463, 10329, 10711]}, "edge": {"target": [], "time": []}}}, "displayed_time": "10.55", "trialTime": 11488, "trial_type": "mouselab-mdp", "trial_index": 50, "time_elapsed": 845480, "internal_node_id": "0.0-4.0-3.0-4.0"}}, {"uniqueid": "w50530256:a86974745", "current_trial": 51, "dateTime": 1664464769756, "trialdata": {"revealed_states": [], "num_clicks_accrued": [0, 0, 0, 0, 0, 0, 0, 0, 0, 0, 0, 0, 0], "stateRewards": ["", 4, -8, 24, 48, 2, -4, 48, 48, 4, -8, 48, 48], "withholdReward": true, "trial_id": "mdp_962498334245", "block": "test2", "trialIndex": 39, "score": 48.5, "costs": -0.5, "simulationMode": [null, null, null], "rewards": [4, -8, 48], "path": ["0", "0", "1", "2", "4"], "rt": [2307, 57, 517], "actions": ["up", "up", "left"], "actionTimes": [2881, 3456, 4483], "queries": {"click": {"state": {"target": ["3", "4"], "time": [1149, 1764]}, "edge": {"target": [], "time": []}}, "mouseover": {"state": {"target": ["3", "2", "4", "11", "1"], "time": [1048, 1481, 1548, 2048, 2298]}, "edge": {"target": [], "time": []}}, "mouseout": {"state": {"target": ["0", "3", "2", "4", "11", "1"], "time": [381, 1398, 1498, 1948, 2232, 2331]}, "edge": {"target": [], "time": []}}}, "displayed_time": "9.58", "trialTime": 10216, "trial_type": "mouselab-mdp", "trial_index": 51, "time_elapsed": 855739, "internal_node_id": "0.0-4.0-3.0-5.0"}}, {"uniqueid": "w50530256:a86974745", "current_trial": 52, "dateTime": 1664464781139, "trialdata": {"revealed_states": [], "num_clicks_accrued": [0, 0, 0, 0, 0, 0, 0, 0, 0, 0, 0, 0, 0], "stateRewards": ["", 2, 4, 24, 48, -2, 8, 24, -24, -4, -4, 48, 48], "withholdReward": true, "trial_id": "mdp_753439303214", "block": "test2", "trialIndex": 40, "score": 58.75, "costs": -0.25, "simulationMode": [null, null, null], "rewards": [2, 4, 48], "path": ["0", "0", "1", "2", "4"], "rt": [1614, 73, 389], "actions": ["up", "up", "left"], "actionTimes": [3130, 3695, 4578], "queries": {"click": {"state": {"target": ["4"], "time": [2064]}, "edge": {"target": [], "time": []}}, "mouseover": {"state": {"target": ["4", "2", "7"], "time": [1887, 2415, 2588]}, "edge": {"target": [], "time": []}}, "mouseout": {"state": {"target": ["0", "4", "2", "7"], "time": [1687, 2254, 2521, 2605]}, "edge": {"target": [], "time": []}}}, "displayed_time": "9.52", "trialTime": 11339, "trial_type": "mouselab-mdp", "trial_index": 52, "time_elapsed": 867123, "internal_node_id": "0.0-4.0-3.0-6.0"}}, {"uniqueid": "w50530256:a86974745", "current_trial": 53, "dateTime": 1664464792049, "trialdata": {"revealed_states": [], "num_clicks_accrued": [0, 0, 0, 0, 0, 0, 0, 0, 0, 0, 0, 0, 0], "stateRewards": ["", 2, -8, 24, -48, 2, 4, 48, -48, -2, -8, -48, 48], "withholdReward": true, "trial_id": "mdp_629420544881", "block": "test2", "trialIndex": 41, "score": 58.25, "costs": -0.75, "simulationMode": [null, null, null], "rewards": [2, 4, 48], "path": ["0", "0", "5", "6", "7"], "rt": [3148, 334, 58], "actions": ["right", "right", "up"], "actionTimes": [4465, 5291, 5848], "queries": {"click": {"state": {"target": ["4", "3", "7"], "time": [2240, 2937, 3416]}, "edge": {"target": [], "time": []}}, "mouseover": {"state": {"target": ["0", "4", "1", "3", "7", "6"], "time": [1771, 2104, 2539, 2721, 3355, 3637]}, "edge": {"target": [], "time": []}}, "mouseout": {"state": {"target": ["6", "5", "0", "0", "4", "1", "3", "7", "6"], "time": [855, 972, 1605, 1788, 2488, 2572, 3171, 3604, 3687]}, "edge": {"target": [], "time": []}}}, "displayed_time": "10.33", "trialTime": 10866, "trial_type": "mouselab-mdp", "trial_index": 53, "time_elapsed": 878033, "internal_node_id": "0.0-4.0-3.0-7.0"}}, {"uniqueid": "w50530256:a86974745", "current_trial": 54, "dateTime": 1664464803388, "trialdata": {"revealed_states": [], "num_clicks_accrued": [0, 0, 0, 0, 0, 0, 0, 0, 0, 0, 0, 0, 0], "stateRewards": ["", -4, -4, 24, -48, 2, 4, -24, -48, -2, -8, -24, 24], "withholdReward": true, "trial_id": "mdp_565569130486", "block": "test2", "trialIndex": 42, "score": 17.5, "costs": -1.5, "simulationMode": [null, null, null], "rewards": [-2, -8, 24], "path": ["0", "0", "9", "10", "12"], "rt": [5259, 33, 272], "actions": ["left", "left", "down"], "actionTimes": [7120, 7663, 8436], "queries": {"click": {"state": {"target": ["11", "12", "4", "3", "7", "8"], "time": [2765, 3525, 4155, 4691, 5163, 5755]}, "edge": {"target": [], "time": []}}, "mouseover": {"state": {"target": ["9", "10", "11", "10", "12", "4", "2", "3", "7", "8"], "time": [2232, 2264, 2664, 3147, 3314, 3981, 4345, 4545, 4945, 5580]}, "edge": {"target": [], "time": []}}, "mouseout": {"state": {"target": ["5", "0", "0", "9", "10", "11", "10", "12", "4", "2", "3", "7", "8"], "time": [1298, 1430, 2231, 2248, 2364, 3098, 3264, 3781, 4329, 4429, 4880, 5346, 5913]}, "edge": {"target": [], "time": []}}}, "displayed_time": "10.87", "trialTime": 11297, "trial_type": "mouselab-mdp", "trial_index": 54, "time_elapsed": 889372, "internal_node_id": "0.0-4.0-3.0-8.0"}}, {"uniqueid": "w50530256:a86974745", "current_trial": 55, "dateTime": 1664464814548, "trialdata": {"revealed_states": [], "num_clicks_accrued": [0, 0, 0, 0, 0, 0, 0, 0, 0, 0, 0, 0, 0], "stateRewards": ["", 4, -8, 48, 48, 2, 4, 48, -48, 4, -4, -48, 48], "withholdReward": true, "trial_id": "mdp_519605841135", "block": "test2", "trialIndex": 43, "score": 48.75, "costs": -0.25, "simulationMode": [null, null, null], "rewards": [4, -8, 48], "path": ["0", "0", "1", "2", "4"], "rt": [1908, 526, 36], "actions": ["up", "up", "left"], "actionTimes": [3574, 4615, 5143], "queries": {"click": {"state": {"target": ["4"], "time": [2430]}, "edge": {"target": [], "time": []}}, "mouseover": {"state": {"target": ["1", "4", "2", "3"], "time": [2122, 2238, 2706, 2855]}, "edge": {"target": [], "time": []}}, "mouseout": {"state": {"target": ["6", "5", "1", "4", "2", "3"], "time": [1172, 1322, 2138, 2645, 2755, 2905]}, "edge": {"target": [], "time": []}}}, "displayed_time": "10.67", "trialTime": 11116, "trial_type": "mouselab-mdp", "trial_index": 55, "time_elapsed": 900532, "internal_node_id": "0.0-4.0-3.0-9.0"}}, {"uniqueid": "w50530256:a86974745", "current_trial": 56, "dateTime": 1664464824140, "trialdata": {"revealed_states": [], "num_clicks_accrued": [0, 0, 0, 0, 0, 0, 0, 0, 0, 0, 0, 0, 0], "stateRewards": ["", 2, 4, -48, 24, -4, -4, -24, 24, 2, -4, 24, -24], "withholdReward": true, "trial_id": "mdp_163600331068", "block": "test2", "trialIndex": 44, "score": 33.5, "costs": -1.5, "simulationMode": [null, null, null], "rewards": [2, 4, 24], "path": ["0", "0", "1", "2", "4"], "rt": [6162, 11, 293], "actions": ["up", "up", "left"], "actionTimes": [7141, 7643, 8458], "queries": {"click": {"state": {"target": ["4", "3", "7", "8", "12", "11"], "time": [1807, 2774, 3383, 4134, 4878, 5782]}, "edge": {"target": [], "time": []}}, "mouseover": {"state": {"target": ["4", "2", "3", "3", "7", "8", "12", "10", "11", "11", "1"], "time": [1413, 2163, 2313, 2546, 3097, 3980, 4697, 5080, 5147, 5688, 5981]}, "edge": {"target": [], "time": []}}, "mouseout": {"state": {"target": ["5", "1", "0", "4", "2", "3", "3", "7", "8", "12", "10", "11", "11", "1"], "time": [163, 597, 1180, 2146, 2196, 2396, 3013, 3597, 4314, 5046, 5113, 5364, 5949, 5997]}, "edge": {"target": [], "time": []}}}, "displayed_time": "8.99", "trialTime": 9548, "trial_type": "mouselab-mdp", "trial_index": 56, "time_elapsed": 910124, "internal_node_id": "0.0-4.0-3.0-10.0"}}, {"uniqueid": "w50530256:a86974745", "current_trial": 57, "dateTime": 1664464834610, "trialdata": {"revealed_states": [], "num_clicks_accrued": [0, 0, 0, 0, 0, 0, 0, 0, 0, 0, 0, 0, 0], "stateRewards": ["", 4, 8, 48, -48, -4, 8, -24, -24, -4, 8, 48, 48], "withholdReward": true, "trial_id": "mdp_377640328420", "block": "test2", "trialIndex": 45, "score": 64.5, "costs": -0.5, "simulationMode": [null, null, null], "rewards": [4, 8, 48], "path": ["0", "0", "1", "2", "3"], "rt": [2222, 298, 9], "actions": ["up", "up", "right"], "actionTimes": [3942, 4756, 5266], "queries": {"click": {"state": {"target": ["4", "3"], "time": [2216, 2904]}, "edge": {"target": [], "time": []}}, "mouseover": {"state": {"target": ["4", "2", "3", "7"], "time": [2039, 2489, 2756, 3390]}, "edge": {"target": [], "time": []}}, "mouseout": {"state": {"target": ["4", "2", "3", "7", "7", "5"], "time": [2439, 2606, 3090, 3405, 9006, 9073]}, "edge": {"target": [], "time": []}}}, "displayed_time": "9.73", "trialTime": 10428, "trial_type": "mouselab-mdp", "trial_index": 57, "time_elapsed": 920594, "internal_node_id": "0.0-4.0-3.0-11.0"}}, {"uniqueid": "w50530256:a86974745", "current_trial": 58, "dateTime": 1664464844968, "trialdata": {"revealed_states": [], "num_clicks_accrued": [0, 0, 0, 0, 0, 0, 0, 0, 0, 0, 0, 0, 0], "stateRewards": ["", 2, -4, 48, -24, 4, -8, -24, 48, -2, -4, 24, -48], "withholdReward": true, "trial_id": "mdp_357328205509", "block": "test2", "trialIndex": 46, "score": 50.5, "costs": -0.5, "simulationMode": [null, null, null], "rewards": [2, -4, 48], "path": ["0", "0", "1", "2", "3"], "rt": [2741, 82, 29], "actions": ["up", "up", "right"], "actionTimes": [3552, 4150, 4681], "queries": {"click": {"state": {"target": ["4", "3"], "time": [1664, 2216]}, "edge": {"target": [], "time": []}}, "mouseover": {"state": {"target": ["4", "2", "3", "7"], "time": [1485, 1951, 2035, 2451]}, "edge": {"target": [], "time": []}}, "mouseout": {"state": {"target": ["0", "4", "2", "3", "7"], "time": [684, 1918, 2001, 2400, 2750]}, "edge": {"target": [], "time": []}}}, "displayed_time": "9.81", "trialTime": 10313, "trial_type": "mouselab-mdp", "trial_index": 58, "time_elapsed": 930952, "internal_node_id": "0.0-4.0-3.0-12.0"}}, {"uniqueid": "w50530256:a86974745", "current_trial": 59, "dateTime": 1664464856186, "trialdata": {"revealed_states": [], "num_clicks_accrued": [0, 0, 0, 0, 0, 0, 0, 0, 0, 0, 0, 0, 0], "stateRewards": ["", -2, -4, -24, -48, 2, -8, -24, -24, 4, -8, 48, 48], "withholdReward": true, "trial_id": "mdp_950599994674", "block": "test2", "trialIndex": 47, "score": 48.75, "costs": -0.25, "simulationMode": [null, null, null], "rewards": [4, -8, 48], "path": ["0", "0", "9", "10", "12"], "rt": [1784, 21, 53], "actions": ["left", "left", "down"], "actionTimes": [3406, 3934, 4484], "queries": {"click": {"state": {"target": ["12"], "time": [2325]}, "edge": {"target": [], "time": []}}, "mouseover": {"state": {"target": ["9", "12", "10", "1"], "time": [1836, 2164, 2579, 2796]}, "edge": {"target": [], "time": []}}, "mouseout": {"state": {"target": ["1", "9", "0", "9", "12", "10", "1"], "time": [964, 1246, 1462, 1964, 2547, 2730, 2813]}, "edge": {"target": [], "time": []}}}, "displayed_time": "10.63", "trialTime": 11177, "trial_type": "mouselab-mdp", "trial_index": 59, "time_elapsed": 942170, "internal_node_id": "0.0-4.0-3.0-13.0"}}, {"uniqueid": "w50530256:a86974745", "current_trial": 60, "dateTime": 1664464866859, "trialdata": {"revealed_states": [], "num_clicks_accrued": [0, 0, 0, 0, 0, 0, 0, 0, 0, 0, 0, 0, 0], "stateRewards": ["", 2, 4, 48, -24, 2, -8, -24, -24, 2, -8, -24, -48], "withholdReward": true, "trial_id": "mdp_274832552938", "block": "test2", "trialIndex": 48, "score": 58, "costs": -1, "simulationMode": [null, null, null], "rewards": [2, 4, 48], "path": ["0", "0", "1", "2", "3"], "rt": [5527, 15, 1886], "actions": ["up", "up", "right"], "actionTimes": [6481, 6989, 9394], "queries": {"click": {"state": {"target": ["12", "11", "4", "3"], "time": [1821, 2413, 2998, 3605]}, "edge": {"target": [], "time": []}}, "mouseover": {"state": {"target": ["0", "9", "12", "12", "10", "11", "4", "2", "3", "7"], "time": [1023, 1140, 1223, 1607, 2106, 2173, 2807, 3190, 3356, 4006]}, "edge": {"target": [], "time": []}}, "mouseout": {"state": {"target": ["7", "1", "0", "9", "12", "12", "10", "11", "4", "2", "3", "7"], "time": [457, 640, 1107, 1157, 1257, 2090, 2156, 2590, 3156, 3240, 3773, 4140]}, "edge": {"target": [], "time": []}}}, "displayed_time": "9.89", "trialTime": 10629, "trial_type": "mouselab-mdp", "trial_index": 60, "time_elapsed": 952843, "internal_node_id": "0.0-4.0-3.0-14.0"}}, {"uniqueid": "w50530256:a86974745", "current_trial": 61, "dateTime": 1664464885295, "trialdata": {"revealed_states": [], "num_clicks_accrued": [0, 0, 0, 0, 0, 0, 0, 0, 0, 0, 0, 0, 0], "stateRewards": ["", -4, 8, -48, -48, -4, 4, -24, -48, 2, -4, -24, 24], "withholdReward": false, "trial_id": "mdp_183773275291", "block": "test2", "trialIndex": 49, "score": 25.5, "costs": -1.5, "simulationMode": [null, null, null], "rewards": [2, -4, 24], "path": ["0", "0", "9", "10", "12"], "rt": [5204, 453, 21], "actions": ["left", "left", "down"], "actionTimes": [13788, 14737, 15255], "queries": {"click": {"state": {"target": ["4", "3", "7", "8", "12", "11"], "time": [9564, 10140, 10586, 11314, 11979, 12603]}, "edge": {"target": [], "time": []}}, "mouseover": {"state": {"target": ["1", "2", "4", "2", "3", "7", "8", "12", "11", "1"], "time": [9033, 9250, 9283, 9817, 10034, 10501, 11167, 11800, 12417, 12784]}, "edge": {"target": [], "time": []}}, "mouseout": {"state": {"target": ["5", "0", "1", "2", "4", "2", "3", "7", "8", "12", "11", "1", "7"], "time": [8249, 8750, 9116, 9267, 9786, 9850, 10384, 10750, 11500, 12184, 12733, 12800, 12850]}, "edge": {"target": [], "time": []}}}, "displayed_time": "16.59", "trialTime": 18392, "trial_type": "mouselab-mdp", "trial_index": 61, "time_elapsed": 971279, "internal_node_id": "0.0-4.0-3.0-15.0"}}, {"uniqueid": "w50530256:a86974745", "current_trial": 62, "dateTime": 1664464896696, "trialdata": {"revealed_states": [], "num_clicks_accrued": [0, 0, 0, 0, 0, 0, 0, 0, 0, 0, 0, 0, 0], "stateRewards": ["", 4, 4, 24, -24, -4, -8, 48, -24, 4, 4, 48, 24], "withholdReward": true, "trial_id": "mdp_822446942217", "block": "test2", "trialIndex": 50, "score": 40.25, "costs": -0.75, "simulationMode": [null, null, null], "rewards": [-4, -8, 48], "path": ["0", "0", "5", "6", "7"], "rt": [3168, 341, 4578], "actions": ["right", "right", "up"], "actionTimes": [4031, 4870, 9940], "queries": {"click": {"state": {"target": ["4", "3", "7"], "time": [1498, 2036, 2732]}, "edge": {"target": [], "time": []}}, "mouseover": {"state": {"target": ["11", "4", "2", "3", "7"], "time": [1161, 1328, 1710, 1794, 2494]}, "edge": {"target": [], "time": []}}, "mouseout": {"state": {"target": ["11", "4", "2", "3", "7"], "time": [1177, 1661, 1744, 2227, 2911]}, "edge": {"target": [], "time": []}}}, "displayed_time": "10.43", "trialTime": 11353, "trial_type": "mouselab-mdp", "trial_index": 62, "time_elapsed": 982680, "internal_node_id": "0.0-4.0-3.0-16.0"}}, {"uniqueid": "w50530256:a86974745", "current_trial": 63, "dateTime": 1664464908000, "trialdata": {"revealed_states": [], "num_clicks_accrued": [0, 0, 0, 0, 0, 0, 0, 0, 0, 0, 0, 0, 0], "stateRewards": ["", -2, -4, -24, -48, -4, -8, -48, 24, -4, -8, -24, -48], "withholdReward": false, "trial_id": "mdp_475782454549", "block": "test2", "trialIndex": 51, "score": 15.5, "costs": -1.5, "simulationMode": [null, null, null], "rewards": [-4, -8, 24], "path": ["0", "0", "5", "6", "8"], "rt": [4860, 261, 58], "actions": ["right", "right", "down"], "actionTimes": [6783, 7561, 8125], "queries": {"click": {"state": {"target": ["4", "3", "7", "8", "12", "11"], "time": [2615, 3160, 3623, 4199, 4950, 5480]}, "edge": {"target": [], "time": []}}, "mouseover": {"state": {"target": ["4", "2", "3", "7", "6", "8", "12", "10", "11"], "time": [2498, 2881, 2981, 3501, 3831, 3982, 4815, 5149, 5215]}, "edge": {"target": [], "time": []}}, "mouseout": {"state": {"target": ["0", "4", "2", "3", "7", "6", "8", "12", "10", "11"], "time": [2115, 2848, 2949, 3398, 3798, 3899, 4349, 5133, 5182, 5632]}, "edge": {"target": [], "time": []}}}, "displayed_time": "10.93", "trialTime": 11261, "trial_type": "mouselab-mdp", "trial_index": 63, "time_elapsed": 993984, "internal_node_id": "0.0-4.0-3.0-17.0"}}, {"uniqueid": "w50530256:a86974745", "current_trial": 64, "dateTime": 1664464919389, "trialdata": {"revealed_states": [], "num_clicks_accrued": [0, 0, 0, 0, 0, 0, 0, 0, 0, 0, 0, 0, 0], "stateRewards": ["", 4, 8, -48, -48, 2, 4, -24, -48, 2, 8, 48, -48], "withholdReward": false, "trial_id": "mdp_902172716465", "block": "test2", "trialIndex": 52, "score": 61.75, "costs": -1.25, "simulationMode": [null, null, null], "rewards": [2, 8, 48], "path": ["0", "0", "9", "10", "11"], "rt": [4066, 167, 52], "actions": ["left", "left", "up"], "actionTimes": [5936, 6589, 7141], "queries": {"click": {"state": {"target": ["4", "3", "7", "8", "12"], "time": [2450, 2922, 3353, 3897, 4689]}, "edge": {"target": [], "time": []}}, "mouseover": {"state": {"target": ["4", "2", "3", "7", "6", "8", "12", "10", "11"], "time": [2289, 2639, 2806, 3255, 3589, 3772, 4589, 4874, 5005]}, "edge": {"target": [], "time": []}}, "mouseout": {"state": {"target": ["7", "0", "4", "2", "3", "7", "6", "8", "12", "10", "11"], "time": [1089, 1989, 2605, 2672, 3122, 3544, 3656, 4072, 4839, 4939, 5239]}, "edge": {"target": [], "time": []}}}, "displayed_time": "9.88", "trialTime": 11340, "trial_type": "mouselab-mdp", "trial_index": 64, "time_elapsed": 1005373, "internal_node_id": "0.0-4.0-3.0-18.0"}}, {"uniqueid": "w50530256:a86974745", "current_trial": 65, "dateTime": 1664464930144, "trialdata": {"revealed_states": [], "num_clicks_accrued": [0, 0, 0, 0, 0, 0, 0, 0, 0, 0, 0, 0, 0], "stateRewards": ["", -4, -8, -24, 24, 4, 4, -48, -48, -4, -4, 24, -48], "withholdReward": true, "trial_id": "mdp_431592223624", "block": "test2", "trialIndex": 53, "score": 19.5, "costs": -1.5, "simulationMode": [null, null, null], "rewards": [-4, -4, 24], "path": ["0", "0", "9", "10", "11"], "rt": [5150, 366, 391], "actions": ["left", "left", "up"], "actionTimes": [7450, 8322, 9229], "queries": {"click": {"state": {"target": ["4", "3", "7", "8", "12", "11"], "time": [2968, 3592, 4032, 4768, 5513, 6232]}, "edge": {"target": [], "time": []}}, "mouseover": {"state": {"target": ["1", "4", "2", "3", "7", "8", "12", "10", "11", "1"], "time": [2638, 2738, 3191, 3354, 3888, 4621, 5354, 5821, 5904, 6456]}, "edge": {"target": [], "time": []}}, "mouseout": {"state": {"target": ["3", "2", "1", "0", "1", "4", "2", "3", "7", "8", "12", "10", "11", "1"], "time": [1654, 1820, 1988, 2471, 2671, 3155, 3254, 3788, 4238, 4955, 5788, 5871, 6405, 6488]}, "edge": {"target": [], "time": []}}}, "displayed_time": "10.31", "trialTime": 10704, "trial_type": "mouselab-mdp", "trial_index": 65, "time_elapsed": 1016127, "internal_node_id": "0.0-4.0-3.0-19.0"}}, {"uniqueid": "w50530256:a86974745", "current_trial": 66, "dateTime": 1664464940778, "trialdata": {"revealed_states": [], "num_clicks_accrued": [0, 0, 0, 0, 0, 0, 0, 0, 0, 0, 0, 0, 0], "stateRewards": ["", -2, -4, -48, -48, 4, -4, 48, 24, 4, 4, 48, 48], "withholdReward": true, "trial_id": "mdp_950960813932", "block": "test2", "trialIndex": 54, "score": 52.25, "costs": -0.75, "simulationMode": [null, null, null], "rewards": [4, -4, 48], "path": ["0", "0", "5", "6", "7"], "rt": [2914, 76, 166], "actions": ["right", "right", "up"], "actionTimes": [4954, 5518, 6191], "queries": {"click": {"state": {"target": ["4", "3", "7"], "time": [2924, 3501, 4021]}, "edge": {"target": [], "time": []}}, "mouseover": {"state": {"target": ["1", "4", "2", "3", "7", "6", "8"], "time": [2490, 2740, 3156, 3340, 3873, 4241, 4323]}, "edge": {"target": [], "time": []}}, "mouseout": {"state": {"target": ["7", "5", "0", "0", "1", "4", "2", "3", "7", "6", "8"], "time": [1257, 1423, 1474, 2440, 2523, 3123, 3206, 3690, 4174, 4291, 4491]}, "edge": {"target": [], "time": []}}}, "displayed_time": "10.04", "trialTime": 10591, "trial_type": "mouselab-mdp", "trial_index": 66, "time_elapsed": 1026762, "internal_node_id": "0.0-4.0-3.0-20.0"}}, {"uniqueid": "w50530256:a86974745", "current_trial": 67, "dateTime": 1664464950964, "trialdata": {"revealed_states": [], "num_clicks_accrued": [0, 0, 0, 0, 0, 0, 0, 0, 0, 0, 0, 0, 0], "stateRewards": ["", 2, 8, 48, 24, 2, 8, 48, 48, -2, -4, -24, -48], "withholdReward": false, "trial_id": "mdp_717636349175", "block": "test2", "trialIndex": 55, "score": 62.5, "costs": -0.5, "simulationMode": [null, null, null], "rewards": [2, 8, 48], "path": ["0", "0", "1", "2", "3"], "rt": [2202, 75, 18], "actions": ["up", "up", "right"], "actionTimes": [3637, 4216, 4741], "queries": {"click": {"state": {"target": ["4", "3"], "time": [2083, 2602]}, "edge": {"target": [], "time": []}}, "mouseover": {"state": {"target": ["4", "2", "3", "7"], "time": [1856, 2305, 2472, 2923]}, "edge": {"target": [], "time": []}}, "mouseout": {"state": {"target": ["5", "0", "4", "2", "3", "7", "8", "0"], "time": [973, 1256, 2289, 2355, 2806, 3106, 6539, 8989]}, "edge": {"target": [], "time": []}}}, "displayed_time": "9.44", "trialTime": 10142, "trial_type": "mouselab-mdp", "trial_index": 67, "time_elapsed": 1036948, "internal_node_id": "0.0-4.0-3.0-21.0"}}, {"uniqueid": "w50530256:a86974745", "current_trial": 68, "dateTime": 1664464960663, "trialdata": {"revealed_states": [], "num_clicks_accrued": [0, 0, 0, 0, 0, 0, 0, 0, 0, 0, 0, 0, 0], "stateRewards": ["", -2, 8, 48, -48, 4, -8, 24, 24, 4, 4, -48, -24], "withholdReward": false, "trial_id": "mdp_746937869927", "block": "test2", "trialIndex": 56, "score": 58.5, "costs": -0.5, "simulationMode": [null, null, null], "rewards": [-2, 8, 48], "path": ["0", "0", "1", "2", "3"], "rt": [2375, 140, 38], "actions": ["up", "up", "right"], "actionTimes": [2979, 3628, 4176], "queries": {"click": {"state": {"target": ["4", "3"], "time": [1272, 1791]}, "edge": {"target": [], "time": []}}, "mouseover": {"state": {"target": ["4", "3", "7"], "time": [1136, 1686, 2020]}, "edge": {"target": [], "time": []}}, "mouseout": {"state": {"target": ["0", "0", "4", "3", "7"], "time": [336, 869, 1437, 1953, 2270]}, "edge": {"target": [], "time": []}}}, "displayed_time": "8.61", "trialTime": 9654, "trial_type": "mouselab-mdp", "trial_index": 68, "time_elapsed": 1046647, "internal_node_id": "0.0-4.0-3.0-22.0"}}, {"uniqueid": "w50530256:a86974745", "current_trial": 69, "dateTime": 1664464971073, "trialdata": {"revealed_states": [], "num_clicks_accrued": [0, 0, 0, 0, 0, 0, 0, 0, 0, 0, 0, 0, 0], "stateRewards": ["", 2, 4, -48, -48, 2, 4, 48, -24, -2, 8, 48, -48], "withholdReward": false, "trial_id": "mdp_258528916140", "block": "test2", "trialIndex": 57, "score": 58.75, "costs": -0.25, "simulationMode": [null, null, null], "rewards": [-2, 8, 48], "path": ["0", "0", "9", "10", "11"], "rt": [3202, 377, 41], "actions": ["left", "left", "up"], "actionTimes": [4852, 5717, 6247], "queries": {"click": {"state": {"target": ["11"], "time": [3853]}, "edge": {"target": [], "time": []}}, "mouseover": {"state": {"target": ["9", "11", "10", "9"], "time": [2988, 3755, 4222, 4338]}, "edge": {"target": [], "time": []}}, "mouseout": {"state": {"target": ["0", "9", "11", "10", "9"], "time": [1788, 3004, 4105, 4321, 4354]}, "edge": {"target": [], "time": []}}}, "displayed_time": "9.65", "trialTime": 10365, "trial_type": "mouselab-mdp", "trial_index": 69, "time_elapsed": 1057057, "internal_node_id": "0.0-4.0-3.0-23.0"}}, {"uniqueid": "w50530256:a86974745", "current_trial": 70, "dateTime": 1664464979704, "trialdata": {"revealed_states": [], "num_clicks_accrued": [0, 0, 0, 0, 0, 0, 0, 0, 0, 0, 0, 0, 0], "stateRewards": ["", 2, 8, 48, -48, -2, -4, -24, 24, 4, -4, 48, -48], "withholdReward": false, "trial_id": "mdp_105734044587", "block": "test2", "trialIndex": 58, "score": 62, "costs": -1, "simulationMode": [null, null, null], "rewards": [2, 8, 48], "path": ["0", "0", "1", "2", "3"], "rt": [3437, 423, 377], "actions": ["up", "up", "right"], "actionTimes": [4364, 5285, 6173], "queries": {"click": {"state": {"target": ["8", "7", "4", "3"], "time": [1442, 2075, 2762, 3323]}, "edge": {"target": [], "time": []}}, "mouseover": {"state": {"target": ["5", "8", "7", "1", "4", "2", "3"], "time": [1112, 1312, 1879, 2361, 2611, 3028, 3161]}, "edge": {"target": [], "time": []}}, "mouseout": {"state": {"target": ["6", "5", "0", "5", "8", "7", "1", "4", "2", "3", "7"], "time": [428, 445, 1079, 1145, 1629, 2278, 2462, 2995, 3079, 3529, 3817]}, "edge": {"target": [], "time": []}}}, "displayed_time": "7.94", "trialTime": 8586, "trial_type": "mouselab-mdp", "trial_index": 70, "time_elapsed": 1065687, "internal_node_id": "0.0-4.0-3.0-24.0"}}, {"uniqueid": "w50530256:a86974745", "current_trial": 71, "dateTime": 1664464989563, "trialdata": {"revealed_states": [], "num_clicks_accrued": [0, 0, 0, 0, 0, 0, 0, 0, 0, 0, 0, 0, 0], "stateRewards": ["", -2, 8, -48, 48, -4, 8, -24, 24, 4, -4, 24, -48], "withholdReward": true, "trial_id": "mdp_904238083902", "block": "test2", "trialIndex": 59, "score": 57.75, "costs": -1.25, "simulationMode": [null, null, null], "rewards": [-2, 8, 48], "path": ["0", "0", "1", "2", "4"], "rt": [4623, 303, 266], "actions": ["up", "up", "left"], "actionTimes": [5919, 6735, 7516], "queries": {"click": {"state": {"target": ["11", "12", "7", "8", "4"], "time": [1988, 2533, 3252, 3867, 4820]}, "edge": {"target": [], "time": []}}, "mouseover": {"state": {"target": ["11", "10", "12", "0", "7", "6", "8", "6", "3", "2", "4", "2", "3"], "time": [1718, 2198, 2348, 2915, 3065, 3548, 3665, 4115, 4232, 4500, 4666, 5049, 5249]}, "edge": {"target": [], "time": []}}, "mouseout": {"state": {"target": ["7", "5", "0", "11", "10", "12", "0", "7", "6", "8", "6", "3", "2", "4", "2", "3"], "time": [748, 898, 1548, 2165, 2282, 2848, 2932, 3515, 3616, 4082, 4132, 4383, 4532, 5016, 5182, 5315]}, "edge": {"target": [], "time": []}}}, "displayed_time": "9.30", "trialTime": 9816, "trial_type": "mouselab-mdp", "trial_index": 71, "time_elapsed": 1075547, "internal_node_id": "0.0-4.0-3.0-25.0"}}, {"uniqueid": "w50530256:a86974745", "current_trial": 72, "dateTime": 1664465000157, "trialdata": {"revealed_states": [], "num_clicks_accrued": [0, 0, 0, 0, 0, 0, 0, 0, 0, 0, 0, 0, 0], "stateRewards": ["", -4, 8, -24, -24, 2, 4, 48, 48, -2, 4, 24, -48], "withholdReward": true, "trial_id": "mdp_397308196941", "block": "test2", "trialIndex": 60, "score": 58.25, "costs": -0.75, "simulationMode": [null, null, null], "rewards": [2, 4, 48], "path": ["0", "0", "5", "6", "7"], "rt": [2641, 397, 56], "actions": ["right", "right", "up"], "actionTimes": [3686, 4571, 5162], "queries": {"click": {"state": {"target": ["4", "3", "7"], "time": [1625, 2176, 2665]}, "edge": {"target": [], "time": []}}, "mouseover": {"state": {"target": ["4", "3", "7"], "time": [1455, 2055, 2573]}, "edge": {"target": [], "time": []}}, "mouseout": {"state": {"target": ["6", "5", "4", "3", "7"], "time": [572, 622, 1789, 2390, 2855]}, "edge": {"target": [], "time": []}}}, "displayed_time": "10.05", "trialTime": 10549, "trial_type": "mouselab-mdp", "trial_index": 72, "time_elapsed": 1086141, "internal_node_id": "0.0-4.0-3.0-26.0"}}, {"uniqueid": "w50530256:a86974745", "current_trial": 73, "dateTime": 1664465011220, "trialdata": {"revealed_states": [], "num_clicks_accrued": [0, 0, 0, 0, 0, 0, 0, 0, 0, 0, 0, 0, 0], "stateRewards": ["", 4, -4, 48, -48, -2, -8, -24, 48, -2, 4, 24, -24], "withholdReward": true, "trial_id": "mdp_507290896735", "block": "test2", "trialIndex": 61, "score": 42, "costs": -1, "simulationMode": [null, null, null], "rewards": [-2, -8, 48], "path": ["0", "0", "5", "6", "8"], "rt": [3812, 145, 920], "actions": ["right", "right", "down"], "actionTimes": [5197, 5843, 7251], "queries": {"click": {"state": {"target": ["11", "12", "7", "8"], "time": [2160, 2751, 3431, 3976]}, "edge": {"target": [], "time": []}}, "mouseover": {"state": {"target": ["9", "10", "11", "10", "12", "7", "6", "8", "5", "1", "2", "2"], "time": [1663, 1846, 1980, 2431, 2547, 3263, 3647, 3830, 4164, 4230, 4313, 4646]}, "edge": {"target": [], "time": []}}, "mouseout": {"state": {"target": ["6", "5", "9", "10", "11", "10", "12", "7", "6", "8", "5", "1", "2", "2", "3", "1", "0"], "time": [813, 946, 1680, 1896, 2380, 2486, 3046, 3614, 3730, 4130, 4180, 4279, 4496, 4663, 10147, 10514, 10764]}, "edge": {"target": [], "time": []}}}, "displayed_time": "10.39", "trialTime": 11020, "trial_type": "mouselab-mdp", "trial_index": 73, "time_elapsed": 1097204, "internal_node_id": "0.0-4.0-3.0-27.0"}}, {"uniqueid": "w50530256:a86974745", "current_trial": 74, "dateTime": 1664465020503, "trialdata": {"revealed_states": [], "num_clicks_accrued": [0, 0, 0, 0, 0, 0, 0, 0, 0, 0, 0, 0, 0], "stateRewards": ["", 4, -4, 48, -48, 4, -4, 24, -24, 4, 8, -24, -48], "withholdReward": true, "trial_id": "mdp_433630527224", "block": "test2", "trialIndex": 62, "score": 52.5, "costs": -0.5, "simulationMode": [null, null, null], "rewards": [4, -4, 48], "path": ["0", "0", "1", "2", "3"], "rt": [2053, 54, 168], "actions": ["up", "up", "right"], "actionTimes": [2801, 3348, 4045], "queries": {"click": {"state": {"target": ["4", "3"], "time": [1216, 1769]}, "edge": {"target": [], "time": []}}, "mouseover": {"state": {"target": ["4", "2", "3", "7"], "time": [1025, 1409, 1626, 2043]}, "edge": {"target": [], "time": []}}, "mouseout": {"state": {"target": ["0", "0", "4", "2", "3", "7"], "time": [259, 676, 1375, 1442, 1959, 2259]}, "edge": {"target": [], "time": []}}}, "displayed_time": "8.76", "trialTime": 9232, "trial_type": "mouselab-mdp", "trial_index": 74, "time_elapsed": 1106487, "internal_node_id": "0.0-4.0-3.0-28.0"}}, {"uniqueid": "w50530256:a86974745", "current_trial": 75, "dateTime": 1664465039726, "trialdata": {"revealed_states": [], "num_clicks_accrued": [0, 0, 0, 0, 0, 0, 0, 0, 0, 0, 0, 0, 0], "stateRewards": ["", -4, 8, -24, 24, -2, -8, 24, -24, 4, -4, -48, 48], "withholdReward": true, "trial_id": "mdp_297684722007", "block": "test2", "trialIndex": 63, "score": 51.75, "costs": -1.25, "simulationMode": [null, null, null], "rewards": [4, -4, 48], "path": ["0", "0", "9", "10", "12"], "rt": [3892, 44, 6], "actions": ["left", "left", "down"], "actionTimes": [5015, 5556, 6084], "queries": {"click": {"state": {"target": ["4", "3", "7", "8", "12"], "time": [1759, 2262, 2719, 3279, 3943]}, "edge": {"target": [], "time": []}}, "mouseover": {"state": {"target": ["4", "2", "3", "7", "6", "8", "12", "11", "1"], "time": [1628, 1978, 2162, 2595, 2928, 3128, 3778, 4211, 4461]}, "edge": {"target": [], "time": []}}, "mouseout": {"state": {"target": ["7", "4", "2", "3", "7", "6", "8", "12", "11", "1"], "time": [332, 1944, 2028, 2478, 2877, 3029, 3428, 4077, 4444, 4477]}, "edge": {"target": [], "time": []}}}, "displayed_time": "10.13", "trialTime": 19172, "trial_type": "mouselab-mdp", "trial_index": 75, "time_elapsed": 1125709, "internal_node_id": "0.0-4.0-3.0-29.0"}}, {"uniqueid": "w50530256:a86974745", "current_trial": 76, "dateTime": 1664465045134, "trialdata": {"rt": 5405, "stimulus": "<h1> End of block! </h1>\n\nYou have reached the end of the block 2/4. If you need a short break, feel free to take one now before moving on.\n\n<br><br>\nIn the next block, you will complete another 30 rounds of this game.\n\n<br><br>\n<div style='text-align: center;'>Press <code>space</code> to begin.</div>\n<br><br>\n<div style='text-align: center;'>(If the experiment doesn't continue, try clicking on the text and then pressing <code>space</code>.)</div>", "response": " ", "trial_id": "mdp_ready_3", "trial_type": "html-keyboard-response", "trial_index": 76, "time_elapsed": 1131118, "internal_node_id": "0.0-4.0-4.0"}}, {"uniqueid": "w50530256:a86974745", "current_trial": 77, "dateTime": 1664465056071, "trialdata": {"revealed_states": [], "num_clicks_accrued": [0, 0, 0, 0, 0, 0, 0, 0, 0, 0, 0, 0, 0], "stateRewards": ["", 2, 8, -48, 24, -4, 8, 48, -24, 2, 8, 24, 24], "withholdReward": true, "trial_id": "mdp_175372499314", "block": "test3", "trialIndex": 64, "score": 56.25, "costs": -0.75, "simulationMode": [null, null, null], "rewards": [-4, 8, 48], "path": ["0", "0", "5", "6", "7"], "rt": [2586, 4, 75], "actions": ["right", "right", "up"], "actionTimes": [4044, 4535, 5139], "queries": {"click": {"state": {"target": ["4", "3", "7"], "time": [2015, 2502, 3046]}, "edge": {"target": [], "time": []}}, "mouseover": {"state": {"target": ["4", "2", "3", "7", "6"], "time": [1814, 2220, 2280, 2764, 3263]}, "edge": {"target": [], "time": []}}, "mouseout": {"state": {"target": ["3", "4", "2", "3", "7", "6"], "time": [246, 2180, 2230, 2697, 3214, 3330]}, "edge": {"target": [], "time": []}}}, "displayed_time": "10.47", "trialTime": 10889, "trial_type": "mouselab-mdp", "trial_index": 77, "time_elapsed": 1142054, "internal_node_id": "0.0-4.0-5.0-0.0"}}, {"uniqueid": "w50530256:a86974745", "current_trial": 78, "dateTime": 1664465065555, "trialdata": {"revealed_states": [], "num_clicks_accrued": [0, 0, 0, 0, 0, 0, 0, 0, 0, 0, 0, 0, 0], "stateRewards": ["", -4, -4, -24, -48, -4, 8, -24, -48, 4, -8, 24, -24], "withholdReward": true, "trial_id": "mdp_924927483179", "block": "test3", "trialIndex": 65, "score": 23.5, "costs": -1.5, "simulationMode": [null, null, null], "rewards": [4, -8, 24], "path": ["0", "0", "9", "10", "11"], "rt": [4184, 383, 312], "actions": ["left", "left", "up"], "actionTimes": [4928, 5828, 6640], "queries": {"click": {"state": {"target": ["12", "11", "4", "3", "7", "8"], "time": [1286, 1782, 2254, 2862, 3317, 3823]}, "edge": {"target": [], "time": []}}, "mouseover": {"state": {"target": ["9", "12", "10", "11", "4", "2", "3", "7", "6", "8"], "time": [944, 1160, 1493, 1610, 2193, 2660, 2765, 3194, 3514, 3710]}, "edge": {"target": [], "time": []}}, "mouseout": {"state": {"target": ["6", "5", "0", "0", "9", "12", "10", "11", "4", "2", "3", "7", "6", "8"], "time": [93, 193, 276, 910, 1060, 1477, 1543, 1994, 2593, 2710, 3076, 3476, 3610, 3977]}, "edge": {"target": [], "time": []}}}, "displayed_time": "8.74", "trialTime": 9436, "trial_type": "mouselab-mdp", "trial_index": 78, "time_elapsed": 1151538, "internal_node_id": "0.0-4.0-5.0-1.0"}}, {"uniqueid": "w50530256:a86974745", "current_trial": 79, "dateTime": 1664465076480, "trialdata": {"revealed_states": [], "num_clicks_accrued": [0, 0, 0, 0, 0, 0, 0, 0, 0, 0, 0, 0, 0], "stateRewards": ["", 4, 4, 48, -24, 2, -4, 48, 24, -4, -4, -48, 24], "withholdReward": true, "trial_id": "mdp_496003763005", "block": "test3", "trialIndex": 66, "score": 60.5, "costs": -0.5, "simulationMode": [null, null, null], "rewards": [4, 4, 48], "path": ["0", "0", "1", "2", "3"], "rt": [2681, 477, 42], "actions": ["up", "up", "right"], "actionTimes": [4100, 5073, 5607], "queries": {"click": {"state": {"target": ["4", "3"], "time": [2162, 2914]}, "edge": {"target": [], "time": []}}, "mouseover": {"state": {"target": ["1", "2", "4", "2", "3", "7"], "time": [1827, 1894, 1977, 2311, 2361, 3261]}, "edge": {"target": [], "time": []}}, "mouseout": {"state": {"target": ["7", "5", "0", "1", "2", "4", "2", "3", "7", "7"], "time": [993, 1144, 1761, 1861, 1910, 2294, 2344, 3078, 3528, 10261]}, "edge": {"target": [], "time": []}}}, "displayed_time": "10.42", "trialTime": 10878, "trial_type": "mouselab-mdp", "trial_index": 79, "time_elapsed": 1162464, "internal_node_id": "0.0-4.0-5.0-2.0"}}, {"uniqueid": "w50530256:a86974745", "current_trial": 80, "dateTime": 1664465087725, "trialdata": {"revealed_states": [], "num_clicks_accrued": [0, 0, 0, 0, 0, 0, 0, 0, 0, 0, 0, 0, 0], "stateRewards": ["", 2, 4, -48, -48, 4, 4, -48, -48, -2, -8, 48, -24], "withholdReward": false, "trial_id": "mdp_175327338412", "block": "test3", "trialIndex": 67, "score": 42.25, "costs": -0.75, "simulationMode": [null, null, null], "rewards": [-2, -8, 48], "path": ["0", "0", "9", "10", "11"], "rt": [2979, 275, 65], "actions": ["left", "left", "up"], "actionTimes": [4205, 4990, 5548], "queries": {"click": {"state": {"target": ["4", "12", "11"], "time": [1719, 2439, 2983]}, "edge": {"target": [], "time": []}}, "mouseover": {"state": {"target": ["4", "12", "10", "11", "1"], "time": [1581, 2263, 2631, 2747, 3214]}, "edge": {"target": [], "time": []}}, "mouseout": {"state": {"target": ["4", "1", "4", "12", "10", "11", "1"], "time": [798, 846, 1963, 2580, 2663, 3142, 3247]}, "edge": {"target": [], "time": []}}}, "displayed_time": "10.23", "trialTime": 11193, "trial_type": "mouselab-mdp", "trial_index": 80, "time_elapsed": 1173709, "internal_node_id": "0.0-4.0-5.0-3.0"}}, {"uniqueid": "w50530256:a86974745", "current_trial": 81, "dateTime": 1664465103010, "trialdata": {"revealed_states": [], "num_clicks_accrued": [0, 0, 0, 0, 0, 0, 0, 0, 0, 0, 0, 0, 0], "stateRewards": ["", -4, -8, -48, 48, -2, -8, -48, -24, 4, 8, 24, -48], "withholdReward": true, "trial_id": "mdp_509977295685", "block": "test3", "trialIndex": 68, "score": 39.75, "costs": -1.25, "simulationMode": [null, null, null], "rewards": [-4, -8, 48], "path": ["0", "0", "1", "2", "4"], "rt": [4652, 366, 216], "actions": ["up", "up", "left"], "actionTimes": [5349, 6223, 6958], "queries": {"click": {"state": {"target": ["7", "8", "11", "12", "4"], "time": [1135, 1704, 2543, 3215, 4190]}, "edge": {"target": [], "time": []}}, "mouseover": {"state": {"target": ["7", "6", "8", "10", "11", "10", "12", "4", "4", "2", "3"], "time": [1040, 1406, 1574, 2189, 2374, 2829, 2923, 3573, 3923, 4357, 4640]}, "edge": {"target": [], "time": []}}, "mouseout": {"state": {"target": ["6", "7", "6", "8", "10", "11", "10", "12", "4", "4", "2", "3", "7"], "time": [174, 1357, 1490, 1873, 2273, 2790, 2856, 3456, 3606, 4340, 4390, 4673, 14594]}, "edge": {"target": [], "time": []}}}, "displayed_time": "9.70", "trialTime": 15236, "trial_type": "mouselab-mdp", "trial_index": 81, "time_elapsed": 1188994, "internal_node_id": "0.0-4.0-5.0-4.0"}}, {"uniqueid": "w50530256:a86974745", "current_trial": 82, "dateTime": 1664465112463, "trialdata": {"revealed_states": [], "num_clicks_accrued": [0, 0, 0, 0, 0, 0, 0, 0, 0, 0, 0, 0, 0], "stateRewards": ["", 4, 4, -24, -48, -4, 4, -48, 24, 4, -8, -48, 48], "withholdReward": true, "trial_id": "mdp_566768794366", "block": "test3", "trialIndex": 69, "score": 48.25, "costs": -0.75, "simulationMode": [null, null, null], "rewards": [4, -8, 48], "path": ["0", "0", "9", "10", "12"], "rt": [4214, 87, 118], "actions": ["left", "left", "down"], "actionTimes": [5109, 5694, 6325], "queries": {"click": {"state": {"target": ["4", "8", "12"], "time": [1986, 3081, 3737]}, "edge": {"target": [], "time": []}}, "mouseover": {"state": {"target": ["9", "4", "4", "2", "3", "6", "8", "12", "10", "11"], "time": [1171, 1589, 1855, 2238, 2288, 2688, 2888, 3539, 3939, 4005]}, "edge": {"target": [], "time": []}}, "mouseout": {"state": {"target": ["2", "1", "0", "0", "9", "4", "4", "2", "3", "6", "8", "12", "10", "11"], "time": [155, 288, 539, 1105, 1206, 1655, 2222, 2272, 2538, 2738, 3256, 3905, 3972, 4339]}, "edge": {"target": [], "time": []}}}, "displayed_time": "8.90", "trialTime": 9400, "trial_type": "mouselab-mdp", "trial_index": 82, "time_elapsed": 1198446, "internal_node_id": "0.0-4.0-5.0-5.0"}}, {"uniqueid": "w50530256:a86974745", "current_trial": 83, "dateTime": 1664465122140, "trialdata": {"revealed_states": [], "num_clicks_accrued": [0, 0, 0, 0, 0, 0, 0, 0, 0, 0, 0, 0, 0], "stateRewards": ["", -4, 8, -48, -48, -2, -8, -24, -48, 2, -4, -48, 24], "withholdReward": true, "trial_id": "mdp_743906784415", "block": "test3", "trialIndex": 70, "score": 25.5, "costs": -1.5, "simulationMode": [null, null, null], "rewards": [2, -4, 24], "path": ["0", "0", "9", "10", "12"], "rt": [5096, 46, 19], "actions": ["left", "left", "down"], "actionTimes": [6310, 6872, 7394], "queries": {"click": {"state": {"target": ["4", "8", "7", "3", "12", "11"], "time": [1865, 2592, 3105, 3754, 4570, 5457]}, "edge": {"target": [], "time": []}}, "mouseover": {"state": {"target": ["4", "1", "5", "8", "7", "3", "1", "9", "12", "12", "10", "11", "11"], "time": [1708, 2141, 2240, 2474, 2975, 3541, 3992, 4041, 4141, 4408, 4840, 4874, 5425]}, "edge": {"target": [], "time": []}}, "mouseout": {"state": {"target": ["9", "0", "4", "1", "5", "8", "7", "3", "1", "9", "12", "12", "10", "11", "11"], "time": [841, 1408, 2074, 2157, 2291, 2791, 3391, 3944, 4008, 4057, 4291, 4808, 4857, 4974, 5608]}, "edge": {"target": [], "time": []}}}, "displayed_time": "9.22", "trialTime": 9630, "trial_type": "mouselab-mdp", "trial_index": 83, "time_elapsed": 1208124, "internal_node_id": "0.0-4.0-5.0-6.0"}}, {"uniqueid": "w50530256:a86974745", "current_trial": 84, "dateTime": 1664465131809, "trialdata": {"revealed_states": [], "num_clicks_accrued": [0, 0, 0, 0, 0, 0, 0, 0, 0, 0, 0, 0, 0], "stateRewards": ["", -2, -8, -24, 24, -2, -8, -48, 24, -2, -8, 24, 24], "withholdReward": false, "trial_id": "mdp_336617436097", "block": "test3", "trialIndex": 71, "score": 17.5, "costs": -1.5, "simulationMode": [null, null, null], "rewards": [-2, -8, 24], "path": ["0", "0", "5", "6", "8"], "rt": [4756, 151, 306], "actions": ["right", "right", "down"], "actionTimes": [5698, 6344, 7165], "queries": {"click": {"state": {"target": ["4", "8", "7", "3", "12", "11"], "time": [1518, 2240, 2807, 3342, 3991, 4518]}, "edge": {"target": [], "time": []}}, "mouseover": {"state": {"target": ["4", "1", "5", "8", "6", "7", "3", "1", "9", "12", "10", "11", "9", "0"], "time": [1408, 1741, 1825, 2125, 2425, 2608, 3158, 3542, 3625, 3758, 4175, 4309, 4908, 4975]}, "edge": {"target": [], "time": []}}, "mouseout": {"state": {"target": ["7", "0", "4", "1", "5", "8", "6", "7", "3", "1", "9", "12", "10", "11", "9", "0"], "time": [541, 1074, 1692, 1758, 1909, 2392, 2493, 3042, 3509, 3575, 3675, 4142, 4242, 4841, 4958, 4991]}, "edge": {"target": [], "time": []}}}, "displayed_time": "8.95", "trialTime": 9616, "trial_type": "mouselab-mdp", "trial_index": 84, "time_elapsed": 1217793, "internal_node_id": "0.0-4.0-5.0-7.0"}}, {"uniqueid": "w50530256:a86974745", "current_trial": 85, "dateTime": 1664465141611, "trialdata": {"revealed_states": [], "num_clicks_accrued": [0, 0, 0, 0, 0, 0, 0, 0, 0, 0, 0, 0, 0], "stateRewards": ["", 2, 4, -48, -24, -4, 4, -24, 24, -2, -8, -24, 24], "withholdReward": false, "trial_id": "mdp_640720803523", "block": "test3", "trialIndex": 72, "score": 17.5, "costs": -1.5, "simulationMode": [null, null, null], "rewards": [-2, -8, 24], "path": ["0", "0", "9", "10", "12"], "rt": [4423, 305, 241], "actions": ["left", "left", "down"], "actionTimes": [5510, 6334, 7071], "queries": {"click": {"state": {"target": ["12", "11", "4", "3", "7", "8"], "time": [1694, 2247, 2702, 3207, 3759, 4343]}, "edge": {"target": [], "time": []}}, "mouseover": {"state": {"target": ["9", "12", "10", "11", "4", "2", "3", "7", "6", "8"], "time": [1361, 1544, 1877, 2029, 2544, 2878, 3078, 3645, 3978, 4128]}, "edge": {"target": [], "time": []}}, "mouseout": {"state": {"target": ["8", "0", "9", "12", "10", "11", "4", "2", "3", "7", "6", "8"], "time": [733, 1301, 1378, 1862, 1911, 2444, 2861, 3029, 3412, 3944, 4061, 4846]}, "edge": {"target": [], "time": []}}}, "displayed_time": "9.09", "trialTime": 9753, "trial_type": "mouselab-mdp", "trial_index": 85, "time_elapsed": 1227595, "internal_node_id": "0.0-4.0-5.0-8.0"}}, {"uniqueid": "w50530256:a86974745", "current_trial": 86, "dateTime": 1664465152663, "trialdata": {"revealed_states": [], "num_clicks_accrued": [0, 0, 0, 0, 0, 0, 0, 0, 0, 0, 0, 0, 0], "stateRewards": ["", -4, -8, 48, 48, -4, 4, 48, -24, 4, 8, -24, -48], "withholdReward": true, "trial_id": "mdp_142906093415", "block": "test3", "trialIndex": 73, "score": 40.25, "costs": -0.75, "simulationMode": [null, null, null], "rewards": [-4, -8, 48], "path": ["0", "0", "1", "2", "4"], "rt": [2954, 119, 20], "actions": ["up", "up", "left"], "actionTimes": [4488, 5095, 5629], "queries": {"click": {"state": {"target": ["12", "11", "4"], "time": [2299, 2828, 3340]}, "edge": {"target": [], "time": []}}, "mouseover": {"state": {"target": ["9", "9", "10", "12", "10", "11", "4", "2", "3"], "time": [1792, 1959, 2026, 2098, 2474, 2559, 3192, 3592, 3858]}, "edge": {"target": [], "time": []}}, "mouseout": {"state": {"target": ["5", "0", "9", "9", "10", "12", "10", "11", "4", "2", "3"], "time": [1226, 1425, 1842, 1975, 2042, 2459, 2509, 2992, 3559, 3709, 3892]}, "edge": {"target": [], "time": []}}}, "displayed_time": "10.55", "trialTime": 11002, "trial_type": "mouselab-mdp", "trial_index": 86, "time_elapsed": 1238647, "internal_node_id": "0.0-4.0-5.0-9.0"}}, {"uniqueid": "w50530256:a86974745", "current_trial": 87, "dateTime": 1664465163921, "trialdata": {"revealed_states": [], "num_clicks_accrued": [0, 0, 0, 0, 0, 0, 0, 0, 0, 0, 0, 0, 0], "stateRewards": ["", -2, 8, 48, 24, 2, -8, -24, -48, -4, 8, -48, 24], "withholdReward": false, "trial_id": "mdp_224053025943", "block": "test3", "trialIndex": 74, "score": 58.75, "costs": -0.25, "simulationMode": [null, null, null], "rewards": [-2, 8, 48], "path": ["0", "0", "1", "2", "3"], "rt": [1671, 102, 80], "actions": ["up", "up", "right"], "actionTimes": [3159, 3762, 4356], "queries": {"click": {"state": {"target": ["3"], "time": [2121]}, "edge": {"target": [], "time": []}}, "mouseover": {"state": {"target": ["3", "7"], "time": [2075, 2542]}, "edge": {"target": [], "time": []}}, "mouseout": {"state": {"target": ["5", "3", "7"], "time": [1142, 2391, 2576]}, "edge": {"target": [], "time": []}}}, "displayed_time": "10.49", "trialTime": 11210, "trial_type": "mouselab-mdp", "trial_index": 87, "time_elapsed": 1249905, "internal_node_id": "0.0-4.0-5.0-10.0"}}, {"uniqueid": "w50530256:a86974745", "current_trial": 88, "dateTime": 1664465174240, "trialdata": {"revealed_states": [], "num_clicks_accrued": [0, 0, 0, 0, 0, 0, 0, 0, 0, 0, 0, 0, 0], "stateRewards": ["", -2, 4, -48, 24, -4, 8, 48, 24, -2, 4, -48, -24], "withholdReward": false, "trial_id": "mdp_740882974347", "block": "test3", "trialIndex": 75, "score": 56.25, "costs": -0.75, "simulationMode": [null, null, null], "rewards": [-4, 8, 48], "path": ["0", "0", "5", "6", "7"], "rt": [3023, 179, 48], "actions": ["right", "right", "up"], "actionTimes": [4636, 5309, 5845], "queries": {"click": {"state": {"target": ["4", "8", "7"], "time": [2378, 3098, 3618]}, "edge": {"target": [], "time": []}}, "mouseover": {"state": {"target": ["1", "4", "1", "5", "8", "6", "7", "0"], "time": [2046, 2145, 2632, 2712, 3013, 3329, 3413, 3879]}, "edge": {"target": [], "time": []}}, "mouseout": {"state": {"target": ["6", "5", "1", "4", "1", "5", "8", "6", "7", "0", "0", "9", "10", "9", "9"], "time": [1246, 1329, 2096, 2579, 2680, 2762, 3313, 3379, 3779, 3912, 7332, 7363, 7514, 7779, 8230]}, "edge": {"target": [], "time": []}}}, "displayed_time": "9.62", "trialTime": 10266, "trial_type": "mouselab-mdp", "trial_index": 88, "time_elapsed": 1260224, "internal_node_id": "0.0-4.0-5.0-11.0"}}, {"uniqueid": "w50530256:a86974745", "current_trial": 89, "dateTime": 1664465184964, "trialdata": {"revealed_states": [], "num_clicks_accrued": [0, 0, 0, 0, 0, 0, 0, 0, 0, 0, 0, 0, 0], "stateRewards": ["", -2, 4, -24, -48, -4, 8, -24, 48, 4, 4, -48, 24], "withholdReward": true, "trial_id": "mdp_341117665701", "block": "test3", "trialIndex": 76, "score": 55.5, "costs": -1.5, "simulationMode": [null, null, null], "rewards": [-4, 8, 48], "path": ["0"