{"condition": 1, "counterbalance": 0, "assignmentId": "a99670204", "workerId": "w43636581", "hitId": "h76502049", "currenttrial": 137, "bonus": 0, "data": [{"uniqueid": "w43636581:a99670204", "current_trial": 0, "dateTime": 1664554913614, "trialdata": {"success": true, "trial_type": "fullscreen", "trial_index": 0, "time_elapsed": 2160, "internal_node_id": "0.0-0.0"}}, {"uniqueid": "w43636581:a99670204", "current_trial": 1, "dateTime": 1664555276939, "trialdata": {"view_history": [{"page_index": 0, "viewing_time": 363322}], "rt": 363323, "trial_id": "exp_instructions_no_distractor", "trial_type": "instructions", "trial_index": 1, "time_elapsed": 365485, "internal_node_id": "0.0-1.0"}}, {"uniqueid": "w43636581:a99670204", "current_trial": 2, "dateTime": 1664555280855, "trialdata": {"success": true, "trial_type": "fullscreen", "trial_index": 2, "time_elapsed": 369400, "internal_node_id": "0.0-2.0-0.0"}}, {"uniqueid": "w43636581:a99670204", "current_trial": 3, "dateTime": 1664555415041, "trialdata": {"view_history": [{"page_index": 0, "viewing_time": 58206}, {"page_index": 1, "viewing_time": 31319}, {"page_index": 2, "viewing_time": 10259}, {"page_index": 3, "viewing_time": 5766}, {"page_index": 4, "viewing_time": 28636}], "rt": 134186, "trial_id": "mouselab_instructions_1", "trial_type": "instructions", "trial_index": 3, "time_elapsed": 503587, "internal_node_id": "0.0-2.0-1.0"}}, {"uniqueid": "w43636581:a99670204", "current_trial": 4, "dateTime": 1664555445954, "trialdata": {"revealed_states": [], "num_clicks_accrued": [0, 0, 0, 0, 0, 0, 0, 0, 0, 0, 0, 0, 0], "stateRewards": ["", 10, 10, 10, -10, -10, -10, -10, -10, -10, 10, -10, 10], "withholdReward": false, "trial_id": "practice_1", "block": "test", "trialIndex": 0, "score": 41.25, "costs": -0.75, "simulationMode": [null, null, null, null, null, null, null], "rewards": [10, 10, 10, 10], "path": ["0", "0", "1", "1", "2", "3"], "rt": [12512, 12507, 7729, 7237, 979, 495, 714], "actions": ["up", "up", "up", "up", "up", "up", "right"], "actionTimes": [12506, 12508, 20238, 20238, 21219, 21219, 22423], "queries": {"click": {"state": {"target": ["5", "1", "2"], "time": [5856, 8833, 10976]}, "edge": {"target": [], "time": []}}, "mouseover": {"state": {"target": ["5", "1", "2"], "time": [941, 8068, 10299]}, "edge": {"target": [], "time": []}}, "mouseout": {"state": {"target": ["6", "8", "0", "5", "5", "1", "1", "2", "2", "3"], "time": [null, null, 441, 6179, 6763, 9114, 10149, 11199, 16053, 17922]}, "edge": {"target": [], "time": []}}}, "displayed_time": "22.91", "trialTime": 27513, "trial_type": "mouselab-mdp", "trial_index": 4, "time_elapsed": 534500, "internal_node_id": "0.0-2.0-2.0-0.0"}}, {"uniqueid": "w43636581:a99670204", "current_trial": 5, "dateTime": 1664555462189, "trialdata": {"revealed_states": [], "num_clicks_accrued": [0, 0, 0, 0, 0, 0, 0, 0, 0, 0, 0, 0, 0], "stateRewards": ["", 10, 10, 10, -10, -10, 10, -10, -10, -10, -10, -10, -10], "withholdReward": false, "trial_id": "practice_2", "block": "test", "trialIndex": 1, "score": 31.25, "costs": -0.75, "simulationMode": [null, null, null], "rewards": [10, 10, 10], "path": ["0", "0", "1", "2", "3"], "rt": [7812, 26, 2358], "actions": ["up", "up", "right"], "actionTimes": [10270, 10813, 13678], "queries": {"click": {"state": {"target": ["1", "2", "4"], "time": [7040, 8066, 9329]}, "edge": {"target": [], "time": []}}, "mouseover": {"state": {"target": ["3", "1", "1", "3", "2", "4"], "time": [6015, 6315, 6916, 7433, 7716, 8717]}, "edge": {"target": [], "time": []}}, "mouseout": {"state": {"target": ["0", "3", "1", "1", "3", "2", "1", "4", "0", "5", "3", "5"], "time": [2812, 6031, 6515, 7316, 7599, 8283, 8550, 9518, 11503, 11753, 13021, 15540]}, "edge": {"target": [], "time": []}}}, "displayed_time": "14.17", "trialTime": 16211, "trial_type": "mouselab-mdp", "trial_index": 5, "time_elapsed": 550735, "internal_node_id": "0.0-2.0-2.0-1.0"}}, {"uniqueid": "w43636581:a99670204", "current_trial": 6, "dateTime": 1664555544618, "trialdata": {"view_history": [{"page_index": 0, "viewing_time": 68125}, {"page_index": 1, "viewing_time": 8173}, {"page_index": 2, "viewing_time": 6129}], "rt": 82428, "trial_id": "mouselab_instructions_2_scarce", "trial_type": "instructions", "trial_index": 6, "time_elapsed": 633164, "internal_node_id": "0.0-2.0-3.0"}}, {"uniqueid": "w43636581:a99670204", "current_trial": 7, "dateTime": 1664555609558, "trialdata": {"rt": 64938, "response": {"Q0": "$-48 to $48", "Q1": "The cost is always $0.25.", "Q2": "The better I perform the higher my bonus will be.", "Q3": "No, the amount of cash at each node of the web may be different each time.", "Q4": "The values of the nodes walked through from start to finish.", "Q5": "No, the spider might forget to count the money on some rounds."}, "question_order": [0, 1, 2, 3, 4, 5], "correct": {"Q0": "$-48 to $48", "Q1": "The cost is always $0.25.", "Q2": "The better I perform the higher my bonus will be.", "Q3": "No, the amount of cash at each node of the web may be different each time.", "Q4": "The values of the nodes walked through from start to finish.", "Q5": "No, the spider might forget to count the money on some rounds."}, "trial_id": "mouselab_quiz_scarce", "trial_type": "survey-multi-choice", "trial_index": 7, "time_elapsed": 698103, "internal_node_id": "0.0-2.0-4.0"}}, {"uniqueid": "w43636581:a99670204", "current_trial": 8, "dateTime": 1664555623498, "trialdata": {"rt": 13936, "stimulus": "\n<h1> Get ready to start the game! </h1>\n\nThank you for reading the instructions. Get ready start with the first of 4 block(s) of this game.\n<br><br>\nIn this first block, you will complete 30 rounds of this game before moving on.\n<br><br>\nRemember, the more money the spider gets, the bigger your bonus will be!\n<br><br>\n<div style='text-align: center;'>Press <code>space</code> to begin.</div>\n\n<br><br>\n(If, at any point, the <code>space</code> key does not take you to the next page, click once on the text and try again.)", "response": " ", "trial_id": "mdp_ready_1", "trial_type": "html-keyboard-response", "trial_index": 8, "time_elapsed": 712044, "internal_node_id": "0.0-4.0-0.0"}}, {"uniqueid": "w43636581:a99670204", "current_trial": 9, "dateTime": 1664555704131, "trialdata": {"revealed_states": [], "num_clicks_accrued": [0, 0, 0, 0, 0, 0, 0, 0, 0, 0, 0, 0, 0], "stateRewards": ["", 4, -8, -48, -24, 2, -8, -48, 48, -4, 8, 48, -48], "withholdReward": true, "trial_id": "mdp_605757196263", "block": "test1", "trialIndex": 2, "score": 45, "costs": -2, "simulationMode": [null, null, null], "rewards": [2, -8, 48], "path": ["0", "0", "5", "6", "8"], "rt": [15105, 298, 135], "actions": ["right", "right", "down"], "actionTimes": [17868, 18674, 19296], "queries": {"click": {"state": {"target": ["1", "2", "4", "9", "5", "6", "7", "8"], "time": [5277, 7639, 8509, 11757, 12866, 13969, 14665, 15242]}, "edge": {"target": [], "time": []}}, "mouseover": {"state": {"target": ["1", "2", "4", "5", "10", "9", "0", "9", "0", "5", "6", "7", "8"], "time": [3563, 6065, 8367, 9551, 9985, 10201, 10485, 10835, 12387, 12520, 13537, 14522, 15072]}, "edge": {"target": [], "time": []}}, "mouseout": {"state": {"target": ["0", "1", "2", "4", "1", "5", "10", "9", "0", "9", "0", "5", "6", "7", "6", "8"], "time": [3279, 5565, 8117, 8784, 9451, 9768, 10035, 10352, 10769, 12353, 12453, 13237, 14455, 14855, 14989, 15506]}, "edge": {"target": [], "time": []}}}, "displayed_time": "19.79", "trialTime": 80609, "trial_type": "mouselab-mdp", "trial_index": 9, "time_elapsed": 792677, "internal_node_id": "0.0-4.0-1.0-0.0"}}, {"uniqueid": "w43636581:a99670204", "current_trial": 10, "dateTime": 1664555730235, "trialdata": {"revealed_states": [], "num_clicks_accrued": [0, 0, 0, 0, 0, 0, 0, 0, 0, 0, 0, 0, 0], "stateRewards": ["", -2, -4, 48, 48, 2, 4, -48, 24, 4, -8, 24, -24], "withholdReward": true, "trial_id": "mdp_628613319495", "block": "test1", "trialIndex": 3, "score": 34, "costs": -1, "simulationMode": [null, null, null], "rewards": [2, 4, 24], "path": ["0", "0", "5", "6", "8"], "rt": [6971, 95, 230], "actions": ["right", "right", "down"], "actionTimes": [8811, 9410, 10129], "queries": {"click": {"state": {"target": ["5", "6", "7", "8"], "time": [4357, 5167, 7213, 7989]}, "edge": {"target": [], "time": []}}, "mouseover": {"state": {"target": ["0", "5", "0", "5", "6", "8", "7", "8"], "time": [2208, 2509, 3177, 3576, 4928, 5578, 6612, 7830]}, "edge": {"target": [], "time": []}}, "mouseout": {"state": {"target": ["0", "0", "5", "0", "5", "6", "8", "6", "7", "6", "8", "8"], "time": [1141, 2258, 3126, 3376, 4694, 5361, 6379, 6495, 7513, 7696, 8130, 10665]}, "edge": {"target": [], "time": []}}}, "displayed_time": "10.84", "trialTime": 26077, "trial_type": "mouselab-mdp", "trial_index": 10, "time_elapsed": 818781, "internal_node_id": "0.0-4.0-1.0-1.0"}}, {"uniqueid": "w43636581:a99670204", "current_trial": 11, "dateTime": 1664555764164, "trialdata": {"revealed_states": [], "num_clicks_accrued": [0, 0, 0, 0, 0, 0, 0, 0, 0, 0, 0, 0, 0], "stateRewards": ["", -4, -4, -48, 48, -4, -8, -24, -48, -2, 8, 48, 24], "withholdReward": true, "trial_id": "mdp_365393526663", "block": "test1", "trialIndex": 4, "score": 57.75, "costs": -1.25, "simulationMode": [null, null, null], "rewards": [-2, 8, 48], "path": ["0", "0", "9", "10", "11"], "rt": [9573, 17, 173], "actions": ["left", "left", "up"], "actionTimes": [11076, 11590, 12263], "queries": {"click": {"state": {"target": ["1", "9", "10", "12", "11"], "time": [5158, 6235, 6883, 7356, 9301]}, "edge": {"target": [], "time": []}}, "mouseover": {"state": {"target": ["0", "1", "2", "2", "9", "10", "12", "11"], "time": [2682, 4800, 5401, 5768, 6135, 6652, 7102, 8020]}, "edge": {"target": [], "time": []}}, "mouseout": {"state": {"target": ["5", "0", "0", "1", "2", "2", "9", "10", "12", "12", "11", "10"], "time": [1147, 1715, 4617, 5368, 5418, 5818, 6385, 7052, 7519, 7770, 9538, 9805]}, "edge": {"target": [], "time": []}}}, "displayed_time": "12.76", "trialTime": 33908, "trial_type": "mouselab-mdp", "trial_index": 11, "time_elapsed": 852710, "internal_node_id": "0.0-4.0-1.0-2.0"}}, {"uniqueid": "w43636581:a99670204", "current_trial": 12, "dateTime": 1664555829609, "trialdata": {"revealed_states": [], "num_clicks_accrued": [0, 0, 0, 0, 0, 0, 0, 0, 0, 0, 0, 0, 0], "stateRewards": ["", 2, 4, -48, 24, -4, -4, -24, 24, 2, -4, 24, -24], "withholdReward": false, "trial_id": "mdp_163600331068", "block": "test1", "trialIndex": 5, "score": 32, "costs": -3, "simulationMode": [null, null, null], "rewards": [2, 4, 24], "path": ["0", "0", "1", "2", "4"], "rt": [26595, 443, 142], "actions": ["up", "up", "left"], "actionTimes": [37951, 38887, 39520], "queries": {"click": {"state": {"target": ["9", "10", "11", "12", "5", "6", "8", "7", "1", "2", "4", "3"], "time": [12581, 13299, 13880, 14715, 15837, 16278, 16619, 17337, 18435, 18761, 19107, 19699]}, "edge": {"target": [], "time": []}}, "mouseover": {"state": {"target": ["9", "10", "9", "10", "11", "12", "0", "5", "6", "8", "7", "1", "2", "4", "3"], "time": [12005, 12055, 12306, 13073, 13740, 14374, 15375, 15458, 16125, 16442, 17093, 18210, 18678, 18978, 19578]}, "edge": {"target": [], "time": []}}, "mouseout": {"state": {"target": ["10", "0", "9", "10", "9", "10", "11", "10", "12", "9", "0", "5", "6", "8", "6", "7", "6", "5", "1", "2", "4", "2", "3"], "time": [10704, 11989, 12022, 12272, 12806, 13657, 14040, 14307, 14875, 15308, 15425, 15975, 16409, 16893, 16993, 17661, 18060, 18110, 18594, 18928, 19295, 19545, 19878]}, "edge": {"target": [], "time": []}}}, "displayed_time": "40.01", "trialTime": 65425, "trial_type": "mouselab-mdp", "trial_index": 12, "time_elapsed": 918155, "internal_node_id": "0.0-4.0-1.0-3.0"}}, {"uniqueid": "w43636581:a99670204", "current_trial": 13, "dateTime": 1664555855366, "trialdata": {"revealed_states": [], "num_clicks_accrued": [0, 0, 0, 0, 0, 0, 0, 0, 0, 0, 0, 0, 0], "stateRewards": ["", -4, -8, -24, -48, -2, -8, 24, -48, -4, -8, 24, -48], "withholdReward": true, "trial_id": "mdp_621812384092", "block": "test1", "trialIndex": 6, "score": 14, "costs": -3, "simulationMode": [null, null, null], "rewards": [-4, -8, 24], "path": ["0", "0", "9", "10", "11"], "rt": [11032, 66, 252], "actions": ["left", "left", "up"], "actionTimes": [13194, 13759, 14512], "queries": {"click": {"state": {"target": ["1", "2", "4", "9", "10", "12", "11", "5", "6", "7", "8", "3"], "time": [3865, 4516, 5607, 6392, 6758, 7149, 7746, 9557, 9947, 10304, 10940, 11625]}, "edge": {"target": [], "time": []}}, "mouseover": {"state": {"target": ["1", "2", "4", "9", "10", "12", "11", "8", "6", "5", "6", "7", "8", "3"], "time": [3034, 4251, 5319, 6169, 6620, 7003, 7604, 8205, 9222, 9422, 9906, 10206, 10590, 11524]}, "edge": {"target": [], "time": []}}, "mouseout": {"state": {"target": ["5", "1", "0", "1", "2", "4", "9", "10", "12", "11", "9", "8", "6", "5", "6", "7", "6", "8", "5", "3", "5", "8"], "time": [1732, 1916, 2650, 4118, 5085, 5903, 6536, 6937, 7370, 7954, 8054, 8588, 9305, 9756, 10156, 10506, 10573, 11124, 11357, 11774, 12308, 12374]}, "edge": {"target": [], "time": []}}}, "displayed_time": "15.01", "trialTime": 25731, "trial_type": "mouselab-mdp", "trial_index": 13, "time_elapsed": 943912, "internal_node_id": "0.0-4.0-1.0-4.0"}}, {"uniqueid": "w43636581:a99670204", "current_trial": 14, "dateTime": 1664555876430, "trialdata": {"revealed_states": [], "num_clicks_accrued": [0, 0, 0, 0, 0, 0, 0, 0, 0, 0, 0, 0, 0], "stateRewards": ["", 2, -8, -24, 48, -4, -8, 24, -48, 4, -8, -24, -24], "withholdReward": false, "trial_id": "mdp_928911266656", "block": "test1", "trialIndex": 7, "score": 15, "costs": -2, "simulationMode": [null, null, null], "rewards": [-4, -8, 24], "path": ["0", "0", "5", "6", "7"], "rt": [8796, 2353, 8], "actions": ["right", "right", "up"], "actionTimes": [10892, 13739, 14247], "queries": {"click": {"state": {"target": ["5", "6", "7", "8", "9", "10", "11", "12"], "time": [3020, 3404, 4252, 5683, 7996, 8614, 9043, 9756]}, "edge": {"target": [], "time": []}}, "mouseover": {"state": {"target": ["5", "6", "7", "7", "8", "8", "1", "9", "10", "10", "11", "12"], "time": [2612, 3212, 3629, 3963, 4847, 5548, 7116, 7833, 8183, 8517, 8967, 9634]}, "edge": {"target": [], "time": []}}, "mouseout": {"state": {"target": ["0", "5", "6", "7", "7", "6", "8", "8", "1", "9", "10", "10", "11", "10", "12", "0"], "time": [2445, 3129, 3596, 3663, 4380, 4797, 5314, 5898, 7399, 8150, 8233, 8884, 9201, 9351, 10035, 13004]}, "edge": {"target": [], "time": []}}}, "displayed_time": "14.76", "trialTime": 21036, "trial_type": "mouselab-mdp", "trial_index": 14, "time_elapsed": 964976, "internal_node_id": "0.0-4.0-1.0-5.0"}}, {"uniqueid": "w43636581:a99670204", "current_trial": 15, "dateTime": 1664555894808, "trialdata": {"revealed_states": [], "num_clicks_accrued": [0, 0, 0, 0, 0, 0, 0, 0, 0, 0, 0, 0, 0], "stateRewards": ["", -4, 8, -24, -48, 2, 8, -48, -24, -2, -4, 48, -48], "withholdReward": true, "trial_id": "mdp_599927291428", "block": "test1", "trialIndex": 8, "score": 45.25, "costs": -1.75, "simulationMode": [null, null, null], "rewards": [-2, -4, 48], "path": ["0", "0", "9", "10", "11"], "rt": [12633, 447, 192], "actions": ["left", "left", "up"], "actionTimes": [14542, 15477, 16156], "queries": {"click": {"state": {"target": ["1", "3", "4", "12", "11", "9", "10"], "time": [7523, 8408, 9262, 11690, 12291, 13000, 13312]}, "edge": {"target": [], "time": []}}, "mouseover": {"state": {"target": ["1", "5", "1", "2", "3", "2", "4", "11", "10", "12", "10", "11", "9", "10"], "time": [4086, 6138, 7305, 7772, 8223, 8723, 9057, 10324, 11226, 11526, 12060, 12127, 12710, 13161]}, "edge": {"target": [], "time": []}}, "mouseout": {"state": {"target": ["5", "6", "8", "0", "1", "5", "1", "2", "3", "2", "4", "11", "10", "12", "12", "10", "11", "9", "10"], "time": [1167, 1184, 1450, 3102, 4236, 7189, 7689, 8139, 8623, 9006, 9407, 11143, 11476, 11876, 12027, 12093, 12560, 13111, 13511]}, "edge": {"target": [], "time": []}}}, "displayed_time": "16.65", "trialTime": 18353, "trial_type": "mouselab-mdp", "trial_index": 15, "time_elapsed": 983354, "internal_node_id": "0.0-4.0-1.0-6.0"}}, {"uniqueid": "w43636581:a99670204", "current_trial": 16, "dateTime": 1664555907045, "trialdata": {"revealed_states": [], "num_clicks_accrued": [0, 0, 0, 0, 0, 0, 0, 0, 0, 0, 0, 0, 0], "stateRewards": ["", -4, 8, 24, 24, 2, 4, -48, 24, -2, -4, -24, -24], "withholdReward": false, "trial_id": "mdp_752328329546", "block": "test1", "trialIndex": 9, "score": 34, "costs": -1, "simulationMode": [null, null, null], "rewards": [2, 4, 24], "path": ["0", "0", "5", "6", "8"], "rt": [4792, 426, 34], "actions": ["right", "right", "down"], "actionTimes": [6477, 7402, 7944], "queries": {"click": {"state": {"target": ["5", "6", "7", "8"], "time": [3073, 3973, 4297, 5183]}, "edge": {"target": [], "time": []}}, "mouseover": {"state": {"target": ["5", "6", "6", "7", "8"], "time": [2879, 3456, 3706, 4173, 4940]}, "edge": {"target": [], "time": []}}, "mouseout": {"state": {"target": ["0", "5", "6", "6", "7", "8"], "time": [2121, 3255, 3506, 4106, 4557, 5340]}, "edge": {"target": [], "time": []}}}, "displayed_time": "10.69", "trialTime": 12211, "trial_type": "mouselab-mdp", "trial_index": 16, "time_elapsed": 995591, "internal_node_id": "0.0-4.0-1.0-7.0"}}, {"uniqueid": "w43636581:a99670204", "current_trial": 17, "dateTime": 1664555917349, "trialdata": {"revealed_states": [], "num_clicks_accrued": [0, 0, 0, 0, 0, 0, 0, 0, 0, 0, 0, 0, 0], "stateRewards": ["", -2, 8, -48, 48, 4, -8, -48, 48, 4, -4, -24, 48], "withholdReward": true, "trial_id": "mdp_144739116828", "block": "test1", "trialIndex": 10, "score": 52, "costs": -1, "simulationMode": [null, null, null], "rewards": [4, -4, 48], "path": ["0", "0", "9", "10", "12"], "rt": [4233, 17, 70], "actions": ["left", "left", "down"], "actionTimes": [5248, 5767, 6337], "queries": {"click": {"state": {"target": ["11", "12", "9", "10"], "time": [2143, 2735, 4457, 4782]}, "edge": {"target": [], "time": []}}, "mouseover": {"state": {"target": ["12", "10", "11", "10", "12", "9", "10"], "time": [1579, 1813, 1946, 2363, 2480, 3564, 4665]}, "edge": {"target": [], "time": []}}, "mouseout": {"state": {"target": ["0", "12", "10", "11", "10", "12", "9", "10"], "time": [1462, 1729, 1896, 2313, 2430, 2963, 4598, 5065]}, "edge": {"target": [], "time": []}}}, "displayed_time": "9.02", "trialTime": 10279, "trial_type": "mouselab-mdp", "trial_index": 17, "time_elapsed": 1005895, "internal_node_id": "0.0-4.0-1.0-8.0"}}, {"uniqueid": "w43636581:a99670204", "current_trial": 18, "dateTime": 1664555928634, "trialdata": {"revealed_states": [], "num_clicks_accrued": [0, 0, 0, 0, 0, 0, 0, 0, 0, 0, 0, 0, 0], "stateRewards": ["", -2, 8, -48, 48, -4, 8, -24, 24, 4, -4, 24, -48], "withholdReward": true, "trial_id": "mdp_904238083902", "block": "test1", "trialIndex": 11, "score": 57.5, "costs": -1.5, "simulationMode": [null, null, null], "rewards": [-2, 8, 48], "path": ["0", "0", "1", "2", "4"], "rt": [5904, 116, 87], "actions": ["up", "up", "left"], "actionTimes": [6844, 7471, 8059], "queries": {"click": {"state": {"target": ["12", "11", "8", "7", "3", "4"], "time": [1730, 2636, 3610, 4348, 4922, 5558]}, "edge": {"target": [], "time": []}}, "mouseover": {"state": {"target": ["12", "10", "11", "10", "9", "8", "6", "7", "7", "3", "2", "4", "1"], "time": [1583, 2116, 2416, 3017, 3067, 3484, 3767, 3818, 4218, 4835, 5102, 5469, 6020]}, "edge": {"target": [], "time": []}}, "mouseout": {"state": {"target": ["0", "12", "10", "11", "10", "9", "8", "6", "7", "7", "3", "2", "4", "1"], "time": [1249, 2083, 2183, 2950, 3034, 3084, 3734, 3784, 3901, 4568, 5068, 5152, 5836, 6987]}, "edge": {"target": [], "time": []}}}, "displayed_time": "9.94", "trialTime": 11260, "trial_type": "mouselab-mdp", "trial_index": 18, "time_elapsed": 1017180, "internal_node_id": "0.0-4.0-1.0-9.0"}}, {"uniqueid": "w43636581:a99670204", "current_trial": 19, "dateTime": 1664555940456, "trialdata": {"revealed_states": [], "num_clicks_accrued": [0, 0, 0, 0, 0, 0, 0, 0, 0, 0, 0, 0, 0], "stateRewards": ["", 2, -4, -48, 24, 4, 4, 48, -48, -2, -4, -24, -48], "withholdReward": true, "trial_id": "mdp_858916930936", "block": "test1", "trialIndex": 12, "score": 59.75, "costs": -1.25, "simulationMode": [null, null, null], "rewards": [4, 4, 48], "path": ["0", "0", "5", "6", "7"], "rt": [6068, 53, 107], "actions": ["right", "right", "up"], "actionTimes": [7954, 8502, 9107], "queries": {"click": {"state": {"target": ["4", "3", "12", "11", "7"], "time": [2965, 4206, 5400, 5929, 6793]}, "edge": {"target": [], "time": []}}, "mouseover": {"state": {"target": ["1", "4", "3", "1", "9", "12", "10", "11", "5", "7", "6", "8"], "time": [2477, 2627, 3878, 4695, 4845, 5229, 5596, 5763, 6397, 6697, 7014, 7231]}, "edge": {"target": [], "time": []}}, "mouseout": {"state": {"target": ["0", "1", "4", "3", "1", "9", "12", "10", "11", "5", "7", "6", "8"], "time": [2360, 2527, 3328, 4495, 4729, 4912, 5546, 5663, 6130, 6464, 6947, 7131, 7415]}, "edge": {"target": [], "time": []}}}, "displayed_time": "9.89", "trialTime": 11800, "trial_type": "mouselab-mdp", "trial_index": 19, "time_elapsed": 1029002, "internal_node_id": "0.0-4.0-1.0-10.0"}}, {"uniqueid": "w43636581:a99670204", "current_trial": 20, "dateTime": 1664555953019, "trialdata": {"revealed_states": [], "num_clicks_accrued": [0, 0, 0, 0, 0, 0, 0, 0, 0, 0, 0, 0, 0], "stateRewards": ["", -4, 8, 24, -24, 4, 8, -24, -48, 2, 4, 24, -24], "withholdReward": true, "trial_id": "mdp_782187007008", "block": "test1", "trialIndex": 13, "score": 31, "costs": -2, "simulationMode": [null, null, null], "rewards": [-4, 8, 24], "path": ["0", "0", "1", "2", "3"], "rt": [8269, 165, 147], "actions": ["up", "up", "right"], "actionTimes": [9322, 9984, 10617], "queries": {"click": {"state": {"target": ["4", "3", "7", "8", "12", "11", "1", "2"], "time": [2385, 2935, 3671, 4334, 5292, 5777, 7574, 8398]}, "edge": {"target": [], "time": []}}, "mouseover": {"state": {"target": ["4", "2", "3", "7", "7", "6", "8", "12", "12", "10", "11", "1", "1", "2", "2", "9", "10"], "time": [2080, 2631, 2781, 3264, 3564, 3881, 3965, 4849, 5216, 5516, 5700, 6617, 7317, 7734, 8218, 8768, 8968]}, "edge": {"target": [], "time": []}}, "mouseout": {"state": {"target": ["5", "0", "4", "2", "3", "7", "7", "6", "8", "12", "12", "10", "11", "1", "1", "2", "2", "9"], "time": [745, 1746, 2580, 2697, 3164, 3431, 3865, 3915, 4515, 4899, 5483, 5583, 6068, 6684, 7701, 8051, 8551, 8785]}, "edge": {"target": [], "time": []}}}, "displayed_time": "11.10", "trialTime": 12540, "trial_type": "mouselab-mdp", "trial_index": 20, "time_elapsed": 1041565, "internal_node_id": "0.0-4.0-1.0-11.0"}}, {"uniqueid": "w43636581:a99670204", "current_trial": 21, "dateTime": 1664555965058, "trialdata": {"revealed_states": [], "num_clicks_accrued": [0, 0, 0, 0, 0, 0, 0, 0, 0, 0, 0, 0, 0], "stateRewards": ["", 2, 4, 48, -24, 2, -8, -24, -24, 2, -8, -24, -48], "withholdReward": true, "trial_id": "mdp_274832552938", "block": "test1", "trialIndex": 14, "score": 57.5, "costs": -1.5, "simulationMode": [null, null, null], "rewards": [2, 4, 48], "path": ["0", "0", "1", "2", "3"], "rt": [6122, 286, 79], "actions": ["up", "up", "right"], "actionTimes": [8192, 8968, 9544], "queries": {"click": {"state": {"target": ["4", "11", "12", "7", "8", "3"], "time": [3493, 4185, 4749, 5493, 6246, 7098]}, "edge": {"target": [], "time": []}}, "mouseover": {"state": {"target": ["4", "11", "10", "12", "0", "7", "7", "6", "8", "3", "5", "5"], "time": [2926, 4061, 4394, 4544, 5061, 5128, 5378, 5662, 6070, 6980, 7497, 7597]}, "edge": {"target": [], "time": []}}, "mouseout": {"state": {"target": ["10", "9", "1", "0", "4", "11", "10", "12", "0", "7", "7", "6", "8", "3", "5", "5"], "time": [1375, 1475, 1542, 2476, 3694, 4361, 4478, 4978, 5078, 5162, 5645, 5895, 6596, 7430, 7513, 7614]}, "edge": {"target": [], "time": []}}}, "displayed_time": "10.07", "trialTime": 12015, "trial_type": "mouselab-mdp", "trial_index": 21, "time_elapsed": 1053604, "internal_node_id": "0.0-4.0-1.0-12.0"}}, {"uniqueid": "w43636581:a99670204", "current_trial": 22, "dateTime": 1664555976503, "trialdata": {"revealed_states": [], "num_clicks_accrued": [0, 0, 0, 0, 0, 0, 0, 0, 0, 0, 0, 0, 0], "stateRewards": ["", 2, 8, 48, -24, -4, 4, 48, 24, -2, 8, 24, 24], "withholdReward": true, "trial_id": "mdp_123436106791", "block": "test1", "trialIndex": 15, "score": 52.25, "costs": -0.75, "simulationMode": [null, null, null], "rewards": [-4, 4, 48], "path": ["0", "0", "5", "6", "7"], "rt": [4509, 49, 92], "actions": ["right", "right", "up"], "actionTimes": [5836, 6384, 6977], "queries": {"click": {"state": {"target": ["11", "12", "7"], "time": [2810, 3599, 4484]}, "edge": {"target": [], "time": []}}, "mouseover": {"state": {"target": ["0", "12", "12", "10", "11", "10", "12", "7", "6", "8"], "time": [1638, 1747, 2131, 2398, 2598, 3048, 3432, 4300, 4650, 4916]}, "edge": {"target": [], "time": []}}, "mouseout": {"state": {"target": ["3", "0", "12", "12", "10", "11", "10", "12", "7", "6", "8"], "time": [813, 1697, 1781, 2364, 2481, 2998, 3115, 3732, 4616, 4766, 5117]}, "edge": {"target": [], "time": []}}}, "displayed_time": "10.33", "trialTime": 11422, "trial_type": "mouselab-mdp", "trial_index": 22, "time_elapsed": 1065049, "internal_node_id": "0.0-4.0-1.0-13.0"}}, {"uniqueid": "w43636581:a99670204", "current_trial": 23, "dateTime": 1664555987976, "trialdata": {"revealed_states": [], "num_clicks_accrued": [0, 0, 0, 0, 0, 0, 0, 0, 0, 0, 0, 0, 0], "stateRewards": ["", -2, -8, -24, 48, -2, -8, -48, -48, 2, -8, -48, 24], "withholdReward": true, "trial_id": "mdp_288324580942", "block": "test1", "trialIndex": 16, "score": 41.5, "costs": -1.5, "simulationMode": [null, null, null], "rewards": [-2, -8, 48], "path": ["0", "0", "1", "2", "4"], "rt": [5092, 334, 139], "actions": ["up", "up", "left"], "actionTimes": [6611, 7433, 8072], "queries": {"click": {"state": {"target": ["11", "12", "7", "8", "3", "4"], "time": [2307, 2828, 3614, 4095, 4926, 5571]}, "edge": {"target": [], "time": []}}, "mouseover": {"state": {"target": ["9", "11", "10", "12", "0", "7", "6", "8", "5", "3", "4"], "time": [1927, 2127, 2528, 2628, 3228, 3412, 3746, 3846, 4479, 4863, 5280]}, "edge": {"target": [], "time": []}}, "mouseout": {"state": {"target": ["5", "0", "9", "11", "10", "12", "0", "7", "6", "8", "5", "3", "4"], "time": [1310, 1894, 1977, 2461, 2594, 2962, 3245, 3729, 3796, 4446, 4529, 5030, 5814]}, "edge": {"target": [], "time": []}}}, "displayed_time": "10.52", "trialTime": 11449, "trial_type": "mouselab-mdp", "trial_index": 23, "time_elapsed": 1076522, "internal_node_id": "0.0-4.0-1.0-14.0"}}, {"uniqueid": "w43636581:a99670204", "current_trial": 24, "dateTime": 1664555997744, "trialdata": {"revealed_states": [], "num_clicks_accrued": [0, 0, 0, 0, 0, 0, 0, 0, 0, 0, 0, 0, 0], "stateRewards": ["", -4, -8, 24, -48, 2, 4, -48, -48, 2, -8, 24, 48], "withholdReward": true, "trial_id": "mdp_111262146724", "block": "test1", "trialIndex": 17, "score": 46, "costs": -1, "simulationMode": [null, null, null], "rewards": [2, -8, 48], "path": ["0", "0", "9", "10", "12"], "rt": [3079, 46, 84], "actions": ["left", "left", "down"], "actionTimes": [3987, 4546, 5134], "queries": {"click": {"state": {"target": ["4", "3", "11", "12"], "time": [1491, 2092, 2873, 3432]}, "edge": {"target": [], "time": []}}, "mouseover": {"state": {"target": ["4", "2", "3", "1", "11", "10", "12"], "time": [1397, 1747, 1997, 2347, 2798, 3115, 3215]}, "edge": {"target": [], "time": []}}, "mouseout": {"state": {"target": ["5", "0", "4", "2", "3", "1", "11", "10", "12"], "time": [729, 1180, 1680, 1880, 2281, 2464, 3081, 3148, 3665]}, "edge": {"target": [], "time": []}}}, "displayed_time": "8.91", "trialTime": 9744, "trial_type": "mouselab-mdp", "trial_index": 24, "time_elapsed": 1086290, "internal_node_id": "0.0-4.0-1.0-15.0"}}, {"uniqueid": "w43636581:a99670204", "current_trial": 25, "dateTime": 1664556011661, "trialdata": {"revealed_states": [], "num_clicks_accrued": [0, 0, 0, 0, 0, 0, 0, 0, 0, 0, 0, 0, 0], "stateRewards": ["", 4, 8, 24, 24, 2, -4, 48, -24, -4, 8, -24, 24], "withholdReward": false, "trial_id": "mdp_932292142091", "block": "test1", "trialIndex": 18, "score": 50.25, "costs": -0.75, "simulationMode": [null, null, null], "rewards": [2, -4, 48], "path": ["0", "0", "5", "6", "7"], "rt": [2870, 38, 137], "actions": ["right", "right", "up"], "actionTimes": [3691, 4244, 4894], "queries": {"click": {"state": {"target": ["12", "11", "7"], "time": [1725, 2337, 2996]}, "edge": {"target": [], "time": []}}, "mouseover": {"state": {"target": ["0", "12", "10", "11", "9", "7", "6", "8"], "time": [1003, 1503, 2071, 2171, 2587, 2854, 3155, 3288]}, "edge": {"target": [], "time": []}}, "mouseout": {"state": {"target": ["0", "0", "12", "10", "11", "9", "7", "6", "8"], "time": [686, 1036, 2037, 2120, 2504, 2638, 3105, 3221, 4072]}, "edge": {"target": [], "time": []}}}, "displayed_time": "8.82", "trialTime": 13893, "trial_type": "mouselab-mdp", "trial_index": 25, "time_elapsed": 1100207, "internal_node_id": "0.0-4.0-1.0-16.0"}}, {"uniqueid": "w43636581:a99670204", "current_trial": 26, "dateTime": 1664556022993, "trialdata": {"revealed_states": [], "num_clicks_accrued": [0, 0, 0, 0, 0, 0, 0, 0, 0, 0, 0, 0, 0], "stateRewards": ["", 2, 8, 48, 24, -4, 4, -48, 24, 2, 8, 48, 48], "withholdReward": true, "trial_id": "mdp_367344599162", "block": "test1", "trialIndex": 19, "score": 62.75, "costs": -0.25, "simulationMode": [null, null, null], "rewards": [2, 8, 48], "path": ["0", "0", "9", "10", "11"], "rt": [2117, 22, 40], "actions": ["left", "left", "up"], "actionTimes": [4430, 4943, 5479], "queries": {"click": {"state": {"target": ["11"], "time": [3370]}, "edge": {"target": [], "time": []}}, "mouseover": {"state": {"target": ["0", "9", "11", "10"], "time": [2585, 2902, 3219, 3586]}, "edge": {"target": [], "time": []}}, "mouseout": {"state": {"target": ["0", "0", "9", "11", "10"], "time": [2152, 2652, 2919, 3536, 3686]}, "edge": {"target": [], "time": []}}}, "displayed_time": "10.31", "trialTime": 11311, "trial_type": "mouselab-mdp", "trial_index": 26, "time_elapsed": 1111539, "internal_node_id": "0.0-4.0-1.0-17.0"}}, {"uniqueid": "w43636581:a99670204", "current_trial": 27, "dateTime": 1664556035014, "trialdata": {"revealed_states": [], "num_clicks_accrued": [0, 0, 0, 0, 0, 0, 0, 0, 0, 0, 0, 0, 0], "stateRewards": ["", -2, -4, -48, -48, 4, -4, 48, 24, 4, 4, 48, 48], "withholdReward": false, "trial_id": "mdp_950960813932", "block": "test1", "trialIndex": 20, "score": 60.75, "costs": -0.25, "simulationMode": [null, null, null], "rewards": [4, 4, 48], "path": ["0", "0", "9", "10", "12"], "rt": [1654, 50, 65], "actions": ["left", "left", "down"], "actionTimes": [3363, 3910, 4475], "queries": {"click": {"state": {"target": ["12"], "time": [2413]}, "edge": {"target": [], "time": []}}, "mouseover": {"state": {"target": ["9", "12"], "time": [2025, 2342]}, "edge": {"target": [], "time": []}}, "mouseout": {"state": {"target": ["0", "9", "12"], "time": [1958, 2108, 2642]}, "edge": {"target": [], "time": []}}}, "displayed_time": "10.71", "trialTime": 11996, "trial_type": "mouselab-mdp", "trial_index": 27, "time_elapsed": 1123560, "internal_node_id": "0.0-4.0-1.0-18.0"}}, {"uniqueid": "w43636581:a99670204", "current_trial": 28, "dateTime": 1664556094368, "trialdata": {"revealed_states": [], "num_clicks_accrued": [0, 0, 0, 0, 0, 0, 0, 0, 0, 0, 0, 0, 0], "stateRewards": ["", -4, 4, -48, -48, -4, 8, -24, 24, 2, -4, 48, 48], "withholdReward": false, "trial_id": "mdp_821566905048", "block": "test1", "trialIndex": 21, "score": 50.75, "costs": -0.25, "simulationMode": [null, null, null], "rewards": [2, -4, 48], "path": ["0", "0", "9", "10", "12"], "rt": [1869, 444, 189], "actions": ["left", "left", "down"], "actionTimes": [3552, 4493, 5173], "queries": {"click": {"state": {"target": ["12"], "time": [2327]}, "edge": {"target": [], "time": []}}, "mouseover": {"state": {"target": ["12", "10"], "time": [2097, 2497]}, "edge": {"target": [], "time": []}}, "mouseout": {"state": {"target": ["0", "12", "10", "11", "2", "10", "8"], "time": [1997, 2464, 2597, 11605, 11638, 57959, 58175]}, "edge": {"target": [], "time": []}}}, "displayed_time": "10.68", "trialTime": 59329, "trial_type": "mouselab-mdp", "trial_index": 28, "time_elapsed": 1182914, "internal_node_id": "0.0-4.0-1.0-19.0"}}, {"uniqueid": "w43636581:a99670204", "current_trial": 29, "dateTime": 1664556106709, "trialdata": {"revealed_states": [], "num_clicks_accrued": [0, 0, 0, 0, 0, 0, 0, 0, 0, 0, 0, 0, 0], "stateRewards": ["", 2, -8, 48, -24, -4, -8, -24, 48, -2, 4, 24, -48], "withholdReward": true, "trial_id": "mdp_186932504904", "block": "test1", "trialIndex": 22, "score": 46.5, "costs": -0.5, "simulationMode": [null, null, null], "rewards": [2, -8, 48], "path": ["0", "0", "1", "2", "3"], "rt": [3250, 182, 228], "actions": ["up", "up", "right"], "actionTimes": [5265, 5938, 6651], "queries": {"click": {"state": {"target": ["4", "3"], "time": [3102, 3787]}, "edge": {"target": [], "time": []}}, "mouseover": {"state": {"target": ["1", "4", "2", "3", "1", "9"], "time": [2619, 2953, 3337, 3637, 4071, 4187]}, "edge": {"target": [], "time": []}}, "mouseout": {"state": {"target": ["1", "7", "0", "1", "4", "2", "3", "1", "9"], "time": [1535, 1702, 2553, 2703, 3287, 3454, 4037, 4104, 4271]}, "edge": {"target": [], "time": []}}}, "displayed_time": "11.02", "trialTime": 12311, "trial_type": "mouselab-mdp", "trial_index": 29, "time_elapsed": 1195255, "internal_node_id": "0.0-4.0-1.0-20.0"}}, {"uniqueid": "w43636581:a99670204", "current_trial": 30, "dateTime": 1664556117052, "trialdata": {"revealed_states": [], "num_clicks_accrued": [0, 0, 0, 0, 0, 0, 0, 0, 0, 0, 0, 0, 0], "stateRewards": ["", 2, -4, 48, 24, 2, 8, 24, 24, -2, 4, 24, 24], "withholdReward": true, "trial_id": "mdp_813974524300", "block": "test1", "trialIndex": 23, "score": 50.5, "costs": -0.5, "simulationMode": [null, null, null], "rewards": [2, -4, 48], "path": ["0", "0", "1", "2", "3"], "rt": [3096, 8, 55], "actions": ["up", "up", "right"], "actionTimes": [4566, 5086, 5650], "queries": {"click": {"state": {"target": ["4", "3"], "time": [2492, 3219]}, "edge": {"target": [], "time": []}}, "mouseover": {"state": {"target": ["1", "4", "2", "3", "1"], "time": [2125, 2376, 2793, 3143, 3610]}, "edge": {"target": [], "time": []}}, "mouseout": {"state": {"target": ["0", "1", "4", "2", "3", "1", "1"], "time": [924, 2142, 2709, 2843, 3493, 3760, 6512]}, "edge": {"target": [], "time": []}}}, "displayed_time": "9.47", "trialTime": 10317, "trial_type": "mouselab-mdp", "trial_index": 30, "time_elapsed": 1205598, "internal_node_id": "0.0-4.0-1.0-21.0"}}, {"uniqueid": "w43636581:a99670204", "current_trial": 31, "dateTime": 1664556127196, "trialdata": {"revealed_states": [], "num_clicks_accrued": [0, 0, 0, 0, 0, 0, 0, 0, 0, 0, 0, 0, 0], "stateRewards": ["", 4, 8, -24, 48, 4, -8, -48, 48, -4, 8, -24, -48], "withholdReward": false, "trial_id": "mdp_376126356841", "block": "test1", "trialIndex": 24, "score": 64.5, "costs": -0.5, "simulationMode": [null, null, null], "rewards": [4, 8, 48], "path": ["0", "0", "1", "2", "4"], "rt": [2013, 4, 469], "actions": ["up", "up", "left"], "actionTimes": [2676, 3178, 4160], "queries": {"click": {"state": {"target": ["3", "4"], "time": [1525, 2190]}, "edge": {"target": [], "time": []}}, "mouseover": {"state": {"target": ["1", "3", "2", "4"], "time": [1038, 1338, 1972, 2122]}, "edge": {"target": [], "time": []}}, "mouseout": {"state": {"target": ["9", "1", "3", "2", "4"], "time": [404, 1138, 1838, 2039, 2422]}, "edge": {"target": [], "time": []}}}, "displayed_time": "8.66", "trialTime": 10116, "trial_type": "mouselab-mdp", "trial_index": 31, "time_elapsed": 1215742, "internal_node_id": "0.0-4.0-1.0-22.0"}}, {"uniqueid": "w43636581:a99670204", "current_trial": 32, "dateTime": 1664556138104, "trialdata": {"revealed_states": [], "num_clicks_accrued": [0, 0, 0, 0, 0, 0, 0, 0, 0, 0, 0, 0, 0], "stateRewards": ["", 2, 4, 48, -48, 2, 4, 24, -24, 2, -4, -24, -48], "withholdReward": true, "trial_id": "mdp_706591889062", "block": "test1", "trialIndex": 25, "score": 58.5, "costs": -0.5, "simulationMode": [null, null, null], "rewards": [2, 4, 48], "path": ["0", "0", "1", "2", "3"], "rt": [2901, 181, 5], "actions": ["up", "up", "right"], "actionTimes": [4131, 4822, 5313], "queries": {"click": {"state": {"target": ["4", "3"], "time": [2791, 3559]}, "edge": {"target": [], "time": []}}, "mouseover": {"state": {"target": ["9", "11", "4", "2", "3", "1"], "time": [1771, 2138, 2688, 3305, 3405, 3989]}, "edge": {"target": [], "time": []}}, "mouseout": {"state": {"target": ["11", "0", "0", "9", "11", "4", "2", "3", "1", "0"], "time": [419, 586, 1704, 1921, 2338, 3188, 3338, 3806, 4423, 4540]}, "edge": {"target": [], "time": []}}}, "displayed_time": "10.23", "trialTime": 10881, "trial_type": "mouselab-mdp", "trial_index": 32, "time_elapsed": 1226650, "internal_node_id": "0.0-4.0-1.0-23.0"}}, {"uniqueid": "w43636581:a99670204", "current_trial": 33, "dateTime": 1664556148590, "trialdata": {"revealed_states": [], "num_clicks_accrued": [0, 0, 0, 0, 0, 0, 0, 0, 0, 0, 0, 0, 0], "stateRewards": ["", -2, 8, -24, 48, -4, 4, -48, 24, 4, -8, 48, -24], "withholdReward": true, "trial_id": "mdp_425320427962", "block": "test1", "trialIndex": 26, "score": 48.75, "costs": -0.25, "simulationMode": [null, null, null], "rewards": [4, -8, 48], "path": ["0", "0", "9", "10", "11"], "rt": [1395, 285, 174], "actions": ["left", "left", "up"], "actionTimes": [2028, 2809, 3482], "queries": {"click": {"state": {"target": ["11"], "time": [1386]}, "edge": {"target": [], "time": []}}, "mouseover": {"state": {"target": ["9", "11", "10", "12"], "time": [988, 1255, 1622, 1772]}, "edge": {"target": [], "time": []}}, "mouseout": {"state": {"target": ["0", "9", "11", "10", "12"], "time": [938, 1072, 1572, 1672, 5692]}, "edge": {"target": [], "time": []}}}, "displayed_time": "8.63", "trialTime": 10460, "trial_type": "mouselab-mdp", "trial_index": 33, "time_elapsed": 1237136, "internal_node_id": "0.0-4.0-1.0-24.0"}}, {"uniqueid": "w43636581:a99670204", "current_trial": 34, "dateTime": 1664556167007, "trialdata": {"revealed_states": [], "num_clicks_accrued": [0, 0, 0, 0, 0, 0, 0, 0, 0, 0, 0, 0, 0], "stateRewards": ["", 2, -8, 48, -24, 2, 8, 24, -24, 4, -4, -48, -48], "withholdReward": true, "trial_id": "mdp_130946197263", "block": "test1", "trialIndex": 27, "score": 45.5, "costs": -1.5, "simulationMode": [null, null, null], "rewards": [2, -8, 48], "path": ["0", "0", "1", "2", "3"], "rt": [5482, 157, 191], "actions": ["up", "up", "right"], "actionTimes": [14394, 15062, 15746], "queries": {"click": {"state": {"target": ["11", "12", "7", "8", "3", "4"], "time": [9958, 10752, 11699, 12674, 13421, 13988]}, "edge": {"target": [], "time": []}}, "mouseover": {"state": {"target": ["11", "10", "12", "5", "6", "7", "6", "8", "8", "5", "3", "2", "4"], "time": [9717, 10301, 10684, 11401, 11502, 11618, 11952, 12086, 12320, 13053, 13353, 13653, 13753]}, "edge": {"target": [], "time": []}}, "mouseout": {"state": {"target": ["9", "0", "5", "11", "10", "12", "5", "6", "7", "6", "8", "8", "5", "3", "2", "4", "0"], "time": [3894, 8366, 8566, 10267, 10351, 11118, 11435, 11518, 11902, 12052, 12119, 13003, 13087, 13620, 13704, 14171, 16222]}, "edge": {"target": [], "time": []}}}, "displayed_time": "16.91", "trialTime": 18388, "trial_type": "mouselab-mdp", "trial_index": 34, "time_elapsed": 1255552, "internal_node_id": "0.0-4.0-1.0-25.0"}}, {"uniqueid": "w43636581:a99670204", "current_trial": 35, "dateTime": 1664556181536, "trialdata": {"revealed_states": [], "num_clicks_accrued": [0, 0, 0, 0, 0, 0, 0, 0, 0, 0, 0, 0, 0], "stateRewards": ["", -4, -8, -24, 24, 4, 4, -48, -48, -4, -4, 24, -48], "withholdReward": true, "trial_id": "mdp_431592223624", "block": "test1", "trialIndex": 28, "score": 18.5, "costs": -2.5, "simulationMode": [null, null, null], "rewards": [-4, -4, 24], "path": ["0", "0", "9", "10", "11"], "rt": [10638, 330, 151], "actions": ["left", "left", "up"], "actionTimes": [11810, 12632, 13271], "queries": {"click": {"state": {"target": ["3", "4", "11", "12", "7", "8", "9", "10", "1", "2"], "time": [2045, 2604, 3430, 3998, 4722, 5291, 7762, 8108, 8744, 9039]}, "edge": {"target": [], "time": []}}, "mouseover": {"state": {"target": ["1", "2", "3", "2", "4", "11", "10", "12", "0", "5", "7", "7", "6", "8", "5", "1", "1", "5", "0", "9", "10", "1", "2", "0", "5"], "time": [1427, 1510, 1711, 2378, 2494, 3312, 3645, 3862, 4313, 4330, 4379, 4629, 4980, 5263, 5730, 5764, 6047, 6448, 7448, 7599, 7949, 8533, 8933, 10051, 10417]}, "edge": {"target": [], "time": []}}, "mouseout": {"state": {"target": ["5", "1", "2", "3", "2", "4", "11", "10", "12", "0", "5", "7", "7", "6", "8", "5", "1", "1", "5", "0", "9", "10", "1", "2", "1", "0", "5"], "time": [759, 1460, 1644, 2344, 2428, 2861, 3579, 3779, 4229, 4329, 4346, 4396, 4880, 5097, 5697, 5747, 5797, 6414, 7415, 7515, 7899, 8316, 8900, 9319, 9650, 10284, 13203]}, "edge": {"target": [], "time": []}}}, "displayed_time": "13.79", "trialTime": 14503, "trial_type": "mouselab-mdp", "trial_index": 35, "time_elapsed": 1270082, "internal_node_id": "0.0-4.0-1.0-26.0"}}, {"uniqueid": "w43636581:a99670204", "current_trial": 36, "dateTime": 1664556192074, "trialdata": {"revealed_states": [], "num_clicks_accrued": [0, 0, 0, 0, 0, 0, 0, 0, 0, 0, 0, 0, 0], "stateRewards": ["", -4, 8, 24, -24, -2, 4, -24, 48, -2, 8, -48, -24], "withholdReward": false, "trial_id": "mdp_799359103169", "block": "test1", "trialIndex": 29, "score": 53.5, "costs": -1.5, "simulationMode": [null, null, null], "rewards": [-2, 4, 48], "path": ["0", "0", "5", "6", "8"], "rt": [4130, 13, 38], "actions": ["right", "right", "down"], "actionTimes": [5291, 5793, 6335], "queries": {"click": {"state": {"target": ["11", "12", "4", "3", "7", "8"], "time": [1880, 2425, 3086, 3539, 4193, 4670]}, "edge": {"target": [], "time": []}}, "mouseover": {"state": {"target": ["11", "10", "12", "9", "1", "2", "4", "3", "7", "6", "8"], "time": [1710, 2110, 2310, 2711, 2761, 2877, 3028, 3445, 4128, 4429, 4596]}, "edge": {"target": [], "time": []}}, "mouseout": {"state": {"target": ["0", "11", "10", "12", "9", "1", "2", "4", "3", "7", "6", "8"], "time": [1109, 2043, 2260, 2661, 2727, 2794, 2928, 3228, 3712, 4395, 4495, 6197]}, "edge": {"target": [], "time": []}}}, "displayed_time": "9.16", "trialTime": 10511, "trial_type": "mouselab-mdp", "trial_index": 36, "time_elapsed": 1280620, "internal_node_id": "0.0-4.0-1.0-27.0"}}, {"uniqueid": "w43636581:a99670204", "current_trial": 37, "dateTime": 1664556203889, "trialdata": {"revealed_states": [], "num_clicks_accrued": [0, 0, 0, 0, 0, 0, 0, 0, 0, 0, 0, 0, 0], "stateRewards": ["", 2, -8, 48, -24, 2, -4, 24, 48, 4, -4, 48, -24], "withholdReward": true, "trial_id": "mdp_656500928756", "block": "test1", "trialIndex": 30, "score": 46.5, "costs": -0.5, "simulationMode": [null, null, null], "rewards": [2, -8, 48], "path": ["0", "0", "1", "2", "3"], "rt": [2314, 15, 237], "actions": ["up", "up", "right"], "actionTimes": [3316, 3830, 4571], "queries": {"click": {"state": {"target": ["4", "3"], "time": [1755, 2657]}, "edge": {"target": [], "time": []}}, "mouseover": {"state": {"target": ["4", "2", "3"], "time": [1514, 2031, 2315]}, "edge": {"target": [], "time": []}}, "mouseout": {"state": {"target": ["0", "4", "2", "3", "1"], "time": [780, 1931, 2131, 2815, 4516]}, "edge": {"target": [], "time": []}}}, "displayed_time": "10.00", "trialTime": 11788, "trial_type": "mouselab-mdp", "trial_index": 37, "time_elapsed": 1292435, "internal_node_id": "0.0-4.0-1.0-28.0"}}, {"uniqueid": "w43636581:a99670204", "current_trial": 38, "dateTime": 1664556215476, "trialdata": {"revealed_states": [], "num_clicks_accrued": [0, 0, 0, 0, 0, 0, 0, 0, 0, 0, 0, 0, 0], "stateRewards": ["", 2, -8, -24, -48, -2, -4, 48, 48, 4, 8, 48, 48], "withholdReward": true, "trial_id": "mdp_347285045422", "block": "test1", "trialIndex": 31, "score": 64.25, "costs": -0.75, "simulationMode": [null, null, null], "rewards": [4, 8, 48], "path": ["0", "0", "9", "10", "11"], "rt": [3629, 9, 154], "actions": ["left", "left", "up"], "actionTimes": [5107, 5603, 6265], "queries": {"click": {"state": {"target": ["4", "3", "11"], "time": [2302, 3037, 3625]}, "edge": {"target": [], "time": []}}, "mouseover": {"state": {"target": ["1", "4", "2", "3", "11", "10", "12"], "time": [1924, 2175, 2625, 2942, 3509, 3826, 3893]}, "edge": {"target": [], "time": []}}, "mouseout": {"state": {"target": ["1", "0", "1", "4", "2", "3", "11", "10", "12", "12"], "time": [990, 1858, 1974, 2575, 2708, 3259, 3776, 3859, 4026, 10847]}, "edge": {"target": [], "time": []}}}, "displayed_time": "10.48", "trialTime": 11560, "trial_type": "mouselab-mdp", "trial_index": 38, "time_elapsed": 1304022, "internal_node_id": "0.0-4.0-1.0-29.0"}}, {"uniqueid": "w43636581:a99670204", "current_trial": 39, "dateTime": 1664556245145, "trialdata": {"rt": 29666, "stimulus": "<h1> End of block! </h1>\n\nYou have reached the end of the block 1/4. If you need a short break, feel free to take one now before moving on.\n\n<br><br>\nIn the next block, you will complete another 30 rounds of this game.\n\n<br><br>\n<div style='text-align: center;'>Press <code>space</code> to begin.</div>\n<br><br>\n<div style='text-align: center;'>(If the experiment doesn't continue, try clicking on the text and then pressing <code>space</code>.)</div>", "response": " ", "trial_id": "mdp_ready_2", "trial_type": "html-keyboard-response", "trial_index": 39, "time_elapsed": 1333691, "internal_node_id": "0.0-4.0-2.0"}}, {"uniqueid": "w43636581:a99670204", "current_trial": 40, "dateTime": 1664556265821, "trialdata": {"revealed_states": [], "num_clicks_accrued": [0, 0, 0, 0, 0, 0, 0, 0, 0, 0, 0, 0, 0], "stateRewards": ["", 2, -8, -48, 24, 4, 8, 48, -48, 2, -4, 24, 24], "withholdReward": true, "trial_id": "mdp_130475327289", "block": "test2", "trialIndex": 32, "score": 63.75, "costs": -1.25, "simulationMode": [null, null, null], "rewards": [4, 8, 48], "path": ["0", "0", "5", "6", "7"], "rt": [4624, 127, 108], "actions": ["right", "right", "up"], "actionTimes": [15465, 16093, 16709], "queries": {"click": {"state": {"target": ["4", "3", "11", "12", "7"], "time": [12392, 13002, 13644, 14196, 14943]}, "edge": {"target": [], "time": []}}, "mouseover": {"state": {"target": ["4", "2", "3", "1", "11", "10", "12", "12", "7", "6", "8"], "time": [12229, 12696, 12846, 13313, 13547, 13814, 13881, 14097, 14831, 15115, 15382]}, "edge": {"target": [], "time": []}}, "mouseout": {"state": {"target": ["0", "0", "4", "2", "3", "1", "11", "10", "12", "12", "7", "6", "8"], "time": [10244, 11362, 12663, 12796, 13213, 13363, 13797, 13864, 13997, 14381, 15082, 15165, 15549]}, "edge": {"target": [], "time": []}}}, "displayed_time": "19.84", "trialTime": 20652, "trial_type": "mouselab-mdp", "trial_index": 40, "time_elapsed": 1354367, "internal_node_id": "0.0-4.0-3.0-0.0"}}, {"uniqueid": "w43636581:a99670204", "current_trial": 41, "dateTime": 1664556278714, "trialdata": {"revealed_states": [], "num_clicks_accrued": [0, 0, 0, 0, 0, 0, 0, 0, 0, 0, 0, 0, 0], "stateRewards": ["", -4, 8, 24, -48, -4, -8, -24, 24, 2, -4, -48, 24], "withholdReward": true, "trial_id": "mdp_898449441629", "block": "test2", "trialIndex": 33, "score": 31, "costs": -2, "simulationMode": [null, null, null], "rewards": [-4, 8, 24], "path": ["0", "0", "1", "2", "3"], "rt": [8253, 34, 2], "actions": ["up", "up", "right"], "actionTimes": [8924, 9467, 9985], "queries": {"click": {"state": {"target": ["4", "3", "11", "12", "7", "8", "1", "2"], "time": [1344, 1835, 2507, 3099, 3763, 4289, 5806, 6120]}, "edge": {"target": [], "time": []}}, "mouseover": {"state": {"target": ["4", "2", "3", "1", "11", "10", "12", "5", "6", "7", "6", "8", "5", "1", "2", "5", "0", "9", "9"], "time": [1258, 1609, 1725, 2209, 2409, 2626, 2976, 3426, 3493, 3693, 3910, 4177, 4828, 5679, 5979, 6632, 7331, 7447, 8515]}, "edge": {"target": [], "time": []}}, "mouseout": {"state": {"target": ["4", "2", "3", "1", "11", "10", "12", "5", "6", "7", "6", "8", "5", "1", "2", "5", "0", "9"], "time": [1542, 1658, 1959, 2276, 2610, 2643, 3243, 3460, 3510, 3860, 4094, 4778, 4878, 5945, 6362, 7281, 7347, 7848]}, "edge": {"target": [], "time": []}}}, "displayed_time": "10.50", "trialTime": 12866, "trial_type": "mouselab-mdp", "trial_index": 41, "time_elapsed": 1367260, "internal_node_id": "0.0-4.0-3.0-1.0"}}, {"uniqueid": "w43636581:a99670204", "current_trial": 42, "dateTime": 1664556290793, "trialdata": {"revealed_states": [], "num_clicks_accrued": [0, 0, 0, 0, 0, 0, 0, 0, 0, 0, 0, 0, 0], "stateRewards": ["", 4, 4, 24, 24, 4, -4, 48, 48, 4, 4, 24, -48], "withholdReward": false, "trial_id": "mdp_454251689008", "block": "test2", "trialIndex": 34, "score": 52.25, "costs": -0.75, "simulationMode": [null, null, null], "rewards": [4, -4, 48], "path": ["0", "0", "5", "6", "7"], "rt": [3694, 125, 140], "actions": ["right", "right", "up"], "actionTimes": [5433, 6055, 6688], "queries": {"click": {"state": {"target": ["11", "12", "7"], "time": [2629, 3180, 3791]}, "edge": {"target": [], "time": []}}, "mouseover": {"state": {"target": ["9", "10", "11", "10", "12", "0", "5", "7", "6", "8"], "time": [2060, 2177, 2427, 2861, 2994, 3478, 3528, 3645, 3979, 4079]}, "edge": {"target": [], "time": []}}, "mouseout": {"state": {"target": ["9", "9", "0", "9", "10", "11", "10", "12", "0", "5", "7", "6", "8"], "time": [926, 1476, 2010, 2144, 2311, 2828, 2928, 3395, 3495, 3545, 3945, 4045, 4629]}, "edge": {"target": [], "time": []}}}, "displayed_time": "10.74", "trialTime": 12051, "trial_type": "mouselab-mdp", "trial_index": 42, "time_elapsed": 1379338, "internal_node_id": "0.0-4.0-3.0-2.0"}}, {"uniqueid": "w43636581:a99670204", "current_trial": 43, "dateTime": 1664556301404, "trialdata": {"revealed_states": [], "num_clicks_accrued": [0, 0, 0, 0, 0, 0, 0, 0, 0, 0, 0, 0, 0], "stateRewards": ["", 4, 4, 48, -24, -4, -8, 24, -24, 2, -8, -24, 24], "withholdReward": true, "trial_id": "mdp_933201675789", "block": "test2", "trialIndex": 35, "score": 59.75, "costs": -1.25, "simulationMode": [null, null, null], "rewards": [4, 4, 48], "path": ["0", "0", "1", "2", "3"], "rt": [4165, 8, 89], "actions": ["up", "up", "right"], "actionTimes": [5478, 5991, 6590], "queries": {"click": {"state": {"target": ["11", "12", "7", "8", "3"], "time": [2084, 2574, 3245, 3988, 5000]}, "edge": {"target": [], "time": []}}, "mouseover": {"state": {"target": ["9", "11", "10", "12", "0", "5", "7", "6", "8", "5", "2", "3", "3", "3", "2"], "time": [1746, 1946, 2280, 2413, 2880, 2930, 3197, 3447, 3732, 4281, 4398, 4532, 4748, 4915, 5282]}, "edge": {"target": [], "time": []}}, "mouseout": {"state": {"target": ["6", "5", "0", "9", "11", "10", "12", "0", "5", "7", "6", "8", "8", "5", "2", "3", "3", "3", "2", "5", "6"], "time": [645, 962, 1479, 1763, 2230, 2346, 2747, 2914, 2947, 3364, 3548, 4098, 4248, 4298, 4482, 4615, 4765, 5116, 5649, 7901, 7934]}, "edge": {"target": [], "time": []}}}, "displayed_time": "9.31", "trialTime": 10589, "trial_type": "mouselab-mdp", "trial_index": 43, "time_elapsed": 1389950, "internal_node_id": "0.0-4.0-3.0-3.0"}}, {"uniqueid": "w43636581:a99670204", "current_trial": 44, "dateTime": 1664556312113, "trialdata": {"revealed_states": [], "num_clicks_accrued": [0, 0, 0, 0, 0, 0, 0, 0, 0, 0, 0, 0, 0], "stateRewards": ["", 2, -4, -24, 24, 2, 8, 48, 48, 2, -8, 48, -24], "withholdReward": true, "trial_id": "mdp_330392242530", "block": "test2", "trialIndex": 36, "score": 46.25, "costs": -0.75, "simulationMode": [null, null, null], "rewards": [2, -8, 48], "path": ["0", "0", "9", "10", "11"], "rt": [2286, 44, 441], "actions": ["left", "left", "up"], "actionTimes": [2846, 3388, 4318], "queries": {"click": {"state": {"target": ["3", "4", "11"], "time": [1186, 1651, 2241]}, "edge": {"target": [], "time": []}}, "mouseover": {"state": {"target": ["0", "1", "3", "1", "4", "10", "11", "10", "12"], "time": [857, 924, 1024, 1325, 1525, 1875, 2175, 2409, 2609]}, "edge": {"target": [], "time": []}}, "mouseout": {"state": {"target": ["0", "0", "1", "3", "1", "4", "10", "11", "10", "12", "10"], "time": [724, 874, 974, 1291, 1408, 1742, 2075, 2359, 2475, 3510, 7730]}, "edge": {"target": [], "time": []}}}, "displayed_time": "9.56", "trialTime": 10685, "trial_type": "mouselab-mdp", "trial_index": 44, "time_elapsed": 1400659, "internal_node_id": "0.0-4.0-3.0-4.0"}}, {"uniqueid": "w43636581:a99670204", "current_trial": 45, "dateTime": 1664556322319, "trialdata": {"revealed_states": [], "num_clicks_accrued": [0, 0, 0, 0, 0, 0, 0, 0, 0, 0, 0, 0, 0], "stateRewards": ["", 2, -4, -24, -48, -2, 8, -24, 48, -2, 8, 24, -48], "withholdReward": true, "trial_id": "mdp_566582551557", "block": "test2", "trialIndex": 37, "score": 58, "costs": -1, "simulationMode": [null, null, null], "rewards": [-2, 8, 48], "path": ["0", "0", "5", "6", "8"], "rt": [3322, 128, 76], "actions": ["right", "right", "down"], "actionTimes": [4298, 4919, 5485], "queries": {"click": {"state": {"target": ["11", "12", "7", "8"], "time": [1584, 2090, 3190, 3740]}, "edge": {"target": [], "time": []}}, "mouseover": {"state": {"target": ["11", "10", "12", "0", "5", "7", "7", "6", "8", "5"], "time": [1488, 1789, 1872, 2406, 2423, 2556, 3123, 3390, 3506, 4007]}, "edge": {"target": [], "time": []}}, "mouseout": {"state": {"target": ["0", "11", "10", "12", "0", "5", "7", "7", "6", "8", "5"], "time": [1288, 1755, 1838, 2372, 2422, 2439, 2606, 3340, 3456, 3957, 4024]}, "edge": {"target": [], "time": []}}}, "displayed_time": "8.98", "trialTime": 10179, "trial_type": "mouselab-mdp", "trial_index": 45, "time_elapsed": 1410865, "internal_node_id": "0.0-4.0-3.0-5.0"}}, {"uniqueid": "w43636581:a99670204", "current_trial": 46, "dateTime": 1664556332018, "trialdata": {"revealed_states": [], "num_clicks_accrued": [0, 0, 0, 0, 0, 0, 0, 0, 0, 0, 0, 0, 0], "stateRewards": ["", -4, -4, -24, 48, -4, -8, -24, 48, 2, 4, 48, 48], "withholdReward": true, "trial_id": "mdp_810954007398", "block": "test2", "trialIndex": 38, "score": 58.75, "costs": -0.25, "simulationMode": [null, null, null], "rewards": [2, 4, 48], "path": ["0", "0", "9", "10", "11"], "rt": [1400, 330, 152], "actions": ["left", "left", "up"], "actionTimes": [2064, 2909, 3548], "queries": {"click": {"state": {"target": ["11"], "time": [1450]}, "edge": {"target": [], "time": []}}, "mouseover": {"state": {"target": ["9", "11", "10", "12"], "time": [1127, 1293, 1627, 1894]}, "edge": {"target": [], "time": []}}, "mouseout": {"state": {"target": ["5", "9", "11", "10", "12"], "time": [162, 1160, 1594, 1677, 3879]}, "edge": {"target": [], "time": []}}}, "displayed_time": "8.66", "trialTime": 9675, "trial_type": "mouselab-mdp", "trial_index": 46, "time_elapsed": 1420564, "internal_node_id": "0.0-4.0-3.0-6.0"}}, {"uniqueid": "w43636581:a99670204", "current_trial": 47, "dateTime": 1664556341831, "trialdata": {"revealed_states": [], "num_clicks_accrued": [0, 0, 0, 0, 0, 0, 0, 0, 0, 0, 0, 0, 0], "stateRewards": ["", -2, 4, -24, 48, 4, -8, 48, -48, 2, -8, 48, 24], "withholdReward": true, "trial_id": "mdp_501111216502", "block": "test2", "trialIndex": 39, "score": 46.75, "costs": -0.25, "simulationMode": [null, null, null], "rewards": [2, -8, 48], "path": ["0", "0", "9", "10", "11"], "rt": [1284, 18, 50], "actions": ["left", "left", "up"], "actionTimes": [2301, 2820, 3368], "queries": {"click": {"state": {"target": ["11"], "time": [1744]}, "edge": {"target": [], "time": []}}, "mouseover": {"state": {"target": ["0", "9", "11", "10"], "time": [1115, 1399, 1599, 1999]}, "edge": {"target": [], "time": []}}, "mouseout": {"state": {"target": ["8", "5", "0", "9", "11", "10", "12"], "time": [632, 848, 1365, 1416, 1933, 2083, 9305]}, "edge": {"target": [], "time": []}}}, "displayed_time": "9.02", "trialTime": 9785, "trial_type": "mouselab-mdp", "trial_index": 47, "time_elapsed": 1430376, "internal_node_id": "0.0-4.0-3.0-7.0"}}, {"uniqueid": "w43636581:a99670204", "current_trial": 48, "dateTime": 1664556351660, "trialdata": {"revealed_states": [], "num_clicks_accrued": [0, 0, 0, 0, 0, 0, 0, 0, 0, 0, 0, 0, 0], "stateRewards": ["", 4, 8, -48, -48, 2, 4, -24, -48, 2, 8, 48, -48], "withholdReward": false, "trial_id": "mdp_902172716465", "block": "test2", "trialIndex": 40, "score": 62.75, "costs": -0.25, "simulationMode": [null, null, null], "rewards": [2, 8, 48], "path": ["0", "0", "9", "10", "11"], "rt": [1098, 96, 66], "actions": ["left", "left", "up"], "actionTimes": [2046, 2628, 3182], "queries": {"click": {"state": {"target": ["11"], "time": [1451]}, "edge": {"target": [], "time": []}}, "mouseover": {"state": {"target": ["9", "11", "10", "12"], "time": [1147, 1330, 1597, 1697]}, "edge": {"target": [], "time": []}}, "mouseout": {"state": {"target": ["0", "9", "11", "10", "12"], "time": [563, 1180, 1564, 1647, 8603]}, "edge": {"target": [], "time": []}}}, "displayed_time": "8.95", "trialTime": 9805, "trial_type": "mouselab-mdp", "trial_index": 48, "time_elapsed": 1440206, "internal_node_id": "0.0-4.0-3.0-8.0"}}, {"uniqueid": "w43636581:a99670204", "current_trial": 49, "dateTime": 1664556362130, "trialdata": {"revealed_states": [], "num_clicks_accrued": [0, 0, 0, 0, 0, 0, 0, 0, 0, 0, 0, 0, 0], "stateRewards": ["", 2, -4, 24, -24, 2, -8, 48, 48, 4, -4, 24, 48], "withholdReward": false, "trial_id": "mdp_947836623875", "block": "test2", "trialIndex": 41, "score": 52.5, "costs": -0.5, "simulationMode": [null, null, null], "rewards": [4, -4, 48], "path": ["0", "0", "9", "10", "12"], "rt": [1593, 18, 174], "actions": ["left", "left", "down"], "actionTimes": [2335, 2843, 3516], "queries": {"click": {"state": {"target": ["11", "12"], "time": [1307, 1794]}, "edge": {"target": [], "time": []}}, "mouseover": {"state": {"target": ["0", "9", "11", "10", "12"], "time": [943, 1039, 1156, 1506, 1606]}, "edge": {"target": [], "time": []}}, "mouseout": {"state": {"target": ["0", "9", "11", "10", "12", "10"], "time": [1006, 1072, 1456, 1573, 4025, 8362]}, "edge": {"target": [], "time": []}}}, "displayed_time": "9.74", "trialTime": 10443, "trial_type": "mouselab-mdp", "trial_index": 49, "time_elapsed": 1450676, "internal_node_id": "0.0-4.0-3.0-9.0"}}, {"uniqueid": "w43636581:a99670204", "current_trial": 50, "dateTime": 1664556372267, "trialdata": {"revealed_states": [], "num_clicks_accrued": [0, 0, 0, 0, 0, 0, 0, 0, 0, 0, 0, 0, 0], "stateRewards": ["", -4, 4, -24, 48, -2, 8, -48, 24, 2, 4, 48, -48], "withholdReward": true, "trial_id": "mdp_366632183904", "block": "test2", "trialIndex": 42, "score": 58.75, "costs": -0.25, "simulationMode": [null, null, null], "rewards": [2, 4, 48], "path": ["0", "0", "9", "10", "11"], "rt": [1312, 140, 2], "actions": ["left", "left", "up"], "actionTimes": [1946, 2597, 3093], "queries": {"click": {"state": {"target": ["11"], "time": [1255]}, "edge": {"target": [], "time": []}}, "mouseover": {"state": {"target": ["9", "11", "10", "12"], "time": [905, 1122, 1389, 1505]}, "edge": {"target": [], "time": []}}, "mouseout": {"state": {"target": ["12", "9", "0", "9", "11", "10", "12"], "time": [221, 304, 888, 955, 1355, 1455, 3290]}, "edge": {"target": [], "time": []}}}, "displayed_time": "8.63", "trialTime": 10104, "trial_type": "mouselab-mdp", "trial_index": 50, "time_elapsed": 1460813, "internal_node_id": "0.0-4.0-3.0-10.0"}}, {"uniqueid": "w43636581:a99670204", "current_trial": 51, "dateTime": 1664556382713, "trialdata": {"revealed_states": [], "num_clicks_accrued": [0, 0, 0, 0, 0, 0, 0, 0, 0, 0, 0, 0, 0], "stateRewards": ["", 2, 4, -48, -48, 2, 4, 48, -24, -2, 8, 48, -48], "withholdReward": true, "trial_id": "mdp_258528916140", "block": "test2", "trialIndex": 43, "score": 58.75, "costs": -0.25, "simulationMode": [null, null, null], "rewards": [-2, 8, 48], "path": ["0", "0", "9", "10", "11"], "rt": [1345, 22, 93], "actions": ["left", "left", "up"], "actionTimes": [2209, 2722, 3310], "queries": {"click": {"state": {"target": ["11"], "time": [1642]}, "edge": {"target": [], "time": []}}, "mouseover": {"state": {"target": ["11", "10"], "time": [1448, 1849]}, "edge": {"target": [], "time": []}}, "mouseout": {"state": {"target": ["10", "9", "0", "11"], "time": [414, 597, 714, 1765]}, "edge": {"target": [], "time": []}}}, "displayed_time": "8.87", "trialTime": 10418, "trial_type": "mouselab-mdp", "trial_index": 51, "time_elapsed": 1471259, "internal_node_id": "0.0-4.0-3.0-11.0"}}, {"uniqueid": "w43636581:a99670204", "current_trial": 52, "dateTime": 1664556395058, "trialdata": {"revealed_states": [], "num_clicks_accrued": [0, 0, 0, 0, 0, 0, 0, 0, 0, 0, 0, 0, 0], "stateRewards": ["", 4, -8, 48, -24, 4, -4, -48, -48, 4, -4, 24, 24], "withholdReward": true, "trial_id": "mdp_221562928904", "block": "test2", "trialIndex": 44, "score": 46, "costs": -3, "simulationMode": [null, null, null], "rewards": [4, -8, 48], "path": ["0", "0", "1", "2", "3"], "rt": [8118, 107, 159], "actions": ["up", "up", "right"], "actionTimes": [8855, 9476, 10145], "queries": {"click": {"state": {"target": ["9", "10", "5", "6", "1", "2", "11", "7", "8", "12", "4", "3"], "time": [1243, 1589, 2238, 2925, 3453, 3857, 4913, 5719, 6316, 7199, 7966, 8433]}, "edge": {"target": [], "time": []}}, "mouseover": {"state": {"target": ["0", "9", "10", "0", "5", "6", "1", "2", "11", "7", "8", "12", "12", "4", "3"], "time": [1061, 1111, 1444, 1994, 2078, 2845, 3329, 3729, 4814, 5614, 6098, 6715, 7115, 7916, 8300]}, "edge": {"target": [], "time": []}}, "mouseout": {"state": {"target": ["10", "9", "0", "0", "9", "10", "9", "0", "5", "6", "5", "1", "2", "1", "9", "10", "11", "7", "6", "8", "12", "12", "9", "4", "3"], "time": [376, 527, 610, 1077, 1394, 1828, 1961, 2045, 2529, 3129, 3196, 3679, 4046, 4130, 4347, 4713, 5064, 5881, 6048, 6482, 6815, 7549, 7649, 8100, 8567]}, "edge": {"target": [], "time": []}}}, "displayed_time": "10.65", "trialTime": 12317, "trial_type": "mouselab-mdp", "trial_index": 52, "time_elapsed": 1483604, "internal_node_id": "0.0-4.0-3.0-12.0"}}, {"uniqueid": "w43636581:a99670204", "current_trial": 53, "dateTime": 1664556407313, "trialdata": {"revealed_states": [], "num_clicks_accrued": [0, 0, 0, 0, 0, 0, 0, 0, 0, 0, 0, 0, 0], "stateRewards": ["", 2, -8, 24, 24, 4, -4, -24, -48, 4, 8, 24, 24], "withholdReward": false, "trial_id": "mdp_249803813713", "block": "test2", "trialIndex": 45, "score": 38.5, "costs": -2.5, "simulationMode": [null, null, null], "rewards": [4, 8, 24], "path": ["0", "0", "9", "10", "11"], "rt": [8239, 19, 152], "actions": ["left", "left", "up"], "actionTimes": [9503, 10017, 10667], "queries": {"click": {"state": {"target": ["11", "12", "7", "8", "3", "4", "1", "2", "10", "9"], "time": [1847, 2405, 3122, 3703, 4349, 4881, 6551, 7100, 8015, 8416]}, "edge": {"target": [], "time": []}}, "mouseover": {"state": {"target": ["9", "11", "10", "12", "6", "7", "6", "8", "3", "3", "2", "4", "0", "1", "2", "9", "10", "9"], "time": [1557, 1674, 2058, 2175, 2792, 3008, 3342, 3576, 4126, 4293, 4560, 4760, 5520, 6078, 6845, 7546, 7729, 8280]}, "edge": {"target": [], "time": []}}, "mouseout": {"state": {"target": ["1", "1", "0", "9", "11", "10", "12", "6", "7", "6", "8", "3", "3", "2", "4", "0", "1", "2", "9", "10", "9"], "time": [957, 1090, 1524, 1624, 2041, 2125, 2675, 2825, 3292, 3392, 3976, 4143, 4476, 4677, 5043, 5561, 6745, 7329, 7562, 8196, 8730]}, "edge": {"target": [], "time": []}}}, "displayed_time": "11.16", "trialTime": 12225, "trial_type": "mouselab-mdp", "trial_index": 53, "time_elapsed": 1495859, "internal_node_id": "0.0-4.0-3.0-13.0"}}, {"uniqueid": "w43636581:a99670204", "current_trial": 54, "dateTime": 1664556439291, "trialdata": {"revealed_states": [], "num_clicks_accrued": [0, 0, 0, 0, 0, 0, 0, 0, 0, 0, 0, 0, 0], "stateRewards": ["", -2, -4, -24, -48, -4, -8, -48, 24, -4, -8, -24, -48], "withholdReward": true, "trial_id": "mdp_475782454549", "block": "test2", "trialIndex": 46, "score": 15.5, "costs": -1.5, "simulationMode": [null, null, null], "rewards": [-4, -8, 24], "path": ["0", "0", "5", "6", "8"], "rt": [7829, 131, 163], "actions": ["right", "right", "down"], "actionTimes": [29278, 29900, 30550], "queries": {"click": {"state": {"target": ["11", "12", "7", "8", "3", "4"], "time": [22441, 23011, 23639, 24117, 25109, 25690]}, "edge": {"target": [], "time": []}}, "mouseover": {"state": {"target": ["9", "11", "10", "12", "5", "7", "6", "8", "5", "3", "2", "4", "1", "5"], "time": [21946, 22246, 22680, 22880, 23297, 23564, 23847, 23947, 24531, 25015, 25382, 25582, 27183, 27317]}, "edge": {"target": [], "time": []}}, "mouseout": {"state": {"target": ["9", "8", "0", "9", "11", "10", "12", "5", "7", "6", "8", "5", "3", "2", "4", "1"], "time": [2146, 2313, 21879, 21996, 22597, 22763, 23197, 23330, 23797, 23897, 24414, 24548, 25332, 25465, 25932, 27217]}, "edge": {"target": [], "time": []}}}, "displayed_time": "31.04", "trialTime": 31948, "trial_type": "mouselab-mdp", "trial_index": 54, "time_elapsed": 1527837, "internal_node_id": "0.0-4.0-3.0-14.0"}}, {"uniqueid": "w43636581:a99670204", "current_trial": 55, "dateTime": 1664556449486, "trialdata": {"revealed_states": [], "num_clicks_accrued": [0, 0, 0, 0, 0, 0, 0, 0, 0, 0, 0, 0, 0], "stateRewards": ["", -2, 8, -48, -24, -2, 8, 48, -48, -4, 8, 24, 48], "withholdReward": true, "trial_id": "mdp_160707003673", "block": "test2", "trialIndex": 47, "score": 56.5, "costs": -0.5, "simulationMode": [null, null, null], "rewards": [-4, 8, 48], "path": ["0", "0", "9", "10", "12"], "rt": [2219, 116, 75], "actions": ["left", "left", "down"], "actionTimes": [3514, 4130, 4706], "queries": {"click": {"state": {"target": ["11", "12"], "time": [2416, 2947]}, "edge": {"target": [], "time": []}}, "mouseover": {"state": {"target": ["12", "10", "11", "10", "12"], "time": [1895, 2145, 2279, 2579, 2696]}, "edge": {"target": [], "time": []}}, "mouseout": {"state": {"target": ["5", "5", "12", "10", "11", "10", "12"], "time": [944, 1094, 1945, 2195, 2512, 2629, 3096]}, "edge": {"target": [], "time": []}}}, "displayed_time": "9.30", "trialTime": 10166, "trial_type": "mouselab-mdp", "trial_index": 55, "time_elapsed": 1538032, "internal_node_id": "0.0-4.0-3.0-15.0"}}, {"uniqueid": "w43636581:a99670204", "current_trial": 56, "dateTime": 1664556460621, "trialdata": {"revealed_states": [], "num_clicks_accrued": [0, 0, 0, 0, 0, 0, 0, 0, 0, 0, 0, 0, 0], "stateRewards": ["", -2, -4, -48, 48, -2, -4, 24, 48, -4, -8, -24, 24], "withholdReward": false, "trial_id": "mdp_917590390609", "block": "test2", "trialIndex": 48, "score": 46, "costs": -1, "simulationMode": [null, null, null], "rewards": [-2, -4, 48], "path": ["0", "0", "5", "6", "8"], "rt": [3872, 32, 103], "actions": ["right", "right", "down"], "actionTimes": [4775, 5294, 5899], "queries": {"click": {"state": {"target": ["12", "11", "7", "8"], "time": [1674, 2263, 2908, 3331]}, "edge": {"target": [], "time": []}}, "mouseover": {"state": {"target": ["9", "12", "10", "11", "7", "6", "8", "5"], "time": [1276, 1442, 1926, 2126, 2577, 3060, 3144, 3594]}, "edge": {"target": [], "time": []}}, "mouseout": {"state": {"target": ["0", "9", "12", "10", "11", "7", "6", "8", "5"], "time": [1209, 1359, 1859, 2026, 2426, 3044, 3110, 3560, 3644]}, "edge": {"target": [], "time": []}}}, "displayed_time": "9.90", "trialTime": 11107, "trial_type": "mouselab-mdp", "trial_index": 56, "time_elapsed": 1549167, "internal_node_id": "0.0-4.0-3.0-16.0"}}, {"uniqueid": "w43636581:a99670204", "current_trial": 57, "dateTime": 1664556470456, "trialdata": {"revealed_states": [], "num_clicks_accrued": [0, 0, 0, 0, 0, 0, 0, 0, 0, 0, 0, 0, 0], "stateRewards": ["", 2, 4, 48, 24, -2, -8, 24, 24, -2, 4, -48, 24], "withholdReward": false, "trial_id": "mdp_130849500124", "block": "test2", "trialIndex": 49, "score": 57.5, "costs": -1.5, "simulationMode": [null, null, null], "rewards": [2, 4, 48], "path": ["0", "0", "1", "2", "3"], "rt": [5068, 58, 56], "actions": ["up", "up", "right"], "actionTimes": [6035, 6593, 7141], "queries": {"click": {"state": {"target": ["11", "12", "8", "7", "4", "3"], "time": [1727, 2318, 3044, 3509, 4214, 4659]}, "edge": {"target": [], "time": []}}, "mouseover": {"state": {"target": ["9", "11", "10", "12", "8", "6", "7", "1", "4", "3"], "time": [1347, 1481, 2064, 2148, 2982, 3265, 3349, 3899, 4066, 4566]}, "edge": {"target": [], "time": []}}, "mouseout": {"state": {"target": ["1", "0", "9", "11", "10", "12", "8", "6", "7", "1", "4", "3"], "time": [797, 1231, 1414, 1998, 2114, 2431, 3249, 3316, 3749, 3916, 4350, 4767]}, "edge": {"target": [], "time": []}}}, "displayed_time": "8.97", "trialTime": 9805, "trial_type": "mouselab-mdp", "trial_index": 57, "time_elapsed": 1559002, "internal_node_id": "0.0-4.0-3.0-17.0"}}, {"uniqueid": "w43636581:a99670204", "current_trial": 58, "dateTime": 1664556480833, "trialdata": {"revealed_states": [], "num_clicks_accrued": [0, 0, 0, 0, 0, 0, 0, 0, 0, 0, 0, 0, 0], "stateRewards": ["", -4, -8, -48, -48, 4, -8, 48, 48, 2, 8, 48, 24], "withholdReward": true, "trial_id": "mdp_880437222492", "block": "test2", "trialIndex": 50, "score": 62.75, "costs": -0.25, "simulationMode": [null, null, null], "rewards": [2, 8, 48], "path": ["0", "0", "9", "10", "11"], "rt": [1763, 39, 133], "actions": ["left", "left", "up"], "actionTimes": [2476, 3013, 3657], "queries": {"click": {"state": {"target": ["11"], "time": [1486]}, "edge": {"target": [], "time": []}}, "mouseover": {"state": {"target": ["9", "11", "11", "10", "12"], "time": [972, 1072, 1356, 1622, 1806]}, "edge": {"target": [], "time": []}}, "mouseout": {"state": {"target": ["9", "11", "11", "10"], "time": [989, 1122, 1590, 1706]}, "edge": {"target": [], "time": []}}}, "displayed_time": "9.72", "trialTime": 10349, "trial_type": "mouselab-mdp", "trial_index": 58, "time_elapsed": 1569379, "internal_node_id": "0.0-4.0-3.0-18.0"}}, {"uniqueid": "w43636581:a99670204", "current_trial": 59, "dateTime": 1664556491466, "trialdata": {"revealed_states": [], "num_clicks_accrued": [0, 0, 0, 0, 0, 0, 0, 0, 0, 0, 0, 0, 0], "stateRewards": ["", 4, -4, 48, -48, 4, -4, 24, -24, 4, 8, -24, -48], "withholdReward": false, "trial_id": "mdp_433630527224", "block": "test2", "trialIndex": 51, "score": 52.75, "costs": -0.25, "simulationMode": [null, null, null], "rewards": [4, -4, 48], "path": ["0", "0", "1", "2", "3"], "rt": [1595, 199, 126], "actions": ["up", "up", "right"], "actionTimes": [2434, 3119, 3746], "queries": {"click": {"state": {"target": ["3"], "time": [1416]}, "edge": {"target": [], "time": []}}, "mouseover": {"state": {"target": ["1", "3", "1"], "time": [1001, 1269, 1635]}, "edge": {"target": [], "time": []}}, "mouseout": {"state": {"target": ["12", "12", "0", "1", "3", "1"], "time": [301, 501, 968, 1018, 1569, 1669]}, "edge": {"target": [], "time": []}}}, "displayed_time": "9.84", "trialTime": 10603, "trial_type": "mouselab-mdp", "trial_index": 59, "time_elapsed": 1580012, "internal_node_id": "0.0-4.0-3.0-19.0"}}, {"uniqueid": "w43636581:a99670204", "current_trial": 60, "dateTime": 1664556503110, "trialdata": {"revealed_states": [], "num_clicks_accrued": [0, 0, 0, 0, 0, 0, 0, 0, 0, 0, 0, 0, 0], "stateRewards": ["", 2, -8, 24, -48, 2, 4, 48, -48, -2, -8, -48, 48], "withholdReward": true, "trial_id": "mdp_629420544881", "block": "test2", "trialIndex": 52, "score": 42.25, "costs": -0.75, "simulationMode": [null, null, null], "rewards": [-2, -8, 48], "path": ["0", "0", "9", "10", "12"], "rt": [2895, 143, 160], "actions": ["left", "left", "down"], "actionTimes": [4343, 4976, 5627], "queries": {"click": {"state": {"target": ["4", "3", "12"], "time": [2084, 2623, 3353]}, "edge": {"target": [], "time": []}}, "mouseover": {"state": {"target": ["4", "3", "1", "9", "12", "10", "11"], "time": [1864, 2465, 2882, 3032, 3165, 3599, 3699]}, "edge": {"target": [], "time": []}}, "mouseout": {"state": {"target": ["0", "0", "4", "3", "1", "9", "12", "10", "11"], "time": [897, 1681, 2298, 2798, 2915, 3065, 3565, 3632, 3849]}, "edge": {"target": [], "time": []}}}, "displayed_time": "10.45", "trialTime": 11617, "trial_type": "mouselab-mdp", "trial_index": 60, "time_elapsed": 1591656, "internal_node_id": "0.0-4.0-3.0-20.0"}}, {"uniqueid": "w43636581:a99670204", "current_trial": 61, "dateTime": 1664556513770, "trialdata": {"revealed_states": [], "num_clicks_accrued": [0, 0, 0, 0, 0, 0, 0, 0, 0, 0, 0, 0, 0], "stateRewards": ["", -2, -4, -24, 48, -4, 8, 48, 48, 2, 8, -48, -24], "withholdReward": true, "trial_id": "mdp_136376573354", "block": "test2", "trialIndex": 53, "score": 56.25, "costs": -0.75, "simulationMode": [null, null, null], "rewards": [-4, 8, 48], "path": ["0", "0", "5", "6", "7"], "rt": [2660, 122, 94], "actions": ["right", "right", "up"], "actionTimes": [3333, 3965, 4554], "queries": {"click": {"state": {"target": ["12", "11", "7"], "time": [1350, 2069, 2693]}, "edge": {"target": [], "time": []}}, "mouseover": {"state": {"target": ["9", "12", "10", "11", "7", "6", "8"], "time": [1005, 1255, 1656, 1806, 2573, 2874, 2957]}, "edge": {"target": [], "time": []}}, "mouseout": {"state": {"target": ["11", "9", "12", "10", "11", "7", "6", "8"], "time": [354, 1022, 1622, 1723, 2273, 2840, 2924, 3474]}, "edge": {"target": [], "time": []}}}, "displayed_time": "9.67", "trialTime": 10625, "trial_type": "mouselab-mdp", "trial_index": 61, "time_elapsed": 1602316, "internal_node_id": "0.0-4.0-3.0-21.0"}}, {"uniqueid": "w43636581:a99670204", "current_trial": 62, "dateTime": 1664556523062, "trialdata": {"revealed_states": [], "num_clicks_accrued": [0, 0, 0, 0, 0, 0, 0, 0, 0, 0, 0, 0, 0], "stateRewards": ["", -2, 4, -48, 24, -4, 8, 48, 24, -2, 4, -48, -24], "withholdReward": true, "trial_id": "mdp_740882974347", "block": "test2", "trialIndex": 54, "score": 56.25, "costs": -0.75, "simulationMode": [null, null, null], "rewards": [-4, 8, 48], "path": ["0", "0", "5", "6", "7"], "rt": [2439, 125, 63], "actions": ["right", "right", "up"], "actionTimes": [3220, 3836, 4407], "queries": {"click": {"state": {"target": ["11", "12", "7"], "time": [1517, 2057, 2670]}, "edge": {"target": [], "time": []}}, "mouseover": {"state": {"target": ["0", "11", "10", "12", "5", "7", "6", "8"], "time": [786, 1425, 1759, 2042, 2426, 2476, 2810, 2926]}, "edge": {"target": [], "time": []}}, "mouseout": {"state": {"target": ["5", "0", "11", "10", "12", "5", "7", "6", "8", "5"], "time": [141, 1075, 1675, 1892, 2259, 2443, 2776, 2893, 3060, 4961]}, "edge": {"target": [], "time": []}}}, "displayed_time": "8.78", "trialTime": 9261, "trial_type": "mouselab-mdp", "trial_index": 62, "time_elapsed": 1611608, "internal_node_id": "0.0-4.0-3.0-22.0"}}, {"uniqueid": "w43636581:a99670204", "current_trial": 63, "dateTime": 1664556575463, "trialdata": {"revealed_states": [], "num_clicks_accrued": [0, 0, 0, 0, 0, 0, 0, 0, 0, 0, 0, 0, 0], "stateRewards": ["", -2, -4, -24, 48, -2, -8, -48, -24, 4, 8, 48, 24], "withholdReward": true, "trial_id": "mdp_625355871626", "block": "test2", "trialIndex": 55, "score": 64.75, "costs": -0.25, "simulationMode": [null, null, null], "rewards": [4, 8, 48], "path": ["0", "0", "9", "10", "11"], "rt": [1324, 71, 6], "actions": ["left", "left", "up"], "actionTimes": [2151, 2715, 3217], "queries": {"click": {"state": {"target": ["11"], "time": [1597]}, "edge": {"target": [], "time": []}}, "mouseover": {"state": {"target": ["9", "11", "10"], "time": [1209, 1426, 1826]}, "edge": {"target": [], "time": []}}, "mouseout": {"state": {"target": ["7", "0", "9", "11", "10"], "time": [342, 1126, 1226, 1776, 1926]}, "edge": {"target": [], "time": []}}}, "displayed_time": "8.83", "trialTime": 52372, "trial_type": "mouselab-mdp", "trial_index": 63, "time_elapsed": 1664009, "internal_node_id": "0.0-4.0-3.0-23.0"}}, {"uniqueid": "w43636581:a99670204", "current_trial": 64, "dateTime": 1664556586018, "trialdata": {"revealed_states": [], "num_clicks_accrued": [0, 0, 0, 0, 0, 0, 0, 0, 0, 0, 0, 0, 0], "stateRewards": ["", 2, -4, 24, 24, 4, -4, -24, 24, -4, -4, 48, 48], "withholdReward": true, "trial_id": "mdp_566306223773", "block": "test2", "trialIndex": 56, "score": 44.25, "costs": -0.75, "simulationMode": [null, null, null], "rewards": [-4, -4, 48], "path": ["0", "0", "9", "10", "11"], "rt": [3265, 84, 14], "actions": ["left", "left", "up"], "actionTimes": [4927, 5502, 6016], "queries": {"click": {"state": {"target": ["4", "3", "11"], "time": [2788, 3244, 4018]}, "edge": {"target": [], "time": []}}, "mouseover": {"state": {"target": ["0", "5", "4", "3", "1", "11", "10", "12"], "time": [1899, 2199, 2683, 3066, 3567, 3950, 4217, 4484]}, "edge": {"target": [], "time": []}}, "mouseout": {"state": {"target": ["9", "0", "0", "5", "4", "3", "1", "11", "10"], "time": [1048, 1114, 2032, 2299, 2933, 3400, 3683, 4151, 4317]}, "edge": {"target": [], "time": []}}}, "displayed_time": "9.66", "trialTime": 10524, "trial_type": "mouselab-mdp", "trial_index": 64, "time_elapsed": 1674564, "internal_node_id": "0.0-4.0-3.0-24.0"}}, {"uniqueid": "w43636581:a99670204", "current_trial": 65, "dateTime": 1664556598894, "trialdata": {"revealed_states": [], "num_clicks_accrued": [0, 0, 0, 0, 0, 0, 0, 0, 0, 0, 0, 0, 0], "stateRewards": ["", -2, -8, -48, 24, 2, -4, -48, 48, 2, 4, 24, -24], "withholdReward": true, "trial_id": "mdp_849341543762", "block": "test2", "trialIndex": 57, "score": 50, "costs": -1, "simulationMode": [null, null, null], "rewards": [2, -4, 48], "path": ["0", "0", "5", "6", "8"], "rt": [4688, 72, 143], "actions": ["right", "right", "down"], "actionTimes": [7455, 8015, 8653], "queries": {"click": {"state": {"target": ["11", "12", "7", "8"], "time": [4584, 5184, 5890, 6333]}, "edge": {"target": [], "time": []}}, "mouseover": {"state": {"target": ["9", "11", "4", "11", "10", "12", "0", "5", "7", "6", "8", "5"], "time": [3322, 3556, 4173, 4290, 4890, 5040, 5524, 5557, 5807, 6074, 6208, 6575]}, "edge": {"target": [], "time": []}}, "mouseout": {"state": {"target": ["12", "12", "9", "0", "9", "11", "4", "11", "10", "12", "0", "5", "7", "6", "8", "5", "2", "2"], "time": [770, 2271, 2538, 3222, 3389, 4106, 4240, 4757, 4974, 5341, 5541, 5591, 6041, 6141, 6541, 6591, 10111, 10378]}, "edge": {"target": [], "time": []}}}, "displayed_time": "11.77", "trialTime": 12847, "trial_type": "mouselab-mdp", "trial_index": 65, "time_elapsed": 1687440, "internal_node_id": "0.0-4.0-3.0-25.0"}}, {"uniqueid": "w43636581:a99670204", "current_trial": 66, "dateTime": 1664556610788, "trialdata": {"revealed_states": [], "num_clicks_accrued": [0, 0, 0, 0, 0, 0, 0, 0, 0, 0, 0, 0, 0], "stateRewards": ["", 2, -4, 48, -48, -4, -8, -48, 24, -4, 4, 48, 48], "withholdReward": true, "trial_id": "mdp_544803968425", "block": "test2", "trialIndex": 58, "score": 52.75, "costs": -0.25, "simulationMode": [null, null, null], "rewards": [-4, 4, 48], "path": ["0", "0", "9", "10", "11"], "rt": [2680, 99, 148], "actions": ["left", "left", "up"], "actionTimes": [4620, 5208, 5858], "queries": {"click": {"state": {"target": ["11"], "time": [3005]}, "edge": {"target": [], "time": []}}, "mouseover": {"state": {"target": ["9", "11", "10", "10", "10"], "time": [2257, 2624, 3324, 3958, 4508]}, "edge": {"target": [], "time": []}}, "mouseout": {"state": {"target": ["0", "9", "11", "10", "10", "10"], "time": [2173, 2340, 3257, 3541, 4242, 4959]}, "edge": {"target": [], "time": []}}}, "displayed_time": "10.94", "trialTime": 11865, "trial_type": "mouselab-mdp", "trial_index": 66, "time_elapsed": 1699334, "internal_node_id": "0.0-4.0-3.0-26.0"}}, {"uniqueid": "w43636581:a99670204", "current_trial": 67, "dateTime": 1664556620436, "trialdata": {"revealed_states": [], "num_clicks_accrued": [0, 0, 0, 0, 0, 0, 0, 0, 0, 0, 0, 0, 0], "stateRewards": ["", -2, -8, 48, 24, -2, 8, -48, -24, -2, 4, -48, 48], "withholdReward": true, "trial_id": "mdp_295220852217", "block": "test2", "trialIndex": 59, "score": 54.5, "costs": -0.5, "simulationMode": [null, null, null], "rewards": [-2, 4, 48], "path": ["0", "0", "9", "10", "12"], "rt": [3187, 457, 83], "actions": ["left", "left", "down"], "actionTimes": [3844, 4814, 5390], "queries": {"click": {"state": {"target": ["11", "12"], "time": [1632, 2268]}, "edge": {"target": [], "time": []}}, "mouseover": {"state": {"target": ["0", "11", "10", "12"], "time": [754, 1604, 1971, 2105]}, "edge": {"target": [], "time": []}}, "mouseout": {"state": {"target": ["10", "9", "0", "0", "11", "10", "12", "9"], "time": [403, 436, 553, 887, 1771, 2021, 2405, 6475]}, "edge": {"target": [], "time": []}}}, "displayed_time": "8.66", "trialTime": 9619, "trial_type": "mouselab-mdp", "trial_index": 67, "time_elapsed": 1708982, "internal_node_id": "0.0-4.0-3.0-27.0"}}, {"uniqueid": "w43636581:a99670204", "current_trial": 68, "dateTime": 1664556630911, "trialdata": {"revealed_states": [], "num_clicks_accrued": [0, 0, 0, 0, 0, 0, 0, 0, 0, 0, 0, 0, 0], "stateRewards": ["", 2, -4, 48, -48, -2, 8, -48, 24, -2, -8, 48, 48], "withholdReward": false, "trial_id": "mdp_949326095747", "block": "test2", "trialIndex": 60, "score": 42.75, "costs": -0.25, "simulationMode": [null, null, null], "rewards": [-2, -8, 48], "path": ["0", "0", "9", "10", "11"], "rt": [2146, 114, 153], "actions": ["left", "left", "up"], "actionTimes": [3577, 4196, 4836], "queries": {"click": {"state": {"target": ["11"], "time": [2280]}, "edge": {"target": [], "time": []}}, "mouseover": {"state": {"target": ["9", "11", "10", "12"], "time": [1847, 2180, 2497, 2597]}, "edge": {"target": [], "time": []}}, "mouseout": {"state": {"target": ["0", "0", "9", "11", "10", "12"], "time": [946, 1713, 1963, 2430, 2547, 2814]}, "edge": {"target": [], "time": []}}}, "displayed_time": "9.43", "trialTime": 10444, "trial_type": "mouselab-mdp", "trial_index": 68, "time_elapsed": 1719456, "internal_node_id": "0.0-4.0-3.0-28.0"}}, {"uniqueid": "w43636581:a99670204", "current_trial": 69, "dateTime": 1664556641852, "trialdata": {"revealed_states": [], "num_clicks_accrued": [0, 0, 0, 0, 0, 0, 0, 0, 0, 0, 0, 0, 0], "stateRewards": ["", 2, -4, 24, 48, -2, 4, -48, -48, -4, 4, 24, -24], "withholdReward": true, "trial_id": "mdp_900363662757", "block": "test2", "trialIndex": 61, "score": 49.5, "costs": -1.5, "simulationMode": [null, null, null], "rewards": [2, -4, 48], "path": ["0", "0", "1", "2", "4"], "rt": [4083, 110, 25], "actions": ["up", "up", "left"], "actionTimes": [5008, 5630, 6161], "queries": {"click": {"state": {"target": ["11", "12", "7", "8", "3", "4"], "time": [1677, 2204, 2867, 3287, 3874, 4375]}, "edge": {"target": [], "time": []}}, "mouseover": {"state": {"target": ["9", "10", "11", "10", "12", "7", "6", "8", "5", "3", "2", "4"], "time": [1148, 1199, 1448, 1849, 1982, 2683, 3000, 3133, 3550, 3784, 4001, 4234]}, "edge": {"target": [], "time": []}}, "mouseout": {"state": {"target": ["0", "9", "10", "11", "10", "12", "7", "6", "8", "5", "3", "2", "4", "1", "0", "0", "1", "0"], "time": [1132, 1182, 1232, 1799, 1916, 2316, 2966, 3050, 3500, 3567, 3967, 4034, 4534, 6886, 7036, 7587, 7787, 8070]}, "edge": {"target": [], "time": []}}}, "displayed_time": "8.93", "trialTime": 10913, "trial_type": "mouselab-mdp", "trial_index": 69, "time_elapsed": 1730398, "internal_node_id": "0.0-4.0-3.0-29.0"}}, {"uniqueid": "w43636581:a99670204", "current_trial": 70, "dateTime": 1664556650257, "trialdata": {"rt": 8402, "stimulus": "<h1> End of block! </h1>\n\nYou have reached the end of the block 2/4. If you need a short break, feel free to take one now before moving on.\n\n<br><br>\nIn the next block, you will complete another 30 rounds of this game.\n\n<br><br>\n<div style='text-align: center;'>Press <code>space</code> to begin.</div>\n<br><br>\n<div style='text-align: center;'>(If the experiment doesn't continue, try clicking on the text and then pressing <code>space</code>.)</div>", "response": " ", "trial_id": "mdp_ready_3", "trial_type": "html-keyboard-response", "trial_index": 70, "time_elapsed": 1738803, "internal_node_id": "0.0-4.0-4.0"}}, {"uniqueid": "w43636581:a99670204", "current_trial": 71, "dateTime": 1664556662089, "trialdata": {"revealed_states": [], "num_clicks_accrued": [0, 0, 0, 0, 0, 0, 0, 0, 0, 0, 0, 0, 0], "stateRewards": ["", -4, 4, -24, 48, -2, 8, -48, 24, 2, 4, 48, -48], "withholdReward": true, "trial_id": "mdp_366632183904", "block": "test3", "trialIndex": 62, "score": 58.75, "costs": -0.25, "simulationMode": [null, null, null], "rewards": [2, 4, 48], "path": ["0", "0", "9", "10", "11"], "rt": [1708, 2, 36], "actions": ["left", "left", "up"], "actionTimes": [3467, 3955, 4506], "queries": {"click": {"state": {"target": ["11"], "time": [2517]}, "edge": {"target": [], "time": []}}, "mouseover": {"state": {"target": ["11", "10", "12"], "time": [2418, 2718, 2835]}, "edge": {"target": [], "time": []}}, "mouseout": {"state": {"target": ["9", "0", "11", "10", "12", "9", "1"], "time": [1450, 2034, 2685, 2768, 2985, 8473, 9641]}, "edge": {"target": [], "time": []}}}, "displayed_time": "10.76", "trialTime": 11803, "trial_type": "mouselab-mdp", "trial_index": 71, "time_elapsed": 1750635, "internal_node_id": "0.0-4.0-5.0-0.0"}}, {"uniqueid": "w43636581:a99670204", "current_trial": 72, "dateTime": 1664556673859, "trialdata": {"revealed_states": [], "num_clicks_accrued": [0, 0, 0, 0, 0, 0, 0, 0, 0, 0, 0, 0, 0], "stateRewards": ["", -2, 4, 24, 48, 2, 4, -48, -48, 2, 8, 48, -48], "withholdReward": false, "trial_id": "mdp_409609775558", "block": "test3", "trialIndex": 63, "score": 62.75, "costs": -0.25, "simulationMode": [null, null, null], "rewards": [2, 8, 48], "path": ["0", "0", "9", "10", "11"], "rt": [1741, 133, 116], "actions": ["left", "left", "up"], "actionTimes": [3100, 3733, 4350], "queries": {"click": {"state": {"target": ["11"], "time": [2063]}, "edge": {"target": [], "time": []}}, "mouseover": {"state": {"target": ["11", "10", "12"], "time": [1948, 2215, 2282]}, "edge": {"target": [], "time": []}}, "mouseout": {"state": {"target": ["1", "0", "11", "10", "12", "4", "8"], "time": [831, 1598, 2198, 2265, 5434, 5463, 7770]}, "edge": {"target": [], "time": []}}}, "displayed_time": "10.36", "trialTime": 11743, "trial_type": "mouselab-mdp", "trial_index": 72, "time_elapsed": 1762404, "internal_node_id": "0.0-4.0-5.0-1.0"}}, {"uniqueid": "w43636581:a99670204", "current_trial": 73, "dateTime": 1664556685371, "trialdata": {"revealed_states": [], "num_clicks_accrued": [0, 0, 0, 0, 0, 0, 0, 0, 0, 0, 0, 0, 0], "stateRewards": ["", 4, 8, -24, 48, -2, -4, 24, -24, -2, 4, 24, 24], "withholdReward": true, "trial_id": "mdp_948713805479", "block": "test3", "trialIndex": 64, "score": 63.5, "costs": -1.5, "simulationMode": [null, null, null], "rewards": [4, 8, 48], "path": ["0", "0", "1", "2", "4"], "rt": [4730, 127, 74], "actions": ["up", "up", "left"], "actionTimes": [6166, 6783, 7347], "queries": {"click": {"state": {"target": ["11", "12", "7", "8", "3", "4"], "time": [2189, 2826, 3540, 4088, 4763, 5283]}, "edge": {"target": [], "time": []}}, "mouseover": {"state": {"target": ["0", "9", "11", "10", "12", "5", "7", "6", "8", "5", "1", "2", "3", "2", "4"], "time": [1635, 1718, 2085, 2418, 2552, 3202, 3419, 3703, 3836, 4353, 4420, 4604, 4704, 4920, 5137]}, "edge": {"target": [], "time": []}}, "mouseout": {"state": {"target": ["0", "0", "9", "11", "10", "12", "5", "7", "6", "8", "5", "1", "2", "3", "2", "4"], "time": [1351, 1651, 1801, 2368, 2485, 3002, 3236, 3686, 3770, 4320, 4387, 4470, 4620, 4887, 5037, 5388]}, "edge": {"target": [], "time": []}}}, "displayed_time": "10.44", "trialTime": 11483, "trial_type": "mouselab-mdp", "trial_index": 73, "time_elapsed": 1773917, "internal_node_id": "0.0-4.0-5.0-2.0"}}, {"uniqueid": "w43636581:a99670204", "current_trial": 74, "dateTime": 1664556695441, "trialdata": {"revealed_states": [], "num_clicks_accrued": [0, 0, 0, 0, 0, 0, 0, 0, 0, 0, 0, 0, 0], "stateRewards": ["", -2, -8, -24, -48, 4, -8, 48, 24, 2, 4, -48, -48], "withholdReward": true, "trial_id": "mdp_898082967464", "block": "test3", "trialIndex": 65, "score": 48.25, "costs": -0.75, "simulationMode": [null, null, null], "rewards": [4, -8, 48], "path": ["0", "0", "5", "6", "7"], "rt": [3483, 88, 103], "actions": ["right", "right", "up"], "actionTimes": [5012, 5594, 6193], "queries": {"click": {"state": {"target": ["11", "12", "7"], "time": [2183, 3003, 3894]}, "edge": {"target": [], "time": []}}, "mouseover": {"state": {"target": ["11", "10", "12", "12", "8", "7", "6", "8"], "time": [2020, 2370, 2436, 2887, 3304, 3804, 4155, 4305]}, "edge": {"target": [], "time": []}}, "mouseout": {"state": {"target": ["6", "5", "0", "11", "10", "12", "12", "8", "7", "6", "8", "8", "8"], "time": [1236, 1335, 1853, 2353, 2420, 2537, 3221, 3321, 4105, 4188, 8425, 8509, 9343]}, "edge": {"target": [], "time": []}}}, "displayed_time": "9.53", "trialTime": 10045, "trial_type": "mouselab-mdp", "trial_index": 74, "time_elapsed": 1783987, "internal_node_id": "0.0-4.0-5.0-3.0"}}, {"uniqueid": "w43636581:a99670204", "current_trial": 75, "dateTime": 1664556705328, "trialdata": {"revealed_states": [], "num_clicks_accrued": [0, 0, 0, 0, 0, 0, 0, 0, 0, 0, 0, 0, 0], "stateRewards": ["", -2, -4, -48, 48, -2, -4, 24, 48, -4, -8, -24, 24], "withholdReward": false, "trial_id": "mdp_917590390609", "block": "test3", "trialIndex": 66, "score": 46, "costs": -1, "simulationMode": [null, null, null], "rewards": [-2, -4, 48], "path": ["0", "0", "5", "6", "8"], "rt": [3219, 112, 83], "actions": ["right", "right", "down"], "actionTimes": [4190, 4789, 5360], "queries": {"click": {"state": {"target": ["11", "12", "7", "8"], "time": [1466, 1875, 2580, 3126]}, "edge": {"target": [], "time": []}}, "mouseover": {"state": {"target": ["0", "9", "11", "10", "12", "0", "7", "6", "8"], "time": [1073, 1140, 1373, 1607, 1724, 2124, 2524, 2808, 2958]}, "edge": {"target": [], "time": []}}, "mouseout": {"state": {"target": ["0", "0", "9", "11", "10", "12", "0", "7", "6", "8", "5"], "time": [840, 1107, 1207, 1590, 1640, 2091, 2157, 2758, 2825, 3392, 7629]}, "edge": {"target": [], "time": []}}}, "displayed_time": "8.97", "trialTime": 9861, "trial_type": "mouselab-mdp", "trial_index": 75, "time_elapsed": 1793874, "internal_node_id": "0.0-4.0-5.0-4.0"}}, {"uniqueid": "w43636581:a99670204", "current_trial": 76, "dateTime": 1664556716332, "trialdata": {"revealed_states": [], "num_clicks_accrued": [0, 0, 0, 0, 0, 0, 0, 0, 0, 0, 0, 0, 0], "stateRewards": ["", 4, -4, 24, 48, 4, 8, -24, -24, -2, 4, 48, 48], "withholdReward": true, "trial_id": "mdp_624998450453", "block": "test3", "trialIndex": 67, "score": 54.75, "costs": -0.25, "simulationMode": [null, null, null], "rewards": [-2, 4, 48], "path": ["0", "0", "9", "10", "11"], "rt": [1634, 31, 119], "actions": ["left", "left", "up"], "actionTimes": [2807, 3326, 3931], "queries": {"click": {"state": {"target": ["11"], "time": [1780]}, "edge": {"target": [], "time": []}}, "mouseover": {"state": {"target": ["9", "11", "10", "12"], "time": [1492, 1643, 1960, 2076]}, "edge": {"target": [], "time": []}}, "mouseout": {"state": {"target": ["0", "9", "11", "10", "12"], "time": [1459, 1542, 1926, 2010, 2327]}, "edge": {"target": [], "time": []}}}, "displayed_time": "10.17", "trialTime": 10976, "trial_type": "mouselab-mdp", "trial_index": 76, "time_elapsed": 1804878, "internal_node_id": "0.0-4.0-5.0-5.0"}}, {"uniqueid": "w43636581:a99670204", "current_trial": 77, "dateTime": 1664556778378, "trialdata": {"revealed_states": [], "num_clicks_accrued": [0, 0, 0, 0, 0, 0, 0, 0, 0, 0, 0, 0, 0], "stateRewards": ["", -4, 8, 24, -24, -2, 4, -24, 48, -2, 8, -48, -24], "withholdReward": true, "trial_id": "mdp_799359103169", "block": "test3", "trialIndex": 68, "score": 54, "costs": -1, "simulationMode": [null, null, null], "rewards": [-2, 4, 48], "path": ["0", "0", "5", "6", "8"], "rt": [4075, 121, 114], "actions": ["right", "right", "down"], "actionTimes": [5572, 6194, 6804], "queries": {"click": {"state": {"target": ["4", "3", "7", "8"], "time": [2385, 3014, 3989, 4486]}, "edge": {"target": [], "time": []}}, "mouseover": {"state": {"target": ["9", "1", "2", "4", "2", "3", "6", "7", "6", "8"], "time": [1718, 2002, 2136, 2269, 2736, 2803, 3520, 3837, 4154, 4321]}, "edge": {"target": [], "time": []}}, "mouseout": {"state": {"target": ["0", "9", "1", "2", "4", "2", "3", "6", "7", "6", "8"], "time": [1685, 1819, 2019, 2152, 2619, 2753, 3203, 3536, 4120, 4237, 4621]}, "edge": {"target": [], "time": []}}}, "displayed_time": "9.50", "trialTime": 62022, "trial_type": "mouselab-mdp", "trial_index": 77, "time_elapsed": 1866924, "internal_node_id": "0.0-4.0-5.0-6.0"}}, {"uniqueid": "w43636581:a99670204", "current_trial": 78, "dateTime": 1664556796457, "trialdata": {"revealed_states": [], "num_clicks_accrued": [0, 0, 0, 0, 0, 0, 0, 0, 0, 0, 0, 0, 0], "stateRewards": ["", -2, -8, 24, -48, 4, 4, -24, -48, -2, -8, -48, 24], "withholdReward": false, "trial_id": "mdp_556006673466", "block": "test3", "trialIndex": 69, "score": 16.5, "costs": -2.5, "simulationMode": [null, null, null], "rewards": [-2, -8, 24], "path": ["0", "0", "9", "10", "12"], "rt": [10355, 19, 79], "actions": ["left", "left", "down"], "actionTimes": [15371, 15879, 16455], "queries": {"click": {"state": {"target": ["4", "3", "7", "8", "11", "12", "9", "10", "2", "1"], "time": [6421, 7081, 7717, 8293, 8938, 9440, 12606, 12952, 13800, 14105]}, "edge": {"target": [], "time": []}}, "mouseover": {"state": {"target": ["4", "2", "3", "7", "6", "8", "9", "11", "10", "12", "10", "9", "9", "10", "1", "2", "1"], "time": [6285, 6719, 7002, 7436, 7920, 8186, 8603, 8854, 9137, 9304, 11839, 11990, 12173, 12840, 13357, 13674, 13991]}, "edge": {"target": [], "time": []}}, "mouseout": {"state": {"target": ["6", "5", "0", "4", "2", "3", "7", "6", "8", "9", "11", "10", "12", "10", "9", "9", "10", "9", "1", "2", "1", "9"], "time": [4700, 4767, 4934, 6652, 6835, 7319, 7886, 7970, 8487, 8670, 9104, 9221, 9671, 11956, 12040, 12714, 13191, 13274, 13424, 13924, 14325, 14658]}, "edge": {"target": [], "time": []}}}, "displayed_time": "16.94", "trialTime": 18047, "trial_type": "mouselab-mdp", "trial_index": 78, "time_elapsed": 1885003, "internal_node_id": "0.0-4.0-5.0-7.0"}}, {"uniqueid": "w43636581:a99670204", "current_trial": 79, "dateTime": 1664556807656, "trialdata": {"revealed_states": [], "num_clicks_accrued": [0, 0, 0, 0, 0, 0, 0, 0, 0, 0, 0, 0, 0], "stateRewards": ["", -2, 8, -48, -24, -2, 8, 48, -48, -4, 8, 24, 48], "withholdReward": true, "trial_id": "mdp_160707003673", "block": "test3", "trialIndex": 70, "score": 58.25, "costs": -0.75, "simulationMode": [null, null, null], "rewards": [-2, 8, 48], "path": ["0", "0", "5", "6", "7"], "rt": [2842, 80, 89], "actions": ["right", "right", "up"], "actionTimes": [4412, 4983, 5559], "queries": {"click": {"state": {"target": ["4", "3", "7"], "time": [2237, 2847, 3408]}, "edge": {"target": [], "time": []}}, "mouseover": {"state": {"target": ["4", "2", "3", "7", "7", "6"], "time": [2134, 2568, 2634, 3118, 3303, 3635]}, "edge": {"target": [], "time": []}}, "mouseout": {"state": {"target": ["0", "4", "2", "3", "7", "7", "6"], "time": [1834, 2534, 2601, 2985, 3268, 3568, 3769]}, "edge": {"target": [], "time": []}}}, "displayed_time": "10.57", "trialTime": 11167, "trial_type": "mouselab-mdp", "trial_index": 79, "time_elapsed": 1896202, "internal_node_id": "0.0-4.0-5.0-8.0"}}, {"uniqueid": "w43636581:a99670204", "current_trial": 80, "dateTime": 1664556819403, "trialdata": {"revealed_states": [], "num_clicks_accrued": [0, 0, 0, 0, 0, 0, 0, 0, 0, 0, 0, 0, 0], "stateRewards": ["", -4, 8, 24, -24, 4, -8, -24, -24, -2, 8, -48, 24], "withholdReward": true, "trial_id": "mdp_240302100183", "block": "test3", "trialIndex": 71, "score": 33, "costs": -2, "simulationMode": [null, null, null], "rewards": [-2, 8, 24], "path": ["0", "0", "9", "10", "12"], "rt": [7752, 10, 47], "actions": ["left", "left", "down"], "actionTimes": [9160, 9662, 10215], "queries": {"click": {"state": {"target": ["11", "12", "7", "8", "4", "3", "9", "10"], "time": [2030, 2528, 3248, 3819, 4524, 5010, 6793, 7394]}, "edge": {"target": [], "time": []}}, "mouseover": {"state": {"target": ["11", "10", "12", "5", "6", "7", "6", "8", "1", "4", "1", "3", "2", "9", "10", "10", "1"], "time": [1978, 2212, 2362, 2863, 2896, 3179, 3446, 3680, 4197, 4380, 4714, 4931, 6332, 6615, 6932, 7249, 7816]}, "edge": {"target": [], "time": []}}, "mouseout": {"state": {"target": ["5", "0", "11", "10", "12", "5", "6", "7", "6", "8", "1", "4", "1", "3", "2", "9", "10", "10", "1"], "time": [1194, 1277, 2178, 2295, 2679, 2879, 2913, 3396, 3513, 4047, 4280, 4664, 4797, 5164, 6349, 6882, 6999, 7533, 8667]}, "edge": {"target": [], "time": []}}}, "displayed_time": "10.72", "trialTime": 11716, "trial_type": "mouselab-mdp", "trial_index": 80, "time_elapsed": 1907949, "internal_node_id": "0.0-4.0-5.0-9.0"}}, {"uniqueid": "w43636581:a99670204", "current_trial": 81, "dateTime": 1664556829592, "trialdata": {"revealed_states": [], "num_clicks_accrued": [0, 0, 0, 0, 0, 0, 0, 0, 0, 0, 0, 0, 0], "stateRewards": ["", -4, 4, 48, 24, -4, 4, -24, 48, -2, -8, 24, -48], "withholdReward": true, "trial_id": "mdp_261501605436", "block": "test3", "trialIndex": 72, "score": 52, "costs": -1, "simulationMode": [null, null, null], "rewards": [-4, 4, 48], "path": ["0", "0", "5", "6", "8"], "rt": [3835, 68, 133], "actions": ["right", "right", "down"], "actionTimes": [5086, 5645, 6278], "queries": {"click": {"state": {"target": ["11", "12", "7", "8"], "time": [2208, 2765, 3542, 4061]}, "edge": {"target": [], "time": []}}, "mouseover": {"state": {"target": ["0", "9", "11", "11", "10", "12", "5", "7", "6", "8"], "time": [1440, 1574, 1724, 2058, 2375, 2558, 3092, 3392, 3742, 3992]}, "edge": {"target": [], "time": []}}, "mouseout": {"state": {"target": ["1", "7", "5", "0", "0", "9", "11", "11", "10", "12", "5", "7", "6", "8"], "time": [723, 973, 1040, 1173, 1540, 1607, 1807, 2341, 2475, 2858, 3108, 3692, 3826, 4326]}, "edge": {"target": [], "time": []}}}, "displayed_time": "9.25", "trialTime": 10158, "trial_type": "mouselab-mdp", "trial_index": 81, "time_elapsed": 1918138, "internal_node_id": "0.0-4.0-5.0-10.0"}}, {"uniqueid": "w43636581:a99670204", "current_trial": 82, "dateTime": 1664556840329, "trialdata": {"revealed_states": [], "num_clicks_accrued": [0, 0, 0, 0, 0, 0, 0, 0, 0, 0, 0, 0, 0], "stateRewards": ["", -4, -4, -48, 48, -4, -8, -24, -48, -2, 8, 48, 24], "withholdReward": false, "trial_id": "mdp_365393526663", "block": "test3", "trialIndex": 73, "score": 44.75, "costs": -0.25, "simulationMode": [null, null, null], "rewards": [-4, -4, 48], "path": ["0", "0", "1", "2", "4"], "rt": [1574, 132, 97], "actions": ["up", "up", "left"], "actionTimes": [2642, 3275, 3857], "queries": {"click": {"state": {"target": ["4"], "time": [1667]}, "edge": {"target": [], "time": []}}, "mouseover": {"state": {"target": ["4", "2", "3"], "time": [1541, 1824, 1958]}, "edge": {"target": [], "time": []}}, "mouseout": {"state": {"target": ["0", "4", "2", "3", "3", "3", "7"], "time": [1324, 1807, 1874, 2191, 6011, 6678, 6728]}, "edge": {"target": [], "time": []}}}, "displayed_time": "10.07", "trialTime": 10703, "trial_type": "mouselab-mdp", "trial_index": 82, "time_elapsed": 1928875, "internal_node_id": "0.0-4.0-5.0-11.0"}}, {"uniqueid": "w43636581:a99670204", "current_trial": 83, "dateTime": 1664556851123, "trialdata": {"revealed_states": [], "num_clicks_accrued": [0, 0, 0, 0, 0, 0, 0, 0, 0, 0, 0, 0, 0], "stateRewards": ["", -2, 8, -48, 48, -4, 8, -24, 24, 4, -4, 24, -48], "withholdReward": true, "trial_id": "mdp_904238083902", "block": "test3", "trialIndex": 74, "score": 58.75, "costs": -0.25, "simulationMode": [null, null, null], "rewards": [-2, 8, 48], "path": ["0", "0", "1", "2", "4"], "rt": [1867, 90, 111], "actions": ["up", "up", "left"], "actionTimes": [3442, 4024, 4629], "queries": {"click": {"state": {"target": ["4"], "time": [2352]}, "edge": {"target": [], "time": []}}, "mouseover": {"state": {"target": ["4", "7"], "time": [2265, 2799]}, "edge": {"target": [], "time": []}}, "mouseout": {"state": {"target": ["0", "4", "7"], "time": [1915, 2498, 2815]}, "edge": {"target": [], "time": []}}}, "displayed_time": "9.58", "trialTime": 10762, "trial_type": "mouselab-mdp", "trial_index": 83, "time_elapsed": 1939669, "internal_node_id": "0.0-4.0-5.0-12.0"}}, {"uniqueid": "w43636581:a99670204", "current_trial": 84, "dateTime": 1664556862991, "trialdata": {"revealed_states": [], "num_clicks_accrued": [0, 0, 0, 0, 0, 0, 0, 0, 0, 0, 0