{"condition": 0, "counterbalance": 0, "assignmentId": "a20642870", "workerId": "w35948048", "hitId": "h64180739", "currenttrial": 959, "bonus": 0, "data": [{"uniqueid": "w35948048:a20642870", "current_trial": 0, "dateTime": 1664555093892, "trialdata": {"success": true, "trial_type": "fullscreen", "trial_index": 0, "time_elapsed": 7418, "internal_node_id": "0.0-0.0"}}, {"uniqueid": "w35948048:a20642870", "current_trial": 1, "dateTime": 1664555109101, "trialdata": {"view_history": [{"page_index": 0, "viewing_time": 15198}], "rt": 15199, "trial_id": "exp_instructions_distractor", "trial_type": "instructions", "trial_index": 1, "time_elapsed": 22629, "internal_node_id": "0.0-1.0"}}, {"uniqueid": "w35948048:a20642870", "current_trial": 2, "dateTime": 1664555122774, "trialdata": {"view_history": [{"page_index": 0, "viewing_time": 13670}], "rt": 13670, "trial_id": "color_game_instructions", "trial_type": "instructions", "trial_index": 2, "time_elapsed": 36302, "internal_node_id": "0.0-2.0"}}, {"uniqueid": "w35948048:a20642870", "current_trial": 3, "dateTime": 1664555130220, "trialdata": {"rt": 7444, "stimulus": "<h1> Get ready to start the game! </h1>\n\nThank you for reading the instructions. Get ready start with the first of 5 block(s) of this game.\n<br><br>\nIn this first block, you will complete 90 rounds of this game before moving on.\n<br><br>\nRemember, the better you perform, the bigger your bonus will be!\n<br><br>\n<div style='text-align: center;'>Press <code>space</code> to begin.</div>", "response": " ", "trial_id": "stroop_1_ready_1", "trial_type": "html-keyboard-response", "trial_index": 3, "time_elapsed": 43748, "internal_node_id": "0.0-3.0"}}, {"uniqueid": "w35948048:a20642870", "current_trial": 4, "dateTime": 1664555133055, "trialdata": {"rt": 2816, "stimulus": "<p id='stroop-text' class='stroop-blue'>DOG</p>", "response": "b", "stimulus-type": "unrelated", "word": "DOG", "color": "blue", "correct_response": "b", "trial_id": "stroop-trial-1-unrelated-12", "trial_type": "html-keyboard-response", "trial_index": 4, "time_elapsed": 46581, "internal_node_id": "0.0-4.0-0.0"}}, {"uniqueid": "w35948048:a20642870", "current_trial": 5, "dateTime": 1664555135176, "trialdata": {"rt": 1615, "stimulus": "<p id='stroop-text' class='stroop-green'>CHAIR</p>", "response": "g", "stimulus-type": "unrelated", "word": "CHAIR", "color": "green", "correct_response": "g", "trial_id": "stroop-trial-1-unrelated-15", "trial_type": "html-keyboard-response", "trial_index": 5, "time_elapsed": 48704, "internal_node_id": "0.0-4.0-1.0"}}, {"uniqueid": "w35948048:a20642870", "current_trial": 6, "dateTime": 1664555136985, "trialdata": {"rt": 1301, "stimulus": "<p id='stroop-text' class='stroop-yellow'>BLUE</p>", "response": "y", "stimulus-type": "incongruent", "word": "blue", "color": "yellow", "correct_response": "y", "trial_id": "stroop-trial-1-incongruent-16", "trial_type": "html-keyboard-response", "trial_index": 6, "time_elapsed": 50512, "internal_node_id": "0.0-4.0-2.0"}}, {"uniqueid": "w35948048:a20642870", "current_trial": 7, "dateTime": 1664555138972, "trialdata": {"rt": 1479, "stimulus": "<p id='stroop-text' class='stroop-yellow'>YELLOW</p>", "response": "y", "stimulus-type": "congruent", "word": "yellow", "color": "yellow", "correct_response": "y", "trial_id": "stroop-trial-1-congruent-17", "trial_type": "html-keyboard-response", "trial_index": 7, "time_elapsed": 52499, "internal_node_id": "0.0-4.0-3.0"}}, {"uniqueid": "w35948048:a20642870", "current_trial": 8, "dateTime": 1664555140597, "trialdata": {"rt": 1114, "stimulus": "<p id='stroop-text' class='stroop-green'>YELLOW</p>", "response": "g", "stimulus-type": "incongruent", "word": "yellow", "color": "green", "correct_response": "g", "trial_id": "stroop-trial-1-incongruent-29", "trial_type": "html-keyboard-response", "trial_index": 8, "time_elapsed": 54124, "internal_node_id": "0.0-4.0-4.0"}}, {"uniqueid": "w35948048:a20642870", "current_trial": 9, "dateTime": 1664555142484, "trialdata": {"rt": 1382, "stimulus": "<p id='stroop-text' class='stroop-yellow'>BLUE</p>", "response": "y", "stimulus-type": "incongruent", "word": "blue", "color": "yellow", "correct_response": "y", "trial_id": "stroop-trial-1-incongruent-22", "trial_type": "html-keyboard-response", "trial_index": 9, "time_elapsed": 56012, "internal_node_id": "0.0-4.0-5.0"}}, {"uniqueid": "w35948048:a20642870", "current_trial": 10, "dateTime": 1664555145132, "trialdata": {"rt": 2141, "stimulus": "<p id='stroop-text' class='stroop-green'>GREEN</p>", "response": "g", "stimulus-type": "congruent", "word": "green", "color": "green", "correct_response": "g", "trial_id": "stroop-trial-1-congruent-26", "trial_type": "html-keyboard-response", "trial_index": 10, "time_elapsed": 58660, "internal_node_id": "0.0-4.0-6.0"}}, {"uniqueid": "w35948048:a20642870", "current_trial": 11, "dateTime": 1664555146745, "trialdata": {"rt": 1106, "stimulus": "<p id='stroop-text' class='stroop-blue'>MONKEY</p>", "response": "b", "stimulus-type": "unrelated", "word": "MONKEY", "color": "blue", "correct_response": "b", "trial_id": "stroop-trial-1-unrelated-8", "trial_type": "html-keyboard-response", "trial_index": 11, "time_elapsed": 60273, "internal_node_id": "0.0-4.0-7.0"}}, {"uniqueid": "w35948048:a20642870", "current_trial": 12, "dateTime": 1664555148099, "trialdata": {"rt": 849, "stimulus": "<p id='stroop-text' class='stroop-yellow'>BLUE</p>", "response": "y", "stimulus-type": "incongruent", "word": "blue", "color": "yellow", "correct_response": "y", "trial_id": "stroop-trial-1-incongruent-11", "trial_type": "html-keyboard-response", "trial_index": 12, "time_elapsed": 61627, "internal_node_id": "0.0-4.0-8.0"}}, {"uniqueid": "w35948048:a20642870", "current_trial": 13, "dateTime": 1664555149440, "trialdata": {"rt": 827, "stimulus": "<p id='stroop-text' class='stroop-yellow'>RED</p>", "response": "y", "stimulus-type": "incongruent", "word": "red", "color": "yellow", "correct_response": "y", "trial_id": "stroop-trial-1-incongruent-26", "trial_type": "html-keyboard-response", "trial_index": 13, "time_elapsed": 62966, "internal_node_id": "0.0-4.0-9.0"}}, {"uniqueid": "w35948048:a20642870", "current_trial": 14, "dateTime": 1664555151265, "trialdata": {"rt": 1308, "stimulus": "<p id='stroop-text' class='stroop-blue'>BLUE</p>", "response": "b", "stimulus-type": "congruent", "word": "blue", "color": "blue", "correct_response": "b", "trial_id": "stroop-trial-1-congruent-16", "trial_type": "html-keyboard-response", "trial_index": 14, "time_elapsed": 64792, "internal_node_id": "0.0-4.0-10.0"}}, {"uniqueid": "w35948048:a20642870", "current_trial": 15, "dateTime": 1664555153408, "trialdata": {"rt": 1639, "stimulus": "<p id='stroop-text' class='stroop-red'>RED</p>", "response": "r", "stimulus-type": "congruent", "word": "red", "color": "red", "correct_response": "r", "trial_id": "stroop-trial-1-congruent-21", "trial_type": "html-keyboard-response", "trial_index": 15, "time_elapsed": 66936, "internal_node_id": "0.0-4.0-11.0"}}, {"uniqueid": "w35948048:a20642870", "current_trial": 16, "dateTime": 1664555154925, "trialdata": {"rt": 1001, "stimulus": "<p id='stroop-text' class='stroop-red'>RED</p>", "response": "r", "stimulus-type": "congruent", "word": "red", "color": "red", "correct_response": "r", "trial_id": "stroop-trial-1-congruent-5", "trial_type": "html-keyboard-response", "trial_index": 16, "time_elapsed": 68452, "internal_node_id": "0.0-4.0-12.0"}}, {"uniqueid": "w35948048:a20642870", "current_trial": 17, "dateTime": 1664555156588, "trialdata": {"rt": 1160, "stimulus": "<p id='stroop-text' class='stroop-yellow'>DOG</p>", "response": "y", "stimulus-type": "unrelated", "word": "DOG", "color": "yellow", "correct_response": "y", "trial_id": "stroop-trial-1-unrelated-19", "trial_type": "html-keyboard-response", "trial_index": 17, "time_elapsed": 70116, "internal_node_id": "0.0-4.0-13.0"}}, {"uniqueid": "w35948048:a20642870", "current_trial": 18, "dateTime": 1664555158654, "trialdata": {"rt": 1559, "stimulus": "<p id='stroop-text' class='stroop-green'>GREEN</p>", "response": "g", "stimulus-type": "congruent", "word": "green", "color": "green", "correct_response": "g", "trial_id": "stroop-trial-1-congruent-1", "trial_type": "html-keyboard-response", "trial_index": 18, "time_elapsed": 72182, "internal_node_id": "0.0-4.0-14.0"}}, {"uniqueid": "w35948048:a20642870", "current_trial": 19, "dateTime": 1664555160668, "trialdata": {"rt": 1499, "stimulus": "<p id='stroop-text' class='stroop-red'>CHAIR</p>", "response": "r", "stimulus-type": "unrelated", "word": "CHAIR", "color": "red", "correct_response": "r", "trial_id": "stroop-trial-1-unrelated-27", "trial_type": "html-keyboard-response", "trial_index": 19, "time_elapsed": 74195, "internal_node_id": "0.0-4.0-15.0"}}, {"uniqueid": "w35948048:a20642870", "current_trial": 20, "dateTime": 1664555162527, "trialdata": {"rt": 1354, "stimulus": "<p id='stroop-text' class='stroop-blue'>STONE</p>", "response": "b", "stimulus-type": "unrelated", "word": "STONE", "color": "blue", "correct_response": "b", "trial_id": "stroop-trial-1-unrelated-4", "trial_type": "html-keyboard-response", "trial_index": 20, "time_elapsed": 76055, "internal_node_id": "0.0-4.0-16.0"}}, {"uniqueid": "w35948048:a20642870", "current_trial": 21, "dateTime": 1664555163960, "trialdata": {"rt": 930, "stimulus": "<p id='stroop-text' class='stroop-yellow'>RED</p>", "response": "y", "stimulus-type": "incongruent", "word": "red", "color": "yellow", "correct_response": "y", "trial_id": "stroop-trial-1-incongruent-1", "trial_type": "html-keyboard-response", "trial_index": 21, "time_elapsed": 77488, "internal_node_id": "0.0-4.0-17.0"}}, {"uniqueid": "w35948048:a20642870", "current_trial": 22, "dateTime": 1664555165911, "trialdata": {"rt": 1437, "stimulus": "<p id='stroop-text' class='stroop-green'>GREEN</p>", "response": "g", "stimulus-type": "congruent", "word": "green", "color": "green", "correct_response": "g", "trial_id": "stroop-trial-1-congruent-27", "trial_type": "html-keyboard-response", "trial_index": 22, "time_elapsed": 79439, "internal_node_id": "0.0-4.0-18.0"}}, {"uniqueid": "w35948048:a20642870", "current_trial": 23, "dateTime": 1664555167337, "trialdata": {"rt": 919, "stimulus": "<p id='stroop-text' class='stroop-red'>GREEN</p>", "response": "r", "stimulus-type": "incongruent", "word": "green", "color": "red", "correct_response": "r", "trial_id": "stroop-trial-1-incongruent-2", "trial_type": "html-keyboard-response", "trial_index": 23, "time_elapsed": 80864, "internal_node_id": "0.0-4.0-19.0"}}, {"uniqueid": "w35948048:a20642870", "current_trial": 24, "dateTime": 1664555168645, "trialdata": {"rt": 804, "stimulus": "<p id='stroop-text' class='stroop-red'>DOG</p>", "response": "r", "stimulus-type": "unrelated", "word": "DOG", "color": "red", "correct_response": "r", "trial_id": "stroop-trial-1-unrelated-26", "trial_type": "html-keyboard-response", "trial_index": 24, "time_elapsed": 82172, "internal_node_id": "0.0-4.0-20.0"}}, {"uniqueid": "w35948048:a20642870", "current_trial": 25, "dateTime": 1664555169955, "trialdata": {"rt": 804, "stimulus": "<p id='stroop-text' class='stroop-yellow'>YELLOW</p>", "response": "y", "stimulus-type": "congruent", "word": "yellow", "color": "yellow", "correct_response": "y", "trial_id": "stroop-trial-1-congruent-12", "trial_type": "html-keyboard-response", "trial_index": 25, "time_elapsed": 83483, "internal_node_id": "0.0-4.0-21.0"}}, {"uniqueid": "w35948048:a20642870", "current_trial": 26, "dateTime": 1664555171299, "trialdata": {"rt": 821, "stimulus": "<p id='stroop-text' class='stroop-blue'>BRAIN</p>", "response": "b", "stimulus-type": "unrelated", "word": "BRAIN", "color": "blue", "correct_response": "b", "trial_id": "stroop-trial-1-unrelated-5", "trial_type": "html-keyboard-response", "trial_index": 26, "time_elapsed": 84826, "internal_node_id": "0.0-4.0-22.0"}}, {"uniqueid": "w35948048:a20642870", "current_trial": 27, "dateTime": 1664555172668, "trialdata": {"rt": 860, "stimulus": "<p id='stroop-text' class='stroop-yellow'>STONE</p>", "response": "y", "stimulus-type": "unrelated", "word": "STONE", "color": "yellow", "correct_response": "y", "trial_id": "stroop-trial-1-unrelated-20", "trial_type": "html-keyboard-response", "trial_index": 27, "time_elapsed": 86196, "internal_node_id": "0.0-4.0-23.0"}}, {"uniqueid": "w35948048:a20642870", "current_trial": 28, "dateTime": 1664555174357, "trialdata": {"rt": 1180, "stimulus": "<p id='stroop-text' class='stroop-red'>RED</p>", "response": "r", "stimulus-type": "congruent", "word": "red", "color": "red", "correct_response": "r", "trial_id": "stroop-trial-1-congruent-24", "trial_type": "html-keyboard-response", "trial_index": 28, "time_elapsed": 87885, "internal_node_id": "0.0-4.0-24.0"}}, {"uniqueid": "w35948048:a20642870", "current_trial": 29, "dateTime": 1664555175883, "trialdata": {"rt": 1014, "stimulus": "<p id='stroop-text' class='stroop-blue'>BLUE</p>", "response": "b", "stimulus-type": "congruent", "word": "blue", "color": "blue", "correct_response": "b", "trial_id": "stroop-trial-1-congruent-14", "trial_type": "html-keyboard-response", "trial_index": 29, "time_elapsed": 89411, "internal_node_id": "0.0-4.0-25.0"}}, {"uniqueid": "w35948048:a20642870", "current_trial": 30, "dateTime": 1664555177802, "trialdata": {"rt": 1411, "stimulus": "<p id='stroop-text' class='stroop-green'>GREEN</p>", "response": "g", "stimulus-type": "congruent", "word": "green", "color": "green", "correct_response": "g", "trial_id": "stroop-trial-1-congruent-9", "trial_type": "html-keyboard-response", "trial_index": 30, "time_elapsed": 91329, "internal_node_id": "0.0-4.0-26.0"}}, {"uniqueid": "w35948048:a20642870", "current_trial": 31, "dateTime": 1664555180604, "trialdata": {"rt": 2286, "stimulus": "<p id='stroop-text' class='stroop-blue'>GREEN</p>", "response": "b", "stimulus-type": "incongruent", "word": "green", "color": "blue", "correct_response": "b", "trial_id": "stroop-trial-1-incongruent-13", "trial_type": "html-keyboard-response", "trial_index": 31, "time_elapsed": 94131, "internal_node_id": "0.0-4.0-27.0"}}, {"uniqueid": "w35948048:a20642870", "current_trial": 32, "dateTime": 1664555182209, "trialdata": {"rt": 1095, "stimulus": "<p id='stroop-text' class='stroop-green'>GREEN</p>", "response": "g", "stimulus-type": "congruent", "word": "green", "color": "green", "correct_response": "g", "trial_id": "stroop-trial-1-congruent-13", "trial_type": "html-keyboard-response", "trial_index": 32, "time_elapsed": 95737, "internal_node_id": "0.0-4.0-28.0"}}, {"uniqueid": "w35948048:a20642870", "current_trial": 33, "dateTime": 1664555183778, "trialdata": {"rt": 1058, "stimulus": "<p id='stroop-text' class='stroop-green'>YELLOW</p>", "response": "g", "stimulus-type": "incongruent", "word": "yellow", "color": "green", "correct_response": "g", "trial_id": "stroop-trial-1-incongruent-27", "trial_type": "html-keyboard-response", "trial_index": 33, "time_elapsed": 97305, "internal_node_id": "0.0-4.0-29.0"}}, {"uniqueid": "w35948048:a20642870", "current_trial": 34, "dateTime": 1664555185808, "trialdata": {"rt": 1516, "stimulus": "<p id='stroop-text' class='stroop-blue'>BLUE</p>", "response": "b", "stimulus-type": "congruent", "word": "blue", "color": "blue", "correct_response": "b", "trial_id": "stroop-trial-1-congruent-25", "trial_type": "html-keyboard-response", "trial_index": 34, "time_elapsed": 99335, "internal_node_id": "0.0-4.0-30.0"}}, {"uniqueid": "w35948048:a20642870", "current_trial": 35, "dateTime": 1664555187389, "trialdata": {"rt": 1069, "stimulus": "<p id='stroop-text' class='stroop-yellow'>YELLOW</p>", "response": "y", "stimulus-type": "congruent", "word": "yellow", "color": "yellow", "correct_response": "y", "trial_id": "stroop-trial-1-congruent-28", "trial_type": "html-keyboard-response", "trial_index": 35, "time_elapsed": 100916, "internal_node_id": "0.0-4.0-31.0"}}, {"uniqueid": "w35948048:a20642870", "current_trial": 36, "dateTime": 1664555189431, "trialdata": {"rt": 1529, "stimulus": "<p id='stroop-text' class='stroop-blue'>BLUE</p>", "response": "b", "stimulus-type": "congruent", "word": "blue", "color": "blue", "correct_response": "b", "trial_id": "stroop-trial-1-congruent-11", "trial_type": "html-keyboard-response", "trial_index": 36, "time_elapsed": 102958, "internal_node_id": "0.0-4.0-32.0"}}, {"uniqueid": "w35948048:a20642870", "current_trial": 37, "dateTime": 1664555190755, "trialdata": {"rt": 821, "stimulus": "<p id='stroop-text' class='stroop-green'>CHAIR</p>", "response": "g", "stimulus-type": "unrelated", "word": "CHAIR", "color": "green", "correct_response": "g", "trial_id": "stroop-trial-1-unrelated-16", "trial_type": "html-keyboard-response", "trial_index": 37, "time_elapsed": 104282, "internal_node_id": "0.0-4.0-33.0"}}, {"uniqueid": "w35948048:a20642870", "current_trial": 38, "dateTime": 1664555192062, "trialdata": {"rt": 799, "stimulus": "<p id='stroop-text' class='stroop-yellow'>YELLOW</p>", "response": "y", "stimulus-type": "congruent", "word": "yellow", "color": "yellow", "correct_response": "y", "trial_id": "stroop-trial-1-congruent-30", "trial_type": "html-keyboard-response", "trial_index": 38, "time_elapsed": 105589, "internal_node_id": "0.0-4.0-34.0"}}, {"uniqueid": "w35948048:a20642870", "current_trial": 39, "dateTime": 1664555193904, "trialdata": {"rt": 1336, "stimulus": "<p id='stroop-text' class='stroop-blue'>BLUE</p>", "response": "b", "stimulus-type": "congruent", "word": "blue", "color": "blue", "correct_response": "b", "trial_id": "stroop-trial-1-congruent-6", "trial_type": "html-keyboard-response", "trial_index": 39, "time_elapsed": 107432, "internal_node_id": "0.0-4.0-35.0"}}, {"uniqueid": "w35948048:a20642870", "current_trial": 40, "dateTime": 1664555195183, "trialdata": {"rt": 775, "stimulus": "<p id='stroop-text' class='stroop-blue'>FORK</p>", "response": "b", "stimulus-type": "unrelated", "word": "FORK", "color": "blue", "correct_response": "b", "trial_id": "stroop-trial-1-unrelated-21", "trial_type": "html-keyboard-response", "trial_index": 40, "time_elapsed": 108710, "internal_node_id": "0.0-4.0-36.0"}}, {"uniqueid": "w35948048:a20642870", "current_trial": 41, "dateTime": 1664555196457, "trialdata": {"rt": 764, "stimulus": "<p id='stroop-text' class='stroop-red'>FORK</p>", "response": "r", "stimulus-type": "unrelated", "word": "FORK", "color": "red", "correct_response": "r", "trial_id": "stroop-trial-1-unrelated-11", "trial_type": "html-keyboard-response", "trial_index": 41, "time_elapsed": 109985, "internal_node_id": "0.0-4.0-37.0"}}, {"uniqueid": "w35948048:a20642870", "current_trial": 42, "dateTime": 1664555197689, "trialdata": {"rt": 714, "stimulus": "<p id='stroop-text' class='stroop-yellow'>RED</p>", "response": "y", "stimulus-type": "incongruent", "word": "red", "color": "yellow", "correct_response": "y", "trial_id": "stroop-trial-1-incongruent-28", "trial_type": "html-keyboard-response", "trial_index": 42, "time_elapsed": 111217, "internal_node_id": "0.0-4.0-38.0"}}, {"uniqueid": "w35948048:a20642870", "current_trial": 43, "dateTime": 1664555199059, "trialdata": {"rt": 865, "stimulus": "<p id='stroop-text' class='stroop-red'>CHAIR</p>", "response": "r", "stimulus-type": "unrelated", "word": "CHAIR", "color": "red", "correct_response": "r", "trial_id": "stroop-trial-1-unrelated-24", "trial_type": "html-keyboard-response", "trial_index": 43, "time_elapsed": 112587, "internal_node_id": "0.0-4.0-39.0"}}, {"uniqueid": "w35948048:a20642870", "current_trial": 44, "dateTime": 1664555200431, "trialdata": {"rt": 862, "stimulus": "<p id='stroop-text' class='stroop-green'>WINDOW</p>", "response": "g", "stimulus-type": "unrelated", "word": "WINDOW", "color": "green", "correct_response": "g", "trial_id": "stroop-trial-1-unrelated-14", "trial_type": "html-keyboard-response", "trial_index": 44, "time_elapsed": 113958, "internal_node_id": "0.0-4.0-40.0"}}, {"uniqueid": "w35948048:a20642870", "current_trial": 45, "dateTime": 1664555201793, "trialdata": {"rt": 855, "stimulus": "<p id='stroop-text' class='stroop-green'>GREEN</p>", "response": "g", "stimulus-type": "congruent", "word": "green", "color": "green", "correct_response": "g", "trial_id": "stroop-trial-1-congruent-10", "trial_type": "html-keyboard-response", "trial_index": 45, "time_elapsed": 115320, "internal_node_id": "0.0-4.0-41.0"}}, {"uniqueid": "w35948048:a20642870", "current_trial": 46, "dateTime": 1664555203066, "trialdata": {"rt": 764, "stimulus": "<p id='stroop-text' class='stroop-yellow'>YELLOW</p>", "response": "y", "stimulus-type": "congruent", "word": "yellow", "color": "yellow", "correct_response": "y", "trial_id": "stroop-trial-1-congruent-2", "trial_type": "html-keyboard-response", "trial_index": 46, "time_elapsed": 116593, "internal_node_id": "0.0-4.0-42.0"}}, {"uniqueid": "w35948048:a20642870", "current_trial": 47, "dateTime": 1664555204909, "trialdata": {"rt": 1332, "stimulus": "<p id='stroop-text' class='stroop-blue'>DOG</p>", "response": "b", "stimulus-type": "unrelated", "word": "DOG", "color": "blue", "correct_response": "b", "trial_id": "stroop-trial-1-unrelated-1", "trial_type": "html-keyboard-response", "trial_index": 47, "time_elapsed": 118436, "internal_node_id": "0.0-4.0-43.0"}}, {"uniqueid": "w35948048:a20642870", "current_trial": 48, "dateTime": 1664555206239, "trialdata": {"rt": 821, "stimulus": "<p id='stroop-text' class='stroop-yellow'>MONKEY</p>", "response": "y", "stimulus-type": "unrelated", "word": "MONKEY", "color": "yellow", "correct_response": "y", "trial_id": "stroop-trial-1-unrelated-2", "trial_type": "html-keyboard-response", "trial_index": 48, "time_elapsed": 119766, "internal_node_id": "0.0-4.0-44.0"}}, {"uniqueid": "w35948048:a20642870", "current_trial": 49, "dateTime": 1664555208096, "trialdata": {"rt": 1344, "stimulus": "<p id='stroop-text' class='stroop-red'>GREEN</p>", "response": "r", "stimulus-type": "incongruent", "word": "green", "color": "red", "correct_response": "r", "trial_id": "stroop-trial-1-incongruent-15", "trial_type": "html-keyboard-response", "trial_index": 49, "time_elapsed": 121623, "internal_node_id": "0.0-4.0-45.0"}}, {"uniqueid": "w35948048:a20642870", "current_trial": 50, "dateTime": 1664555209728, "trialdata": {"rt": 1126, "stimulus": "<p id='stroop-text' class='stroop-blue'>WINDOW</p>", "response": "b", "stimulus-type": "unrelated", "word": "WINDOW", "color": "blue", "correct_response": "b", "trial_id": "stroop-trial-1-unrelated-7", "trial_type": "html-keyboard-response", "trial_index": 50, "time_elapsed": 123255, "internal_node_id": "0.0-4.0-46.0"}}, {"uniqueid": "w35948048:a20642870", "current_trial": 51, "dateTime": 1664555211279, "trialdata": {"rt": 1041, "stimulus": "<p id='stroop-text' class='stroop-blue'>RED</p>", "response": "b", "stimulus-type": "incongruent", "word": "red", "color": "blue", "correct_response": "b", "trial_id": "stroop-trial-1-incongruent-3", "trial_type": "html-keyboard-response", "trial_index": 51, "time_elapsed": 124806, "internal_node_id": "0.0-4.0-47.0"}}, {"uniqueid": "w35948048:a20642870", "current_trial": 52, "dateTime": 1664555212707, "trialdata": {"rt": 915, "stimulus": "<p id='stroop-text' class='stroop-blue'>RED</p>", "response": "b", "stimulus-type": "incongruent", "word": "red", "color": "blue", "correct_response": "b", "trial_id": "stroop-trial-1-incongruent-24", "trial_type": "html-keyboard-response", "trial_index": 52, "time_elapsed": 126234, "internal_node_id": "0.0-4.0-48.0"}}, {"uniqueid": "w35948048:a20642870", "current_trial": 53, "dateTime": 1664555214127, "trialdata": {"rt": 912, "stimulus": "<p id='stroop-text' class='stroop-red'>BRAIN</p>", "response": "r", "stimulus-type": "unrelated", "word": "BRAIN", "color": "red", "correct_response": "r", "trial_id": "stroop-trial-1-unrelated-17", "trial_type": "html-keyboard-response", "trial_index": 53, "time_elapsed": 127655, "internal_node_id": "0.0-4.0-49.0"}}, {"uniqueid": "w35948048:a20642870", "current_trial": 54, "dateTime": 1664555215399, "trialdata": {"rt": 766, "stimulus": "<p id='stroop-text' class='stroop-blue'>DOG</p>", "response": "b", "stimulus-type": "unrelated", "word": "DOG", "color": "blue", "correct_response": "b", "trial_id": "stroop-trial-1-unrelated-13", "trial_type": "html-keyboard-response", "trial_index": 54, "time_elapsed": 128927, "internal_node_id": "0.0-4.0-50.0"}}, {"uniqueid": "w35948048:a20642870", "current_trial": 55, "dateTime": 1664555217082, "trialdata": {"rt": 1168, "stimulus": "<p id='stroop-text' class='stroop-blue'>RED</p>", "response": "b", "stimulus-type": "incongruent", "word": "red", "color": "blue", "correct_response": "b", "trial_id": "stroop-trial-1-incongruent-5", "trial_type": "html-keyboard-response", "trial_index": 55, "time_elapsed": 130609, "internal_node_id": "0.0-4.0-51.0"}}, {"uniqueid": "w35948048:a20642870", "current_trial": 56, "dateTime": 1664555218343, "trialdata": {"rt": 748, "stimulus": "<p id='stroop-text' class='stroop-yellow'>RED</p>", "response": "y", "stimulus-type": "incongruent", "word": "red", "color": "yellow", "correct_response": "y", "trial_id": "stroop-trial-1-incongruent-18", "trial_type": "html-keyboard-response", "trial_index": 56, "time_elapsed": 131871, "internal_node_id": "0.0-4.0-52.0"}}, {"uniqueid": "w35948048:a20642870", "current_trial": 57, "dateTime": 1664555219646, "trialdata": {"rt": 795, "stimulus": "<p id='stroop-text' class='stroop-yellow'>YELLOW</p>", "response": "y", "stimulus-type": "congruent", "word": "yellow", "color": "yellow", "correct_response": "y", "trial_id": "stroop-trial-1-congruent-7", "trial_type": "html-keyboard-response", "trial_index": 57, "time_elapsed": 133173, "internal_node_id": "0.0-4.0-53.0"}}, {"uniqueid": "w35948048:a20642870", "current_trial": 58, "dateTime": 1664555220959, "trialdata": {"rt": 801, "stimulus": "<p id='stroop-text' class='stroop-blue'>WINDOW</p>", "response": "b", "stimulus-type": "unrelated", "word": "WINDOW", "color": "blue", "correct_response": "b", "trial_id": "stroop-trial-1-unrelated-6", "trial_type": "html-keyboard-response", "trial_index": 58, "time_elapsed": 134487, "internal_node_id": "0.0-4.0-54.0"}}, {"uniqueid": "w35948048:a20642870", "current_trial": 59, "dateTime": 1664555222088, "trialdata": {"rt": 614, "stimulus": "<p id='stroop-text' class='stroop-green'>GREEN</p>", "response": "g", "stimulus-type": "congruent", "word": "green", "color": "green", "correct_response": "g", "trial_id": "stroop-trial-1-congruent-20", "trial_type": "html-keyboard-response", "trial_index": 59, "time_elapsed": 135616, "internal_node_id": "0.0-4.0-55.0"}}, {"uniqueid": "w35948048:a20642870", "current_trial": 60, "dateTime": 1664555223427, "trialdata": {"rt": 829, "stimulus": "<p id='stroop-text' class='stroop-red'>BLUE</p>", "response": "r", "stimulus-type": "incongruent", "word": "blue", "color": "red", "correct_response": "r", "trial_id": "stroop-trial-1-incongruent-23", "trial_type": "html-keyboard-response", "trial_index": 60, "time_elapsed": 136954, "internal_node_id": "0.0-4.0-56.0"}}, {"uniqueid": "w35948048:a20642870", "current_trial": 61, "dateTime": 1664555225051, "trialdata": {"rt": 1114, "stimulus": "<p id='stroop-text' class='stroop-yellow'>BOTTLE</p>", "response": "y", "stimulus-type": "unrelated", "word": "BOTTLE", "color": "yellow", "correct_response": "y", "trial_id": "stroop-trial-1-unrelated-25", "trial_type": "html-keyboard-response", "trial_index": 61, "time_elapsed": 138578, "internal_node_id": "0.0-4.0-57.0"}}, {"uniqueid": "w35948048:a20642870", "current_trial": 62, "dateTime": 1664555226879, "trialdata": {"rt": 1325, "stimulus": "<p id='stroop-text' class='stroop-red'>YELLOW</p>", "response": "r", "stimulus-type": "incongruent", "word": "yellow", "color": "red", "correct_response": "r", "trial_id": "stroop-trial-1-incongruent-21", "trial_type": "html-keyboard-response", "trial_index": 62, "time_elapsed": 140407, "internal_node_id": "0.0-4.0-58.0"}}, {"uniqueid": "w35948048:a20642870", "current_trial": 63, "dateTime": 1664555228431, "trialdata": {"rt": 1040, "stimulus": "<p id='stroop-text' class='stroop-blue'>BLUE</p>", "response": "b", "stimulus-type": "congruent", "word": "blue", "color": "blue", "correct_response": "b", "trial_id": "stroop-trial-1-congruent-4", "trial_type": "html-keyboard-response", "trial_index": 63, "time_elapsed": 141959, "internal_node_id": "0.0-4.0-59.0"}}, {"uniqueid": "w35948048:a20642870", "current_trial": 64, "dateTime": 1664555229703, "trialdata": {"rt": 762, "stimulus": "<p id='stroop-text' class='stroop-blue'>DOG</p>", "response": "b", "stimulus-type": "unrelated", "word": "DOG", "color": "blue", "correct_response": "b", "trial_id": "stroop-trial-1-unrelated-18", "trial_type": "html-keyboard-response", "trial_index": 64, "time_elapsed": 143231, "internal_node_id": "0.0-4.0-60.0"}}, {"uniqueid": "w35948048:a20642870", "current_trial": 65, "dateTime": 1664555230986, "trialdata": {"rt": 772, "stimulus": "<p id='stroop-text' class='stroop-blue'>BLUE</p>", "response": "b", "stimulus-type": "congruent", "word": "blue", "color": "blue", "correct_response": "b", "trial_id": "stroop-trial-1-congruent-8", "trial_type": "html-keyboard-response", "trial_index": 65, "time_elapsed": 144514, "internal_node_id": "0.0-4.0-61.0"}}, {"uniqueid": "w35948048:a20642870", "current_trial": 66, "dateTime": 1664555232916, "trialdata": {"rt": 1414, "stimulus": "<p id='stroop-text' class='stroop-red'>DOG</p>", "response": "r", "stimulus-type": "unrelated", "word": "DOG", "color": "red", "correct_response": "r", "trial_id": "stroop-trial-1-unrelated-28", "trial_type": "html-keyboard-response", "trial_index": 66, "time_elapsed": 146443, "internal_node_id": "0.0-4.0-62.0"}}, {"uniqueid": "w35948048:a20642870", "current_trial": 67, "dateTime": 1664555234990, "trialdata": {"rt": 1565, "stimulus": "<p id='stroop-text' class='stroop-green'>BLUE</p>", "response": "g", "stimulus-type": "incongruent", "word": "blue", "color": "green", "correct_response": "g", "trial_id": "stroop-trial-1-incongruent-19", "trial_type": "html-keyboard-response", "trial_index": 67, "time_elapsed": 148517, "internal_node_id": "0.0-4.0-63.0"}}, {"uniqueid": "w35948048:a20642870", "current_trial": 68, "dateTime": 1664555236251, "trialdata": {"rt": 749, "stimulus": "<p id='stroop-text' class='stroop-yellow'>RED</p>", "response": "y", "stimulus-type": "incongruent", "word": "red", "color": "yellow", "correct_response": "y", "trial_id": "stroop-trial-1-incongruent-14", "trial_type": "html-keyboard-response", "trial_index": 68, "time_elapsed": 149779, "internal_node_id": "0.0-4.0-64.0"}}, {"uniqueid": "w35948048:a20642870", "current_trial": 69, "dateTime": 1664555237937, "trialdata": {"rt": 1175, "stimulus": "<p id='stroop-text' class='stroop-red'>STONE</p>", "response": "r", "stimulus-type": "unrelated", "word": "STONE", "color": "red", "correct_response": "r", "trial_id": "stroop-trial-1-unrelated-3", "trial_type": "html-keyboard-response", "trial_index": 69, "time_elapsed": 151464, "internal_node_id": "0.0-4.0-65.0"}}, {"uniqueid": "w35948048:a20642870", "current_trial": 70, "dateTime": 1664555239093, "trialdata": {"rt": 635, "stimulus": "<p id='stroop-text' class='stroop-yellow'>YELLOW</p>", "response": "y", "stimulus-type": "congruent", "word": "yellow", "color": "yellow", "correct_response": "y", "trial_id": "stroop-trial-1-congruent-29", "trial_type": "html-keyboard-response", "trial_index": 70, "time_elapsed": 152621, "internal_node_id": "0.0-4.0-66.0"}}, {"uniqueid": "w35948048:a20642870", "current_trial": 71, "dateTime": 1664555241649, "trialdata": {"rt": 2047, "stimulus": "<p id='stroop-text' class='stroop-green'>WINDOW</p>", "response": "g", "stimulus-type": "unrelated", "word": "WINDOW", "color": "green", "correct_response": "g", "trial_id": "stroop-trial-1-unrelated-10", "trial_type": "html-keyboard-response", "trial_index": 71, "time_elapsed": 155177, "internal_node_id": "0.0-4.0-67.0"}}, {"uniqueid": "w35948048:a20642870", "current_trial": 72, "dateTime": 1664555243181, "trialdata": {"rt": 1026, "stimulus": "<p id='stroop-text' class='stroop-blue'>BLUE</p>", "response": "b", "stimulus-type": "congruent", "word": "blue", "color": "blue", "correct_response": "b", "trial_id": "stroop-trial-1-congruent-23", "trial_type": "html-keyboard-response", "trial_index": 72, "time_elapsed": 156708, "internal_node_id": "0.0-4.0-68.0"}}, {"uniqueid": "w35948048:a20642870", "current_trial": 73, "dateTime": 1664555244836, "trialdata": {"rt": 1140, "stimulus": "<p id='stroop-text' class='stroop-blue'>RED</p>", "response": "b", "stimulus-type": "incongruent", "word": "red", "color": "blue", "correct_response": "b", "trial_id": "stroop-trial-1-incongruent-8", "trial_type": "html-keyboard-response", "trial_index": 73, "time_elapsed": 158363, "internal_node_id": "0.0-4.0-69.0"}}, {"uniqueid": "w35948048:a20642870", "current_trial": 74, "dateTime": 1664555246295, "trialdata": {"rt": 950, "stimulus": "<p id='stroop-text' class='stroop-red'>WINDOW</p>", "response": "r", "stimulus-type": "unrelated", "word": "WINDOW", "color": "red", "correct_response": "r", "trial_id": "stroop-trial-1-unrelated-22", "trial_type": "html-keyboard-response", "trial_index": 74, "time_elapsed": 159823, "internal_node_id": "0.0-4.0-70.0"}}, {"uniqueid": "w35948048:a20642870", "current_trial": 75, "dateTime": 1664555247441, "trialdata": {"rt": 633, "stimulus": "<p id='stroop-text' class='stroop-yellow'>RED</p>", "response": "y", "stimulus-type": "incongruent", "word": "red", "color": "yellow", "correct_response": "y", "trial_id": "stroop-trial-1-incongruent-6", "trial_type": "html-keyboard-response", "trial_index": 75, "time_elapsed": 160969, "internal_node_id": "0.0-4.0-71.0"}}, {"uniqueid": "w35948048:a20642870", "current_trial": 76, "dateTime": 1664555248784, "trialdata": {"rt": 825, "stimulus": "<p id='stroop-text' class='stroop-yellow'>YELLOW</p>", "response": "y", "stimulus-type": "congruent", "word": "yellow", "color": "yellow", "correct_response": "y", "trial_id": "stroop-trial-1-congruent-18", "trial_type": "html-keyboard-response", "trial_index": 76, "time_elapsed": 162311, "internal_node_id": "0.0-4.0-72.0"}}, {"uniqueid": "w35948048:a20642870", "current_trial": 77, "dateTime": 1664555250494, "trialdata": {"rt": 1202, "stimulus": "<p id='stroop-text' class='stroop-blue'>RED</p>", "response": "b", "stimulus-type": "incongruent", "word": "red", "color": "blue", "correct_response": "b", "trial_id": "stroop-trial-1-incongruent-30", "trial_type": "html-keyboard-response", "trial_index": 77, "time_elapsed": 164022, "internal_node_id": "0.0-4.0-73.0"}}, {"uniqueid": "w35948048:a20642870", "current_trial": 78, "dateTime": 1664555251790, "trialdata": {"rt": 788, "stimulus": "<p id='stroop-text' class='stroop-yellow'>STONE</p>", "response": "y", "stimulus-type": "unrelated", "word": "STONE", "color": "yellow", "correct_response": "y", "trial_id": "stroop-trial-1-unrelated-23", "trial_type": "html-keyboard-response", "trial_index": 78, "time_elapsed": 165318, "internal_node_id": "0.0-4.0-74.0"}}, {"uniqueid": "w35948048:a20642870", "current_trial": 79, "dateTime": 1664555253320, "trialdata": {"rt": 1017, "stimulus": "<p id='stroop-text' class='stroop-blue'>YELLOW</p>", "response": "b", "stimulus-type": "incongruent", "word": "yellow", "color": "blue", "correct_response": "b", "trial_id": "stroop-trial-1-incongruent-7", "trial_type": "html-keyboard-response", "trial_index": 79, "time_elapsed": 166848, "internal_node_id": "0.0-4.0-75.0"}}, {"uniqueid": "w35948048:a20642870", "current_trial": 80, "dateTime": 1664555254792, "trialdata": {"rt": 957, "stimulus": "<p id='stroop-text' class='stroop-red'>YELLOW</p>", "response": "r", "stimulus-type": "incongruent", "word": "yellow", "color": "red", "correct_response": "r", "trial_id": "stroop-trial-1-incongruent-9", "trial_type": "html-keyboard-response", "trial_index": 80, "time_elapsed": 168319, "internal_node_id": "0.0-4.0-76.0"}}, {"uniqueid": "w35948048:a20642870", "current_trial": 81, "dateTime": 1664555256252, "trialdata": {"rt": 947, "stimulus": "<p id='stroop-text' class='stroop-red'>RED</p>", "response": "r", "stimulus-type": "congruent", "word": "red", "color": "red", "correct_response": "r", "trial_id": "stroop-trial-1-congruent-22", "trial_type": "html-keyboard-response", "trial_index": 81, "time_elapsed": 169779, "internal_node_id": "0.0-4.0-77.0"}}, {"uniqueid": "w35948048:a20642870", "current_trial": 82, "dateTime": 1664555257467, "trialdata": {"rt": 705, "stimulus": "<p id='stroop-text' class='stroop-red'>RED</p>", "response": "r", "stimulus-type": "congruent", "word": "red", "color": "red", "correct_response": "r", "trial_id": "stroop-trial-1-congruent-19", "trial_type": "html-keyboard-response", "trial_index": 82, "time_elapsed": 170995, "internal_node_id": "0.0-4.0-78.0"}}, {"uniqueid": "w35948048:a20642870", "current_trial": 83, "dateTime": 1664555258848, "trialdata": {"rt": 868, "stimulus": "<p id='stroop-text' class='stroop-blue'>YELLOW</p>", "response": "b", "stimulus-type": "incongruent", "word": "yellow", "color": "blue", "correct_response": "b", "trial_id": "stroop-trial-1-incongruent-17", "trial_type": "html-keyboard-response", "trial_index": 83, "time_elapsed": 172375, "internal_node_id": "0.0-4.0-79.0"}}, {"uniqueid": "w35948048:a20642870", "current_trial": 84, "dateTime": 1664555260525, "trialdata": {"rt": 1166, "stimulus": "<p id='stroop-text' class='stroop-yellow'>GREEN</p>", "response": "y", "stimulus-type": "incongruent", "word": "green", "color": "yellow", "correct_response": "y", "trial_id": "stroop-trial-1-incongruent-10", "trial_type": "html-keyboard-response", "trial_index": 84, "time_elapsed": 174052, "internal_node_id": "0.0-4.0-80.0"}}, {"uniqueid": "w35948048:a20642870", "current_trial": 85, "dateTime": 1664555261783, "trialdata": {"rt": 754, "stimulus": "<p id='stroop-text' class='stroop-yellow'>MONKEY</p>", "response": "y", "stimulus-type": "unrelated", "word": "MONKEY", "color": "yellow", "correct_response": "y", "trial_id": "stroop-trial-1-unrelated-29", "trial_type": "html-keyboard-response", "trial_index": 85, "time_elapsed": 175310, "internal_node_id": "0.0-4.0-81.0"}}, {"uniqueid": "w35948048:a20642870", "current_trial": 86, "dateTime": 1664555262909, "trialdata": {"rt": 616, "stimulus": "<p id='stroop-text' class='stroop-yellow'>YELLOW</p>", "response": "y", "stimulus-type": "congruent", "word": "yellow", "color": "yellow", "correct_response": "y", "trial_id": "stroop-trial-1-congruent-3", "trial_type": "html-keyboard-response", "trial_index": 86, "time_elapsed": 176437, "internal_node_id": "0.0-4.0-82.0"}}, {"uniqueid": "w35948048:a20642870", "current_trial": 87, "dateTime": 1664555264877, "trialdata": {"rt": 1453, "stimulus": "<p id='stroop-text' class='stroop-green'>RED</p>", "response": "g", "stimulus-type": "incongruent", "word": "red", "color": "green", "correct_response": "g", "trial_id": "stroop-trial-1-incongruent-20", "trial_type": "html-keyboard-response", "trial_index": 87, "time_elapsed": 178405, "internal_node_id": "0.0-4.0-83.0"}}, {"uniqueid": "w35948048:a20642870", "current_trial": 88, "dateTime": 1664555266180, "trialdata": {"rt": 788, "stimulus": "<p id='stroop-text' class='stroop-yellow'>RED</p>", "response": "y", "stimulus-type": "incongruent", "word": "red", "color": "yellow", "correct_response": "y", "trial_id": "stroop-trial-1-incongruent-12", "trial_type": "html-keyboard-response", "trial_index": 88, "time_elapsed": 179707, "internal_node_id": "0.0-4.0-84.0"}}, {"uniqueid": "w35948048:a20642870", "current_trial": 89, "dateTime": 1664555268280, "trialdata": {"rt": 1595, "stimulus": "<p id='stroop-text' class='stroop-yellow'>BLUE</p>", "response": "y", "stimulus-type": "incongruent", "word": "blue", "color": "yellow", "correct_response": "y", "trial_id": "stroop-trial-1-incongruent-4", "trial_type": "html-keyboard-response", "trial_index": 89, "time_elapsed": 181807, "internal_node_id": "0.0-4.0-85.0"}}, {"uniqueid": "w35948048:a20642870", "current_trial": 90, "dateTime": 1664555270016, "trialdata": {"rt": 1225, "stimulus": "<p id='stroop-text' class='stroop-blue'>BOTTLE</p>", "response": "b", "stimulus-type": "unrelated", "word": "BOTTLE", "color": "blue", "correct_response": "b", "trial_id": "stroop-trial-1-unrelated-30", "trial_type": "html-keyboard-response", "trial_index": 90, "time_elapsed": 183544, "internal_node_id": "0.0-4.0-86.0"}}, {"uniqueid": "w35948048:a20642870", "current_trial": 91, "dateTime": 1664555271250, "trialdata": {"rt": 721, "stimulus": "<p id='stroop-text' class='stroop-yellow'>YELLOW</p>", "response": "y", "stimulus-type": "congruent", "word": "yellow", "color": "yellow", "correct_response": "y", "trial_id": "stroop-trial-1-congruent-15", "trial_type": "html-keyboard-response", "trial_index": 91, "time_elapsed": 184778, "internal_node_id": "0.0-4.0-87.0"}}, {"uniqueid": "w35948048:a20642870", "current_trial": 92, "dateTime": 1664555272800, "trialdata": {"rt": 1039, "stimulus": "<p id='stroop-text' class='stroop-blue'>DOG</p>", "response": "b", "stimulus-type": "unrelated", "word": "DOG", "color": "blue", "correct_response": "b", "trial_id": "stroop-trial-1-unrelated-9", "trial_type": "html-keyboard-response", "trial_index": 92, "time_elapsed": 186327, "internal_node_id": "0.0-4.0-88.0"}}, {"uniqueid": "w35948048:a20642870", "current_trial": 93, "dateTime": 1664555274444, "trialdata": {"rt": 1136, "stimulus": "<p id='stroop-text' class='stroop-blue'>YELLOW</p>", "response": "b", "stimulus-type": "incongruent", "word": "yellow", "color": "blue", "correct_response": "b", "trial_id": "stroop-trial-1-incongruent-25", "trial_type": "html-keyboard-response", "trial_index": 93, "time_elapsed": 187971, "internal_node_id": "0.0-4.0-89.0"}}, {"uniqueid": "w35948048:a20642870", "current_trial": 94, "dateTime": 1664555290730, "trialdata": {"rt": 15768, "stimulus": "  <h1> End of block! </h1>\n\n  You have reached the end of the block 1/5. If you need a short break, feel free to take one now before moving on.\n\n  <br><br>\n  In the next block, you will complete another 90 rounds of this game.\n\n  <br><br>\n  <div style='text-align: center;'>Press <code>space</code> to begin.</div>\n  <br><br>\n<div style='text-align: center;'>(If the experiment doesn't continue, try clicking on the text and then pressing <code>space</code>.)</div>", "response": " ", "trial_id": "stroop_1_ready_2", "trial_type": "html-keyboard-response", "trial_index": 94, "time_elapsed": 204258, "internal_node_id": "0.0-5.0"}}, {"uniqueid": "w35948048:a20642870", "current_trial": 95, "dateTime": 1664555293977, "trialdata": {"rt": 3241, "stimulus": "<p id='stroop-text' class='stroop-blue'>YELLOW</p>", "response": "b", "stimulus-type": "incongruent", "word": "yellow", "color": "blue", "correct_response": "b", "trial_id": "stroop-trial-1-incongruent-14", "trial_type": "html-keyboard-response", "trial_index": 95, "time_elapsed": 207505, "internal_node_id": "0.0-6.0-0.0"}}, {"uniqueid": "w35948048:a20642870", "current_trial": 96, "dateTime": 1664555295344, "trialdata": {"rt": 852, "stimulus": "<p id='stroop-text' class='stroop-yellow'>YELLOW</p>", "response": "y", "stimulus-type": "congruent", "word": "yellow", "color": "yellow", "correct_response": "y", "trial_id": "stroop-trial-1-congruent-30", "trial_type": "html-keyboard-response", "trial_index": 96, "time_elapsed": 208871, "internal_node_id": "0.0-6.0-1.0"}}, {"uniqueid": "w35948048:a20642870", "current_trial": 97, "dateTime": 1664555298643, "trialdata": {"rt": 2795, "stimulus": "<p id='stroop-text' class='stroop-green'>CHAIR</p>", "response": "g", "stimulus-type": "unrelated", "word": "CHAIR", "color": "green", "correct_response": "g", "trial_id": "stroop-trial-1-unrelated-21", "trial_type": "html-keyboard-response", "trial_index": 97, "time_elapsed": 212170, "internal_node_id": "0.0-6.0-2.0"}}, {"uniqueid": "w35948048:a20642870", "current_trial": 98, "dateTime": 1664555300062, "trialdata": {"rt": 910, "stimulus": "<p id='stroop-text' class='stroop-blue'>BLUE</p>", "response": "b", "stimulus-type": "congruent", "word": "blue", "color": "blue", "correct_response": "b", "trial_id": "stroop-trial-1-congruent-8", "trial_type": "html-keyboard-response", "trial_index": 98, "time_elapsed": 213590, "internal_node_id": "0.0-6.0-3.0"}}, {"uniqueid": "w35948048:a20642870", "current_trial": 99, "dateTime": 1664555301943, "trialdata": {"rt": 1364, "stimulus": "<p id='stroop-text' class='stroop-red'>RED</p>", "response": "r", "stimulus-type": "congruent", "word": "red", "color": "red", "correct_response": "r", "trial_id": "stroop-trial-1-congruent-6", "trial_type": "html-keyboard-response", "trial_index": 99, "time_elapsed": 215471, "internal_node_id": "0.0-6.0-4.0"}}, {"uniqueid": "w35948048:a20642870", "current_trial": 100, "dateTime": 1664555303723, "trialdata": {"rt": 1273, "stimulus": "<p id='stroop-text' class='stroop-blue'>DOG</p>", "response": "b", "stimulus-type": "unrelated", "word": "DOG", "color": "blue", "correct_response": "b", "trial_id": "stroop-trial-1-unrelated-26", "trial_type": "html-keyboard-response", "trial_index": 100, "time_elapsed": 217250, "internal_node_id": "0.0-6.0-5.0"}}, {"uniqueid": "w35948048:a20642870", "current_trial": 101, "dateTime": 1664555304818, "trialdata": {"rt": 582, "stimulus": "<p id='stroop-text' class='stroop-green'>GREEN</p>", "response": "g", "stimulus-type": "congruent", "word": "green", "color": "green", "correct_response": "g", "trial_id": "stroop-trial-1-congruent-9", "trial_type": "html-keyboard-response", "trial_index": 101, "time_elapsed": 218345, "internal_node_id": "0.0-6.0-6.0"}}, {"uniqueid": "w35948048:a20642870", "current_trial": 102, "dateTime": 1664555305959, "trialdata": {"rt": 637, "stimulus": "<p id='stroop-text' class='stroop-yellow'>RED</p>", "response": "y", "stimulus-type": "incongruent", "word": "red", "color": "yellow", "correct_response": "y", "trial_id": "stroop-trial-1-incongruent-17", "trial_type": "html-keyboard-response", "trial_index": 102, "time_elapsed": 219486, "internal_node_id": "0.0-6.0-7.0"}}, {"uniqueid": "w35948048:a20642870", "current_trial": 103, "dateTime": 1664555307130, "trialdata": {"rt": 661, "stimulus": "<p id='stroop-text' class='stroop-yellow'>BRAIN</p>", "response": "y", "stimulus-type": "unrelated", "word": "BRAIN", "color": "yellow", "correct_response": "y", "trial_id": "stroop-trial-1-unrelated-8", "trial_type": "html-keyboard-response", "trial_index": 103, "time_elapsed": 220657, "internal_node_id": "0.0-6.0-8.0"}}, {"uniqueid": "w35948048:a20642870", "current_trial": 104, "dateTime": 1664555308356, "trialdata": {"rt": 713, "stimulus": "<p id='stroop-text' class='stroop-green'>GREEN</p>", "response": "g", "stimulus-type": "congruent", "word": "green", "color": "green", "correct_response": "g", "trial_id": "stroop-trial-1-congruent-18", "trial_type": "html-keyboard-response", "trial_index": 104, "time_elapsed": 221883, "internal_node_id": "0.0-6.0-9.0"}}, {"uniqueid": "w35948048:a20642870", "current_trial": 105, "dateTime": 1664555309616, "trialdata": {"rt": 740, "stimulus": "<p id='stroop-text' class='stroop-blue'>BLUE</p>", "response": "b", "stimulus-type": "congruent", "word": "blue", "color": "blue", "correct_response": "b", "trial_id": "stroop-trial-1-congruent-28", "trial_type": "html-keyboard-response", "trial_index": 105, "time_elapsed": 223143, "internal_node_id": "0.0-6.0-10.0"}}, {"uniqueid": "w35948048:a20642870", "current_trial": 106, "dateTime": 1664555310687, "trialdata": {"rt": 561, "stimulus": "<p id='stroop-text' class='stroop-yellow'>BLUE</p>", "response": "y", "stimulus-type": "incongruent", "word": "blue", "color": "yellow", "correct_response": "y", "trial_id": "stroop-trial-1-incongruent-21", "trial_type": "html-keyboard-response", "trial_index": 106, "time_elapsed": 224214, "internal_node_id": "0.0-6.0-11.0"}}, {"uniqueid": "w35948048:a20642870", "current_trial": 107, "dateTime": 1664555312223, "trialdata": {"rt": 1026, "stimulus": "<p id='stroop-text' class='stroop-blue'>BLUE</p>", "response": "b", "stimulus-type": "congruent", "word": "blue", "color": "blue", "correct_response": "b", "trial_id": "stroop-trial-1-congruent-27", "trial_type": "html-keyboard-response", "trial_index": 107, "time_elapsed": 225750, "internal_node_id": "0.0-6.0-12.0"}}, {"uniqueid": "w35948048:a20642870", "current_trial": 108, "dateTime": 1664555313406, "trialdata": {"rt": 676, "stimulus": "<p id='stroop-text' class='stroop-yellow'>BLUE</p>", "response": "y", "stimulus-type": "incongruent", "word": "blue", "color": "yellow", "correct_response": "y", "trial_id": "stroop-trial-1-incongruent-4", "trial_type": "html-keyboard-response", "trial_index": 108, "time_elapsed": 226933, "internal_node_id": "0.0-6.0-13.0"}}, {"uniqueid": "w35948048:a20642870", "current_trial": 109, "dateTime": 1664555314725, "trialdata": {"rt": 806, "stimulus": "<p id='stroop-text' class='stroop-yellow'>YELLOW</p>", "response": "y", "stimulus-type": "congruent", "word": "yellow", "color": "yellow", "correct_response": "y", "trial_id": "stroop-trial-1-congruent-7", "trial_type": "html-keyboard-response", "trial_index": 109, "time_elapsed": 228253, "internal_node_id": "0.0-6.0-14.0"}}, {"uniqueid": "w35948048:a20642870", "current_trial": 110, "dateTime": 1664555315870, "trialdata": {"rt": 640, "stimulus": "<p id='stroop-text' class='stroop-yellow'>BLUE</p>", "response": "y", "stimulus-type": "incongruent", "word": "blue", "color": "yellow", "correct_response": "y", "trial_id": "stroop-trial-1-incongruent-12", "trial_type": "html-keyboard-response", "trial_index": 110, "time_elapsed": 229397, "internal_node_id": "0.0-6.0-15.0"}}, {"uniqueid": "w35948048:a20642870", "current_trial": 111, "dateTime": 1664555316924, "trialdata": {"rt": 545, "stimulus": "<p id='stroop-text' class='stroop-yellow'>YELLOW</p>", "response": "y", "stimulus-type": "congruent", "word": "yellow", "color": "yellow", "correct_response": "y", "trial_id": "stroop-trial-1-congruent-14", "trial_type": "html-keyboard-response", "trial_index": 111, "time_elapsed": 230452, "internal_node_id": "0.0-6.0-16.0"}}, {"uniqueid": "w35948048:a20642870", "current_trial": 112, "dateTime": 1664555318298, "trialdata": {"rt": 869, "stimulus": "<p id='stroop-text' class='stroop-red'>BRIDGE</p>", "response": "r", "stimulus-type": "unrelated", "word": "BRIDGE", "color": "red", "correct_response": "r", "trial_id": "stroop-trial-1-unrelated-20", "trial_type": "html-keyboard-response", "trial_index": 112, "time_elapsed": 231825, "internal_node_id": "0.0-6.0-17.0"}}, {"uniqueid": "w35948048:a20642870", "current_trial": 113, "dateTime": 1664555319717, "trialdata": {"rt": 908, "stimulus": "<p id='stroop-text' class='stroop-green'>RED</p>", "response": "g", "stimulus-type": "incongruent", "word": "red", "color": "green", "correct_response": "g", "trial_id": "stroop-trial-1-incongruent-29", "trial_type": "html-keyboard-response", "trial_index": 113, "time_elapsed": 233244, "internal_node_id": "0.0-6.0-18.0"}}, {"uniqueid": "w35948048:a20642870", "current_trial": 114, "dateTime": 1664555320865, "trialdata": {"rt": 636, "stimulus": "<p id='stroop-text' class='stroop-yellow'>BLUE</p>", "response": "y", "stimulus-type": "incongruent", "word": "blue", "color": "yellow", "correct_response": "y", "trial_id": "stroop-trial-1-incongruent-19", "trial_type": "html-keyboard-response", "trial_index": 114, "time_elapsed": 234392, "internal_node_id": "0.0-6.0-19.0"}}, {"uniqueid": "w35948048:a20642870", "current_trial": 115, "dateTime": 1664555322152, "trialdata": {"rt": 774, "stimulus": "<p id='stroop-text' class='stroop-blue'>RED</p>", "response": "b", "stimulus-type": "incongruent", "word": "red", "color": "blue", "correct_response": "b", "trial_id": "stroop-trial-1-incongruent-24", "trial_type": "html-keyboard-response", "trial_index": 115, "time_elapsed": 235678, "internal_node_id": "0.0-6.0-20.0"}}, {"uniqueid": "w35948048:a20642870", "current_trial": 116, "dateTime": 1664555325098, "trialdata": {"rt": 2439, "stimulus": "<p id='stroop-text' class='stroop-red'>FORK</p>", "response": "r", "stimulus-type": "unrelated", "word": "FORK", "color": "red", "correct_response": "r", "trial_id": "stroop-trial-1-unrelated-1", "trial_type": "html-keyboard-response", "trial_index": 116, "time_elapsed": 238625, "internal_node_id": "0.0-6.0-21.0"}}, {"uniqueid": "w35948048:a20642870", "current_trial": 117, "dateTime": 1664555326283, "trialdata": {"rt": 673, "stimulus": "<p id='stroop-text' class='stroop-red'>STONE</p>", "response": "r", "stimulus-type": "unrelated", "word": "STONE", "color": "red", "correct_response": "r", "trial_id": "stroop-trial-1-unrelated-4", "trial_type": "html-keyboard-response", "trial_index": 117, "time_elapsed": 239810, "internal_node_id": "0.0-6.0-22.0"}}, {"uniqueid": "w35948048:a20642870", "current_trial": 118, "dateTime": 1664555327741, "trialdata": {"rt": 949, "stimulus": "<p id='stroop-text' class='stroop-blue'>FORK</p>", "response": "b", "stimulus-type": "unrelated", "word": "FORK", "color": "blue", "correct_response": "b", "trial_id": "stroop-trial-1-unrelated-14", "trial_type": "html-keyboard-response", "trial_index": 118, "time_elapsed": 241268, "internal_node_id": "0.0-6.0-23.0"}}, {"uniqueid": "w35948048:a20642870", "current_trial": 119, "dateTime": 1664555328997, "trialdata": {"rt": 738, "stimulus": "<p id='stroop-text' class='stroop-red'>STONE</p>", "response": "b", "stimulus-type": "unrelated", "word": "STONE", "color": "red", "correct_response": "r", "trial_id": "stroop-trial-1-unrelated-3", "trial_type": "html-keyboard-response", "trial_index": 119, "time_elapsed": 242524, "internal_node_id": "0.0-6.0-24.0"}}, {"uniqueid": "w35948048:a20642870", "current_trial": 120, "dateTime": 1664555331410, "trialdata": {"rt": 1900, "stimulus": "<p id='stroop-text' class='stroop-yellow'>YELLOW</p>", "response": "y", "stimulus-type": "congruent", "word": "yellow", "color": "yellow", "correct_response": "y", "trial_id": "stroop-trial-1-congruent-29", "trial_type": "html-keyboard-response", "trial_index": 120, "time_elapsed": 244937, "internal_node_id": "0.0-6.0-25.0"}}, {"uniqueid": "w35948048:a20642870", "current_trial": 121, "dateTime": 1664555333451, "trialdata": {"rt": 1532, "stimulus": "<p id='stroop-text' class='stroop-blue'>SHIP</p>", "response": "b", "stimulus-type": "unrelated", "word": "SHIP", "color": "blue", "correct_response": "b", "trial_id": "stroop-trial-1-unrelated-25", "trial_type": "html-keyboard-response", "trial_index": 121, "time_elapsed": 246978, "internal_node_id": "0.0-6.0-26.0"}}, {"uniqueid": "w35948048:a20642870", "current_trial": 122, "dateTime": 1664555334735, "trialdata": {"rt": 776, "stimulus": "<p id='stroop-text' class='stroop-blue'>BOAT</p>", "response": "b", "stimulus-type": "unrelated", "word": "BOAT", "color": "blue", "correct_response": "b", "trial_id": "stroop-trial-1-unrelated-28", "trial_type": "html-keyboard-response", "trial_index": 122, "time_elapsed": 248263, "internal_node_id": "0.0-6.0-27.0"}}, {"uniqueid": "w35948048:a20642870", "current_trial": 123, "dateTime": 1664555335906, "trialdata": {"rt": 657, "stimulus": "<p id='stroop-text' class='stroop-blue'>FORK</p>", "response": "b", "stimulus-type": "unrelated", "word": "FORK", "color": "blue", "correct_response": "b", "trial_id": "stroop-trial-1-unrelated-23", "trial_type": "html-keyboard-response", "trial_index": 123, "time_elapsed": 249433, "internal_node_id": "0.0-6.0-28.0"}}, {"uniqueid": "w35948048:a20642870", "current_trial": 124, "dateTime": 1664555337152, "trialdata": {"rt": 734, "stimulus": "<p id='stroop-text' class='stroop-yellow'>CHAIR</p>", "response": "y", "stimulus-type": "unrelated", "word": "CHAIR", "color": "yellow", "correct_response": "y", "trial_id": "stroop-trial-1-unrelated-6", "trial_type": "html-keyboard-response", "trial_index": 124, "time_elapsed": 250680, "internal_node_id": "0.0-6.0-29.0"}}, {"uniqueid": "w35948048:a20642870", "current_trial": 125, "dateTime": 1664555338639, "trialdata": {"rt": 973, "stimulus": "<p id='stroop-text' class='stroop-yellow'>YELLOW</p>", "response": "y", "stimulus-type": "congruent", "word": "yellow", "color": "yellow", "correct_response": "y", "trial_id": "stroop-trial-1-congruent-21", "trial_type": "html-keyboard-response", "trial_index": 125, "time_elapsed": 252166, "internal_node_id": "0.0-6.0-30.0"}}, {"uniqueid": "w35948048:a20642870", "current_trial": 126, "dateTime": 1664555339753, "trialdata": {"rt": 605, "stimulus": "<p id='stroop-text' class='stroop-yellow'>YELLOW</p>", "response": "y", "stimulus-type": "congruent", "word": "yellow", "color": "yellow", "correct_response": "y", "trial_id": "stroop-trial-1-congruent-13", "trial_type": "html-keyboard-response", "trial_index": 126, "time_elapsed": 253281, "internal_node_id": "0.0-6.0-31.0"}}, {"uniqueid": "w35948048:a20642870", "current_trial": 127, "dateTime": 1664555342717, "trialdata": {"rt": 2457, "stimulus": "<p id='stroop-text' class='stroop-red'>YELLOW</p>", "response": "r", "stimulus-type": "incongruent", "word": "yellow", "color": "red", "correct_response": "r", "trial_id": "stroop-trial-1-incongruent-10", "trial_type": "html-keyboard-response", "trial_index": 127, "time_elapsed": 256245, "internal_node_id": "0.0-6.0-32.0"}}, {"uniqueid": "w35948048:a20642870", "current_trial": 128, "dateTime": 1664555344032, "trialdata": {"rt": 806, "stimulus": "<p id='stroop-text' class='stroop-blue'>BLUE</p>", "response": "b", "stimulus-type": "congruent", "word": "blue", "color": "blue", "correct_response": "b", "trial_id": "stroop-trial-1-congruent-11", "trial_type": "html-keyboard-response", "trial_index": 128, "time_elapsed": 257560, "internal_node_id": "0.0-6.0-33.0"}}, {"uniqueid": "w35948048:a20642870", "current_trial": 129, "dateTime": 1664555345231, "trialdata": {"rt": 694, "stimulus": "<p id='stroop-text' class='stroop-green'>DOG</p>", "response": "g", "stimulus-type": "unrelated", "word": "DOG", "color": "green", "correct_response": "g", "trial_id": "stroop-trial-1-unrelated-17", "trial_type": "html-keyboard-response", "trial_index": 129, "time_elapsed": 258758, "internal_node_id": "0.0-6.0-34.0"}}, {"uniqueid": "w35948048:a20642870", "current_trial": 130, "dateTime": 1664555346403, "trialdata": {"rt": 658, "stimulus": "<p id='stroop-text' class='stroop-yellow'>FORK</p>", "response": "y", "stimulus-type": "unrelated", "word": "FORK", "color": "yellow", "correct_response": "y", "trial_id": "stroop-trial-1-unrelated-12", "trial_type": "html-keyboard-response", "trial_index": 130, "time_elapsed": 259930, "internal_node_id": "0.0-6.0-35.0"}}, {"uniqueid": "w35948048:a20642870", "current_trial": 131, "dateTime": 1664555348420, "trialdata": {"rt": 1506, "stimulus": "<p id='stroop-text' class='stroop-green'>BOAT</p>", "response": "g", "stimulus-type": "unrelated", "word": "BOAT", "color": "green", "correct_response": "g", "trial_id": "stroop-trial-1-unrelated-9", "trial_type": "html-keyboard-response", "trial_index": 131, "time_elapsed": 261947, "internal_node_id": "0.0-6.0-36.0"}}, {"uniqueid": "w35948048:a20642870", "current_trial": 132, "dateTime": 1664555350894, "trialdata": {"rt": 1962, "stimulus": "<p id='stroop-text' class='stroop-blue'>BRAIN</p>", "response": "b", "stimulus-type": "unrelated", "word": "BRAIN", "color": "blue", "correct_response": "b", "trial_id": "stroop-trial-1-unrelated-13", "trial_type": "html-keyboard-response", "trial_index": 132, "time_elapsed": 264422, "internal_node_id": "0.0-6.0-37.0"}}, {"uniqueid": "w35948048:a20642870", "current_trial": 133, "dateTime": 1664555352682, "trialdata": {"rt": 1275, "stimulus": "<p id='stroop-text' class='stroop-yellow'>BLUE</p>", "response": "y", "stimulus-type": "incongruent", "word": "blue", "color": "yellow", "correct_response": "y", "trial_id": "stroop-trial-1-incongruent-18", "trial_type": "html-keyboard-response", "trial_index": 133, "time_elapsed": 266210, "internal_node_id": "0.0-6.0-38.0"}}, {"uniqueid": "w35948048:a20642870", "current_trial": 134, "dateTime": 1664555354610, "trialdata": {"rt": 1413, "stimulus": "<p id='stroop-text' class='stroop-blue'>BLUE</p>", "response": "b", "stimulus-type": "congruent", "word": "blue", "color": "blue", "correct_response": "b", "trial_id": "stroop-trial-1-congruent-12", "trial_type": "html-keyboard-response", "trial_index": 134, "time_elapsed": 268137, "internal_node_id": "0.0-6.0-39.0"}}, {"uniqueid": "w35948048:a20642870", "current_trial": 135, "dateTime": 1664555355836, "trialdata": {"rt": 713, "stimulus": "<p id='stroop-text' class='stroop-yellow'>YELLOW</p>", "response": "y", "stimulus-type": "congruent", "word": "yellow", "color": "yellow", "correct_response": "y", "trial_id": "stroop-trial-1-congruent-3", "trial_type": "html-keyboard-response", "trial_index": 135, "time_elapsed": 269364, "internal_node_id": "0.0-6.0-40.0"}}, {"uniqueid": "w35948048:a20642870", "current_trial": 136, "dateTime": 1664555357014, "trialdata": {"rt": 671, "stimulus": "<p id='stroop-text' class='stroop-red'>BOTTLE</p>", "response": "r", "stimulus-type": "unrelated", "word": "BOTTLE", "color": "red", "correct_response": "r", "trial_id": "stroop-trial-1-unrelated-30", "trial_type": "html-keyboard-response", "trial_index": 136, "time_elapsed": 270541, "internal_node_id": "0.0-6.0-41.0"}}, {"uniqueid": "w35948048:a20642870", "current_trial": 137, "dateTime": 1664555358464, "trialdata": {"rt": 941, "stimulus": "<p id='stroop-text' class='stroop-blue'>GREEN</p>", "response": "b", "stimulus-type": "incongruent", "word": "green", "color": "blue", "correct_response": "b", "trial_id": "stroop-trial-1-incongruent-8", "trial_type": "html-keyboard-response", "trial_index": 137, "time_elapsed": 271991, "internal_node_id": "0.0-6.0-42.0"}}, {"uniqueid": "w35948048:a20642870", "current_trial": 138, "dateTime": 1664555360120, "trialdata": {"rt": 1151, "stimulus": "<p id='stroop-text' class='stroop-blue'>RED</p>", "response": "b", "stimulus-type": "incongruent", "word": "red", "color": "blue", "correct_response": "b", "trial_id": "stroop-trial-1-incongruent-1", "trial_type": "html-keyboard-response", "trial_index": 138, "time_elapsed": 273648, "internal_node_id": "0.0-6.0-43.0"}}, {"uniqueid": "w35948048:a20642870", "current_trial": 139, "dateTime": 1664555361588, "trialdata": {"rt": 961, "stimulus": "<p id='stroop-text' class='stroop-yellow'>BOTTLE</p>", "response": "y", "stimulus-type": "unrelated", "word": "BOTTLE", "color": "yellow", "correct_response": "y", "trial_id": "stroop-trial-1-unrelated-29", "trial_type": "html-keyboard-response", "trial_index": 139, "time_elapsed": 275116, "internal_node_id": "0.0-6.0-44.0"}}, {"uniqueid": "w35948048:a20642870", "current_trial": 140, "dateTime": 1664555362764, "trialdata": {"rt": 666, "stimulus": "<p id='stroop-text' class='stroop-yellow'>YELLOW</p>", "response": "y", "stimulus-type": "congruent", "word": "yellow", "color": "yellow", "correct_response": "y", "trial_id": "stroop-trial-1-congruent-23", "trial_type": "html-keyboard-response", "trial_index": 140, "time_elapsed": 276291, "internal_node_id": "0.0-6.0-45.0"}}, {"uniqueid": "w35948048:a20642870", "current_trial": 141, "dateTime": 1664555364295, "trialdata": {"rt": 1019, "stimulus": "<p id='stroop-text' class='stroop-red'>RED</p>", "response": "r", "stimulus-type": "congruent", "word": "red", "color": "red", "correct_response": "r", "trial_id": "stroop-trial-1-congruent-26", "trial_type": "html-keyboard-response", "trial_index": 141, "time_elapsed": 277823, "internal_node_id": "0.0-6.0-46.0"}}, {"uniqueid": "w35948048:a20642870", "current_trial": 142, "dateTime": 1664555366001, "trialdata": {"rt": 1199, "stimulus": "<p id='stroop-text' class='stroop-blue'>GREEN</p>", "response": "b", "stimulus-type": "incongruent", "word": "green", "color": "blue", "correct_response": "b", "trial_id": "stroop-trial-1-incongruent-22", "trial_type": "html-keyboard-response", "trial_index": 142, "time_elapsed": 279528, "internal_node_id": "0.0-6.0-47.0"}}, {"uniqueid": "w35948048:a20642870", "current_trial": 143, "dateTime": 1664555367360, "trialdata": {"rt": 847, "stimulus": "<p id='stroop-text' class='stroop-yellow'>BLUE</p>", "response": "y", "stimulus-type": "incongruent", "word": "blue", "color": "yellow", "correct_response": "y", "trial_id": "stroop-trial-1-incongruent-16", "trial_type": "html-keyboard-response", "trial_index": 143, "time_elapsed": 280887, "internal_node_id": "0.0-6.0-48.0"}}, {"uniqueid": "w35948048:a20642870", "current_trial": 144, "dateTime": 1664555369177, "trialdata": {"rt": 1295, "stimulus": "<p id='stroop-text' class='stroop-blue'>BLUE</p>", "response": "b", "stimulus-type": "congruent", "word": "blue", "color": "blue", "correct_response": "b", "trial_id": "stroop-trial-1-congruent-4", "trial_type": "html-keyboard-response", "trial_index": 144, "time_elapsed": 282705, "internal_node_id": "0.0-6.0-49.0"}}, {"uniqueid": "w35948048:a20642870", "current_trial": 145, "dateTime": 1664555370404, "trialdata": {"rt": 708, "stimulus": "<p id='stroop-text' class='stroop-yellow'>MONKEY</p>", "response": "y", "stimulus-type": "unrelated", "word": "MONKEY", "color": "yellow", "correct_response": "y", "trial_id": "stroop-trial-1-unrelated-10", "trial_type": "html-keyboard-response", "trial_index": 145, "time_elapsed": 283932, "internal_node_id": "0.0-6.0-50.0"}}, {"uniqueid": "w35948048:a20642870", "current_trial": 146, "dateTime": 1664555372180, "trialdata": {"rt": 1268, "stimulus": "<p id='stroop-text' class='stroop-blue'>RED</p>", "response": "b", "stimulus-type": "incongruent", "word": "red", "color": "blue", "correct_response": "b", "trial_id": "stroop-trial-1-incongruent-25", "trial_type": "html-keyboard-response", "trial_index": 146, "time_elapsed": 285707, "internal_node_id": "0.0-6.0-51.0"}}, {"uniqueid": "w35948048:a20642870", "current_trial": 147, "dateTime": 1664555373891, "trialdata": {"rt": 1197, "stimulus": "<p id='stroop-text' class='stroop-green'>GREEN</p>", "response": "g", "stimulus-type": "congruent", "word": "green", "color": "green", "correct_response": "g", "trial_id": "stroop-trial-1-congruent-17", "trial_type": "html-keyboard-response", "trial_index": 147, "time_elapsed": 287419, "internal_node_id": "0.0-6.0-52.0"}}, {"uniqueid": "w35948048:a20642870", "current_trial": 148, "dateTime": 1664555375297, "trialdata": {"rt": 901, "stimulus": "<p id='stroop-text' class='stroop-blue'>YELLOW</p>", "response": "b", "stimulus-type": "incongruent", "word": "yellow", "color": "blue", "correct_response": "b", "trial_id": "stroop-trial-1-incongruent-5", "trial_type": "html-keyboard-response", "trial_index": 148, "time_elapsed": 288824, "internal_node_id": "0.0-6.0-53.0"}}, {"uniqueid": "w35948048:a20642870", "current_trial": 149, "dateTime": 1664555376776, "trialdata": {"rt": 973, "stimulus": "<p id='stroop-text' class='stroop-red'>RED</p>", "response": "r", "stimulus-type": "congruent", "word": "red", "color": "red", "correct_response": "r", "trial_id": "stroop-trial-1-congruent-24", "trial_type": "html-keyboard-response", "trial_index": 149, "time_elapsed": 290304, "internal_node_id": "0.0-6.0-54.0"}}, {"uniqueid": "w35948048:a20642870", "current_trial": 150, "dateTime": 1664555378405, "trialdata": {"rt": 1111, "stimulus": "<p id='stroop-text' class='stroop-blue'>BOAT</p>", "response": "b", "stimulus-type": "unrelated", "word": "BOAT", "color": "blue", "correct_response": "b", "trial_id": "stroop-trial-1-unrelated-24", "trial_type": "html-keyboard-response", "trial_index": 150, "time_elapsed": 291932, "internal_node_id": "0.0-6.0-55.0"}}, {"uniqueid": "w35948048:a20642870", "current_trial": 151, "dateTime": 1664555379744, "trialdata": {"rt": 830, "stimulus": "<p id='stroop-text' class='stroop-green'>BRAIN</p>", "response": "g", "stimulus-type": "unrelated", "word": "BRAIN", "color": "green", "correct_response": "g", "trial_id": "stroop-trial-1-unrelated-11", "trial_type": "html-keyboard-response", "trial_index": 151, "time_elapsed": 293272, "internal_node_id": "0.0-6.0-56.0"}}, {"uniqueid": "w35948048:a20642870", "current_trial": 152, "dateTime": 1664555382019, "trialdata": {"rt": 1765, "stimulus": "<p id='stroop-text' class='stroop-blue'>BLUE</p>", "response": "b", "stimulus-type": "congruent", "word": "blue", "color": "blue", "correct_response": "b", "trial_id": "stroop-trial-1-congruent-2", "trial_type": "html-keyboard-response", "trial_index": 152, "time_elapsed": 295546, "internal_node_id": "0.0-6.0-57.0"}}, {"uniqueid": "w35948048:a20642870", "current_trial": 153, "dateTime": 1664555383285, "trialdata": {"rt": 760, "stimulus": "<p id='stroop-text' class='stroop-blue'>DOG</p>", "response": "b", "stimulus-type": "unrelated", "word": "DOG", "color": "blue", "correct_response": "b", "trial_id": "stroop-trial-1-unrelated-22", "trial_type": "html-keyboard-response", "trial_index": 153, "time_elapsed": 296812, "internal_node_id": "0.0-6.0-58.0"}}, {"uniqueid": "w35948048:a20642870", "current_trial": 154, "dateTime": 1664555384484, "trialdata": {"rt": 687, "stimulus": "<p id='stroop-text' class='stroop-blue'>GREEN</p>", "response": "b", "stimulus-type": "incongruent", "word": "green", "color": "blue", "correct_response": "b", "trial_id": "stroop-trial-1-incongruent-6", "trial_type": "html-keyboard-response", "trial_index": 154, "time_elapsed": 298011, "internal_node_id": "0.0-6.0-59.0"}}, {"uniqueid": "w35948048:a20642870", "current_trial": 155, "dateTime": 1664555385658, "trialdata": {"rt": 661, "stimulus": "<p id='stroop-text' class='stroop-blue'>MONKEY</p>", "response": "b", "stimulus-type": "unrelated", "word": "MONKEY", "color": "blue", "correct_response": "b", "trial_id": "stroop-trial-1-unrelated-18", "trial_type": "html-keyboard-response", "trial_index": 155, "time_elapsed": 299186, "internal_node_id": "0.0-6.0-60.0"}}, {"uniqueid": "w35948048:a20642870", "current_trial": 156, "dateTime": 1664555387006, "trialdata": {"rt": 842, "stimulus": "<p id='stroop-text' class='stroop-red'>RED</p>", "response": "r", "stimulus-type": "congruent", "word": "red", "color": "red", "correct_response": "r", "trial_id": "stroop-trial-1-congruent-22", "trial_type": "html-keyboard-response", "trial_index": 156, "time_elapsed": 300533, "internal_node_id": "0.0-6.0-61.0"}}, {"uniqueid": "w35948048:a20642870", "current_trial": 157, "dateTime": 1664555388176, "trialdata": {"rt": 656, "stimulus": "<p id='stroop-text' class='stroop-yellow'>RED</p>", "response": "y", "stimulus-type": "incongruent", "word": "red", "color": "yellow", "correct_response": "y", "trial_id": "stroop-trial-1-incongruent-3", "trial_type": "html-keyboard-response", "trial_index": 157, "time_elapsed": 301703, "internal_node_id": "0.0-6.0-62.0"}}, {"uniqueid": "w35948048:a20642870", "current_trial": 158, "dateTime": 1664555389352, "trialdata": {"rt": 669, "stimulus": "<p id='stroop-text' class='stroop-yellow'>BLUE</p>", "response": "y", "stimulus-type": "incongruent", "word": "blue", "color": "yellow", "correct_response": "y", "trial_id": "stroop-trial-1-incongruent-9", "trial_type": "html-keyboard-response", "trial_index": 158, "time_elapsed": 302880, "internal_node_id": "0.0-6.0-63.0"}}, {"uniqueid": "w35948048:a20642870", "current_trial": 159, "dateTime": 1664555390584, "trialdata": {"rt": 725, "stimulus": "<p id='stroop-text' class='stroop-yellow'>BLUE</p>", "response": "y", "stimulus-type": "incongruent", "word": "blue", "color": "yellow", "correct_response": "y", "trial_id": "stroop-trial-1-incongruent-27", "trial_type": "html-keyboard-response", "trial_index": 159, "time_elapsed": 304111, "internal_node_id": "0.0-6.0-64.0"}}, {"uniqueid": "w35948048:a20642870", "current_trial": 160, "dateTime": 1664555391886, "trialdata": {"rt": 793, "stimulus": "<p id='stroop-text' class='stroop-red'>YELLOW</p>", "response": "r", "stimulus-type": "incongruent", "word": "yellow", "color": "red", "correct_response": "r", "trial_id": "stroop-trial-1-incongruent-13", "trial_type": "html-keyboard-response", "trial_index": 160, "time_elapsed": 305413, "internal_node_id": "0.0-6.0-65.0"}}, {"uniqueid": "w35948048:a20642870", "current_trial": 161, "dateTime": 1664555393111, "trialdata": {"rt": 713, "stimulus": "<p id='stroop-text' class='stroop-yellow'>RED</p>", "response": "y", "stimulus-type": "incongruent", "word": "red", "color": "yellow", "correct_response": "y", "trial_id": "stroop-trial-1-incongruent-20", "trial_type": "html-keyboard-response", "trial_index": 161, "time_elapsed": 306639, "internal_node_id": "0.0-6.0-66.0"}}, {"uniqueid": "w35948048:a20642870", "current_trial": 162, "dateTime": 1664555394687, "trialdata": {"rt": 1067, "stimulus": "<p id='stroop-text' class='stroop-red'>RED</p>", "response": "r", "stimulus-type": "congruent", "word": "red", "color": "red", "correct_response": "r", "trial_id": "stroop-trial-1-congruent-15", "trial_type": "html-keyboard-response", "trial_index": 162, "time_elapsed": 308215, "internal_node_id": "0.0-6.0-67.0"}}, {"uniqueid": "w35948048:a20642870", "current_trial": 163, "dateTime": 1664555396046, "trialdata": {"rt": 848, "stimulus": "<p id='stroop-text' class='stroop-red'>BLUE</p>", "response": "r", "stimulus-type": "incongruent", "word": "blue", "color": "red", "correct_response": "r", "trial_id": "stroop-trial-1-incongruent-30", "trial_type": "html-keyboard-response", "trial_index": 163, "time_elapsed": 309573, "internal_node_id": "0.0-6.0-68.0"}}, {"uniqueid": "w35948048:a20642870", "current_trial": 164, "dateTime": 1664555397860, "trialdata": {"rt": 1307, "stimulus": "<p id='stroop-text' class='stroop-yellow'>RED</p>", "response": "y", "stimulus-type": "incongruent", "word": "red", "color": "yellow", "correct_response": "y", "trial_id": "stroop-trial-1-incongruent-2", "trial_type": "html-keyboard-response", "trial_index": 164, "time_elapsed": 311388, "internal_node_id": "0.0-6.0-69.0"}}, {"uniqueid": "w35948048:a20642870", "current_trial": 165, "dateTime": 1664555398992, "trialdata": {"rt": 622, "stimulus": "<p id='stroop-text' class='stroop-yellow'>BLUE</p>", "response": "y", "stimulus-type": "incongruent", "word": "blue", "color": "yellow", "correct_response": "y", "trial_id": "stroop-trial-1-incongruent-23", "trial_type": "html-keyboard-response", "trial_index": 165, "time_elapsed": 312520, "internal_node_id": "0.0-6.0-70.0"}}, {"uniqueid": "w35948048:a20642870", "current_trial": 166, "dateTime": 1664555400224, "trialdata": {"rt": 714, "stimulus": "<p id='stroop-text' class='stroop-yellow'>RED</p>", "response": "y", "stimulus-type": "incongruent", "word": "red", "color": "yellow", "correct_response": "y", "trial_id": "stroop-trial-1-incongruent-15", "trial_type": "html-keyboard-response", "trial_index": 166, "time_elapsed": 313751, "internal_node_id": "0.0-6.0-71.0"}}, {"uniqueid": "w35948048:a20642870", "current_trial": 167, "dateTime": 1664555401322, "trialdata": {"rt": 588, "stimulus": "<p id='stroop-text' class='stroop-yellow'>SHIP</p>", "response": "y", "stimulus-type": "unrelated", "word": "SHIP", "color": "yellow", "correct_response": "y", "trial_id": "stroop-trial-1-unrelated-27", "trial_type": "html-keyboard-response", "trial_index": 167, "time_elapsed": 314850, "internal_node_id": "0.0-6.0-72.0"}}, {"uniqueid": "w35948048:a20642870", "current_trial": 168, "dateTime": 1664555402397, "trialdata": {"rt": 567, "stimulus": "<p id='stroop-text' class='stroop-yellow'>BLUE</p>", "response": "y", "stimulus-type": "incongruent", "word": "blue", "color": "yellow", "correct_response": "y", "trial_id": "stroop-trial-1-incongruent-7", "trial_type": "html-keyboard-response", "trial_index": 168, "time_elapsed": 315925, "internal_node_id": "0.0-6.0-73.0"}}, {"uniqueid": "w35948048:a20642870", "current_trial": 169, "dateTime": 1664555404198, "trialdata": {"rt": 1293, "stimulus": "<p id='stroop-text' class='stroop-red'>RED</p>", "response": "r", "stimulus-type": "congruent", "word": "red", "color": "red", "correct_response": "r", "trial_id": "stroop-trial-1-congruent-5", "trial_type": "html-keyboard-response", "trial_index": 169, "time_elapsed": 317726, "internal_node_id": "0.0-6.0-74.0"}}, {"uniqueid": "w35948048:a20642870", "current_trial": 170, "dateTime": 1664555405419, "trialdata": {"rt": 709, "stimulus": "<p id='stroop-text' class='stroop-red'>RED</p>", "response": "r", "stimulus-type": "congruent", "word": "red", "color": "red", "correct_response": "r", "trial_id": "stroop-trial-1-congruent-10", "trial_type": "html-keyboard-response", "trial_index": 170, "time_elapsed": 318947, "internal_node_id": "0.0-6.0-75.0"}}, {"uniqueid": "w35948048:a20642870", "current_trial": 171, "dateTime": 1664555406667, "trialdata": {"rt": 736, "stimulus": "<p id='stroop-text' class='stroop-blue'>RED</p>", "response": "b", "stimulus-type": "incongruent", "word": "red", "color": "blue", "correct_response": "b", "trial_id": "stroop-trial-1-incongruent-28", "trial_type": "html-keyboard-response", "trial_index": 171, "time_elapsed": 320195, "internal_node_id": "0.0-6.0-76.0"}}, {"uniqueid": "w35948048:a20642870", "current_trial": 172, "dateTime": 1664555408310, "trialdata": {"rt": 1138, "stimulus": "<p id='stroop-text' class='stroop-yellow'>GREEN</p>", "response": "g", "stimulus-type": "incongruent", "word": "green", "color": "yellow", "correct_response": "y", "trial_id": "stroop-trial-1-incongruent-26", "trial_type": "html-keyboard-response", "trial_index": 172, "time_elapsed": 321837, "internal_node_id": "0.0-6.0-77.0"}}, {"uniqueid": "w35948048:a20642870", "current_trial": 173, "dateTime": 1664555409996, "trialdata": {"rt": 1177, "stimulus": "<p id='stroop-text' class='stroop-red'>FORK</p>", "response": "r", "stimulus-type": "unrelated", "word": "FORK", "color": "red", "correct_response": "r", "trial_id": "stroop-trial-1-unrelated-7", "trial_type": "html-keyboard-response", "trial_index": 173, "time_elapsed": 323523, "internal_node_id": "0.0-6.0-78.0"}}, {"uniqueid": "w35948048:a20642870", "current_trial": 174, "dateTime": 1664555411087, "trialdata": {"rt": 580, "stimulus": "<p id='stroop-text' class='stroop-red'>RED</p>", "response": "r", "stimulus-type": "congruent", "word": "red", "color": "red", "correct_response": "r", "trial_id": "stroop-trial-1-congruent-1", "trial_type": "html-keyboard-response", "trial_index": 174, "time_elapsed": 324615, "internal_node_id": "0.0-6.0-79.0"}}, {"uniqueid": "w35948048:a20642870", "current_trial": 175, "dateTime": 1664555412190, "trialdata": {"rt": 596, "stimulus": "<p id='stroop-text' class='stroop-red'>RED</p>", "response": "r", "stimulus-type": "congruent", "word": "red", "color": "red", "correct_response": "r", "trial_id": "stroop-trial-1-congruent-25", "trial_type": "html-keyboard-response", "trial_index": 175, "time_elapsed": 325717, "internal_node_id": "0.0-6.0-80.0"}}, {"uniqueid": "w35948048:a20642870", "current_trial": 176, "dateTime": 1664555413962, "trialdata": {"rt": 1265, "stimulus": "<p id='stroop-text' class='stroop-red'>CHAIR</p>", "response": "r", "stimulus-type": "unrelated", "word": "CHAIR", "color": "red", "correct_response": "r", "trial_id": "stroop-trial-1-unrelated-2", "trial_type": "html-keyboard-response", "trial_index": 176, "time_elapsed": 327490, "internal_node_id": "0.0-6.0-81.0"}}, {"uniqueid": "w35948048:a20642870", "current_trial": 177, "dateTime": 1664555415408, "trialdata": {"rt": 938, "stimulus": "<p id='stroop-text' class='stroop-green'>MONKEY</p>", "response": "g", "stimulus-type": "unrelated", "word": "MONKEY", "color": "green", "correct_response": "g", "trial_id": "stroop-trial-1-unrelated-5", "trial_type": "html-keyboard-response", "trial_index": 177, "time_elapsed": 328936, "internal_node_id": "0.0-6.0-82.0"}}, {"uniqueid": "w35948048:a20642870", "current_trial": 178, "dateTime": 1664555416691, "trialdata": {"rt": 771, "stimulus": "<p id='stroop-text' class='stroop-green'>STONE</p>", "response": "g", "stimulus-type": "unrelated", "word": "STONE", "color": "green", "correct_response": "g", "trial_id": "stroop-trial-1-unrelated-19", "trial_type": "html-keyboard-response", "trial_index": 178, "time_elapsed": 330219, "internal_node_id": "0.0-6.0-83.0"}}, {"uniqueid": "w35948048:a20642870", "current_trial": 179, "dateTime": 1664555417723, "trialdata": {"rt": 509, "stimulus": "<p id='stroop-text' class='stroop-green'>GREEN</p>", "response": "g", "stimulus-type": "congruent", "word": "green", "color": "green", "correct_response": "g", "trial_id": "stroop-trial-1-congruent-16", "trial_type": "html-keyboard-response", "trial_index": 179, "time_elapsed": 331251, "internal_node_id": "0.0-6.0-84.0"}}, {"uniqueid": "w35948048:a20642870", "current_trial": 180, "dateTime": 1664555418988, "trialdata": {"rt": 756, "stimulus": "<p id='stroop-text' class='stroop-yellow'>BOTTLE</p>", "response": "y", "stimulus-type": "unrelated", "word": "BOTTLE", "color": "yellow", "correct_response": "y", "trial_id": "stroop-trial-1-unrelated-16", "trial_type": "html-keyboard-response", "trial_index": 180, "time_elapsed": 332515, "internal_node_id": "0.0-6.0-85.0"}}, {"uniqueid": "w35948048:a20642870", "current_trial": 181, "dateTime": 1664555420523, "trialdata": {"rt": 1025, "stimulus": "<p id='stroop-text' class='stroop-green'>GREEN</p>", "response": "g", "stimulus-type": "congruent", "word": "green", "color": "green", "correct_response": "g", "trial_id": "stroop-trial-1-congruent-20", "trial_type": "html-keyboard-response", "trial_index": 181, "time_elapsed": 334050, "internal_node_id": "0.0-6.0-86.0"}}, {"uniqueid": "w35948048:a20642870", "current_trial": 182, "dateTime": 1664555421575, "trialdata": {"rt": 543, "stimulus": "<p id='stroop-text' class='stroop-green'>GREEN</p>", "response": "g", "stimulus-type": "congruent", "word": "green", "color": "green", "correct_response": "g", "trial_id": "stroop-trial-1-congruent-19", "trial_type": "html-keyboard-response", "trial_index": 182, "time_elapsed": 335103, "internal_node_id": "0.0-6.0-87.0"}}, {"uniqueid": "w35948048:a20642870", "current_trial": 183, "dateTime": 1664555423409, "trialdata": {"rt": 1322, "stimulus": "<p id='stroop-text' class='stroop-blue'>GREEN</p>", "response": "b", "stimulus-type": "incongruent", "word": "green", "color": "blue", "correct_response": "b", "trial_id": "stroop-trial-1-incongruent-11", "trial_type": "html-keyboard-response", "trial_index": 183, "time_elapsed": 336936, "internal_node_id": "0.0-6.0-88.0"}}, {"uniqueid": "w35948048:a20642870", "current_trial": 184, "dateTime": 1664555425274, "trialdata": {"rt": 1352, "stimulus": "<p id='stroop-text' class='stroop-red'>FORK</p>", "response": "r", "stimulus-type": "unrelated", "word": "FORK", "color": "red", "correct_response": "r", "trial_id": "stroop-trial-1-unrelated-15", "trial_type": "html-keyboard-response", "trial_index": 184, "time_elapsed": 338801, "internal_node_id": "0.0-6.0-89.0"}}, {"uniqueid": "w35948048:a20642870", "current_trial": 185, "dateTime": 1664555452558, "trialdata": {"rt": 26770, "stimulus": "  <h1> End of block! </h1>\n\n  You have reached the end of the block 2/5. If you need a short break, feel free to take one now before moving on.\n\n  <br><br>\n  In the next block, you will complete another 90 rounds of this game.\n\n  <br><br>\n  <div style='text-align: center;'>Press <code>space</code> to begin.</div>\n  <br><br>\n<div style='text-align: center;'>(If the experiment doesn't continue, try clicking on the text and then pressing <code>space</code>.)</div>", "response": " ", "trial_id": "stroop_1_ready_3", "trial_type": "html-keyboard-response", "trial_index": 185, "time_elapsed": 366086, "internal_node_id": "0.0-7.0"}}, {"uniqueid": "w35948048:a20642870", "current_trial": 186, "dateTime": 1664555455125, "trialdata": {"rt": 2564, "stimulus": "<p id='stroop-text' class='stroop-red'>BRAIN</p>", "response": "r", "stimulus-type": "unrelated", "word": "BRAIN", "color": "red", "correct_response": "r", "trial_id": "stroop-trial-1-unrelated-25", "trial_type": "html-keyboard-response", "trial_index": 186, "time_elapsed": 368652, "internal_node_id": "0.0-8.0-0.0"}}, {"uniqueid": "w35948048:a20642870", "current_trial": 187, "dateTime": 1664555456205, "trialdata": {"rt": 572, "stimulus": "<p id='stroop-text' class='stroop-red'>RED</p>", "response": "r", "stimulus-type": "congruent", "word": "red", "color": "red", "correct_response": "r", "trial_id": "stroop-trial-1-congruent-4", "trial_type": "html-keyboard-response", "trial_index": 187, "time_elapsed": 369732, "internal_node_id": "0.0-8.0-1.0"}}, {"uniqueid": "w35948048:a20642870", "current_trial": 188, "dateTime": 1664555457533, "trialdata": {"rt": 821, "stimulus": "<p id='stroop-text' class='stroop-blue'>DOG</p>", "response": "b", "stimulus-type": "unrelated", "word": "DOG", "color": "blue", "correct_response": "b", "trial_id": "stroop-trial-1-unrelated-23", "trial_type": "html-keyboard-response", "trial_index": 188, "time_elapsed": 371060, "internal_node_id": "0.0-8.0-2.0"}}, {"uniqueid": "w35948048:a20642870", "current_trial": 189, "dateTime": 1664555458707, "trialdata": {"rt": 662, "stimulus": "<p id='stroop-text' class='stroop-green'>BLUE</p>", "response": "g", "stimulus-type": "incongruent", "word": "blue", "color": "green", "correct_response": "g", "trial_id": "stroop-trial-1-incongruent-16", "trial_type": "html-keyboard-response", "trial_index": 189, "time_elapsed": 372234, "internal_node_id": "0.0-8.0-3.0"}}, {"uniqueid": "w35948048:a20642870", "current_trial": 190, "dateTime": 1664555459866, "trialdata": {"rt": 645, "stimulus": "<p id='stroop-text' class='stroop-yellow'>YELLOW</p>", "response": "y", "stimulus-type": "congruent", "word": "yellow", "color": "yellow", "correct_response": "y", "trial_id": "stroop-trial-1-congruent-13", "trial_type": "html-keyboard-response", "trial_index": 190, "time_elapsed": 373394, "internal_node_id": "0.0-8.0-4.0"}}, {"uniqueid": "w35948048:a20642870", "current_trial": 191, "dateTime": 1664555461288, "trialdata": {"rt": 906, "stimulus": "<p id='stroop-text' class='stroop-blue'>FORK</p>", "response": "b", "stimulus-type": "unrelated", "word": "FORK", "color": "blue", "correct_response": "b", "trial_id": "stroop-trial-1-unrelated-3", "trial_type": "html-keyboard-response", "trial_index": 191, "time_elapsed": 374815, "internal_node_id": "0.0-8.0-5.0"}}, {"uniqueid": "w35948048:a20642870", "current_trial": 192, "dateTime": 1664555462555, "trialdata": {"rt": 759, "stimulus": "<p id='stroop-text' class='stroop-yellow'>RED</p>", "response": "y", "stimulus-type": "incongruent", "word": "red", "color": "yellow", "correct_response": "y", "trial_id": "stroop-trial-1-incongruent-14", "trial_type": "html-keyboard-response", "trial_index": 192, "time_elapsed": 376083, "internal_node_id": "0.0-8.0-6.0"}}, {"uniqueid": "w35948048:a20642870", "current_trial": 193, "dateTime": 1664555463806, "trialdata": {"rt": 739, "stimulus": "<p id='stroop-text' class='stroop-yellow'>YELLOW</p>", "response": "y", "stimulus-type": "congruent", "word": "yellow", "color": "yellow", "correct_response": "y", "trial_id": "stroop-trial-1-congruent-28", "trial_type": "html-keyboard-response", "trial_index": 193, "time_elapsed": 377334, "internal_node_id": "0.0-8.0-7.0"}}, {"uniqueid": "w35948048:a20642870", "current_trial": 194, "dateTime": 1664555465606, "trialdata": {"rt": 1286, "stimulus": "<p id='stroop-text' class='stroop-green'>YELLOW</p>", "response": "g", "stimulus-type": "incongruent", "word": "yellow", "color": "green", "correct_response": "g", "trial_id": "stroop-trial-1-incongruent-4", "trial_type": "html-keyboard-response", "trial_index": 194, "time_elapsed": 379133, "internal_node_id": "0.0-8.0-8.0"}}, {"uniqueid": "w35948048:a20642870", "current_trial": 195, "dateTime": 1664555466798, "trialdata": {"rt": 684, "stimulus": "<p id='stroop-text' class='stroop-blue'>BLUE</p>", "response": "b", "stimulus-type": "congruent", "word": "blue", "color": "blue", "correct_response": "b", "trial_id": "stroop-trial-1-congruent-7", "trial_type": "html-keyboard-response", "trial_index": 195, "time_elapsed": 380325, "internal_node_id": "0.0-8.0-9.0"}}, {"uniqueid": "w35948048:a20642870", "current_trial": 196, "dateTime": 1664555468059, "trialdata": {"rt": 750, "stimulus": "<p id='stroop-text' class='stroop-blue'>RED</p>", "response": "b", "stimulus-type": "incongruent", "word": "red", "color": "blue", "correct_response": "b", "trial_id": "stroop-trial-1-incongruent-22", "trial_type": "html-keyboard-response", "trial_index": 196, "time_elapsed": 381586, "internal_node_id": "0.0-8.0-10.0"}}, {"uniqueid": "w35948048:a20642870", "current_trial": 197, "dateTime": 1664555469321, "trialdata": {"rt": 748, "stimulus": "<p id='stroop-text' class='stroop-red'>YELLOW</p>", "response": "r", "stimulus-type": "incongruent", "word": "yellow", "color": "red", "correct_response": "r", "trial_id": "stroop-trial-1-incongruent-26", "trial_type": "html-keyboard-response", "trial_index": 197, "time_elapsed": 382848, "internal_node_id": "0.0-8.0-11.0"}}, {"uniqueid": "w35948048:a20642870", "current_trial": 198, "dateTime": 1664555471104, "trialdata": {"rt": 1274, "stimulus": "<p id='stroop-text' class='stroop-green'>YELLOW</p>", "response": "g", "stimulus-type": "incongruent", "word": "yellow", "color": "green", "correct_response": "g", "trial_id": "stroop-trial-1-incongruent-11", "trial_type": "html-keyboard-response", "trial_index": 198, "time_elapsed": 384632, "internal_node_id": "0.0-8.0-12.0"}}, {"uniqueid": "w35948048:a20642870", "current_trial": 199, "dateTime": 1664555472142, "trialdata": {"rt": 531, "stimulus": "<p id='stroop-text' class='stroop-yellow'>RED</p>", "response": "y", "stimulus-type": "incongruent", "word": "red", "color": "yellow", "correct_response": "y", "trial_id": "stroop-trial-1-incongruent-6", "trial_type": "html-keyboard-response", "trial_index": 199, "time_elapsed": 385669, "internal_node_id": "0.0-8.0-13.0"}}, {"uniqueid": "w35948048:a20642870", "current_trial": 200, "dateTime": 1664555473999, "trialdata": {"rt": 1338, "stimulus": "<p id='stroop-text' class='stroop-red'>YELLOW</p>", "response": "r", "stimulus-type": "incongruent", "word": "yellow", "color": "red", "correct_response": "r", "trial_id": "stroop-trial-1-incongruent-21", "trial_type": "html-keyboard-response", "trial_index": 200, "time_elapsed": 387526, "internal_node_id": "0.0-8.0-14.0"}}, {"uniqueid": "w35948048:a20642870", "current_trial": 201, "dateTime": 1664555475349, "trialdata": {"rt": 838, "stimulus": "<p id='stroop-text' class='stroop-blue'>WINDOW</p>", "response": "b", "stimulus-type": "unrelated", "word": "WINDOW", "color": "blue", "correct_response": "b", "trial_id": "stroop-trial-1-unrelated-17", "trial_type": "html-keyboard-response", "trial_index": 201, "time_elapsed": 388876, "internal_node_id": "0.0-8.0-15.0"}}, {"uniqueid": "w35948048:a20642870", "current_trial": 202, "dateTime": 1664555477386, "trialdata": {"rt": 1525, "stimulus": "<p id='stroop-text' class='stroop-red'>GREEN</p>", "response": "r", "stimulus-type": "incongruent", "word": "green", "color": "red", "correct_response": "r", "trial_id": "stroop-trial-1-incongruent-18", "trial_type": "html-keyboard-response", "trial_index": 202, "time_elapsed": 390914, "internal_node_id": "0.0-8.0-16.0"}}, {"uniqueid": "w35948048:a20642870", "current_trial": 203, "dateTime": 1664555479776, "trialdata": {"rt": 1865, "stimulus": "<p id='stroop-text' class='stroop-yellow'>BLUE</p>", "response": "y", "stimulus-type": "incongruent", "word": "blue", "color": "yellow", "correct_response": "y", "trial_id": "stroop-trial-1-incongruent-8", "trial_type": "html-keyboard-response", "trial_index": 203, "time_elapsed": 393303, "internal_node_id": "0.0-8.0-17.0"}}, {"uniqueid": "w35948048:a20642870", "current_trial": 204, "dateTime": 1664555480989, "trialdata": {"rt": 690, "stimulus": "<p id='stroop-text' class='stroop-yellow'>SHIP</p>", "response": "y", "stimulus-type": "unrelated", "word": "SHIP", "color": "yellow", "correct_response": "y", "trial_id": "stroop-trial-1-unrelated-7", "trial_type": "html-keyboard-response", "trial_index": 204, "time_elapsed": 394516, "internal_node_id": "0.0-8.0-18.0"}}, {"uniqueid": "w35948048:a20642870", "current_trial": 205, "dateTime": 1664555482825, "trialdata": {"rt": 1319, "stimulus": "<p id='stroop-text' class='stroop-blue'>FORK</p>", "response": "b", "stimulus-type": "unrelated", "word": "FORK", "color": "blue", "correct_response": "b", "trial_id": "stroop-trial-1-unrelated-28", "trial_type": "html-keyboard-response", "trial_index": 205, "time_elapsed": 396353, "internal_node_id": "0.0-8.0-19.0"}}, {"uniqueid": "w35948048:a20642870", "current_trial": 206, "dateTime": 1664555484680, "trialdata": {"rt": 1343, "stimulus": "<p id='stroop-text' class='stroop-green'>BLUE</p>", "response": "g", "stimulus-type": "incongruent", "word": "blue", "color": "green", "correct_response": "g", "trial_id": "stroop-trial-1-incongruent-19", "trial_type": "html-keyboard-response", "trial_index": 206, "time_elapsed": 398207, "internal_node_id": "0.0-8.0-20.0"}}, {"uniqueid": "w35948048:a20642870", "current_trial": 207, "dateTime": 1664555486349, "trialdata": {"rt": 1157, "stimulus": "<p id='stroop-text' class='stroop-blue'>BLUE</p>", "response": "b", "stimulus-type": "congruent", "word": "blue", "color": "blue", "correct_response": "b", "trial_id": "stroop-trial-1-congruent-10", "trial_type": "html-keyboard-response", "trial_index": 207, "time_elapsed": 399876, "internal_node_id": "0.0-8.0-21.0"}}, {"uniqueid": "w35948048:a20642870", "current_trial": 208, "dateTime": 1664555487834, "trialdata": {"rt": 973, "stimulus": "<p id='stroop-text' class='stroop-red'>YELLOW</p>", "response": "r", "stimulus-type": "incongruent", "word": "yellow", "color": "red", "correct_response": "r", "trial_id": "stroop-trial-1-incongruent-15", "trial_type": "html-keyboard-response", "trial_index": 208, "time_elapsed": 401361, "internal_node_id": "0.0-8.0-22.0"}}, {"uniqueid": "w35948048:a20642870", "current_trial": 209, "dateTime": 1664555489386, "trialdata": {"rt": 1046, "stimulus": "<p id='stroop-text' class='stroop-red'>STONE</p>", "response": "r", "stimulus-type": "unrelated", "word": "STONE", "color": "red", "correct_response": "r", "trial_id": "stroop-trial-1-unrelated-1", "trial_type": "html-keyboard-response", "trial_index": 209, "time_elapsed": 402913, "internal_node_id": "0.0-8.0-23.0"}}, {"uniqueid": "w35948048:a20642870", "current_trial": 210, "dateTime": 1664555490737, "trialdata": {"rt": 839, "stimulus": "<p id='stroop-text' class='stroop-blue'>CHAIR</p>", "response": "b", "stimulus-type": "unrelated", "word": "CHAIR", "color": "blue", "correct_response": "b", "trial_id": "stroop-trial-1-unrelated-22", "trial_type": "html-keyboard-response", "trial_index": 210, "time_elapsed": 404265, "internal_node_id": "0.0-8.0-24.0"}}, {"uniqueid": "w35948048:a20642870", "current_trial": 211, "dateTime": 1664555491887, "trialdata": {"rt": 638, "stimulus": "<p id='stroop-text' class='stroop-yellow'>BLUE</p>", "response": "y", "stimulus-type": "incongruent", "word": "blue", "color": "yellow", "correct_response": "y", "trial_id": "stroop-trial-1-incongruent-17", "trial_type": "html-keyboard-response", "trial_index": 211, "time_elapsed": 405414, "internal_node_id": "0.0-8.0-25.0"}}, {"uniqueid": "w35948048:a20642870", "current_trial": 212, "dateTime": 1664555493293, "trialdata": {"rt": 899, "stimulus": "<p id='stroop-text' class='stroop-red'>RED</p>", "response": "r", "stimulus-type": "congruent", "word": "red", "color": "red", "correct_response": "r", "trial_id": "stroop-trial-1-congruent-19", "trial_type": "html-keyboard-response", "trial_index": 212, "time_elapsed": 406821, "internal_node_id": "0.0-8.0-26.0"}}, {"uniqueid": "w35948048:a20642870", "current_trial": 213, "dateTime": 1664555494704, "trialdata": {"rt": 892, "stimulus": "<p id='stroop-text' class='stroop-yellow'>BLUE</p>", "response": "y", "stimulus-type": "incongruent", "word": "blue", "color": "yellow", "correct_response": "y", "trial_id": "stroop-trial-1-incongruent-12", "trial_type": "html-keyboard-response", "trial_index": 213, "time_elapsed": 408231, "internal_node_id": "0.0-8.0-27.0"}}, {"uniqueid": "w35948048:a20642870", "current_trial": 214, "dateTime": 1664555495984, "trialdata": {"rt": 764, "stimulus": "<p id='stroop-text' class='stroop-blue'>BLUE</p>", "response": "b", "stimulus-type": "congruent", "word": "blue", "color": "blue", "correct_response": "b", "trial_id": "stroop-trial-1-congruent-22", "trial_type": "html-keyboard-response", "trial_index": 214, "time_elapsed": 409512, "internal_node_id": "0.0-8.0-28.0"}}, {"uniqueid": "w35948048:a20642870", "current_trial": 215, "dateTime": 1664555497277, "trialdata": {"rt": 778, "stimulus": "<p id='stroop-text' class='stroop-yellow'>BRIDGE</p>", "response": "y", "stimulus-type": "unrelated", "word": "BRIDGE", "color": "yellow", "correct_response": "y", "trial_id": "stroop-trial-1-unrelated-9", "trial_type": "html-keyboard-response", "trial_index": 215, "time_elapsed": 410804, "internal_node_id": "0.0-8.0-29.0"}}, {"uniqueid": "w35948048:a20642870", "current_trial": 216, "dateTime": 1664555498680, "trialdata": {"rt": 897, "stimulus": "<p id='stroop-text' class='stroop-blue'>BLUE</p>", "response": "b", "stimulus-type": "congruent", "word": "blue", "color": "blue", "correct_response": "b", "trial_id": "stroop-trial-1-congruent-21", "trial_type": "html-keyboard-response", "trial_index": 216, "time_elapsed": 412207, "internal_node_id": "0.0-8.0-30.0"}}, {"uniqueid": "w35948048:a20642870", "current_trial": 217, "dateTime": 1664555499968, "trialdata": {"rt": 778, "stimulus": "<p id='stroop-text' class='stroop-yellow'>YELLOW</p>", "response": "y", "stimulus-type": "congruent", "word": "yellow", "color": "yellow", "correct_response": "y", "trial_id": "stroop-trial-1-congruent-23", "trial_type": "html-keyboard-response", "trial_index": 217, "time_elapsed": 413496, "internal_node_id": "0.0-8.0-31.0"}}, {"uniqueid": "w35948048:a20642870", "current_trial": 218, "dateTime": 1664555501664, "trialdata": {"rt": 1185, "stimulus": "<p id='stroop-text' class='stroop-blue'>BLUE</p>", "response": "b", "stimulus-type": "congruent", "word": "blue", "color": "blue", "correct_response": "b", "trial_id": "stroop-trial-1-congruent-25", "trial_type": "html-keyboard-response", "trial_index": 218, "time_elapsed": 415191, "internal_node_id": "0.0-8.0-32.0"}}, {"uniqueid": "w35948048:a20642870", "current_trial": 219, "dateTime": 1664555502907, "trialdata": {"rt": 729, "stimulus": "<p id='stroop-text' class='stroop-yellow'>YELLOW</p>", "response": "y", "stimulus-type": "congruent", "word": "yellow", "color": "yellow", "correct_response": "y", "trial_id": "stroop-trial-1-congruent-18", "trial_type": "html-keyboard-response", "trial_index": 219, "time_elapsed": 416435, "internal_node_id": "0.0-8.0-33.0"}}, {"uniqueid": "w35948048:a20642870", "current_trial": 220, "dateTime": 1664555504330, "trialdata": {"rt": 913, "stimulus": "<p id='stroop-text' class='stroop-yellow'>YELLOW</p>", "response": "y", "stimulus-type": "congruent", "word": "yellow", "color": "yellow", "correct_response": "y", "trial_id": "stroop-trial-1-congruent-2", "trial_type": "html-keyboard-response", "trial_index": 220, "time_elapsed": 417858, "internal_node_id": "0.0-8.0-34.0"}}, {"uniqueid": "w35948048:a20642870", "current_trial": 221, "dateTime": 1664555505642, "trialdata": {"rt": 797, "stimulus": "<p id='stroop-text' class='stroop-red'>RED</p>", "response": "r", "stimulus-type": "congruent", "word": "red", "color": "red", "correct_response": "r", "trial_id": "stroop-trial-1-congruent-30", "trial_type": "html-keyboard-response", "trial_index": 221, "time_elapsed": 419169, "internal_node_id": "0.0-8.0-35.0"}}, {"uniqueid": "w35948048:a20642870", "current_trial": 222, "dateTime": 1664555507330, "trialdata": {"rt": 1172, "stimulus": "<p id='stroop-text' class='stroop-green'>DOG</p>", "response": "g", "stimulus-type": "unrelated", "word": "DOG", "color": "green", "correct_response": "g", "trial_id": "stroop-trial-1-unrelated-19", "trial_type": "html-keyboard-re