{"condition": 0, "counterbalance": 0, "assignmentId": "a73238254", "workerId": "w54967420", "hitId": "h97758579", "currenttrial": 959, "bonus": 0, "data": [{"uniqueid": "w54967420:a73238254", "current_trial": 0, "dateTime": 1664367920700, "trialdata": {"success": true, "trial_type": "fullscreen", "trial_index": 0, "time_elapsed": 7900, "internal_node_id": "0.0-0.0"}}, {"uniqueid": "w54967420:a73238254", "current_trial": 1, "dateTime": 1664367947586, "trialdata": {"view_history": [{"page_index": 0, "viewing_time": 26880}], "rt": 26881, "trial_id": "exp_instructions_distractor", "trial_type": "instructions", "trial_index": 1, "time_elapsed": 34786, "internal_node_id": "0.0-1.0"}}, {"uniqueid": "w54967420:a73238254", "current_trial": 2, "dateTime": 1664367990161, "trialdata": {"view_history": [{"page_index": 0, "viewing_time": 42572}], "rt": 42573, "trial_id": "color_game_instructions", "trial_type": "instructions", "trial_index": 2, "time_elapsed": 77361, "internal_node_id": "0.0-2.0"}}, {"uniqueid": "w54967420:a73238254", "current_trial": 3, "dateTime": 1664367998191, "trialdata": {"rt": 8027, "stimulus": "<h1> Get ready to start the game! </h1>\n\nThank you for reading the instructions. Get ready start with the first of 5 block(s) of this game.\n<br><br>\nIn this first block, you will complete 90 rounds of this game before moving on.\n<br><br>\nRemember, the better you perform, the bigger your bonus will be!\n<br><br>\n<div style='text-align: center;'>Press <code>space</code> to begin.</div>", "response": " ", "trial_id": "stroop_1_ready_1", "trial_type": "html-keyboard-response", "trial_index": 3, "time_elapsed": 85391, "internal_node_id": "0.0-3.0"}}, {"uniqueid": "w54967420:a73238254", "current_trial": 4, "dateTime": 1664367999165, "trialdata": {"rt": 968, "stimulus": "<p id='stroop-text' class='stroop-yellow'>DOG</p>", "response": "y", "stimulus-type": "unrelated", "word": "DOG", "color": "yellow", "correct_response": "y", "trial_id": "stroop-trial-1-unrelated-7", "trial_type": "html-keyboard-response", "trial_index": 4, "time_elapsed": 86364, "internal_node_id": "0.0-4.0-0.0"}}, {"uniqueid": "w54967420:a73238254", "current_trial": 5, "dateTime": 1664368000880, "trialdata": {"rt": 1212, "stimulus": "<p id='stroop-text' class='stroop-blue'>SHIP</p>", "response": "b", "stimulus-type": "unrelated", "word": "SHIP", "color": "blue", "correct_response": "b", "trial_id": "stroop-trial-1-unrelated-21", "trial_type": "html-keyboard-response", "trial_index": 5, "time_elapsed": 88079, "internal_node_id": "0.0-4.0-1.0"}}, {"uniqueid": "w54967420:a73238254", "current_trial": 6, "dateTime": 1664368002232, "trialdata": {"rt": 850, "stimulus": "<p id='stroop-text' class='stroop-blue'>BOAT</p>", "response": "b", "stimulus-type": "unrelated", "word": "BOAT", "color": "blue", "correct_response": "b", "trial_id": "stroop-trial-1-unrelated-8", "trial_type": "html-keyboard-response", "trial_index": 6, "time_elapsed": 89432, "internal_node_id": "0.0-4.0-2.0"}}, {"uniqueid": "w54967420:a73238254", "current_trial": 7, "dateTime": 1664368003403, "trialdata": {"rt": 669, "stimulus": "<p id='stroop-text' class='stroop-blue'>BLUE</p>", "response": "b", "stimulus-type": "congruent", "word": "blue", "color": "blue", "correct_response": "b", "trial_id": "stroop-trial-1-congruent-22", "trial_type": "html-keyboard-response", "trial_index": 7, "time_elapsed": 90603, "internal_node_id": "0.0-4.0-3.0"}}, {"uniqueid": "w54967420:a73238254", "current_trial": 8, "dateTime": 1664368005271, "trialdata": {"rt": 1366, "stimulus": "<p id='stroop-text' class='stroop-red'>STONE</p>", "response": "r", "stimulus-type": "unrelated", "word": "STONE", "color": "red", "correct_response": "r", "trial_id": "stroop-trial-1-unrelated-29", "trial_type": "html-keyboard-response", "trial_index": 8, "time_elapsed": 92471, "internal_node_id": "0.0-4.0-4.0"}}, {"uniqueid": "w54967420:a73238254", "current_trial": 9, "dateTime": 1664368006808, "trialdata": {"rt": 1034, "stimulus": "<p id='stroop-text' class='stroop-yellow'>BLUE</p>", "response": "y", "stimulus-type": "incongruent", "word": "blue", "color": "yellow", "correct_response": "y", "trial_id": "stroop-trial-1-incongruent-2", "trial_type": "html-keyboard-response", "trial_index": 9, "time_elapsed": 94007, "internal_node_id": "0.0-4.0-5.0"}}, {"uniqueid": "w54967420:a73238254", "current_trial": 10, "dateTime": 1664368008292, "trialdata": {"rt": 983, "stimulus": "<p id='stroop-text' class='stroop-red'>BLUE</p>", "response": "b", "stimulus-type": "incongruent", "word": "blue", "color": "red", "correct_response": "r", "trial_id": "stroop-trial-1-incongruent-20", "trial_type": "html-keyboard-response", "trial_index": 10, "time_elapsed": 95492, "internal_node_id": "0.0-4.0-6.0"}}, {"uniqueid": "w54967420:a73238254", "current_trial": 11, "dateTime": 1664368010398, "trialdata": {"rt": 1604, "stimulus": "<p id='stroop-text' class='stroop-yellow'>GREEN</p>", "response": "g", "stimulus-type": "incongruent", "word": "green", "color": "yellow", "correct_response": "y", "trial_id": "stroop-trial-1-incongruent-11", "trial_type": "html-keyboard-response", "trial_index": 11, "time_elapsed": 97598, "internal_node_id": "0.0-4.0-7.0"}}, {"uniqueid": "w54967420:a73238254", "current_trial": 12, "dateTime": 1664368011777, "trialdata": {"rt": 877, "stimulus": "<p id='stroop-text' class='stroop-yellow'>YELLOW</p>", "response": "y", "stimulus-type": "congruent", "word": "yellow", "color": "yellow", "correct_response": "y", "trial_id": "stroop-trial-1-congruent-18", "trial_type": "html-keyboard-response", "trial_index": 12, "time_elapsed": 98977, "internal_node_id": "0.0-4.0-8.0"}}, {"uniqueid": "w54967420:a73238254", "current_trial": 13, "dateTime": 1664368013339, "trialdata": {"rt": 1059, "stimulus": "<p id='stroop-text' class='stroop-red'>RED</p>", "response": "r", "stimulus-type": "congruent", "word": "red", "color": "red", "correct_response": "r", "trial_id": "stroop-trial-1-congruent-19", "trial_type": "html-keyboard-response", "trial_index": 13, "time_elapsed": 100539, "internal_node_id": "0.0-4.0-9.0"}}, {"uniqueid": "w54967420:a73238254", "current_trial": 14, "dateTime": 1664368015009, "trialdata": {"rt": 1167, "stimulus": "<p id='stroop-text' class='stroop-green'>BOTTLE</p>", "response": "g", "stimulus-type": "unrelated", "word": "BOTTLE", "color": "green", "correct_response": "g", "trial_id": "stroop-trial-1-unrelated-22", "trial_type": "html-keyboard-response", "trial_index": 14, "time_elapsed": 102208, "internal_node_id": "0.0-4.0-10.0"}}, {"uniqueid": "w54967420:a73238254", "current_trial": 15, "dateTime": 1664368016552, "trialdata": {"rt": 1041, "stimulus": "<p id='stroop-text' class='stroop-blue'>RED</p>", "response": "b", "stimulus-type": "incongruent", "word": "red", "color": "blue", "correct_response": "b", "trial_id": "stroop-trial-1-incongruent-13", "trial_type": "html-keyboard-response", "trial_index": 15, "time_elapsed": 103752, "internal_node_id": "0.0-4.0-11.0"}}, {"uniqueid": "w54967420:a73238254", "current_trial": 16, "dateTime": 1664368017772, "trialdata": {"rt": 718, "stimulus": "<p id='stroop-text' class='stroop-yellow'>RED</p>", "response": "y", "stimulus-type": "incongruent", "word": "red", "color": "yellow", "correct_response": "y", "trial_id": "stroop-trial-1-incongruent-3", "trial_type": "html-keyboard-response", "trial_index": 16, "time_elapsed": 104972, "internal_node_id": "0.0-4.0-12.0"}}, {"uniqueid": "w54967420:a73238254", "current_trial": 17, "dateTime": 1664368019001, "trialdata": {"rt": 726, "stimulus": "<p id='stroop-text' class='stroop-yellow'>YELLOW</p>", "response": "y", "stimulus-type": "congruent", "word": "yellow", "color": "yellow", "correct_response": "y", "trial_id": "stroop-trial-1-congruent-9", "trial_type": "html-keyboard-response", "trial_index": 17, "time_elapsed": 106201, "internal_node_id": "0.0-4.0-13.0"}}, {"uniqueid": "w54967420:a73238254", "current_trial": 18, "dateTime": 1664368020203, "trialdata": {"rt": 699, "stimulus": "<p id='stroop-text' class='stroop-yellow'>WINDOW</p>", "response": "y", "stimulus-type": "unrelated", "word": "WINDOW", "color": "yellow", "correct_response": "y", "trial_id": "stroop-trial-1-unrelated-15", "trial_type": "html-keyboard-response", "trial_index": 18, "time_elapsed": 107402, "internal_node_id": "0.0-4.0-14.0"}}, {"uniqueid": "w54967420:a73238254", "current_trial": 19, "dateTime": 1664368022034, "trialdata": {"rt": 1329, "stimulus": "<p id='stroop-text' class='stroop-green'>BLUE</p>", "response": "g", "stimulus-type": "incongruent", "word": "blue", "color": "green", "correct_response": "g", "trial_id": "stroop-trial-1-incongruent-25", "trial_type": "html-keyboard-response", "trial_index": 19, "time_elapsed": 109234, "internal_node_id": "0.0-4.0-15.0"}}, {"uniqueid": "w54967420:a73238254", "current_trial": 20, "dateTime": 1664368023410, "trialdata": {"rt": 873, "stimulus": "<p id='stroop-text' class='stroop-blue'>BLUE</p>", "response": "b", "stimulus-type": "congruent", "word": "blue", "color": "blue", "correct_response": "b", "trial_id": "stroop-trial-1-congruent-28", "trial_type": "html-keyboard-response", "trial_index": 20, "time_elapsed": 110609, "internal_node_id": "0.0-4.0-16.0"}}, {"uniqueid": "w54967420:a73238254", "current_trial": 21, "dateTime": 1664368024712, "trialdata": {"rt": 799, "stimulus": "<p id='stroop-text' class='stroop-green'>GREEN</p>", "response": "g", "stimulus-type": "congruent", "word": "green", "color": "green", "correct_response": "g", "trial_id": "stroop-trial-1-congruent-14", "trial_type": "html-keyboard-response", "trial_index": 21, "time_elapsed": 111912, "internal_node_id": "0.0-4.0-17.0"}}, {"uniqueid": "w54967420:a73238254", "current_trial": 22, "dateTime": 1664368025991, "trialdata": {"rt": 775, "stimulus": "<p id='stroop-text' class='stroop-blue'>BLUE</p>", "response": "b", "stimulus-type": "congruent", "word": "blue", "color": "blue", "correct_response": "b", "trial_id": "stroop-trial-1-congruent-6", "trial_type": "html-keyboard-response", "trial_index": 22, "time_elapsed": 113191, "internal_node_id": "0.0-4.0-18.0"}}, {"uniqueid": "w54967420:a73238254", "current_trial": 23, "dateTime": 1664368027257, "trialdata": {"rt": 765, "stimulus": "<p id='stroop-text' class='stroop-yellow'>BLUE</p>", "response": "y", "stimulus-type": "incongruent", "word": "blue", "color": "yellow", "correct_response": "y", "trial_id": "stroop-trial-1-incongruent-5", "trial_type": "html-keyboard-response", "trial_index": 23, "time_elapsed": 114457, "internal_node_id": "0.0-4.0-19.0"}}, {"uniqueid": "w54967420:a73238254", "current_trial": 24, "dateTime": 1664368028670, "trialdata": {"rt": 911, "stimulus": "<p id='stroop-text' class='stroop-red'>BRAIN</p>", "response": "r", "stimulus-type": "unrelated", "word": "BRAIN", "color": "red", "correct_response": "r", "trial_id": "stroop-trial-1-unrelated-20", "trial_type": "html-keyboard-response", "trial_index": 24, "time_elapsed": 115870, "internal_node_id": "0.0-4.0-20.0"}}, {"uniqueid": "w54967420:a73238254", "current_trial": 25, "dateTime": 1664368029954, "trialdata": {"rt": 781, "stimulus": "<p id='stroop-text' class='stroop-green'>YELLOW</p>", "response": "y", "stimulus-type": "incongruent", "word": "yellow", "color": "green", "correct_response": "g", "trial_id": "stroop-trial-1-incongruent-9", "trial_type": "html-keyboard-response", "trial_index": 25, "time_elapsed": 117154, "internal_node_id": "0.0-4.0-21.0"}}, {"uniqueid": "w54967420:a73238254", "current_trial": 26, "dateTime": 1664368031460, "trialdata": {"rt": 1003, "stimulus": "<p id='stroop-text' class='stroop-yellow'>BLUE</p>", "response": "b", "stimulus-type": "incongruent", "word": "blue", "color": "yellow", "correct_response": "y", "trial_id": "stroop-trial-1-incongruent-12", "trial_type": "html-keyboard-response", "trial_index": 26, "time_elapsed": 118659, "internal_node_id": "0.0-4.0-22.0"}}, {"uniqueid": "w54967420:a73238254", "current_trial": 27, "dateTime": 1664368033346, "trialdata": {"rt": 1384, "stimulus": "<p id='stroop-text' class='stroop-red'>GREEN</p>", "response": "g", "stimulus-type": "incongruent", "word": "green", "color": "red", "correct_response": "r", "trial_id": "stroop-trial-1-incongruent-24", "trial_type": "html-keyboard-response", "trial_index": 27, "time_elapsed": 120545, "internal_node_id": "0.0-4.0-23.0"}}, {"uniqueid": "w54967420:a73238254", "current_trial": 28, "dateTime": 1664368036356, "trialdata": {"rt": 2508, "stimulus": "<p id='stroop-text' class='stroop-yellow'>BLUE</p>", "response": "y", "stimulus-type": "incongruent", "word": "blue", "color": "yellow", "correct_response": "y", "trial_id": "stroop-trial-1-incongruent-16", "trial_type": "html-keyboard-response", "trial_index": 28, "time_elapsed": 123556, "internal_node_id": "0.0-4.0-24.0"}}, {"uniqueid": "w54967420:a73238254", "current_trial": 29, "dateTime": 1664368037712, "trialdata": {"rt": 853, "stimulus": "<p id='stroop-text' class='stroop-green'>BLUE</p>", "response": "g", "stimulus-type": "incongruent", "word": "blue", "color": "green", "correct_response": "g", "trial_id": "stroop-trial-1-incongruent-6", "trial_type": "html-keyboard-response", "trial_index": 29, "time_elapsed": 124911, "internal_node_id": "0.0-4.0-25.0"}}, {"uniqueid": "w54967420:a73238254", "current_trial": 30, "dateTime": 1664368039001, "trialdata": {"rt": 787, "stimulus": "<p id='stroop-text' class='stroop-green'>BLUE</p>", "response": "g", "stimulus-type": "incongruent", "word": "blue", "color": "green", "correct_response": "g", "trial_id": "stroop-trial-1-incongruent-26", "trial_type": "html-keyboard-response", "trial_index": 30, "time_elapsed": 126201, "internal_node_id": "0.0-4.0-26.0"}}, {"uniqueid": "w54967420:a73238254", "current_trial": 31, "dateTime": 1664368040328, "trialdata": {"rt": 824, "stimulus": "<p id='stroop-text' class='stroop-blue'>BLUE</p>", "response": "b", "stimulus-type": "congruent", "word": "blue", "color": "blue", "correct_response": "b", "trial_id": "stroop-trial-1-congruent-8", "trial_type": "html-keyboard-response", "trial_index": 31, "time_elapsed": 127528, "internal_node_id": "0.0-4.0-27.0"}}, {"uniqueid": "w54967420:a73238254", "current_trial": 32, "dateTime": 1664368041482, "trialdata": {"rt": 652, "stimulus": "<p id='stroop-text' class='stroop-blue'>YELLOW</p>", "response": "b", "stimulus-type": "incongruent", "word": "yellow", "color": "blue", "correct_response": "b", "trial_id": "stroop-trial-1-incongruent-18", "trial_type": "html-keyboard-response", "trial_index": 32, "time_elapsed": 128682, "internal_node_id": "0.0-4.0-28.0"}}, {"uniqueid": "w54967420:a73238254", "current_trial": 33, "dateTime": 1664368042585, "trialdata": {"rt": 599, "stimulus": "<p id='stroop-text' class='stroop-blue'>BOTTLE</p>", "response": "b", "stimulus-type": "unrelated", "word": "BOTTLE", "color": "blue", "correct_response": "b", "trial_id": "stroop-trial-1-unrelated-6", "trial_type": "html-keyboard-response", "trial_index": 33, "time_elapsed": 129784, "internal_node_id": "0.0-4.0-29.0"}}, {"uniqueid": "w54967420:a73238254", "current_trial": 34, "dateTime": 1664368043890, "trialdata": {"rt": 802, "stimulus": "<p id='stroop-text' class='stroop-red'>BOTTLE</p>", "response": "r", "stimulus-type": "unrelated", "word": "BOTTLE", "color": "red", "correct_response": "r", "trial_id": "stroop-trial-1-unrelated-2", "trial_type": "html-keyboard-response", "trial_index": 34, "time_elapsed": 131089, "internal_node_id": "0.0-4.0-30.0"}}, {"uniqueid": "w54967420:a73238254", "current_trial": 35, "dateTime": 1664368045182, "trialdata": {"rt": 789, "stimulus": "<p id='stroop-text' class='stroop-yellow'>BOTTLE</p>", "response": "y", "stimulus-type": "unrelated", "word": "BOTTLE", "color": "yellow", "correct_response": "y", "trial_id": "stroop-trial-1-unrelated-30", "trial_type": "html-keyboard-response", "trial_index": 35, "time_elapsed": 132382, "internal_node_id": "0.0-4.0-31.0"}}, {"uniqueid": "w54967420:a73238254", "current_trial": 36, "dateTime": 1664368046549, "trialdata": {"rt": 865, "stimulus": "<p id='stroop-text' class='stroop-yellow'>FORK</p>", "response": "y", "stimulus-type": "unrelated", "word": "FORK", "color": "yellow", "correct_response": "y", "trial_id": "stroop-trial-1-unrelated-4", "trial_type": "html-keyboard-response", "trial_index": 36, "time_elapsed": 133749, "internal_node_id": "0.0-4.0-32.0"}}, {"uniqueid": "w54967420:a73238254", "current_trial": 37, "dateTime": 1664368048102, "trialdata": {"rt": 1050, "stimulus": "<p id='stroop-text' class='stroop-red'>GREEN</p>", "response": "r", "stimulus-type": "incongruent", "word": "green", "color": "red", "correct_response": "r", "trial_id": "stroop-trial-1-incongruent-10", "trial_type": "html-keyboard-response", "trial_index": 37, "time_elapsed": 135302, "internal_node_id": "0.0-4.0-33.0"}}, {"uniqueid": "w54967420:a73238254", "current_trial": 38, "dateTime": 1664368049358, "trialdata": {"rt": 754, "stimulus": "<p id='stroop-text' class='stroop-green'>GREEN</p>", "response": "g", "stimulus-type": "congruent", "word": "green", "color": "green", "correct_response": "g", "trial_id": "stroop-trial-1-congruent-4", "trial_type": "html-keyboard-response", "trial_index": 38, "time_elapsed": 136558, "internal_node_id": "0.0-4.0-34.0"}}, {"uniqueid": "w54967420:a73238254", "current_trial": 39, "dateTime": 1664368050951, "trialdata": {"rt": 1091, "stimulus": "<p id='stroop-text' class='stroop-red'>DOG</p>", "response": "r", "stimulus-type": "unrelated", "word": "DOG", "color": "red", "correct_response": "r", "trial_id": "stroop-trial-1-unrelated-12", "trial_type": "html-keyboard-response", "trial_index": 39, "time_elapsed": 138151, "internal_node_id": "0.0-4.0-35.0"}}, {"uniqueid": "w54967420:a73238254", "current_trial": 40, "dateTime": 1664368052451, "trialdata": {"rt": 998, "stimulus": "<p id='stroop-text' class='stroop-red'>YELLOW</p>", "response": "r", "stimulus-type": "incongruent", "word": "yellow", "color": "red", "correct_response": "r", "trial_id": "stroop-trial-1-incongruent-4", "trial_type": "html-keyboard-response", "trial_index": 40, "time_elapsed": 139651, "internal_node_id": "0.0-4.0-36.0"}}, {"uniqueid": "w54967420:a73238254", "current_trial": 41, "dateTime": 1664368053627, "trialdata": {"rt": 674, "stimulus": "<p id='stroop-text' class='stroop-yellow'>YELLOW</p>", "response": "y", "stimulus-type": "congruent", "word": "yellow", "color": "yellow", "correct_response": "y", "trial_id": "stroop-trial-1-congruent-27", "trial_type": "html-keyboard-response", "trial_index": 41, "time_elapsed": 140827, "internal_node_id": "0.0-4.0-37.0"}}, {"uniqueid": "w54967420:a73238254", "current_trial": 42, "dateTime": 1664368054843, "trialdata": {"rt": 714, "stimulus": "<p id='stroop-text' class='stroop-blue'>BLUE</p>", "response": "b", "stimulus-type": "congruent", "word": "blue", "color": "blue", "correct_response": "b", "trial_id": "stroop-trial-1-congruent-21", "trial_type": "html-keyboard-response", "trial_index": 42, "time_elapsed": 142042, "internal_node_id": "0.0-4.0-38.0"}}, {"uniqueid": "w54967420:a73238254", "current_trial": 43, "dateTime": 1664368056416, "trialdata": {"rt": 1072, "stimulus": "<p id='stroop-text' class='stroop-red'>STONE</p>", "response": "r", "stimulus-type": "unrelated", "word": "STONE", "color": "red", "correct_response": "r", "trial_id": "stroop-trial-1-unrelated-10", "trial_type": "html-keyboard-response", "trial_index": 43, "time_elapsed": 143615, "internal_node_id": "0.0-4.0-39.0"}}, {"uniqueid": "w54967420:a73238254", "current_trial": 44, "dateTime": 1664368057910, "trialdata": {"rt": 992, "stimulus": "<p id='stroop-text' class='stroop-yellow'>RED</p>", "response": "y", "stimulus-type": "incongruent", "word": "red", "color": "yellow", "correct_response": "y", "trial_id": "stroop-trial-1-incongruent-1", "trial_type": "html-keyboard-response", "trial_index": 44, "time_elapsed": 145110, "internal_node_id": "0.0-4.0-40.0"}}, {"uniqueid": "w54967420:a73238254", "current_trial": 45, "dateTime": 1664368059194, "trialdata": {"rt": 780, "stimulus": "<p id='stroop-text' class='stroop-green'>GREEN</p>", "response": "g", "stimulus-type": "congruent", "word": "green", "color": "green", "correct_response": "g", "trial_id": "stroop-trial-1-congruent-15", "trial_type": "html-keyboard-response", "trial_index": 45, "time_elapsed": 146393, "internal_node_id": "0.0-4.0-41.0"}}, {"uniqueid": "w54967420:a73238254", "current_trial": 46, "dateTime": 1664368060291, "trialdata": {"rt": 595, "stimulus": "<p id='stroop-text' class='stroop-green'>GREEN</p>", "response": "g", "stimulus-type": "congruent", "word": "green", "color": "green", "correct_response": "g", "trial_id": "stroop-trial-1-congruent-10", "trial_type": "html-keyboard-response", "trial_index": 46, "time_elapsed": 147490, "internal_node_id": "0.0-4.0-42.0"}}, {"uniqueid": "w54967420:a73238254", "current_trial": 47, "dateTime": 1664368061311, "trialdata": {"rt": 513, "stimulus": "<p id='stroop-text' class='stroop-green'>GREEN</p>", "response": "g", "stimulus-type": "congruent", "word": "green", "color": "green", "correct_response": "g", "trial_id": "stroop-trial-1-congruent-26", "trial_type": "html-keyboard-response", "trial_index": 47, "time_elapsed": 148510, "internal_node_id": "0.0-4.0-43.0"}}, {"uniqueid": "w54967420:a73238254", "current_trial": 48, "dateTime": 1664368062340, "trialdata": {"rt": 527, "stimulus": "<p id='stroop-text' class='stroop-green'>YELLOW</p>", "response": "g", "stimulus-type": "incongruent", "word": "yellow", "color": "green", "correct_response": "g", "trial_id": "stroop-trial-1-incongruent-17", "trial_type": "html-keyboard-response", "trial_index": 48, "time_elapsed": 149540, "internal_node_id": "0.0-4.0-44.0"}}, {"uniqueid": "w54967420:a73238254", "current_trial": 49, "dateTime": 1664368063702, "trialdata": {"rt": 860, "stimulus": "<p id='stroop-text' class='stroop-red'>RED</p>", "response": "r", "stimulus-type": "congruent", "word": "red", "color": "red", "correct_response": "r", "trial_id": "stroop-trial-1-congruent-17", "trial_type": "html-keyboard-response", "trial_index": 49, "time_elapsed": 150902, "internal_node_id": "0.0-4.0-45.0"}}, {"uniqueid": "w54967420:a73238254", "current_trial": 50, "dateTime": 1664368065097, "trialdata": {"rt": 893, "stimulus": "<p id='stroop-text' class='stroop-red'>BRAIN</p>", "response": "r", "stimulus-type": "unrelated", "word": "BRAIN", "color": "red", "correct_response": "r", "trial_id": "stroop-trial-1-unrelated-17", "trial_type": "html-keyboard-response", "trial_index": 50, "time_elapsed": 152297, "internal_node_id": "0.0-4.0-46.0"}}, {"uniqueid": "w54967420:a73238254", "current_trial": 51, "dateTime": 1664368066319, "trialdata": {"rt": 720, "stimulus": "<p id='stroop-text' class='stroop-yellow'>YELLOW</p>", "response": "y", "stimulus-type": "congruent", "word": "yellow", "color": "yellow", "correct_response": "y", "trial_id": "stroop-trial-1-congruent-3", "trial_type": "html-keyboard-response", "trial_index": 51, "time_elapsed": 153518, "internal_node_id": "0.0-4.0-47.0"}}, {"uniqueid": "w54967420:a73238254", "current_trial": 52, "dateTime": 1664368067561, "trialdata": {"rt": 740, "stimulus": "<p id='stroop-text' class='stroop-blue'>RED</p>", "response": "b", "stimulus-type": "incongruent", "word": "red", "color": "blue", "correct_response": "b", "trial_id": "stroop-trial-1-incongruent-23", "trial_type": "html-keyboard-response", "trial_index": 52, "time_elapsed": 154761, "internal_node_id": "0.0-4.0-48.0"}}, {"uniqueid": "w54967420:a73238254", "current_trial": 53, "dateTime": 1664368069286, "trialdata": {"rt": 1223, "stimulus": "<p id='stroop-text' class='stroop-green'>RED</p>", "response": "g", "stimulus-type": "incongruent", "word": "red", "color": "green", "correct_response": "g", "trial_id": "stroop-trial-1-incongruent-30", "trial_type": "html-keyboard-response", "trial_index": 53, "time_elapsed": 156486, "internal_node_id": "0.0-4.0-49.0"}}, {"uniqueid": "w54967420:a73238254", "current_trial": 54, "dateTime": 1664368070178, "trialdata": {"rt": 390, "stimulus": "<p id='stroop-text' class='stroop-green'>RED</p>", "response": "g", "stimulus-type": "incongruent", "word": "red", "color": "green", "correct_response": "g", "trial_id": "stroop-trial-1-incongruent-29", "trial_type": "html-keyboard-response", "trial_index": 54, "time_elapsed": 157378, "internal_node_id": "0.0-4.0-50.0"}}, {"uniqueid": "w54967420:a73238254", "current_trial": 55, "dateTime": 1664368071399, "trialdata": {"rt": 720, "stimulus": "<p id='stroop-text' class='stroop-blue'>RED</p>", "response": "b", "stimulus-type": "incongruent", "word": "red", "color": "blue", "correct_response": "b", "trial_id": "stroop-trial-1-incongruent-14", "trial_type": "html-keyboard-response", "trial_index": 55, "time_elapsed": 158599, "internal_node_id": "0.0-4.0-51.0"}}, {"uniqueid": "w54967420:a73238254", "current_trial": 56, "dateTime": 1664368072645, "trialdata": {"rt": 743, "stimulus": "<p id='stroop-text' class='stroop-green'>BLUE</p>", "response": "g", "stimulus-type": "incongruent", "word": "blue", "color": "green", "correct_response": "g", "trial_id": "stroop-trial-1-incongruent-7", "trial_type": "html-keyboard-response", "trial_index": 56, "time_elapsed": 159845, "internal_node_id": "0.0-4.0-52.0"}}, {"uniqueid": "w54967420:a73238254", "current_trial": 57, "dateTime": 1664368073992, "trialdata": {"rt": 845, "stimulus": "<p id='stroop-text' class='stroop-red'>RED</p>", "response": "r", "stimulus-type": "congruent", "word": "red", "color": "red", "correct_response": "r", "trial_id": "stroop-trial-1-congruent-25", "trial_type": "html-keyboard-response", "trial_index": 57, "time_elapsed": 161192, "internal_node_id": "0.0-4.0-53.0"}}, {"uniqueid": "w54967420:a73238254", "current_trial": 58, "dateTime": 1664368075918, "trialdata": {"rt": 1424, "stimulus": "<p id='stroop-text' class='stroop-blue'>BLUE</p>", "response": "b", "stimulus-type": "congruent", "word": "blue", "color": "blue", "correct_response": "b", "trial_id": "stroop-trial-1-congruent-30", "trial_type": "html-keyboard-response", "trial_index": 58, "time_elapsed": 163118, "internal_node_id": "0.0-4.0-54.0"}}, {"uniqueid": "w54967420:a73238254", "current_trial": 59, "dateTime": 1664368077087, "trialdata": {"rt": 664, "stimulus": "<p id='stroop-text' class='stroop-yellow'>YELLOW</p>", "response": "y", "stimulus-type": "congruent", "word": "yellow", "color": "yellow", "correct_response": "y", "trial_id": "stroop-trial-1-congruent-11", "trial_type": "html-keyboard-response", "trial_index": 59, "time_elapsed": 164287, "internal_node_id": "0.0-4.0-55.0"}}, {"uniqueid": "w54967420:a73238254", "current_trial": 60, "dateTime": 1664368078511, "trialdata": {"rt": 922, "stimulus": "<p id='stroop-text' class='stroop-blue'>WINDOW</p>", "response": "b", "stimulus-type": "unrelated", "word": "WINDOW", "color": "blue", "correct_response": "b", "trial_id": "stroop-trial-1-unrelated-28", "trial_type": "html-keyboard-response", "trial_index": 60, "time_elapsed": 165711, "internal_node_id": "0.0-4.0-56.0"}}, {"uniqueid": "w54967420:a73238254", "current_trial": 61, "dateTime": 1664368079873, "trialdata": {"rt": 859, "stimulus": "<p id='stroop-text' class='stroop-red'>BOTTLE</p>", "response": "r", "stimulus-type": "unrelated", "word": "BOTTLE", "color": "red", "correct_response": "r", "trial_id": "stroop-trial-1-unrelated-18", "trial_type": "html-keyboard-response", "trial_index": 61, "time_elapsed": 167072, "internal_node_id": "0.0-4.0-57.0"}}, {"uniqueid": "w54967420:a73238254", "current_trial": 62, "dateTime": 1664368081078, "trialdata": {"rt": 703, "stimulus": "<p id='stroop-text' class='stroop-red'>RED</p>", "response": "r", "stimulus-type": "congruent", "word": "red", "color": "red", "correct_response": "r", "trial_id": "stroop-trial-1-congruent-29", "trial_type": "html-keyboard-response", "trial_index": 62, "time_elapsed": 168278, "internal_node_id": "0.0-4.0-58.0"}}, {"uniqueid": "w54967420:a73238254", "current_trial": 63, "dateTime": 1664368082937, "trialdata": {"rt": 1356, "stimulus": "<p id='stroop-text' class='stroop-blue'>GREEN</p>", "response": "b", "stimulus-type": "incongruent", "word": "green", "color": "blue", "correct_response": "b", "trial_id": "stroop-trial-1-incongruent-8", "trial_type": "html-keyboard-response", "trial_index": 63, "time_elapsed": 170136, "internal_node_id": "0.0-4.0-59.0"}}, {"uniqueid": "w54967420:a73238254", "current_trial": 64, "dateTime": 1664368084085, "trialdata": {"rt": 632, "stimulus": "<p id='stroop-text' class='stroop-yellow'>YELLOW</p>", "response": "y", "stimulus-type": "congruent", "word": "yellow", "color": "yellow", "correct_response": "y", "trial_id": "stroop-trial-1-congruent-13", "trial_type": "html-keyboard-response", "trial_index": 64, "time_elapsed": 171285, "internal_node_id": "0.0-4.0-60.0"}}, {"uniqueid": "w54967420:a73238254", "current_trial": 65, "dateTime": 1664368085401, "trialdata": {"rt": 814, "stimulus": "<p id='stroop-text' class='stroop-blue'>BLUE</p>", "response": "b", "stimulus-type": "congruent", "word": "blue", "color": "blue", "correct_response": "b", "trial_id": "stroop-trial-1-congruent-23", "trial_type": "html-keyboard-response", "trial_index": 65, "time_elapsed": 172601, "internal_node_id": "0.0-4.0-61.0"}}, {"uniqueid": "w54967420:a73238254", "current_trial": 66, "dateTime": 1664368086726, "trialdata": {"rt": 823, "stimulus": "<p id='stroop-text' class='stroop-green'>GREEN</p>", "response": "g", "stimulus-type": "congruent", "word": "green", "color": "green", "correct_response": "g", "trial_id": "stroop-trial-1-congruent-2", "trial_type": "html-keyboard-response", "trial_index": 66, "time_elapsed": 173926, "internal_node_id": "0.0-4.0-62.0"}}, {"uniqueid": "w54967420:a73238254", "current_trial": 67, "dateTime": 1664368087923, "trialdata": {"rt": 695, "stimulus": "<p id='stroop-text' class='stroop-yellow'>FORK</p>", "response": "y", "stimulus-type": "unrelated", "word": "FORK", "color": "yellow", "correct_response": "y", "trial_id": "stroop-trial-1-unrelated-9", "trial_type": "html-keyboard-response", "trial_index": 67, "time_elapsed": 175123, "internal_node_id": "0.0-4.0-63.0"}}, {"uniqueid": "w54967420:a73238254", "current_trial": 68, "dateTime": 1664368089604, "trialdata": {"rt": 1178, "stimulus": "<p id='stroop-text' class='stroop-blue'>MONKEY</p>", "response": "b", "stimulus-type": "unrelated", "word": "MONKEY", "color": "blue", "correct_response": "b", "trial_id": "stroop-trial-1-unrelated-19", "trial_type": "html-keyboard-response", "trial_index": 68, "time_elapsed": 176804, "internal_node_id": "0.0-4.0-64.0"}}, {"uniqueid": "w54967420:a73238254", "current_trial": 69, "dateTime": 1664368091026, "trialdata": {"rt": 921, "stimulus": "<p id='stroop-text' class='stroop-green'>GREEN</p>", "response": "g", "stimulus-type": "congruent", "word": "green", "color": "green", "correct_response": "g", "trial_id": "stroop-trial-1-congruent-1", "trial_type": "html-keyboard-response", "trial_index": 69, "time_elapsed": 178226, "internal_node_id": "0.0-4.0-65.0"}}, {"uniqueid": "w54967420:a73238254", "current_trial": 70, "dateTime": 1664368092171, "trialdata": {"rt": 642, "stimulus": "<p id='stroop-text' class='stroop-yellow'>BLUE</p>", "response": "y", "stimulus-type": "incongruent", "word": "blue", "color": "yellow", "correct_response": "y", "trial_id": "stroop-trial-1-incongruent-27", "trial_type": "html-keyboard-response", "trial_index": 70, "time_elapsed": 179371, "internal_node_id": "0.0-4.0-66.0"}}, {"uniqueid": "w54967420:a73238254", "current_trial": 71, "dateTime": 1664368094100, "trialdata": {"rt": 1427, "stimulus": "<p id='stroop-text' class='stroop-blue'>FORK</p>", "response": "b", "stimulus-type": "unrelated", "word": "FORK", "color": "blue", "correct_response": "b", "trial_id": "stroop-trial-1-unrelated-23", "trial_type": "html-keyboard-response", "trial_index": 71, "time_elapsed": 181300, "internal_node_id": "0.0-4.0-67.0"}}, {"uniqueid": "w54967420:a73238254", "current_trial": 72, "dateTime": 1664368095109, "trialdata": {"rt": 505, "stimulus": "<p id='stroop-text' class='stroop-blue'>BRAIN</p>", "response": "b", "stimulus-type": "unrelated", "word": "BRAIN", "color": "blue", "correct_response": "b", "trial_id": "stroop-trial-1-unrelated-5", "trial_type": "html-keyboard-response", "trial_index": 72, "time_elapsed": 182309, "internal_node_id": "0.0-4.0-68.0"}}, {"uniqueid": "w54967420:a73238254", "current_trial": 73, "dateTime": 1664368096908, "trialdata": {"rt": 1296, "stimulus": "<p id='stroop-text' class='stroop-green'>RED</p>", "response": "g", "stimulus-type": "incongruent", "word": "red", "color": "green", "correct_response": "g", "trial_id": "stroop-trial-1-incongruent-28", "trial_type": "html-keyboard-response", "trial_index": 73, "time_elapsed": 184108, "internal_node_id": "0.0-4.0-69.0"}}, {"uniqueid": "w54967420:a73238254", "current_trial": 74, "dateTime": 1664368098137, "trialdata": {"rt": 727, "stimulus": "<p id='stroop-text' class='stroop-yellow'>BOAT</p>", "response": "y", "stimulus-type": "unrelated", "word": "BOAT", "color": "yellow", "correct_response": "y", "trial_id": "stroop-trial-1-unrelated-1", "trial_type": "html-keyboard-response", "trial_index": 74, "time_elapsed": 185337, "internal_node_id": "0.0-4.0-70.0"}}, {"uniqueid": "w54967420:a73238254", "current_trial": 75, "dateTime": 1664368100137, "trialdata": {"rt": 1497, "stimulus": "<p id='stroop-text' class='stroop-blue'>BLUE</p>", "response": "b", "stimulus-type": "congruent", "word": "blue", "color": "blue", "correct_response": "b", "trial_id": "stroop-trial-1-congruent-16", "trial_type": "html-keyboard-response", "trial_index": 75, "time_elapsed": 187337, "internal_node_id": "0.0-4.0-71.0"}}, {"uniqueid": "w54967420:a73238254", "current_trial": 76, "dateTime": 1664368101154, "trialdata": {"rt": 514, "stimulus": "<p id='stroop-text' class='stroop-blue'>STONE</p>", "response": "b", "stimulus-type": "unrelated", "word": "STONE", "color": "blue", "correct_response": "b", "trial_id": "stroop-trial-1-unrelated-27", "trial_type": "html-keyboard-response", "trial_index": 76, "time_elapsed": 188354, "internal_node_id": "0.0-4.0-72.0"}}, {"uniqueid": "w54967420:a73238254", "current_trial": 77, "dateTime": 1664368102105, "trialdata": {"rt": 448, "stimulus": "<p id='stroop-text' class='stroop-blue'>DOG</p>", "response": "b", "stimulus-type": "unrelated", "word": "DOG", "color": "blue", "correct_response": "b", "trial_id": "stroop-trial-1-unrelated-26", "trial_type": "html-keyboard-response", "trial_index": 77, "time_elapsed": 189305, "internal_node_id": "0.0-4.0-73.0"}}, {"uniqueid": "w54967420:a73238254", "current_trial": 78, "dateTime": 1664368103076, "trialdata": {"rt": 468, "stimulus": "<p id='stroop-text' class='stroop-blue'>BRIDGE</p>", "response": "b", "stimulus-type": "unrelated", "word": "BRIDGE", "color": "blue", "correct_response": "b", "trial_id": "stroop-trial-1-unrelated-11", "trial_type": "html-keyboard-response", "trial_index": 78, "time_elapsed": 190276, "internal_node_id": "0.0-4.0-74.0"}}, {"uniqueid": "w54967420:a73238254", "current_trial": 79, "dateTime": 1664368104778, "trialdata": {"rt": 1199, "stimulus": "<p id='stroop-text' class='stroop-green'>RED</p>", "response": "g", "stimulus-type": "incongruent", "word": "red", "color": "green", "correct_response": "g", "trial_id": "stroop-trial-1-incongruent-15", "trial_type": "html-keyboard-response", "trial_index": 79, "time_elapsed": 191978, "internal_node_id": "0.0-4.0-75.0"}}, {"uniqueid": "w54967420:a73238254", "current_trial": 80, "dateTime": 1664368106227, "trialdata": {"rt": 946, "stimulus": "<p id='stroop-text' class='stroop-yellow'>CHAIR</p>", "response": "y", "stimulus-type": "unrelated", "word": "CHAIR", "color": "yellow", "correct_response": "y", "trial_id": "stroop-trial-1-unrelated-13", "trial_type": "html-keyboard-response", "trial_index": 80, "time_elapsed": 193427, "internal_node_id": "0.0-4.0-76.0"}}, {"uniqueid": "w54967420:a73238254", "current_trial": 81, "dateTime": 1664368107696, "trialdata": {"rt": 965, "stimulus": "<p id='stroop-text' class='stroop-yellow'>BLUE</p>", "response": "y", "stimulus-type": "incongruent", "word": "blue", "color": "yellow", "correct_response": "y", "trial_id": "stroop-trial-1-incongruent-21", "trial_type": "html-keyboard-response", "trial_index": 81, "time_elapsed": 194896, "internal_node_id": "0.0-4.0-77.0"}}, {"uniqueid": "w54967420:a73238254", "current_trial": 82, "dateTime": 1664368108681, "trialdata": {"rt": 482, "stimulus": "<p id='stroop-text' class='stroop-yellow'>YELLOW</p>", "response": "y", "stimulus-type": "congruent", "word": "yellow", "color": "yellow", "correct_response": "y", "trial_id": "stroop-trial-1-congruent-12", "trial_type": "html-keyboard-response", "trial_index": 82, "time_elapsed": 195881, "internal_node_id": "0.0-4.0-78.0"}}, {"uniqueid": "w54967420:a73238254", "current_trial": 83, "dateTime": 1664368110180, "trialdata": {"rt": 996, "stimulus": "<p id='stroop-text' class='stroop-red'>MONKEY</p>", "response": "r", "stimulus-type": "unrelated", "word": "MONKEY", "color": "red", "correct_response": "r", "trial_id": "stroop-trial-1-unrelated-24", "trial_type": "html-keyboard-response", "trial_index": 83, "time_elapsed": 197380, "internal_node_id": "0.0-4.0-79.0"}}, {"uniqueid": "w54967420:a73238254", "current_trial": 84, "dateTime": 1664368111279, "trialdata": {"rt": 596, "stimulus": "<p id='stroop-text' class='stroop-yellow'>YELLOW</p>", "response": "y", "stimulus-type": "congruent", "word": "yellow", "color": "yellow", "correct_response": "y", "trial_id": "stroop-trial-1-congruent-7", "trial_type": "html-keyboard-response", "trial_index": 84, "time_elapsed": 198479, "internal_node_id": "0.0-4.0-80.0"}}, {"uniqueid": "w54967420:a73238254", "current_trial": 85, "dateTime": 1664368112936, "trialdata": {"rt": 1154, "stimulus": "<p id='stroop-text' class='stroop-green'>WINDOW</p>", "response": "g", "stimulus-type": "unrelated", "word": "WINDOW", "color": "green", "correct_response": "g", "trial_id": "stroop-trial-1-unrelated-3", "trial_type": "html-keyboard-response", "trial_index": 85, "time_elapsed": 200136, "internal_node_id": "0.0-4.0-81.0"}}, {"uniqueid": "w54967420:a73238254", "current_trial": 86, "dateTime": 1664368114369, "trialdata": {"rt": 931, "stimulus": "<p id='stroop-text' class='stroop-yellow'>BOTTLE</p>", "response": "y", "stimulus-type": "unrelated", "word": "BOTTLE", "color": "yellow", "correct_response": "y", "trial_id": "stroop-trial-1-unrelated-14", "trial_type": "html-keyboard-response", "trial_index": 86, "time_elapsed": 201569, "internal_node_id": "0.0-4.0-82.0"}}, {"uniqueid": "w54967420:a73238254", "current_trial": 87, "dateTime": 1664368115603, "trialdata": {"rt": 732, "stimulus": "<p id='stroop-text' class='stroop-red'>RED</p>", "response": "r", "stimulus-type": "congruent", "word": "red", "color": "red", "correct_response": "r", "trial_id": "stroop-trial-1-congruent-24", "trial_type": "html-keyboard-response", "trial_index": 87, "time_elapsed": 202803, "internal_node_id": "0.0-4.0-83.0"}}, {"uniqueid": "w54967420:a73238254", "current_trial": 88, "dateTime": 1664368118145, "trialdata": {"rt": 2040, "stimulus": "<p id='stroop-text' class='stroop-red'>WINDOW</p>", "response": "r", "stimulus-type": "unrelated", "word": "WINDOW", "color": "red", "correct_response": "r", "trial_id": "stroop-trial-1-unrelated-16", "trial_type": "html-keyboard-response", "trial_index": 88, "time_elapsed": 205345, "internal_node_id": "0.0-4.0-84.0"}}, {"uniqueid": "w54967420:a73238254", "current_trial": 89, "dateTime": 1664368119325, "trialdata": {"rt": 677, "stimulus": "<p id='stroop-text' class='stroop-yellow'>YELLOW</p>", "response": "y", "stimulus-type": "congruent", "word": "yellow", "color": "yellow", "correct_response": "y", "trial_id": "stroop-trial-1-congruent-5", "trial_type": "html-keyboard-response", "trial_index": 89, "time_elapsed": 206524, "internal_node_id": "0.0-4.0-85.0"}}, {"uniqueid": "w54967420:a73238254", "current_trial": 90, "dateTime": 1664368120450, "trialdata": {"rt": 622, "stimulus": "<p id='stroop-text' class='stroop-yellow'>BOTTLE</p>", "response": "y", "stimulus-type": "unrelated", "word": "BOTTLE", "color": "yellow", "correct_response": "y", "trial_id": "stroop-trial-1-unrelated-25", "trial_type": "html-keyboard-response", "trial_index": 90, "time_elapsed": 207649, "internal_node_id": "0.0-4.0-86.0"}}, {"uniqueid": "w54967420:a73238254", "current_trial": 91, "dateTime": 1664368121565, "trialdata": {"rt": 611, "stimulus": "<p id='stroop-text' class='stroop-yellow'>YELLOW</p>", "response": "y", "stimulus-type": "congruent", "word": "yellow", "color": "yellow", "correct_response": "y", "trial_id": "stroop-trial-1-congruent-20", "trial_type": "html-keyboard-response", "trial_index": 91, "time_elapsed": 208764, "internal_node_id": "0.0-4.0-87.0"}}, {"uniqueid": "w54967420:a73238254", "current_trial": 92, "dateTime": 1664368122670, "trialdata": {"rt": 603, "stimulus": "<p id='stroop-text' class='stroop-yellow'>RED</p>", "response": "y", "stimulus-type": "incongruent", "word": "red", "color": "yellow", "correct_response": "y", "trial_id": "stroop-trial-1-incongruent-19", "trial_type": "html-keyboard-response", "trial_index": 92, "time_elapsed": 209869, "internal_node_id": "0.0-4.0-88.0"}}, {"uniqueid": "w54967420:a73238254", "current_trial": 93, "dateTime": 1664368124243, "trialdata": {"rt": 1072, "stimulus": "<p id='stroop-text' class='stroop-red'>BLUE</p>", "response": "r", "stimulus-type": "incongruent", "word": "blue", "color": "red", "correct_response": "r", "trial_id": "stroop-trial-1-incongruent-22", "trial_type": "html-keyboard-response", "trial_index": 93, "time_elapsed": 211443, "internal_node_id": "0.0-4.0-89.0"}}, {"uniqueid": "w54967420:a73238254", "current_trial": 94, "dateTime": 1664368142697, "trialdata": {"rt": 17951, "stimulus": "  <h1> End of block! </h1>\n\n  You have reached the end of the block 1/5. If you need a short break, feel free to take one now before moving on.\n\n  <br><br>\n  In the next block, you will complete another 90 rounds of this game.\n\n  <br><br>\n  <div style='text-align: center;'>Press <code>space</code> to begin.</div>\n  <br><br>\n<div style='text-align: center;'>(If the experiment doesn't continue, try clicking on the text and then pressing <code>space</code>.)</div>", "response": " ", "trial_id": "stroop_1_ready_2", "trial_type": "html-keyboard-response", "trial_index": 94, "time_elapsed": 229897, "internal_node_id": "0.0-5.0"}}, {"uniqueid": "w54967420:a73238254", "current_trial": 95, "dateTime": 1664368143568, "trialdata": {"rt": 868, "stimulus": "<p id='stroop-text' class='stroop-red'>BRIDGE</p>", "response": "r", "stimulus-type": "unrelated", "word": "BRIDGE", "color": "red", "correct_response": "r", "trial_id": "stroop-trial-1-unrelated-14", "trial_type": "html-keyboard-response", "trial_index": 95, "time_elapsed": 230767, "internal_node_id": "0.0-6.0-0.0"}}, {"uniqueid": "w54967420:a73238254", "current_trial": 96, "dateTime": 1664368144760, "trialdata": {"rt": 690, "stimulus": "<p id='stroop-text' class='stroop-blue'>BLUE</p>", "response": "b", "stimulus-type": "congruent", "word": "blue", "color": "blue", "correct_response": "b", "trial_id": "stroop-trial-1-congruent-26", "trial_type": "html-keyboard-response", "trial_index": 96, "time_elapsed": 231960, "internal_node_id": "0.0-6.0-1.0"}}, {"uniqueid": "w54967420:a73238254", "current_trial": 97, "dateTime": 1664368145917, "trialdata": {"rt": 652, "stimulus": "<p id='stroop-text' class='stroop-yellow'>GREEN</p>", "response": "y", "stimulus-type": "incongruent", "word": "green", "color": "yellow", "correct_response": "y", "trial_id": "stroop-trial-1-incongruent-13", "trial_type": "html-keyboard-response", "trial_index": 97, "time_elapsed": 233116, "internal_node_id": "0.0-6.0-2.0"}}, {"uniqueid": "w54967420:a73238254", "current_trial": 98, "dateTime": 1664368147175, "trialdata": {"rt": 756, "stimulus": "<p id='stroop-text' class='stroop-green'>GREEN</p>", "response": "g", "stimulus-type": "congruent", "word": "green", "color": "green", "correct_response": "g", "trial_id": "stroop-trial-1-congruent-5", "trial_type": "html-keyboard-response", "trial_index": 98, "time_elapsed": 234374, "internal_node_id": "0.0-6.0-3.0"}}, {"uniqueid": "w54967420:a73238254", "current_trial": 99, "dateTime": 1664368148294, "trialdata": {"rt": 616, "stimulus": "<p id='stroop-text' class='stroop-yellow'>BOTTLE</p>", "response": "y", "stimulus-type": "unrelated", "word": "BOTTLE", "color": "yellow", "correct_response": "y", "trial_id": "stroop-trial-1-unrelated-21", "trial_type": "html-keyboard-response", "trial_index": 99, "time_elapsed": 235493, "internal_node_id": "0.0-6.0-4.0"}}, {"uniqueid": "w54967420:a73238254", "current_trial": 100, "dateTime": 1664368149609, "trialdata": {"rt": 813, "stimulus": "<p id='stroop-text' class='stroop-green'>BLUE</p>", "response": "g", "stimulus-type": "incongruent", "word": "blue", "color": "green", "correct_response": "g", "trial_id": "stroop-trial-1-incongruent-27", "trial_type": "html-keyboard-response", "trial_index": 100, "time_elapsed": 236809, "internal_node_id": "0.0-6.0-5.0"}}, {"uniqueid": "w54967420:a73238254", "current_trial": 101, "dateTime": 1664368150822, "trialdata": {"rt": 710, "stimulus": "<p id='stroop-text' class='stroop-yellow'>BRAIN</p>", "response": "y", "stimulus-type": "unrelated", "word": "BRAIN", "color": "yellow", "correct_response": "y", "trial_id": "stroop-trial-1-unrelated-7", "trial_type": "html-keyboard-response", "trial_index": 101, "time_elapsed": 238022, "internal_node_id": "0.0-6.0-6.0"}}, {"uniqueid": "w54967420:a73238254", "current_trial": 102, "dateTime": 1664368151921, "trialdata": {"rt": 596, "stimulus": "<p id='stroop-text' class='stroop-green'>MONKEY</p>", "response": "g", "stimulus-type": "unrelated", "word": "MONKEY", "color": "green", "correct_response": "g", "trial_id": "stroop-trial-1-unrelated-19", "trial_type": "html-keyboard-response", "trial_index": 102, "time_elapsed": 239121, "internal_node_id": "0.0-6.0-7.0"}}, {"uniqueid": "w54967420:a73238254", "current_trial": 103, "dateTime": 1664368152900, "trialdata": {"rt": 476, "stimulus": "<p id='stroop-text' class='stroop-green'>GREEN</p>", "response": "g", "stimulus-type": "congruent", "word": "green", "color": "green", "correct_response": "g", "trial_id": "stroop-trial-1-congruent-2", "trial_type": "html-keyboard-response", "trial_index": 103, "time_elapsed": 240100, "internal_node_id": "0.0-6.0-8.0"}}, {"uniqueid": "w54967420:a73238254", "current_trial": 104, "dateTime": 1664368153758, "trialdata": {"rt": 354, "stimulus": "<p id='stroop-text' class='stroop-green'>GREEN</p>", "response": "g", "stimulus-type": "congruent", "word": "green", "color": "green", "correct_response": "g", "trial_id": "stroop-trial-1-congruent-21", "trial_type": "html-keyboard-response", "trial_index": 104, "time_elapsed": 240958, "internal_node_id": "0.0-6.0-9.0"}}, {"uniqueid": "w54967420:a73238254", "current_trial": 105, "dateTime": 1664368155017, "trialdata": {"rt": 756, "stimulus": "<p id='stroop-text' class='stroop-blue'>WINDOW</p>", "response": "b", "stimulus-type": "unrelated", "word": "WINDOW", "color": "blue", "correct_response": "b", "trial_id": "stroop-trial-1-unrelated-9", "trial_type": "html-keyboard-response", "trial_index": 105, "time_elapsed": 242217, "internal_node_id": "0.0-6.0-10.0"}}, {"uniqueid": "w54967420:a73238254", "current_trial": 106, "dateTime": 1664368156724, "trialdata": {"rt": 1202, "stimulus": "<p id='stroop-text' class='stroop-green'>RED</p>", "response": "g", "stimulus-type": "incongruent", "word": "red", "color": "green", "correct_response": "g", "trial_id": "stroop-trial-1-incongruent-17", "trial_type": "html-keyboard-response", "trial_index": 106, "time_elapsed": 243924, "internal_node_id": "0.0-6.0-11.0"}}, {"uniqueid": "w54967420:a73238254", "current_trial": 107, "dateTime": 1664368157866, "trialdata": {"rt": 640, "stimulus": "<p id='stroop-text' class='stroop-yellow'>RED</p>", "response": "y", "stimulus-type": "incongruent", "word": "red", "color": "yellow", "correct_response": "y", "trial_id": "stroop-trial-1-incongruent-30", "trial_type": "html-keyboard-response", "trial_index": 107, "time_elapsed": 245066, "internal_node_id": "0.0-6.0-12.0"}}, {"uniqueid": "w54967420:a73238254", "current_trial": 108, "dateTime": 1664368159067, "trialdata": {"rt": 698, "stimulus": "<p id='stroop-text' class='stroop-green'>GREEN</p>", "response": "g", "stimulus-type": "congruent", "word": "green", "color": "green", "correct_response": "g", "trial_id": "stroop-trial-1-congruent-4", "trial_type": "html-keyboard-response", "trial_index": 108, "time_elapsed": 246267, "internal_node_id": "0.0-6.0-13.0"}}, {"uniqueid": "w54967420:a73238254", "current_trial": 109, "dateTime": 1664368160100, "trialdata": {"rt": 530, "stimulus": "<p id='stroop-text' class='stroop-blue'>BLUE</p>", "response": "b", "stimulus-type": "congruent", "word": "blue", "color": "blue", "correct_response": "b", "trial_id": "stroop-trial-1-congruent-3", "trial_type": "html-keyboard-response", "trial_index": 109, "time_elapsed": 247300, "internal_node_id": "0.0-6.0-14.0"}}, {"uniqueid": "w54967420:a73238254", "current_trial": 110, "dateTime": 1664368161219, "trialdata": {"rt": 617, "stimulus": "<p id='stroop-text' class='stroop-yellow'>BLUE</p>", "response": "y", "stimulus-type": "incongruent", "word": "blue", "color": "yellow", "correct_response": "y", "trial_id": "stroop-trial-1-incongruent-9", "trial_type": "html-keyboard-response", "trial_index": 110, "time_elapsed": 248418, "internal_node_id": "0.0-6.0-15.0"}}, {"uniqueid": "w54967420:a73238254", "current_trial": 111, "dateTime": 1664368162870, "trialdata": {"rt": 1149, "stimulus": "<p id='stroop-text' class='stroop-blue'>BLUE</p>", "response": "b", "stimulus-type": "congruent", "word": "blue", "color": "blue", "correct_response": "b", "trial_id": "stroop-trial-1-congruent-22", "trial_type": "html-keyboard-response", "trial_index": 111, "time_elapsed": 250069, "internal_node_id": "0.0-6.0-16.0"}}, {"uniqueid": "w54967420:a73238254", "current_trial": 112, "dateTime": 1664368163902, "trialdata": {"rt": 530, "stimulus": "<p id='stroop-text' class='stroop-blue'>YELLOW</p>", "response": "b", "stimulus-type": "incongruent", "word": "yellow", "color": "blue", "correct_response": "b", "trial_id": "stroop-trial-1-incongruent-3", "trial_type": "html-keyboard-response", "trial_index": 112, "time_elapsed": 251102, "internal_node_id": "0.0-6.0-17.0"}}, {"uniqueid": "w54967420:a73238254", "current_trial": 113, "dateTime": 1664368164779, "trialdata": {"rt": 374, "stimulus": "<p id='stroop-text' class='stroop-blue'>BLUE</p>", "response": "b", "stimulus-type": "congruent", "word": "blue", "color": "blue", "correct_response": "b", "trial_id": "stroop-trial-1-congruent-20", "trial_type": "html-keyboard-response", "trial_index": 113, "time_elapsed": 251979, "internal_node_id": "0.0-6.0-18.0"}}, {"uniqueid": "w54967420:a73238254", "current_trial": 114, "dateTime": 1664368166168, "trialdata": {"rt": 887, "stimulus": "<p id='stroop-text' class='stroop-red'>RED</p>", "response": "r", "stimulus-type": "congruent", "word": "red", "color": "red", "correct_response": "r", "trial_id": "stroop-trial-1-congruent-27", "trial_type": "html-keyboard-response", "trial_index": 114, "time_elapsed": 253368, "internal_node_id": "0.0-6.0-19.0"}}, {"uniqueid": "w54967420:a73238254", "current_trial": 115, "dateTime": 1664368167205, "trialdata": {"rt": 534, "stimulus": "<p id='stroop-text' class='stroop-red'>RED</p>", "response": "r", "stimulus-type": "congruent", "word": "red", "color": "red", "correct_response": "r", "trial_id": "stroop-trial-1-congruent-28", "trial_type": "html-keyboard-response", "trial_index": 115, "time_elapsed": 254404, "internal_node_id": "0.0-6.0-20.0"}}, {"uniqueid": "w54967420:a73238254", "current_trial": 116, "dateTime": 1664368168274, "trialdata": {"rt": 567, "stimulus": "<p id='stroop-text' class='stroop-yellow'>RED</p>", "response": "y", "stimulus-type": "incongruent", "word": "red", "color": "yellow", "correct_response": "y", "trial_id": "stroop-trial-1-incongruent-26", "trial_type": "html-keyboard-response", "trial_index": 116, "time_elapsed": 255474, "internal_node_id": "0.0-6.0-21.0"}}, {"uniqueid": "w54967420:a73238254", "current_trial": 117, "dateTime": 1664368169800, "trialdata": {"rt": 1023, "stimulus": "<p id='stroop-text' class='stroop-green'>RED</p>", "response": "g", "stimulus-type": "incongruent", "word": "red", "color": "green", "correct_response": "g", "trial_id": "stroop-trial-1-incongruent-15", "trial_type": "html-keyboard-response", "trial_index": 117, "time_elapsed": 257000, "internal_node_id": "0.0-6.0-22.0"}}, {"uniqueid": "w54967420:a73238254", "current_trial": 118, "dateTime": 1664368171299, "trialdata": {"rt": 995, "stimulus": "<p id='stroop-text' class='stroop-red'>GREEN</p>", "response": "r", "stimulus-type": "incongruent", "word": "green", "color": "red", "correct_response": "r", "trial_id": "stroop-trial-1-incongruent-12", "trial_type": "html-keyboard-response", "trial_index": 118, "time_elapsed": 258499, "internal_node_id": "0.0-6.0-23.0"}}, {"uniqueid": "w54967420:a73238254", "current_trial": 119, "dateTime": 1664368172464, "trialdata": {"rt": 662, "stimulus": "<p id='stroop-text' class='stroop-red'>RED</p>", "response": "r", "stimulus-type": "congruent", "word": "red", "color": "red", "correct_response": "r", "trial_id": "stroop-trial-1-congruent-17", "trial_type": "html-keyboard-response", "trial_index": 119, "time_elapsed": 259664, "internal_node_id": "0.0-6.0-24.0"}}, {"uniqueid": "w54967420:a73238254", "current_trial": 120, "dateTime": 1664368173699, "trialdata": {"rt": 732, "stimulus": "<p id='stroop-text' class='stroop-green'>CHAIR</p>", "response": "g", "stimulus-type": "unrelated", "word": "CHAIR", "color": "green", "correct_response": "g", "trial_id": "stroop-trial-1-unrelated-28", "trial_type": "html-keyboard-response", "trial_index": 120, "time_elapsed": 260898, "internal_node_id": "0.0-6.0-25.0"}}, {"uniqueid": "w54967420:a73238254", "current_trial": 121, "dateTime": 1664368174724, "trialdata": {"rt": 522, "stimulus": "<p id='stroop-text' class='stroop-green'>FORK</p>", "response": "g", "stimulus-type": "unrelated", "word": "FORK", "color": "green", "correct_response": "g", "trial_id": "stroop-trial-1-unrelated-17", "trial_type": "html-keyboard-response", "trial_index": 121, "time_elapsed": 261924, "internal_node_id": "0.0-6.0-26.0"}}, {"uniqueid": "w54967420:a73238254", "current_trial": 122, "dateTime": 1664368175931, "trialdata": {"rt": 704, "stimulus": "<p id='stroop-text' class='stroop-blue'>WINDOW</p>", "response": "b", "stimulus-type": "unrelated", "word": "WINDOW", "color": "blue", "correct_response": "b", "trial_id": "stroop-trial-1-unrelated-12", "trial_type": "html-keyboard-response", "trial_index": 122, "time_elapsed": 263131, "internal_node_id": "0.0-6.0-27.0"}}, {"uniqueid": "w54967420:a73238254", "current_trial": 123, "dateTime": 1664368176957, "trialdata": {"rt": 524, "stimulus": "<p id='stroop-text' class='stroop-yellow'>YELLOW</p>", "response": "y", "stimulus-type": "congruent", "word": "yellow", "color": "yellow", "correct_response": "y", "trial_id": "stroop-trial-1-congruent-1", "trial_type": "html-keyboard-response", "trial_index": 123, "time_elapsed": 264157, "internal_node_id": "0.0-6.0-28.0"}}, {"uniqueid": "w54967420:a73238254", "current_trial": 124, "dateTime": 1664368178161, "trialdata": {"rt": 702, "stimulus": "<p id='stroop-text' class='stroop-red'>MONKEY</p>", "response": "r", "stimulus-type": "unrelated", "word": "MONKEY", "color": "red", "correct_response": "r", "trial_id": "stroop-trial-1-unrelated-20", "trial_type": "html-keyboard-response", "trial_index": 124, "time_elapsed": 265361, "internal_node_id": "0.0-6.0-29.0"}}, {"uniqueid": "w54967420:a73238254", "current_trial": 125, "dateTime": 1664368180142, "trialdata": {"rt": 1478, "stimulus": "<p id='stroop-text' class='stroop-yellow'>GREEN</p>", "response": "y", "stimulus-type": "incongruent", "word": "green", "color": "yellow", "correct_response": "y", "trial_id": "stroop-trial-1-incongruent-11", "trial_type": "html-keyboard-response", "trial_index": 125, "time_elapsed": 267342, "internal_node_id": "0.0-6.0-30.0"}}, {"uniqueid": "w54967420:a73238254", "current_trial": 126, "dateTime": 1664368182557, "trialdata": {"rt": 1911, "stimulus": "<p id='stroop-text' class='stroop-green'>BRIDGE</p>", "response": "g", "stimulus-type": "unrelated", "word": "BRIDGE", "color": "green", "correct_response": "g", "trial_id": "stroop-trial-1-unrelated-26", "trial_type": "html-keyboard-response", "trial_index": 126, "time_elapsed": 269756, "internal_node_id": "0.0-6.0-31.0"}}, {"uniqueid": "w54967420:a73238254", "current_trial": 127, "dateTime": 1664368183824, "trialdata": {"rt": 764, "stimulus": "<p id='stroop-text' class='stroop-green'>RED</p>", "response": "g", "stimulus-type": "incongruent", "word": "red", "color": "green", "correct_response": "g", "trial_id": "stroop-trial-1-incongruent-28", "trial_type": "html-keyboard-response", "trial_index": 127, "time_elapsed": 271024, "internal_node_id": "0.0-6.0-32.0"}}, {"uniqueid": "w54967420:a73238254", "current_trial": 128, "dateTime": 1664368185333, "trialdata": {"rt": 1005, "stimulus": "<p id='stroop-text' class='stroop-blue'>BLUE</p>", "response": "b", "stimulus-type": "congruent", "word": "blue", "color": "blue", "correct_response": "b", "trial_id": "stroop-trial-1-congruent-25", "trial_type": "html-keyboard-response", "trial_index": 128, "time_elapsed": 272533, "internal_node_id": "0.0-6.0-33.0"}}, {"uniqueid": "w54967420:a73238254", "current_trial": 129, "dateTime": 1664368187025, "trialdata": {"rt": 1190, "stimulus": "<p id='stroop-text' class='stroop-green'>WINDOW</p>", "response": "g", "stimulus-type": "unrelated", "word": "WINDOW", "color": "green", "correct_response": "g", "trial_id": "stroop-trial-1-unrelated-4", "trial_type": "html-keyboard-response", "trial_index": 129, "time_elapsed": 274224, "internal_node_id": "0.0-6.0-34.0"}}, {"uniqueid": "w54967420:a73238254", "current_trial": 130, "dateTime": 1664368188308, "trialdata": {"rt": 781, "stimulus": "<p id='stroop-text' class='stroop-yellow'>SHIP</p>", "response": "y", "stimulus-type": "unrelated", "word": "SHIP", "color": "yellow", "correct_response": "y", "trial_id": "stroop-trial-1-unrelated-1", "trial_type": "html-keyboard-response", "trial_index": 130, "time_elapsed": 275508, "internal_node_id": "0.0-6.0-35.0"}}, {"uniqueid": "w54967420:a73238254", "current_trial": 131, "dateTime": 1664368189622, "trialdata": {"rt": 811, "stimulus": "<p id='stroop-text' class='stroop-green'>YELLOW</p>", "response": "g", "stimulus-type": "incongruent", "word": "yellow", "color": "green", "correct_response": "g", "trial_id": "stroop-trial-1-incongruent-2", "trial_type": "html-keyboard-response", "trial_index": 131, "time_elapsed": 276821, "internal_node_id": "0.0-6.0-36.0"}}, {"uniqueid": "w54967420:a73238254", "current_trial": 132, "dateTime": 1664368190806, "trialdata": {"rt": 682, "stimulus": "<p id='stroop-text' class='stroop-green'>YELLOW</p>", "response": "g", "stimulus-type": "incongruent", "word": "yellow", "color": "green", "correct_response": "g", "trial_id": "stroop-trial-1-incongruent-20", "trial_type": "html-keyboard-response", "trial_index": 132, "time_elapsed": 278005, "internal_node_id": "0.0-6.0-37.0"}}, {"uniqueid": "w54967420:a73238254", "current_trial": 133, "dateTime": 1664368192228, "trialdata": {"rt": 921, "stimulus": "<p id='stroop-text' class='stroop-blue'>STONE</p>", "response": "b", "stimulus-type": "unrelated", "word": "STONE", "color": "blue", "correct_response": "b", "trial_id": "stroop-trial-1-unrelated-11", "trial_type": "html-keyboard-response", "trial_index": 133, "time_elapsed": 279428, "internal_node_id": "0.0-6.0-38.0"}}, {"uniqueid": "w54967420:a73238254", "current_trial": 134, "dateTime": 1664368193918, "trialdata": {"rt": 1187, "stimulus": "<p id='stroop-text' class='stroop-green'>RED</p>", "response": "g", "stimulus-type": "incongruent", "word": "red", "color": "green", "correct_response": "g", "trial_id": "stroop-trial-1-incongruent-7", "trial_type": "html-keyboard-response", "trial_index": 134, "time_elapsed": 281117, "internal_node_id": "0.0-6.0-39.0"}}, {"uniqueid": "w54967420:a73238254", "current_trial": 135, "dateTime": 1664368194859, "trialdata": {"rt": 437, "stimulus": "<p id='stroop-text' class='stroop-green'>GREEN</p>", "response": "g", "stimulus-type": "congruent", "word": "green", "color": "green", "correct_response": "g", "trial_id": "stroop-trial-1-congruent-29", "trial_type": "html-keyboard-response", "trial_index": 135, "time_elapsed": 282058, "internal_node_id": "0.0-6.0-40.0"}}, {"uniqueid": "w54967420:a73238254", "current_trial": 136, "dateTime": 1664368195725, "trialdata": {"rt": 363, "stimulus": "<p id='stroop-text' class='stroop-green'>SHIP</p>", "response": "g", "stimulus-type": "unrelated", "word": "SHIP", "color": "green", "correct_response": "g", "trial_id": "stroop-trial-1-unrelated-15", "trial_type": "html-keyboard-response", "trial_index": 136, "time_elapsed": 282925, "internal_node_id": "0.0-6.0-41.0"}}, {"uniqueid": "w54967420:a73238254", "current_trial": 137, "dateTime": 1664368197144, "trialdata": {"rt": 915, "stimulus": "<p id='stroop-text' class='stroop-blue'>GREEN</p>", "response": "b", "stimulus-type": "incongruent", "word": "green", "color": "blue", "correct_response": "b", "trial_id": "stroop-trial-1-incongruent-1", "trial_type": "html-keyboard-response", "trial_index": 137, "time_elapsed": 284344, "internal_node_id": "0.0-6.0-42.0"}}, {"uniqueid": "w54967420:a73238254", "current_trial": 138, "dateTime": 1664368198782, "trialdata": {"rt": 1134, "stimulus": "<p id='stroop-text' class='stroop-yellow'>BLUE</p>", "response": "y", "stimulus-type": "incongruent", "word": "blue", "color": "yellow", "correct_response": "y", "trial_id": "stroop-trial-1-incongruent-6", "trial_type": "html-keyboard-response", "trial_index": 138, "time_elapsed": 285982, "internal_node_id": "0.0-6.0-43.0"}}, {"uniqueid": "w54967420:a73238254", "current_trial": 139, "dateTime": 1664368200725, "trialdata": {"rt": 1440, "stimulus": "<p id='stroop-text' class='stroop-blue'>BOAT</p>", "response": "b", "stimulus-type": "unrelated", "word": "BOAT", "color": "blue", "correct_response": "b", "trial_id": "stroop-trial-1-unrelated-24", "trial_type": "html-keyboard-response", "trial_index": 139, "time_elapsed": 287925, "internal_node_id": "0.0-6.0-44.0"}}, {"uniqueid": "w54967420:a73238254", "current_trial": 140, "dateTime": 1664368202014, "trialdata": {"rt": 787, "stimulus": "<p id='stroop-text' class='stroop-green'>BRAIN</p>", "response": "g", "stimulus-type": "unrelated", "word": "BRAIN", "color": "green", "correct_response": "g", "trial_id": "stroop-trial-1-unrelated-23", "trial_type": "html-keyboard-response", "trial_index": 140, "time_elapsed": 289214, "internal_node_id": "0.0-6.0-45.0"}}, {"uniqueid": "w54967420:a73238254", "current_trial": 141, "dateTime": 1664368204612, "trialdata": {"rt": 2093, "stimulus": "<p id='stroop-text' class='stroop-red'>BOTTLE</p>", "response": "r", "stimulus-type": "unrelated", "word": "BOTTLE", "color": "red", "correct_response": "r", "trial_id": "stroop-trial-1-unrelated-13", "trial_type": "html-keyboard-response", "trial_index": 141, "time_elapsed": 291812, "internal_node_id": "0.0-6.0-46.0"}}, {"uniqueid": "w54967420:a73238254", "current_trial": 142, "dateTime": 1664368205537, "trialdata": {"rt": 421, "stimulus": "<p id='stroop-text' class='stroop-red'>YELLOW</p>", "response": "r", "stimulus-type": "incongruent", "word": "yellow", "color": "red", "correct_response": "r", "trial_id": "stroop-trial-1-incongruent-19", "trial_type": "html-keyboard-response", "trial_index": 142, "time_elapsed": 292737, "internal_node_id": "0.0-6.0-47.0"}}, {"uniqueid": "w54967420:a73238254", "current_trial": 143, "dateTime": 1664368206862, "trialdata": {"rt": 822, "stimulus": "<p id='stroop-text' class='stroop-green'>GREEN</p>", "response": "g", "stimulus-type": "congruent", "word": "green", "color": "green", "correct_response": "g", "trial_id": "stroop-trial-1-congruent-13", "trial_type": "html-keyboard-response", "trial_index": 143, "time_elapsed": 294061, "internal_node_id": "0.0-6.0-48.0"}}, {"uniqueid": "w54967420:a73238254", "current_trial": 144, "dateTime": 1664368207897, "trialdata": {"rt": 532, "stimulus": "<p id='stroop-text' class='stroop-green'>STONE</p>", "response": "g", "stimulus-type": "unrelated", "word": "STONE", "color": "green", "correct_response": "g", "trial_id": "stroop-trial-1-unrelated-8", "trial_type": "html-keyboard-response", "trial_index": 144, "time_elapsed": 295096, "internal_node_id": "0.0-6.0-49.0"}}, {"uniqueid": "w54967420:a73238254", "current_trial": 145, "dateTime": 1664368208776, "trialdata": {"rt": 376, "stimulus": "<p id='stroop-text' class='stroop-green'>GREEN</p>", "response": "g", "stimulus-type": "congruent", "word": "green", "color": "green", "correct_response": "g", "trial_id": "stroop-trial-1-congruent-24", "trial_type": "html-keyboard-response", "trial_index": 145, "time_elapsed": 295976, "internal_node_id": "0.0-6.0-50.0"}}, {"uniqueid": "w54967420:a73238254", "current_trial": 146, "dateTime": 1664368209644, "trialdata": {"rt": 365, "stimulus": "<p id='stroop-text' class='stroop-green'>CHAIR</p>", "response": "g", "stimulus-type": "unrelated", "word": "CHAIR", "color": "green", "correct_response": "g", "trial_id": "stroop-trial-1-unrelated-22", "trial_type": "html-keyboard-response", "trial_index": 146, "time_elapsed": 296843, "internal_node_id": "0.0-6.0-51.0"}}, {"uniqueid": "w54967420:a73238254", "current_trial": 147, "dateTime": 1664368210716, "trialdata": {"rt": 569, "stimulus": "<p id='stroop-text' class='stroop-yellow'>YELLOW</p>", "response": "y", "stimulus-type": "congruent", "word": "yellow", "color": "yellow", "correct_response": "y", "trial_id": "stroop-trial-1-congruent-6", "trial_type": "html-keyboard-response", "trial_index": 147, "time_elapsed": 297916, "internal_node_id": "0.0-6.0-52.0"}}, {"uniqueid": "w54967420:a73238254", "current_trial": 148, "dateTime": 1664368211897, "trialdata": {"rt": 679, "stimulus": "<p id='stroop-text' class='stroop-red'>YELLOW</p>", "response": "r", "stimulus-type": "incongruent", "word": "yellow", "color": "red", "correct_response": "r", "trial_id": "stroop-trial-1-incongruent-24", "trial_type": "html-keyboard-response", "trial_index": 148, "time_elapsed": 299097, "internal_node_id": "0.0-6.0-53.0"}}, {"uniqueid": "w54967420:a73238254", "current_trial": 149, "dateTime": 1664368213222, "trialdata": {"rt": 821, "stimulus": "<p id='stroop-text' class='stroop-red'>BOTTLE</p>", "response": "r", "stimulus-type": "unrelated", "word": "BOTTLE", "color": "red", "correct_response": "r", "trial_id": "stroop-trial-1-unrelated-30", "trial_type": "html-keyboard-response", "trial_index": 149, "time_elapsed": 300422, "internal_node_id": "0.0-6.0-54.0"}}, {"uniqueid": "w54967420:a73238254", "current_trial": 150, "dateTime": 1664368214497, "trialdata": {"rt": 771, "stimulus": "<p id='stroop-text' class='stroop-blue'>SHIP</p>", "response": "b", "stimulus-type": "unrelated", "word": "SHIP", "color": "blue", "correct_response": "b", "trial_id": "stroop-trial-1-unrelated-18", "trial_type": "html-keyboard-response", "trial_index": 150, "time_elapsed": 301697, "internal_node_id": "0.0-6.0-55.0"}}, {"uniqueid": "w54967420:a73238254", "current_trial": 151, "dateTime": 1664368216173, "trialdata": {"rt": 1173, "stimulus": "<p id='stroop-text' class='stroop-green'>BRIDGE</p>", "response": "g", "stimulus-type": "unrelated", "word": "BRIDGE", "color": "green", "correct_response": "g", "trial_id": "stroop-trial-1-unrelated-3", "trial_type": "html-keyboard-response", "trial_index": 151, "time_elapsed": 303373, "internal_node_id": "0.0-6.0-56.0"}}, {"uniqueid": "w54967420:a73238254", "current_trial": 152, "dateTime": 1664368217142, "trialdata": {"rt": 463, "stimulus": "<p id='stroop-text' class='stroop-green'>RED</p>", "response": "g", "stimulus-type": "incongruent", "word": "red", "color": "green", "correct_response": "g", "trial_id": "stroop-trial-1-incongruent-5", "trial_type": "html-keyboard-response", "trial_index": 152, "time_elapsed": 304341, "internal_node_id": "0.0-6.0-57.0"}}, {"uniqueid": "w54967420:a73238254", "current_trial": 153, "dateTime": 1664368218344, "trialdata": {"rt": 699, "stimulus": "<p id='stroop-text' class='stroop-blue'>BLUE</p>", "response": "b", "stimulus-type": "congruent", "word": "blue", "color": "blue", "correct_response": "b", "trial_id": "stroop-trial-1-congruent-30", "trial_type": "html-keyboard-response", "trial_index": 153, "time_elapsed": 305544, "internal_node_id": "0.0-6.0-58.0"}}, {"uniqueid": "w54967420:a73238254", "current_trial": 154, "dateTime": 1664368219809, "trialdata": {"rt": 963, "stimulus": "<p id='stroop-text' class='stroop-green'>RED</p>", "response": "g", "stimulus-type": "incongruent", "word": "red", "color": "green", "correct_response": "g", "trial_id": "stroop-trial-1-incongruent-18", "trial_type": "html-keyboard-response", "trial_index": 154, "time_elapsed": 307009, "internal_node_id": "0.0-6.0-59.0"}}, {"uniqueid": "w54967420:a73238254", "current_trial": 155, "dateTime": 1664368221104, "trialdata": {"rt": 790, "stimulus": "<p id='stroop-text' class='stroop-yellow'>RED</p>", "response": "y", "stimulus-type": "incongruent", "word": "red", "color": "yellow", "correct_response": "y", "trial_id": "stroop-trial-1-incongruent-16", "trial_type": "html-keyboard-response", "trial_index": 155, "time_elapsed": 308303, "internal_node_id": "0.0-6.0-60.0"}}, {"uniqueid": "w54967420:a73238254", "current_trial": 156, "dateTime": 1664368222918, "trialdata": {"rt": 1311, "stimulus": "<p id='stroop-text' class='stroop-blue'>BLUE</p>", "response": "b", "stimulus-type": "congruent", "word": "blue", "color": "blue", "correct_response": "b", "trial_id": "stroop-trial-1-congruent-23", "trial_type": "html-keyboard-response", "trial_index": 156, "time_elapsed": 310118, "internal_node_id": "0.0-6.0-61.0"}}, {"uniqueid": "w54967420:a73238254", "current_trial": 157, "dateTime": 1664368223883, "trialdata": {"rt": 462, "stimulus": "<p id='stroop-text' class='stroop-blue'>BRIDGE</p>", "response": "b", "stimulus-type": "unrelated", "word": "BRIDGE", "color": "blue", "correct_response": "b", "trial_id": "stroop-trial-1-unrelated-25", "trial_type": "html-keyboard-response", "trial_index": 157, "time_elapsed": 311083, "internal_node_id": "0.0-6.0-62.0"}}, {"uniqueid": "w54967420:a73238254", "current_trial": 158, "dateTime": 1664368224772, "trialdata": {"rt": 387, "stimulus": "<p id='stroop-text' class='stroop-blue'>BLUE</p>", "response": "b", "stimulus-type": "congruent", "word": "blue", "color": "blue", "correct_response": "b", "trial_id": "stroop-trial-1-congruent-19", "trial_type": "html-keyboard-response", "trial_index": 158, "time_elapsed": 311972, "internal_node_id": "0.0-6.0-63.0"}}, {"uniqueid": "w54967420:a73238254", "current_trial": 159, "dateTime": 1664368225866, "trialdata": {"rt": 590, "stimulus": "<p id='stroop-text' class='stroop-green'>GREEN</p>", "response": "g", "stimulus-type": "congruent", "word": "green", "color": "green", "correct_response": "g", "trial_id": "stroop-trial-1-congruent-10", "trial_type": "html-keyboard-response", "trial_index": 159, "time_elapsed": 313065, "internal_node_id": "0.0-6.0-64.0"}}, {"uniqueid": "w54967420:a73238254", "current_trial": 160, "dateTime": 1664368226930, "trialdata": {"rt": 561, "stimulus": "<p id='stroop-text' class='stroop-green'>GREEN</p>", "response": "g", "stimulus-type": "congruent", "word": "green", "color": "green", "correct_response": "g", "trial_id": "stroop-trial-1-congruent-11", "trial_type": "html-keyboard-response", "trial_index": 160, "time_elapsed": 314130, "internal_node_id": "0.0-6.0-65.0"}}, {"uniqueid": "w54967420:a73238254", "current_trial": 161, "dateTime": 1664368228407, "trialdata": {"rt": 974, "stimulus": "<p id='stroop-text' class='stroop-yellow'>YELLOW</p>", "response": "y", "stimulus-type": "congruent", "word": "yellow", "color": "yellow", "correct_response": "y", "trial_id": "stroop-trial-1-congruent-12", "trial_type": "html-keyboard-response", "trial_index": 161, "time_elapsed": 315606, "internal_node_id": "0.0-6.0-66.0"}}, {"uniqueid": "w54967420:a73238254", "current_trial": 162, "dateTime": 1664368230895, "trialdata": {"rt": 1985, "stimulus": "<p id='stroop-text' class='stroop-green'>YELLOW</p>", "response": "g", "stimulus-type": "incongruent", "word": "yellow", "color": "green", "correct_response": "g", "trial_id": "stroop-trial-1-incongruent-10", "trial_type": "html-keyboard-response", "trial_index": 162, "time_elapsed": 318094, "internal_node_id": "0.0-6.0-67.0"}}, {"uniqueid": "w54967420:a73238254", "current_trial": 163, "dateTime": 1664368231874, "trialdata": {"rt": 476, "stimulus": "<p id='stroop-text' class='stroop-green'>GREEN</p>", "response": "g", "stimulus-type": "congruent", "word": "green", "color": "green", "correct_response": "g", "trial_id": "stroop-trial-1-congruent-14", "trial_type": "html-keyboard-response", "trial_index": 163, "time_elapsed": 319073, "internal_node_id": "0.0-6.0-68.0"}}, {"uniqueid": "w54967420:a73238254", "current_trial": 164, "dateTime": 1664368232690, "trialdata": {"rt": 314, "stimulus": "<p id='stroop-text' class='stroop-green'>GREEN</p>", "response": "g", "stimulus-type": "congruent", "word": "green", "color": "green", "correct_response": "g", "trial_id": "stroop-trial-1-congruent-8", "trial_type": "html-keyboard-response", "trial_index": 164, "time_elapsed": 319890, "internal_node_id": "0.0-6.0-69.0"}}, {"uniqueid": "w54967420:a73238254", "current_trial": 165, "dateTime": 1664368233857, "trialdata": {"rt": 665, "stimulus": "<p id='stroop-text' class='stroop-yellow'>STONE</p>", "response": "y", "stimulus-type": "unrelated", "word": "STONE", "color": "yellow", "correct_response": "y", "trial_id": "stroop-trial-1-unrelated-5", "trial_type": "html-keyboard-response", "trial_index": 165, "time_elapsed": 321057, "internal_node_id": "0.0-6.0-70.0"}}, {"uniqueid": "w54967420:a73238254", "current_trial": 166, "dateTime": 1664368236725, "trialdata": {"rt": 2364, "stimulus": "<p id='stroop-text' class='stroop-yellow'>BRIDGE</p>", "response": "y", "stimulus-type": "unrelated", "word": "BRIDGE", "color": "yellow", "correct_response": "y", "trial_id": "stroop-trial-1-unrelated-6", "trial_type": "html-keyboard-response", "trial_index": 166, "time_elapsed": 323925, "internal_node_id": "0.0-6.0-71.0"}}, {"uniqueid": "w54967420:a73238254", "current_trial": 167, "dateTime": 1664368238046, "trialdata": {"rt": 818, "stimulus": "<p id='stroop-text' class='stroop-yellow'>DOG</p>", "response": "y", "stimulus-type": "unrelated", "word": "DOG", "color": "yellow", "correct_response": "y", "trial_id": "stroop-trial-1-unrelated-16", "trial_type": "html-keyboard-response", "trial_index": 167, "time_elapsed": 325246, "internal_node_id": "0.0-6.0-72.0"}}, {"uniqueid": "w54967420:a73238254", "current_trial": 168, "dateTime": 1664368239467, "trialdata": {"rt": 918, "stimulus": "<p id='stroop-text' class='stroop-blue'>RED</p>", "response": "b", "stimulus-type": "incongruent", "word": "red", "color": "blue", "correct_response": "b", "trial_id": "stroop-trial-1-incongruent-21", "trial_type": "html-keyboard-response", "trial_index": 168, "time_elapsed": 326666, "internal_node_id": "0.0-6.0-73.0"}}, {"uniqueid": "w54967420:a73238254", "current_trial": 169, "dateTime": 1664368241079, "trialdata": {"rt": 1109, "stimulus": "<p id='stroop-text' class='stroop-green'>YELLOW</p>", "response": "g", "stimulus-type": "incongruent", "word": "yellow", "color": "green", "correct_response": "g", "trial_id": "stroop-trial-1-incongruent-8", "trial_type": "html-keyboard-response", "trial_index": 169, "time_elapsed": 328278, "internal_node_id": "0.0-6.0-74.0"}}, {"uniqueid": "w54967420:a73238254", "current_trial": 170, "dateTime": 1664368242359, "trialdata": {"rt": 777, "stimulus": "<p id='stroop-text' class='stroop-yellow'>GREEN</p>", "response": "y", "stimulus-type": "incongruent", "word": "green", "color": "yellow", "correct_response": "y", "trial_id": "stroop-trial-1-incongruent-22", "trial_type": "html-keyboard-response", "trial_index": 170, "time_elapsed": 329559, "internal_node_id": "0.0-6.0-75.0"}}, {"uniqueid": "w54967420:a73238254", "current_trial": 171, "dateTime": 1664368243796, "trialdata": {"rt": 934, "stimulus": "<p id='stroop-text' class='stroop-red'>RED</p>", "response": "r", "stimulus-type": "congruent", "word": "red", "color": "red", "correct_response": "r", "trial_id": "stroop-trial-1-congruent-18", "trial_type": "html-keyboard-response", "trial_index": 171, "time_elapsed": 330996, "internal_node_id": "0.0-6.0-76.0"}}, {"uniqueid": "w54967420:a73238254", "current_trial": 172, "dateTime": 1664368245030, "trialdata": {"rt": 731, "stimulus": "<p id='stroop-text' class='stroop-yellow'>RED</p>", "response": "y", "stimulus-type": "incongruent", "word": "red", "color": "yellow", "correct_response": "y", "trial_id": "stroop-trial-1-incongruent-23", "trial_type": "html-keyboard-response", "trial_index": 172, "time_elapsed": 332229, "internal_node_id": "0.0-6.0-77.0"}}, {"uniqueid": "w54967420:a73238254", "current_trial": 173, "dateTime": 1664368246538, "trialdata": {"rt": 1006, "stimulus": "<p id='stroop-text' class='stroop-blue'>SHIP</p>", "response": "b", "stimulus-type": "unrelated", "word": "SHIP", "color": "blue", "correct_response": "b", "trial_id": "stroop-trial-1-unrelated-29", "trial_type": "html-keyboard-response", "trial_index": 173, "time_elapsed": 333738, "internal_node_id": "0.0-6.0-78.0"}}, {"uniqueid": "w54967420:a73238254", "current_trial": 174, "dateTime": 1664368247559, "trialdata": {"rt": 517, "stimulus": "<p id='stroop-text' class='stroop-blue'>BLUE</p>", "response": "b", "stimulus-type": "congruent", "word": "blue", "color": "blue", "correct_response": "b", "trial_id": "stroop-trial-1-congruent-9", "trial_type": "html-keyboard-response", "trial_index": 174, "time_elapsed": 334759, "internal_node_id": "0.0-6.0-79.0"}}, {"uniqueid": "w54967420:a73238254", "current_trial": 175, "dateTime": 1664368248839, "trialdata": {"rt": 776, "stimulus": "<p id='stroop-text' class='stroop-yellow'>WINDOW</p>", "response": "y", "stimulus-type": "unrelated", "word": "WINDOW", "color": "yellow", "correct_response": "y", "trial_id": "stroop-trial-1-unrelated-27", "trial_type": "html-keyboard-response", "trial_index": 175, "time_elapsed": 336039, "internal_node_id": "0.0-6.0-80.0"}}, {"uniqueid": "w54967420:a73238254", "current_trial": 176, "dateTime": 1664368249898, "trialdata": {"rt": 557, "stimulus": "<p id='stroop-text' class='stroop-yellow'>STONE</p>", "response": "y", "stimulus-type": "unrelated", "word": "STONE", "color": "yellow", "correct_response": "y", "trial_id": "stroop-trial-1-unrelated-10", "trial_type": "html-keyboard-response", "trial_index": 176, "time_elapsed": 337098, "internal_node_id": "0.0-6.0-81.0"}}, {"uniqueid": "w54967420:a73238254", "current_trial": 177, "dateTime": 1664368251042, "trialdata": {"rt": 640, "stimulus": "<p id='stroop-text' class='stroop-red'>RED</p>", "response": "r", "stimulus-type": "congruent", "word": "red", "color": "red", "correct_response": "r", "trial_id": "stroop-trial-1-congruent-16", "trial_type": "html-keyboard-response", "trial_index": 177, "time_elapsed": 338241, "internal_node_id": "0.0-6.0-82.0"}}, {"uniqueid": "w54967420:a73238254", "current_trial": 178, "dateTime": 1664368252216, "trialdata": {"rt": 671, "stimulus": "<p id='stroop-text' class='stroop-green'>SHIP</p>", "response": "g", "stimulus-type": "unrelated", "word": "SHIP", "color": "green", "correct_response": "g", "trial_id": "stroop-trial-1-unrelated-2", "trial_type": "html-keyboard-response", "trial_index": 178, "time_elapsed": 339416, "internal_node_id": "0.0-6.0-83.0"}}, {"uniqueid": "w54967420:a73238254", "current_trial": 179, "dateTime": 1664368253252, "trialdata": {"rt": 532, "stimulus": "<p id='stroop-text' class='stroop-yellow'>GREEN</p>", "response": "y", "stimulus-type": "incongruent", "word": "green", "color": "yellow", "correct_response": "y", "trial_id": "stroop-trial-1-incongruent-25", "trial_type": "html-keyboard-response", "trial_index": 179, "time_elapsed": 340452, "internal_node_id": "0.0-6.0-84.0"}}, {"uniqueid": "w54967420:a73238254", "current_trial": 180, "dateTime": 1664368254481, "trialdata": {"rt": 725, "stimulus": "<p id='stroop-text' class='stroop-red'>RED</p>", "response": "r", "stimulus-type": "congruent", "word": "red", "color": "red", "correct_response": "r", "trial_id": "stroop-trial-1-congruent-7", "trial_type": "html-keyboard-response", "trial_index": 180, "time_elapsed": 341680, "internal_node_id": "0.0-6.0-85.0"}}, {"uniqueid": "w54967420:a73238254", "current_trial": 181, "dateTime": 1664368255831, "trialdata": {"rt": 848, "stimulus": "<p id='stroop-text' class='stroop-green'>BLUE</p>", "response": "g", "stimulus-type": "incongruent", "word": "blue", "color": "green", "correct_response": "g", "trial_id": "stroop-trial-1-incongruent-4", "trial_type": "html-keyboard-response", "trial_index": 181, "time_elapsed": 343030, "internal_node_id": "0.0-6.0-86.0"}}, {"uniqueid": "w54967420:a73238254", "current_trial": 182, "dateTime": 1664368256911, "trialdata": {"rt": 577, "stimulus": "<p id='stroop-text' class='stroop-green'>YELLOW</p>", "response": "g", "stimulus-type": "incongruent", "word": "yellow", "color": "green", "correct_response": "g", "trial_id": "stroop-trial-1-incongruent-14", "trial_type": "html-keyboard-response", "trial_index": 182, "time_elapsed": 344110, "internal_node_id": "0.0-6.0-87.0"}}, {"uniqueid": "w54967420:a73238254", "current_trial": 183, "dateTime": 1664368258056, "trialdata": {"rt": 643, "stimulus": "<p id='stroop-text' class='stroop-red'>YELLOW</p>", "response": "r", "stimulus-type": "incongruent", "word": "yellow", "color": "red", "correct_response": "r", "trial_id": "stroop-trial-1-incongruent-29", "trial_type": "html-keyboard-response", "trial_index": 183, "time_elapsed": 345255, "internal_node_id": "0.0-6.0-88.0"}}, {"uniqueid": "w54967420:a73238254", "current_trial": 184, "dateTime": 1664368259225, "trialdata": {"rt": 666, "stimulus": "<p id='stroop-text' class='stroop-yellow'>YELLOW</p>", "response": "y", "stimulus-type": "congruent", "word": "yellow", "color": "yellow", "correct_response": "y", "trial_id": "stroop-trial-1-congruent-15", "trial_type": "html-keyboard-response", "trial_index": 184, "time_elapsed": 346425, "internal_node_id": "0.0-6.0-89.0"}}, {"uniqueid": "w54967420:a73238254", "current_trial": 185, "dateTime": 1664368279589, "trialdata": {"rt": 19861, "stimulus": "  <h1> End of block! </h1>\n\n  You have reached the end of the block 2/5. If you need a short break, feel free to take one now before moving on.\n\n  <br><br>\n  In the next block, you will complete another 90 rounds of this game.\n\n  <br><br>\n  <div style='text-align: center;'>Press <code>space</code> to begin.</div>\n  <br><br>\n<div style='text-align: center;'>(If the experiment doesn't continue, try clicking on the text and then pressing <code>space</code>.)</div>", "response": " ", "trial_id": "stroop_1_ready_3", "trial_type": "html-keyboard-response", "trial_index": 185, "time_elapsed": 366789, "internal_node_id": "0.0-7.0"}}, {"uniqueid": "w54967420:a73238254", "current_trial": 186, "dateTime": 1664368280802, "trialdata": {"rt": 1210, "stimulus": "<p id='stroop-text' class='stroop-green'>GREEN</p>", "response": "g", "stimulus-type": "congruent", "word": "green", "color": "green", "correct_response": "g", "trial_id": "stroop-trial-1-congruent-9", "trial_type": "html-keyboard-response", "trial_index": 186, "time_elapsed": 368001, "internal_node_id": "0.0-8.0-0.0"}}, {"uniqueid": "w54967420:a73238254", "current_trial": 187, "dateTime": 1664368282068, "trialdata": {"rt": 763, "stimulus": "<p id='stroop-text' class='stroop-yellow'>STONE</p>", "response": "y", "stimulus-type": "unrelated", "word": "STONE", "color": "yellow", "correct_response": "y", "trial_id": "stroop-trial-1-unrelated-3", "trial_type": "html-keyboard-response", "trial_index": 187, "time_elapsed": 369267, "internal_node_id": "0.0-8.0-1.0"}}, {"uniqueid": "w54967420:a73238254", "current_trial": 188, "dateTime": 1664368283079, "trialdata": {"rt": 509, "stimulus": "<p id='stroop-text' class='stroop-red'>RED</p>", "response": "r", "stimulus-type": "congruent", "word": "red", "color": "red", "correct_response": "r", "trial_id": "stroop-trial-1-congruent-6", "trial_type": "html-keyboard-response", "trial_index": 188, "time_elapsed": 370279, "internal_node_id": "0.0-8.0-2.0"}}, {"uniqueid": "w54967420:a73238254", "current_trial": 189, "dateTime": 1664368284149, "trialdata": {"rt": 567, "stimulus": "<p id='stroop-text' class='stroop-yellow'>BOAT</p>", "response": "y", "stimulus-type": "unrelated", "word": "BOAT", "color": "yellow", "correct_response": "y", "trial_id": "stroop-trial-1-unrelated-24", "trial_type": "html-keyboard-response", "trial_index": 189, "time_elapsed": 371349, "internal_node_id": "0.0-8.0-3.0"}}, {"uniqueid": "w54967420:a73238254", "current_trial": 190, "dateTime": 1664368285154, "trialdata": {"rt": 503, "stimulus": "<p id='stroop-text' class='stroop-green'>GREEN</p>", "response": "g", "stimulus-type": "congruent", "word": "green", "color": "green", "correct_response": "g", "trial_id": "stroop-trial-1-congruent-25", "trial_type": "html-keyboard-response", "trial_index": 190, "time_elapsed": 372354, "internal_node_id": "0.0-8.0-4.0"}}, {"uniqueid": "w54967420:a73238254", "current_trial": 191, "dateTime": 1664368286238, "trialdata": {"rt": 581, "stimulus": "<p id='stroop-text' class='stroop-blue'>BLUE</p>", "response": "b", "stimulus-type": "congruent", "word": "blue", "color": "blue", "correct_response": "b", "trial_id": "stroop-trial-1-congruent-10", "trial_type": "html-keyboard-response", "trial_index": 191, "time_elapsed": 373437, "internal_node_id": "0.0-8.0-5.0"}}, {"uniqueid": "w54967420:a73238254", "current_trial": 192, "dateTime": 1664368287576, "trialdata": {"rt": 836, "stimulus": "<p id='stroop-text' class='stroop-green'>RED</p>", "response": "g", "stimulus-type": "incongruent", "word": "red", "color": "green", "correct_response": "g", "trial_id": "stroop-trial-1-incongruent-27", "trial_type": "html-keyboard-response", "trial_index": 192, "time_elapsed": 374776, "internal_node_id": "0.0-8.0-6.0"}}, {"uniqueid": "w54967420:a73238254", "current_trial": 193, "dateTime": 1664368288663, "trialdata": {"rt": 584, "stimulus": "<p id='stroop-text' class='stroop-red'>DOG</p>", "response": "r", "stimulus-type": "unrelated", "word": "DOG", "color": "red", "correct_response": "r", "trial_id": "stroop-trial-1-unrelated-30", "trial_type": "html-keyboard-response", "trial_index": 193, "time_elapsed": 375863, "internal_node_id": "0.0-8.0-7.0"}}, {"uniqueid": "w54967420:a73238254", "current_trial": 194, "dateTime": 1664368289899, "trialdata": {"rt": 733, "stimulus": "<p id='stroop-text' class='stroop-blue'>BLUE</p>", "response": "b", "stimulus-type": "congruent", "word": "blue", "color": "blue", "correct_response": "b", "trial_id": "stroop-trial-1-congruent-28", "trial_type": "html-keyboard-response", "trial_index": 194, "time_elapsed": 377099, "internal_node_id": "0.0-8.0-8.0"}}, {"uniqueid": "w54967420:a73238254", "current_trial": 195, "dateTime": 1664368291190, "trialdata": {"rt": 786, "stimulus": "<p id='stroop-text' class='stroop-red'>GREEN</p>", "response": "r", "stimulus-type": "incongruent", "word": "green", "color": "red", "correct_response": "r", "trial_id": "stroop-trial-1-incongruent-4", "trial_type": "html-keyboard-response", "trial_index": 195, "time_elapsed": 378389, "internal_node_id": "0.0-8.0-9.0"}}, {"uniqueid": "w54967420:a73238254", "current_trial": 196, "dateTime": 1664368292873, "trialdata": {"rt": 1179, "stimulus": "<p id='stroop-text' class='stroop-blue'>BLUE</p>", "response": "b", "stimulus-type": "congruent", "word": "blue", "color": "blue", "correct_response": "b", "trial_id": "stroop-trial-1-congruent-8", "trial_type": "html-keyboard-response", "trial_index": 196, "time_elapsed": 380072, "internal_node_id": "0.0-8.0-10.0"}}, {"uniqueid": "w54967420:a73238254", "current_trial": 197, "dateTime": 1664368293912, "trialdata": {"rt": 537, "stimulus": "<p id='stroop-text' class='stroop-blue'>BLUE</p>", "response": "b", "stimulus-type": "congruent", "word": "blue", "color": "blue", "correct_response": "b", "trial_id": "stroop-trial-1-congruent-4", "trial_type": "html-keyboard-response", "trial_index": 197, "time_elapsed": 381112, "internal_node_id": "0.0-8.0-11.0"}}, {"uniqueid": "w54967420:a73238254", "current_trial": 198, "dateTime": 1664368294900, "trialdata": {"rt": 484, "stimulus": "<p id='stroop-text' class='stroop-green'>GREEN</p>", "response": "g", "stimulus-type": "congruent", "word": "green", "color": "green", "correct_response": "g", "trial_id": "stroop-trial-1-congruent-7", "trial_type": "html-keyboard-response", "trial_index": 198, "time_elapsed": 382099, "internal_node_id": "0.0-8.0-12.0"}}, {"uniqueid": "w54967420:a73238254", "current_trial": 199, "dateTime": 1664368295848, "trialdata": {"rt": 445, "stimulus": "<p id='stroop-text' class='stroop-yellow'>FORK</p>", "response": "y", "stimulus-type": "unrelated", "word": "FORK", "color": "yellow", "correct_response": "y", "trial_id": "stroop-trial-1-unrelated-11", "trial_type": "html-keyboard-response", "trial_index": 199, "time_elapsed": 383047, "internal_node_id": "0.0-8.0-13.0"}}, {"uniqueid": "w54967420:a73238254", "current_trial": 200, "dateTime": 1664368296779, "trialdata": {"rt": 429, "stimulus": "<p id='stroop-text' class='stroop-yellow'>BOTTLE</p>", "response": "y", "stimulus-type": "unrelated", "word": "BOTTLE", "color": "yellow", "correct_response": "y", "trial_id": "stroop-trial-1-unrelated-28", "trial_type": "html-keyboard-response", "trial_index": 200, "time_elapsed": 383979, "internal_node_id": "0.0-8.0-14.0"}}, {"uniqueid": "w54967420:a73238254", "current_trial": 201, "dateTime": 1664368298004, "trialdata": {"rt": 720, "stimulus": "<p id='stroop-text' class='stroop-green'>YELLOW</p>", "response": "g", "stimulus-type": "incongruent", "word": "yellow", "color": "green", "correct_response": "g", "trial_id": "stroop-trial-1-incongruent-11", "trial_type": "html-keyboard-response", "trial_index": 201, "time_elapsed": 385204, "internal_node_id": "0.0-8.0-15.0"}}, {"uniqueid": "w54967420:a73238254", "current_trial": 202, "dateTime": 1664368299073, "trialdata": {"rt": 566, "stimulus": "<p id='stroop-text' class='stroop-yellow'>BLUE</p>", "response": "b", "stimulus-type": "incongruent", "word": "blue", "color": "yellow", "correct_response": "y", "trial_id": "stroop-trial-1-incongruent-6", "trial_type": "html-keyboard-response", "trial_index": 202, "time_elapsed": 386272, "internal_node_id": "0.0-8.0-16.0"}}, {"uniqueid": "w54967420:a73238254", "current_trial": 203, "dateTime": 1664368300712, "trialdata": {"rt": 1135, "stimulus": "<p id='stroop-text' class='stroop-blue'>RED</p>", "response": "b", "stimulus-type": "incongruent", "word": "red", "color": "blue", "correct_response": "b", "trial_id": "stroop-trial-1-incongruent-19", "trial_type": "html-keyboard-response", "trial_index": 203, "time_elapsed": 387912, "internal_node_id": "0.0-8.0-17.0"}}, {"uniqueid": "w54967420:a73238254", "current_trial": 204, "dateTime": 1664368301741, "trialdata": {"rt": 524, "stimulus": "<p id='stroop-text' class='stroop-blue'>SHIP</p>", "response": "b", "stimulus-type": "unrelated", "word": "SHIP", "color": "blue", "correct_response": "b", "trial_id": "stroop-trial-1-unrelated-14", "trial_type": "html-keyboard-response", "trial_index": 204, "time_elapsed": 388940, "internal_node_id": "0.0-8.0-18.0"}}, {"uniqueid": "w54967420:a73238254", "current_trial": 205, "dateTime": 1664368302947, "trialdata": {"rt": 702, "stimulus": "<p id='stroop-text' class='stroop-red'>GREEN</p>", "response": "r", "stimulus-type": "incongruent", "word": "green", "color": "red", "correct_response": "r", "trial_id": "stroop-trial-1-incongruent-18", "trial_type": "html-keyboard-response", "trial_index": 205, "time_elapsed": 390146, "internal_node_id": "0.0-8.0-19.0"}}, {"uniqueid": "w54967420:a73238254", "current_trial": 206, "dateTime": 1664368304335, "trialdata": {"rt": 883, "stimulus": "<p id='stroop-text' class='stroop-blue'>YELLOW</p>", "response": "b", "stimulus-type": "incongruent", "word": "yellow", "color": "blue", "correct_response": "b", "trial_id": "stroop-trial-1-incongruent-22", "trial_type": "html-keyboard-response", "trial_index": 206, "time_elapsed": 391535, "internal_node_id": "0.0-8.0-20.0"}}, {"uniqueid": "w54967420:a73238254", "current_trial": 207, "dateTime": 1664368305456, "trialdata": {"rt": 616, "stimulus": "<p id='stroop-text' class='stroop-blue'>GREEN</p>", "response": "b", "stimulus-type": "incongruent", "word": "green", "color": "blue", "correct_response": "b", "trial_id": "stroop-trial-1-incongruent-20", "trial_type": "html-keyboard-response", "trial_index": 207, "time_elapsed": 392655, "internal_node_id": "0.0-8.0-21.0"}}, {"uniqueid": "w54967420:a73238254", "current_trial": 208, "dateTime": 1664368306831, "trialdata": {"rt": 873, "stimulus": "<p id='stroop-text' class='stroop-yellow'>YELLOW</p>", "response": "y", "stimulus-type": "congruent", "word": "yellow", "color": "yellow", "correct_response": "y", "trial_id": "stroop-trial-1-congruent-5", "trial_type": "html-keyboard-response", "trial_index": 208, "time_elapsed": 394031, "internal_node_id": "0.0-8.0-22.0"}}, {"uniqueid": "w54967420:a73238254", "current_trial": 209, "dateTime": 1664368307810, "trialdata": {"rt": 476, "stimulus": "<p id='stroop-text' class='stroop-yellow'>STONE</p>", "response": "y", "stimulus-type": "unrelated", "word": "STONE", "color": "yellow", "correct_response": "y", "trial_id": "stroop-trial-1-unrelated-15", "trial_type": "html-keyboard-response", "trial_index": 209, "time_elapsed": 395010, "internal_node_id": "0.0-8.0-23.0"}}, {"uniqueid": "w54967420:a73238254", "current_trial": 210, "dateTime": 1664368309028, "trialdata": {"rt": 715, "stimulus": "<p id='stroop-text' class='stroop-red'>BLUE</p>", "response": "r", "stimulus-type": "incongruent", "word": "blue", "color": "red", "correct_response": "r", "trial_id": "stroop-trial-1-incongruent-28", "trial_type": "html-keyboard-response", "trial_index": 210, "time_elapsed": 396228, "internal_node_id": "0.0-8.0-24.0"}}, {"uniqueid": "w54967420:a73238254", "current_trial": 211, "dateTime": 1664368310983, "trialdata": {"rt": 1450, "stimulus": "<p id='stroop-text' class='stroop-green'>DOG</p>", "response": "g", "stimulus-type": "unrelated", "word": "DOG", "color": "green", "correct_response": "g", "trial_id": "stroop-trial-1-unrelated-6", "trial_type": "html-keyboard-response", "trial_index": 211, "time_elapsed": 398183, "internal_node_id": "0.0-8.0-25.0"}}, {"uniqueid": "w54967420:a73238254", "current_trial": 212, "dateTime": 1664368311958, "trialdata": {"rt": 471, "stimulus": "<p id='stroop-text' class='stroop-green'>BLUE</p>", "response": "g", "stimulus-type": "incongruent", "word": "blue", "color": "green", "correct_response": "g", "trial_id": "stroop-trial-1-incongruent-23", "trial_type": "html-keyboard-response", "trial_index": 212, "time_elapsed": 399157, "internal_node_id": "0.0-8.0-26.0"}}, {"uniqueid": "w54967420:a73238254", "current_trial": 213, "dateTime": 1664368313849, "trialdata": {"rt": 1389, "stimulus": "<p id='stroop-text' class='stroop-red'>RED</p>", "response": "r", "stimulus-type": "congruent", "word": "red", "color": "red", "correct_response": "r", "trial_id": "stroop-trial-1-congruent-1", "trial_type": "html-keyboard-response", "trial_index": 213, "time_elapsed": 401048, "internal_node_id": "0.0-8.0-27.0"}}, {"uniqueid": "w54967420:a73238254", "current_trial": 214, "dateTime": 1664368314786, "trialdata": {"rt": 435, "stimulus": "<p id='stroop-text' class='stroop-red'>BRIDGE</p>", "response": "r", "stimulus-type": "unrelated", "word": "BRIDGE", "color": "red", "correct_response": "r", "trial_id": "stroop-trial-1-unrelated-20", "trial_type": "html-keyboard-response", "trial_index": 214, "time_elapsed": 401986, "internal_node_id": "0.0-8.0-28.0"}}, {"uniqueid": "w54967420:a73238254", "current_trial": 215, "dateTime": 1664368315711, "trialdata": {"rt": 422, "stimulus": "<p id='stroop-text' class='stroop-red'>BOAT</p>", "response": "r", "stimulus-type": "unrelated", "word": "BOAT", "color": "red", "correct_response": "r", "trial_id": "stroop-trial-1-unrelated-26", "trial_type": "html-keyboard-response", "trial_index": 215, "time_elapsed": 402911, "internal_node_id": "0.0-8.0-29.0"}}, {"uniqueid": "w54967420:a73238254", "current_trial": 216, "dateTime": 1664368316774, "trialdata": {"rt": 559, "stimulus": "<p id='stroop-text' class='stroop-yellow'>RED</p>", "response": "y", "stimulus-type": "incongruent", "word": "red", "color": "yellow", "correct_response": "y", "trial_id": "stroop-trial-1-incongruent-17", "trial_type": "html-keyboard-response", "trial_index": 216, "time_elapsed": 403973, "internal_node_id": "0.0-8.0-30.0"}}, {"uniqueid": "w54967420:a73238254", "current_trial": 217, "dateTime": 1664368318158, "trialdata": {"rt": 881, "stimulus": "<p id='stroop-text' class='stroop-blue'>RED</p>", "response": "b", "stimulus-type": "incongruent", "word": "red", "color": "blue", "correct_response": "b", "trial_id": "stroop-trial-1-incongruent-2", "trial_type": "html-keyboard-response", "trial_index": 217, "time_elapsed": 405357, "internal_node_id": "0.0-8.0-31.0"}}, {"uniqueid": "w54967420:a73238254", "current_trial": 218, "dateTime": 1664368319496, "trialdata": {"rt": 831, "stimulus": "<p id='stroop-text' class='stroop-yellow'>CHAIR</p>", "response": "y", "stimulus-type": "unrelated", "word": "CHAIR", "color": "yellow", "correct_response": "y", "trial_id": "stroop-trial-1-unrelated-5", "trial_type": "html-keyboard-response", "trial_index": 218, "time_elapsed": 406696, "internal_node_id": "0.0-8.0-32.0"}}, {"uniqueid": "w54967420:a73238254", "current_trial": 219, "dateTime": 1664368320821, "trialdata": {"rt": 821, "stimulus": "<p id='stroop-text' class='stroop-green'>FORK</p>", "response": "g", "stimulus-type": "unrelated", "word": "FORK", "color": "green", "correct_response": "g", "trial_id": "stroop-trial-1-unrelated-22", "trial_type": "html-keyboard-response", "trial_index": 219, "time_elapsed": 408021, "internal_node_id": "0.0-8.0-33.0"}}, {"uniqueid": "w54967420:a73238254", "current_trial": 220, "dateTime": 1664368322325, "trialdata": {"rt": 999, "stimulus": "<p id='stroop-text' class='stroop-yellow'>YELLOW</p>", "response": "y", "stimulus-type": "congruent", "word": "yellow", "color": "yellow", "correct_response": "y", "trial_id": "stroop-trial-1-congruent-3", "trial_type": "html-keyboard-response", "trial_index": 220, "time_elapsed": 409525, "internal_node_id": "0.0-8.0-34.0"}}, {"uniqueid": "w54967420:a73238254", "current_trial": 221, "dateTime": 1664368323822, "trialdata": {"rt": 993, "stimulus": "<p id='stroop-text' class='stroop-blue'>MONKEY</p>", "response": "b", "stimulus-type": "unrelated", "word": "MONKEY", "color": "blue", "correct_response": "b", "trial_id": "stroop-trial-1-unrelated-7", "trial_type": "html-keyboard-response", "trial_index": 221, "time_elapsed": 411021, "internal_node_id": "0.0-8.0-35.0"}}, {"uniqueid": "w54967420:a73238254", "current_trial": 222, "dateTime": 1664368325203, "trialdata": {"rt": 878, "stimulus": "<p id='stroop-text' class='stroop-yellow'>RED</p>", "response": "y", "stimulus-type": "incongruent", "word": "red", "color": "yellow", "correct_response": "y", "trial_id": "stroop-