{"condition": 0, "counterbalance": 0, "assignmentId": "a74361576", "workerId": "w47297517", "hitId": "h12186483", "currenttrial": 965, "bonus": 0, "data": [{"uniqueid": "w47297517:a74361576", "current_trial": 0, "dateTime": 1664555037221, "trialdata": {"success": true, "trial_type": "fullscreen", "trial_index": 0, "time_elapsed": 4577, "internal_node_id": "0.0-0.0"}}, {"uniqueid": "w47297517:a74361576", "current_trial": 1, "dateTime": 1664555066223, "trialdata": {"view_history": [{"page_index": 0, "viewing_time": 28999}], "rt": 29000, "trial_id": "exp_instructions_distractor", "trial_type": "instructions", "trial_index": 1, "time_elapsed": 33580, "internal_node_id": "0.0-1.0"}}, {"uniqueid": "w47297517:a74361576", "current_trial": 2, "dateTime": 1664556232716, "trialdata": {"view_history": [{"page_index": 0, "viewing_time": 1166492}], "rt": 1166493, "trial_id": "color_game_instructions", "trial_type": "instructions", "trial_index": 2, "time_elapsed": 1200073, "internal_node_id": "0.0-2.0"}}, {"uniqueid": "w47297517:a74361576", "current_trial": 3, "dateTime": 1664556234667, "trialdata": {"rt": 1949, "stimulus": "<h1> Get ready to start the game! </h1>\n\nThank you for reading the instructions. Get ready start with the first of 5 block(s) of this game.\n<br><br>\nIn this first block, you will complete 90 rounds of this game before moving on.\n<br><br>\nRemember, the better you perform, the bigger your bonus will be!\n<br><br>\n<div style='text-align: center;'>Press <code>space</code> to begin.</div>", "response": " ", "trial_id": "stroop_1_ready_1", "trial_type": "html-keyboard-response", "trial_index": 3, "time_elapsed": 1202024, "internal_node_id": "0.0-3.0"}}, {"uniqueid": "w47297517:a74361576", "current_trial": 4, "dateTime": 1664556235586, "trialdata": {"rt": 892, "stimulus": "<p id='stroop-text' class='stroop-yellow'>YELLOW</p>", "response": "y", "stimulus-type": "congruent", "word": "yellow", "color": "yellow", "correct_response": "y", "trial_id": "stroop-trial-1-congruent-8", "trial_type": "html-keyboard-response", "trial_index": 4, "time_elapsed": 1202943, "internal_node_id": "0.0-4.0-0.0"}}, {"uniqueid": "w47297517:a74361576", "current_trial": 5, "dateTime": 1664556236811, "trialdata": {"rt": 721, "stimulus": "<p id='stroop-text' class='stroop-yellow'>YELLOW</p>", "response": "y", "stimulus-type": "congruent", "word": "yellow", "color": "yellow", "correct_response": "y", "trial_id": "stroop-trial-1-congruent-11", "trial_type": "html-keyboard-response", "trial_index": 5, "time_elapsed": 1204167, "internal_node_id": "0.0-4.0-1.0"}}, {"uniqueid": "w47297517:a74361576", "current_trial": 6, "dateTime": 1664556238379, "trialdata": {"rt": 1066, "stimulus": "<p id='stroop-text' class='stroop-blue'>BLUE</p>", "response": "b", "stimulus-type": "congruent", "word": "blue", "color": "blue", "correct_response": "b", "trial_id": "stroop-trial-1-congruent-2", "trial_type": "html-keyboard-response", "trial_index": 6, "time_elapsed": 1205735, "internal_node_id": "0.0-4.0-2.0"}}, {"uniqueid": "w47297517:a74361576", "current_trial": 7, "dateTime": 1664556239811, "trialdata": {"rt": 931, "stimulus": "<p id='stroop-text' class='stroop-green'>GREEN</p>", "response": "g", "stimulus-type": "congruent", "word": "green", "color": "green", "correct_response": "g", "trial_id": "stroop-trial-1-congruent-20", "trial_type": "html-keyboard-response", "trial_index": 7, "time_elapsed": 1207168, "internal_node_id": "0.0-4.0-3.0"}}, {"uniqueid": "w47297517:a74361576", "current_trial": 8, "dateTime": 1664556241138, "trialdata": {"rt": 826, "stimulus": "<p id='stroop-text' class='stroop-yellow'>BOTTLE</p>", "response": "y", "stimulus-type": "unrelated", "word": "BOTTLE", "color": "yellow", "correct_response": "y", "trial_id": "stroop-trial-1-unrelated-7", "trial_type": "html-keyboard-response", "trial_index": 8, "time_elapsed": 1208495, "internal_node_id": "0.0-4.0-4.0"}}, {"uniqueid": "w47297517:a74361576", "current_trial": 9, "dateTime": 1664556242531, "trialdata": {"rt": 890, "stimulus": "<p id='stroop-text' class='stroop-red'>GREEN</p>", "response": "r", "stimulus-type": "incongruent", "word": "green", "color": "red", "correct_response": "r", "trial_id": "stroop-trial-1-incongruent-13", "trial_type": "html-keyboard-response", "trial_index": 9, "time_elapsed": 1209887, "internal_node_id": "0.0-4.0-5.0"}}, {"uniqueid": "w47297517:a74361576", "current_trial": 10, "dateTime": 1664556244730, "trialdata": {"rt": 1697, "stimulus": "<p id='stroop-text' class='stroop-green'>RED</p>", "response": "b", "stimulus-type": "incongruent", "word": "red", "color": "green", "correct_response": "g", "trial_id": "stroop-trial-1-incongruent-14", "trial_type": "html-keyboard-response", "trial_index": 10, "time_elapsed": 1212087, "internal_node_id": "0.0-4.0-6.0"}}, {"uniqueid": "w47297517:a74361576", "current_trial": 11, "dateTime": 1664556247130, "trialdata": {"rt": 1897, "stimulus": "<p id='stroop-text' class='stroop-red'>GREEN</p>", "response": "g", "stimulus-type": "incongruent", "word": "green", "color": "red", "correct_response": "r", "trial_id": "stroop-trial-1-incongruent-24", "trial_type": "html-keyboard-response", "trial_index": 11, "time_elapsed": 1214487, "internal_node_id": "0.0-4.0-7.0"}}, {"uniqueid": "w47297517:a74361576", "current_trial": 12, "dateTime": 1664556249178, "trialdata": {"rt": 1547, "stimulus": "<p id='stroop-text' class='stroop-yellow'>YELLOW</p>", "response": "y", "stimulus-type": "congruent", "word": "yellow", "color": "yellow", "correct_response": "y", "trial_id": "stroop-trial-1-congruent-27", "trial_type": "html-keyboard-response", "trial_index": 12, "time_elapsed": 1216535, "internal_node_id": "0.0-4.0-8.0"}}, {"uniqueid": "w47297517:a74361576", "current_trial": 13, "dateTime": 1664556250602, "trialdata": {"rt": 923, "stimulus": "<p id='stroop-text' class='stroop-red'>RED</p>", "response": "r", "stimulus-type": "congruent", "word": "red", "color": "red", "correct_response": "r", "trial_id": "stroop-trial-1-congruent-6", "trial_type": "html-keyboard-response", "trial_index": 13, "time_elapsed": 1217959, "internal_node_id": "0.0-4.0-9.0"}}, {"uniqueid": "w47297517:a74361576", "current_trial": 14, "dateTime": 1664556252250, "trialdata": {"rt": 1133, "stimulus": "<p id='stroop-text' class='stroop-blue'>RED</p>", "response": "b", "stimulus-type": "incongruent", "word": "red", "color": "blue", "correct_response": "b", "trial_id": "stroop-trial-1-incongruent-1", "trial_type": "html-keyboard-response", "trial_index": 14, "time_elapsed": 1219607, "internal_node_id": "0.0-4.0-10.0"}}, {"uniqueid": "w47297517:a74361576", "current_trial": 15, "dateTime": 1664556253506, "trialdata": {"rt": 753, "stimulus": "<p id='stroop-text' class='stroop-yellow'>BRIDGE</p>", "response": "y", "stimulus-type": "unrelated", "word": "BRIDGE", "color": "yellow", "correct_response": "y", "trial_id": "stroop-trial-1-unrelated-29", "trial_type": "html-keyboard-response", "trial_index": 15, "time_elapsed": 1220863, "internal_node_id": "0.0-4.0-11.0"}}, {"uniqueid": "w47297517:a74361576", "current_trial": 16, "dateTime": 1664556255227, "trialdata": {"rt": 1218, "stimulus": "<p id='stroop-text' class='stroop-blue'>BRIDGE</p>", "response": "b", "stimulus-type": "unrelated", "word": "BRIDGE", "color": "blue", "correct_response": "b", "trial_id": "stroop-trial-1-unrelated-18", "trial_type": "html-keyboard-response", "trial_index": 16, "time_elapsed": 1222583, "internal_node_id": "0.0-4.0-12.0"}}, {"uniqueid": "w47297517:a74361576", "current_trial": 17, "dateTime": 1664556256674, "trialdata": {"rt": 947, "stimulus": "<p id='stroop-text' class='stroop-green'>BRAIN</p>", "response": "g", "stimulus-type": "unrelated", "word": "BRAIN", "color": "green", "correct_response": "g", "trial_id": "stroop-trial-1-unrelated-24", "trial_type": "html-keyboard-response", "trial_index": 17, "time_elapsed": 1224031, "internal_node_id": "0.0-4.0-13.0"}}, {"uniqueid": "w47297517:a74361576", "current_trial": 18, "dateTime": 1664556258419, "trialdata": {"rt": 1243, "stimulus": "<p id='stroop-text' class='stroop-green'>BLUE</p>", "response": "g", "stimulus-type": "incongruent", "word": "blue", "color": "green", "correct_response": "g", "trial_id": "stroop-trial-1-incongruent-11", "trial_type": "html-keyboard-response", "trial_index": 18, "time_elapsed": 1225775, "internal_node_id": "0.0-4.0-14.0"}}, {"uniqueid": "w47297517:a74361576", "current_trial": 19, "dateTime": 1664556260354, "trialdata": {"rt": 1434, "stimulus": "<p id='stroop-text' class='stroop-red'>GREEN</p>", "response": "r", "stimulus-type": "incongruent", "word": "green", "color": "red", "correct_response": "r", "trial_id": "stroop-trial-1-incongruent-23", "trial_type": "html-keyboard-response", "trial_index": 19, "time_elapsed": 1227711, "internal_node_id": "0.0-4.0-15.0"}}, {"uniqueid": "w47297517:a74361576", "current_trial": 20, "dateTime": 1664556262650, "trialdata": {"rt": 1793, "stimulus": "<p id='stroop-text' class='stroop-green'>YELLOW</p>", "response": "g", "stimulus-type": "incongruent", "word": "yellow", "color": "green", "correct_response": "g", "trial_id": "stroop-trial-1-incongruent-7", "trial_type": "html-keyboard-response", "trial_index": 20, "time_elapsed": 1230007, "internal_node_id": "0.0-4.0-16.0"}}, {"uniqueid": "w47297517:a74361576", "current_trial": 21, "dateTime": 1664556263794, "trialdata": {"rt": 642, "stimulus": "<p id='stroop-text' class='stroop-red'>RED</p>", "response": "r", "stimulus-type": "congruent", "word": "red", "color": "red", "correct_response": "r", "trial_id": "stroop-trial-1-congruent-17", "trial_type": "html-keyboard-response", "trial_index": 21, "time_elapsed": 1231151, "internal_node_id": "0.0-4.0-17.0"}}, {"uniqueid": "w47297517:a74361576", "current_trial": 22, "dateTime": 1664556265106, "trialdata": {"rt": 810, "stimulus": "<p id='stroop-text' class='stroop-blue'>RED</p>", "response": "b", "stimulus-type": "incongruent", "word": "red", "color": "blue", "correct_response": "b", "trial_id": "stroop-trial-1-incongruent-25", "trial_type": "html-keyboard-response", "trial_index": 22, "time_elapsed": 1232463, "internal_node_id": "0.0-4.0-18.0"}}, {"uniqueid": "w47297517:a74361576", "current_trial": 23, "dateTime": 1664556266475, "trialdata": {"rt": 866, "stimulus": "<p id='stroop-text' class='stroop-green'>BLUE</p>", "response": "g", "stimulus-type": "incongruent", "word": "blue", "color": "green", "correct_response": "g", "trial_id": "stroop-trial-1-incongruent-9", "trial_type": "html-keyboard-response", "trial_index": 23, "time_elapsed": 1233831, "internal_node_id": "0.0-4.0-19.0"}}, {"uniqueid": "w47297517:a74361576", "current_trial": 24, "dateTime": 1664556267578, "trialdata": {"rt": 601, "stimulus": "<p id='stroop-text' class='stroop-green'>GREEN</p>", "response": "g", "stimulus-type": "congruent", "word": "green", "color": "green", "correct_response": "g", "trial_id": "stroop-trial-1-congruent-14", "trial_type": "html-keyboard-response", "trial_index": 24, "time_elapsed": 1234935, "internal_node_id": "0.0-4.0-20.0"}}, {"uniqueid": "w47297517:a74361576", "current_trial": 25, "dateTime": 1664556268586, "trialdata": {"rt": 506, "stimulus": "<p id='stroop-text' class='stroop-red'>BOAT</p>", "response": "r", "stimulus-type": "unrelated", "word": "BOAT", "color": "red", "correct_response": "r", "trial_id": "stroop-trial-1-unrelated-15", "trial_type": "html-keyboard-response", "trial_index": 25, "time_elapsed": 1235943, "internal_node_id": "0.0-4.0-21.0"}}, {"uniqueid": "w47297517:a74361576", "current_trial": 26, "dateTime": 1664556269842, "trialdata": {"rt": 754, "stimulus": "<p id='stroop-text' class='stroop-blue'>BLUE</p>", "response": "b", "stimulus-type": "congruent", "word": "blue", "color": "blue", "correct_response": "b", "trial_id": "stroop-trial-1-congruent-7", "trial_type": "html-keyboard-response", "trial_index": 26, "time_elapsed": 1237199, "internal_node_id": "0.0-4.0-22.0"}}, {"uniqueid": "w47297517:a74361576", "current_trial": 27, "dateTime": 1664556271010, "trialdata": {"rt": 665, "stimulus": "<p id='stroop-text' class='stroop-red'>BRAIN</p>", "response": "r", "stimulus-type": "unrelated", "word": "BRAIN", "color": "red", "correct_response": "r", "trial_id": "stroop-trial-1-unrelated-4", "trial_type": "html-keyboard-response", "trial_index": 27, "time_elapsed": 1238367, "internal_node_id": "0.0-4.0-23.0"}}, {"uniqueid": "w47297517:a74361576", "current_trial": 28, "dateTime": 1664556272186, "trialdata": {"rt": 674, "stimulus": "<p id='stroop-text' class='stroop-red'>WINDOW</p>", "response": "r", "stimulus-type": "unrelated", "word": "WINDOW", "color": "red", "correct_response": "r", "trial_id": "stroop-trial-1-unrelated-17", "trial_type": "html-keyboard-response", "trial_index": 28, "time_elapsed": 1239543, "internal_node_id": "0.0-4.0-24.0"}}, {"uniqueid": "w47297517:a74361576", "current_trial": 29, "dateTime": 1664556273186, "trialdata": {"rt": 499, "stimulus": "<p id='stroop-text' class='stroop-red'>STONE</p>", "response": "r", "stimulus-type": "unrelated", "word": "STONE", "color": "red", "correct_response": "r", "trial_id": "stroop-trial-1-unrelated-9", "trial_type": "html-keyboard-response", "trial_index": 29, "time_elapsed": 1240543, "internal_node_id": "0.0-4.0-25.0"}}, {"uniqueid": "w47297517:a74361576", "current_trial": 30, "dateTime": 1664556274674, "trialdata": {"rt": 986, "stimulus": "<p id='stroop-text' class='stroop-blue'>RED</p>", "response": "g", "stimulus-type": "incongruent", "word": "red", "color": "blue", "correct_response": "b", "trial_id": "stroop-trial-1-incongruent-12", "trial_type": "html-keyboard-response", "trial_index": 30, "time_elapsed": 1242031, "internal_node_id": "0.0-4.0-26.0"}}, {"uniqueid": "w47297517:a74361576", "current_trial": 31, "dateTime": 1664556276514, "trialdata": {"rt": 1339, "stimulus": "<p id='stroop-text' class='stroop-red'>WINDOW</p>", "response": "r", "stimulus-type": "unrelated", "word": "WINDOW", "color": "red", "correct_response": "r", "trial_id": "stroop-trial-1-unrelated-21", "trial_type": "html-keyboard-response", "trial_index": 31, "time_elapsed": 1243871, "internal_node_id": "0.0-4.0-27.0"}}, {"uniqueid": "w47297517:a74361576", "current_trial": 32, "dateTime": 1664556277634, "trialdata": {"rt": 616, "stimulus": "<p id='stroop-text' class='stroop-red'>RED</p>", "response": "r", "stimulus-type": "congruent", "word": "red", "color": "red", "correct_response": "r", "trial_id": "stroop-trial-1-congruent-9", "trial_type": "html-keyboard-response", "trial_index": 32, "time_elapsed": 1244991, "internal_node_id": "0.0-4.0-28.0"}}, {"uniqueid": "w47297517:a74361576", "current_trial": 33, "dateTime": 1664556278482, "trialdata": {"rt": 347, "stimulus": "<p id='stroop-text' class='stroop-red'>YELLOW</p>", "response": "r", "stimulus-type": "incongruent", "word": "yellow", "color": "red", "correct_response": "r", "trial_id": "stroop-trial-1-incongruent-19", "trial_type": "html-keyboard-response", "trial_index": 33, "time_elapsed": 1245839, "internal_node_id": "0.0-4.0-29.0"}}, {"uniqueid": "w47297517:a74361576", "current_trial": 34, "dateTime": 1664556279714, "trialdata": {"rt": 729, "stimulus": "<p id='stroop-text' class='stroop-yellow'>RED</p>", "response": "y", "stimulus-type": "incongruent", "word": "red", "color": "yellow", "correct_response": "y", "trial_id": "stroop-trial-1-incongruent-5", "trial_type": "html-keyboard-response", "trial_index": 34, "time_elapsed": 1247071, "internal_node_id": "0.0-4.0-30.0"}}, {"uniqueid": "w47297517:a74361576", "current_trial": 35, "dateTime": 1664556280842, "trialdata": {"rt": 626, "stimulus": "<p id='stroop-text' class='stroop-red'>RED</p>", "response": "r", "stimulus-type": "congruent", "word": "red", "color": "red", "correct_response": "r", "trial_id": "stroop-trial-1-congruent-22", "trial_type": "html-keyboard-response", "trial_index": 35, "time_elapsed": 1248199, "internal_node_id": "0.0-4.0-31.0"}}, {"uniqueid": "w47297517:a74361576", "current_trial": 36, "dateTime": 1664556281906, "trialdata": {"rt": 561, "stimulus": "<p id='stroop-text' class='stroop-yellow'>YELLOW</p>", "response": "y", "stimulus-type": "congruent", "word": "yellow", "color": "yellow", "correct_response": "y", "trial_id": "stroop-trial-1-congruent-26", "trial_type": "html-keyboard-response", "trial_index": 36, "time_elapsed": 1249263, "internal_node_id": "0.0-4.0-32.0"}}, {"uniqueid": "w47297517:a74361576", "current_trial": 37, "dateTime": 1664556283482, "trialdata": {"rt": 1073, "stimulus": "<p id='stroop-text' class='stroop-red'>RED</p>", "response": "r", "stimulus-type": "congruent", "word": "red", "color": "red", "correct_response": "r", "trial_id": "stroop-trial-1-congruent-4", "trial_type": "html-keyboard-response", "trial_index": 37, "time_elapsed": 1250839, "internal_node_id": "0.0-4.0-33.0"}}, {"uniqueid": "w47297517:a74361576", "current_trial": 38, "dateTime": 1664556285346, "trialdata": {"rt": 1363, "stimulus": "<p id='stroop-text' class='stroop-green'>SHIP</p>", "response": "g", "stimulus-type": "unrelated", "word": "SHIP", "color": "green", "correct_response": "g", "trial_id": "stroop-trial-1-unrelated-2", "trial_type": "html-keyboard-response", "trial_index": 38, "time_elapsed": 1252703, "internal_node_id": "0.0-4.0-34.0"}}, {"uniqueid": "w47297517:a74361576", "current_trial": 39, "dateTime": 1664556286498, "trialdata": {"rt": 650, "stimulus": "<p id='stroop-text' class='stroop-blue'>STONE</p>", "response": "b", "stimulus-type": "unrelated", "word": "STONE", "color": "blue", "correct_response": "b", "trial_id": "stroop-trial-1-unrelated-20", "trial_type": "html-keyboard-response", "trial_index": 39, "time_elapsed": 1253855, "internal_node_id": "0.0-4.0-35.0"}}, {"uniqueid": "w47297517:a74361576", "current_trial": 40, "dateTime": 1664556287642, "trialdata": {"rt": 643, "stimulus": "<p id='stroop-text' class='stroop-yellow'>BLUE</p>", "response": "y", "stimulus-type": "incongruent", "word": "blue", "color": "yellow", "correct_response": "y", "trial_id": "stroop-trial-1-incongruent-27", "trial_type": "html-keyboard-response", "trial_index": 40, "time_elapsed": 1254999, "internal_node_id": "0.0-4.0-36.0"}}, {"uniqueid": "w47297517:a74361576", "current_trial": 41, "dateTime": 1664556288874, "trialdata": {"rt": 730, "stimulus": "<p id='stroop-text' class='stroop-green'>GREEN</p>", "response": "g", "stimulus-type": "congruent", "word": "green", "color": "green", "correct_response": "g", "trial_id": "stroop-trial-1-congruent-18", "trial_type": "html-keyboard-response", "trial_index": 41, "time_elapsed": 1256231, "internal_node_id": "0.0-4.0-37.0"}}, {"uniqueid": "w47297517:a74361576", "current_trial": 42, "dateTime": 1664556290114, "trialdata": {"rt": 731, "stimulus": "<p id='stroop-text' class='stroop-red'>BLUE</p>", "response": "b", "stimulus-type": "incongruent", "word": "blue", "color": "red", "correct_response": "r", "trial_id": "stroop-trial-1-incongruent-22", "trial_type": "html-keyboard-response", "trial_index": 42, "time_elapsed": 1257471, "internal_node_id": "0.0-4.0-38.0"}}, {"uniqueid": "w47297517:a74361576", "current_trial": 43, "dateTime": 1664556291442, "trialdata": {"rt": 826, "stimulus": "<p id='stroop-text' class='stroop-red'>YELLOW</p>", "response": "y", "stimulus-type": "incongruent", "word": "yellow", "color": "red", "correct_response": "r", "trial_id": "stroop-trial-1-incongruent-6", "trial_type": "html-keyboard-response", "trial_index": 43, "time_elapsed": 1258799, "internal_node_id": "0.0-4.0-39.0"}}, {"uniqueid": "w47297517:a74361576", "current_trial": 44, "dateTime": 1664556292883, "trialdata": {"rt": 939, "stimulus": "<p id='stroop-text' class='stroop-red'>YELLOW</p>", "response": "r", "stimulus-type": "incongruent", "word": "yellow", "color": "red", "correct_response": "r", "trial_id": "stroop-trial-1-incongruent-29", "trial_type": "html-keyboard-response", "trial_index": 44, "time_elapsed": 1260240, "internal_node_id": "0.0-4.0-40.0"}}, {"uniqueid": "w47297517:a74361576", "current_trial": 45, "dateTime": 1664556293987, "trialdata": {"rt": 602, "stimulus": "<p id='stroop-text' class='stroop-red'>YELLOW</p>", "response": "r", "stimulus-type": "incongruent", "word": "yellow", "color": "red", "correct_response": "r", "trial_id": "stroop-trial-1-incongruent-16", "trial_type": "html-keyboard-response", "trial_index": 45, "time_elapsed": 1261344, "internal_node_id": "0.0-4.0-41.0"}}, {"uniqueid": "w47297517:a74361576", "current_trial": 46, "dateTime": 1664556295947, "trialdata": {"rt": 1458, "stimulus": "<p id='stroop-text' class='stroop-blue'>BLUE</p>", "response": "b", "stimulus-type": "congruent", "word": "blue", "color": "blue", "correct_response": "b", "trial_id": "stroop-trial-1-congruent-25", "trial_type": "html-keyboard-response", "trial_index": 46, "time_elapsed": 1263304, "internal_node_id": "0.0-4.0-42.0"}}, {"uniqueid": "w47297517:a74361576", "current_trial": 47, "dateTime": 1664556297147, "trialdata": {"rt": 699, "stimulus": "<p id='stroop-text' class='stroop-green'>BRAIN</p>", "response": "g", "stimulus-type": "unrelated", "word": "BRAIN", "color": "green", "correct_response": "g", "trial_id": "stroop-trial-1-unrelated-3", "trial_type": "html-keyboard-response", "trial_index": 47, "time_elapsed": 1264504, "internal_node_id": "0.0-4.0-43.0"}}, {"uniqueid": "w47297517:a74361576", "current_trial": 48, "dateTime": 1664556298363, "trialdata": {"rt": 713, "stimulus": "<p id='stroop-text' class='stroop-green'>RED</p>", "response": "g", "stimulus-type": "incongruent", "word": "red", "color": "green", "correct_response": "g", "trial_id": "stroop-trial-1-incongruent-20", "trial_type": "html-keyboard-response", "trial_index": 48, "time_elapsed": 1265720, "internal_node_id": "0.0-4.0-44.0"}}, {"uniqueid": "w47297517:a74361576", "current_trial": 49, "dateTime": 1664556299379, "trialdata": {"rt": 515, "stimulus": "<p id='stroop-text' class='stroop-green'>BRAIN</p>", "response": "g", "stimulus-type": "unrelated", "word": "BRAIN", "color": "green", "correct_response": "g", "trial_id": "stroop-trial-1-unrelated-10", "trial_type": "html-keyboard-response", "trial_index": 49, "time_elapsed": 1266736, "internal_node_id": "0.0-4.0-45.0"}}, {"uniqueid": "w47297517:a74361576", "current_trial": 50, "dateTime": 1664556300587, "trialdata": {"rt": 706, "stimulus": "<p id='stroop-text' class='stroop-blue'>BOTTLE</p>", "response": "b", "stimulus-type": "unrelated", "word": "BOTTLE", "color": "blue", "correct_response": "b", "trial_id": "stroop-trial-1-unrelated-13", "trial_type": "html-keyboard-response", "trial_index": 50, "time_elapsed": 1267944, "internal_node_id": "0.0-4.0-46.0"}}, {"uniqueid": "w47297517:a74361576", "current_trial": 51, "dateTime": 1664556301563, "trialdata": {"rt": 474, "stimulus": "<p id='stroop-text' class='stroop-yellow'>BRIDGE</p>", "response": "y", "stimulus-type": "unrelated", "word": "BRIDGE", "color": "yellow", "correct_response": "y", "trial_id": "stroop-trial-1-unrelated-16", "trial_type": "html-keyboard-response", "trial_index": 51, "time_elapsed": 1268920, "internal_node_id": "0.0-4.0-47.0"}}, {"uniqueid": "w47297517:a74361576", "current_trial": 52, "dateTime": 1664556302771, "trialdata": {"rt": 707, "stimulus": "<p id='stroop-text' class='stroop-yellow'>FORK</p>", "response": "y", "stimulus-type": "unrelated", "word": "FORK", "color": "yellow", "correct_response": "y", "trial_id": "stroop-trial-1-unrelated-19", "trial_type": "html-keyboard-response", "trial_index": 52, "time_elapsed": 1270128, "internal_node_id": "0.0-4.0-48.0"}}, {"uniqueid": "w47297517:a74361576", "current_trial": 53, "dateTime": 1664556303811, "trialdata": {"rt": 539, "stimulus": "<p id='stroop-text' class='stroop-red'>RED</p>", "response": "r", "stimulus-type": "congruent", "word": "red", "color": "red", "correct_response": "r", "trial_id": "stroop-trial-1-congruent-12", "trial_type": "html-keyboard-response", "trial_index": 53, "time_elapsed": 1271168, "internal_node_id": "0.0-4.0-49.0"}}, {"uniqueid": "w47297517:a74361576", "current_trial": 54, "dateTime": 1664556304852, "trialdata": {"rt": 539, "stimulus": "<p id='stroop-text' class='stroop-red'>STONE</p>", "response": "r", "stimulus-type": "unrelated", "word": "STONE", "color": "red", "correct_response": "r", "trial_id": "stroop-trial-1-unrelated-22", "trial_type": "html-keyboard-response", "trial_index": 54, "time_elapsed": 1272209, "internal_node_id": "0.0-4.0-50.0"}}, {"uniqueid": "w47297517:a74361576", "current_trial": 55, "dateTime": 1664556305891, "trialdata": {"rt": 538, "stimulus": "<p id='stroop-text' class='stroop-blue'>BLUE</p>", "response": "b", "stimulus-type": "congruent", "word": "blue", "color": "blue", "correct_response": "b", "trial_id": "stroop-trial-1-congruent-1", "trial_type": "html-keyboard-response", "trial_index": 55, "time_elapsed": 1273248, "internal_node_id": "0.0-4.0-51.0"}}, {"uniqueid": "w47297517:a74361576", "current_trial": 56, "dateTime": 1664556306787, "trialdata": {"rt": 395, "stimulus": "<p id='stroop-text' class='stroop-blue'>BLUE</p>", "response": "b", "stimulus-type": "congruent", "word": "blue", "color": "blue", "correct_response": "b", "trial_id": "stroop-trial-1-congruent-19", "trial_type": "html-keyboard-response", "trial_index": 56, "time_elapsed": 1274144, "internal_node_id": "0.0-4.0-52.0"}}, {"uniqueid": "w47297517:a74361576", "current_trial": 57, "dateTime": 1664556307819, "trialdata": {"rt": 529, "stimulus": "<p id='stroop-text' class='stroop-yellow'>YELLOW</p>", "response": "y", "stimulus-type": "congruent", "word": "yellow", "color": "yellow", "correct_response": "y", "trial_id": "stroop-trial-1-congruent-28", "trial_type": "html-keyboard-response", "trial_index": 57, "time_elapsed": 1275176, "internal_node_id": "0.0-4.0-53.0"}}, {"uniqueid": "w47297517:a74361576", "current_trial": 58, "dateTime": 1664556308955, "trialdata": {"rt": 630, "stimulus": "<p id='stroop-text' class='stroop-yellow'>BRIDGE</p>", "response": "y", "stimulus-type": "unrelated", "word": "BRIDGE", "color": "yellow", "correct_response": "y", "trial_id": "stroop-trial-1-unrelated-6", "trial_type": "html-keyboard-response", "trial_index": 58, "time_elapsed": 1276312, "internal_node_id": "0.0-4.0-54.0"}}, {"uniqueid": "w47297517:a74361576", "current_trial": 59, "dateTime": 1664556310435, "trialdata": {"rt": 979, "stimulus": "<p id='stroop-text' class='stroop-red'>GREEN</p>", "response": "r", "stimulus-type": "incongruent", "word": "green", "color": "red", "correct_response": "r", "trial_id": "stroop-trial-1-incongruent-15", "trial_type": "html-keyboard-response", "trial_index": 59, "time_elapsed": 1277792, "internal_node_id": "0.0-4.0-55.0"}}, {"uniqueid": "w47297517:a74361576", "current_trial": 60, "dateTime": 1664556311947, "trialdata": {"rt": 1010, "stimulus": "<p id='stroop-text' class='stroop-blue'>YELLOW</p>", "response": "b", "stimulus-type": "incongruent", "word": "yellow", "color": "blue", "correct_response": "b", "trial_id": "stroop-trial-1-incongruent-4", "trial_type": "html-keyboard-response", "trial_index": 60, "time_elapsed": 1279304, "internal_node_id": "0.0-4.0-56.0"}}, {"uniqueid": "w47297517:a74361576", "current_trial": 61, "dateTime": 1664556313411, "trialdata": {"rt": 961, "stimulus": "<p id='stroop-text' class='stroop-green'>MONKEY</p>", "response": "g", "stimulus-type": "unrelated", "word": "MONKEY", "color": "green", "correct_response": "g", "trial_id": "stroop-trial-1-unrelated-27", "trial_type": "html-keyboard-response", "trial_index": 61, "time_elapsed": 1280768, "internal_node_id": "0.0-4.0-57.0"}}, {"uniqueid": "w47297517:a74361576", "current_trial": 62, "dateTime": 1664556315059, "trialdata": {"rt": 1145, "stimulus": "<p id='stroop-text' class='stroop-blue'>GREEN</p>", "response": "b", "stimulus-type": "incongruent", "word": "green", "color": "blue", "correct_response": "b", "trial_id": "stroop-trial-1-incongruent-18", "trial_type": "html-keyboard-response", "trial_index": 62, "time_elapsed": 1282416, "internal_node_id": "0.0-4.0-58.0"}}, {"uniqueid": "w47297517:a74361576", "current_trial": 63, "dateTime": 1664556316523, "trialdata": {"rt": 961, "stimulus": "<p id='stroop-text' class='stroop-blue'>WINDOW</p>", "response": "b", "stimulus-type": "unrelated", "word": "WINDOW", "color": "blue", "correct_response": "b", "trial_id": "stroop-trial-1-unrelated-12", "trial_type": "html-keyboard-response", "trial_index": 63, "time_elapsed": 1283880, "internal_node_id": "0.0-4.0-59.0"}}, {"uniqueid": "w47297517:a74361576", "current_trial": 64, "dateTime": 1664556317747, "trialdata": {"rt": 722, "stimulus": "<p id='stroop-text' class='stroop-green'>BLUE</p>", "response": "g", "stimulus-type": "incongruent", "word": "blue", "color": "green", "correct_response": "g", "trial_id": "stroop-trial-1-incongruent-30", "trial_type": "html-keyboard-response", "trial_index": 64, "time_elapsed": 1285104, "internal_node_id": "0.0-4.0-60.0"}}, {"uniqueid": "w47297517:a74361576", "current_trial": 65, "dateTime": 1664556319043, "trialdata": {"rt": 790, "stimulus": "<p id='stroop-text' class='stroop-blue'>BLUE</p>", "response": "b", "stimulus-type": "congruent", "word": "blue", "color": "blue", "correct_response": "b", "trial_id": "stroop-trial-1-congruent-10", "trial_type": "html-keyboard-response", "trial_index": 65, "time_elapsed": 1286400, "internal_node_id": "0.0-4.0-61.0"}}, {"uniqueid": "w47297517:a74361576", "current_trial": 66, "dateTime": 1664556320147, "trialdata": {"rt": 602, "stimulus": "<p id='stroop-text' class='stroop-yellow'>BOAT</p>", "response": "y", "stimulus-type": "unrelated", "word": "BOAT", "color": "yellow", "correct_response": "y", "trial_id": "stroop-trial-1-unrelated-14", "trial_type": "html-keyboard-response", "trial_index": 66, "time_elapsed": 1287504, "internal_node_id": "0.0-4.0-62.0"}}, {"uniqueid": "w47297517:a74361576", "current_trial": 67, "dateTime": 1664556321299, "trialdata": {"rt": 649, "stimulus": "<p id='stroop-text' class='stroop-yellow'>YELLOW</p>", "response": "y", "stimulus-type": "congruent", "word": "yellow", "color": "yellow", "correct_response": "y", "trial_id": "stroop-trial-1-congruent-24", "trial_type": "html-keyboard-response", "trial_index": 67, "time_elapsed": 1288656, "internal_node_id": "0.0-4.0-63.0"}}, {"uniqueid": "w47297517:a74361576", "current_trial": 68, "dateTime": 1664556323115, "trialdata": {"rt": 1313, "stimulus": "<p id='stroop-text' class='stroop-blue'>GREEN</p>", "response": "b", "stimulus-type": "incongruent", "word": "green", "color": "blue", "correct_response": "b", "trial_id": "stroop-trial-1-incongruent-8", "trial_type": "html-keyboard-response", "trial_index": 68, "time_elapsed": 1290472, "internal_node_id": "0.0-4.0-64.0"}}, {"uniqueid": "w47297517:a74361576", "current_trial": 69, "dateTime": 1664556324227, "trialdata": {"rt": 609, "stimulus": "<p id='stroop-text' class='stroop-red'>DOG</p>", "response": "r", "stimulus-type": "unrelated", "word": "DOG", "color": "red", "correct_response": "r", "trial_id": "stroop-trial-1-unrelated-26", "trial_type": "html-keyboard-response", "trial_index": 69, "time_elapsed": 1291584, "internal_node_id": "0.0-4.0-65.0"}}, {"uniqueid": "w47297517:a74361576", "current_trial": 70, "dateTime": 1664556325467, "trialdata": {"rt": 738, "stimulus": "<p id='stroop-text' class='stroop-yellow'>GREEN</p>", "response": "y", "stimulus-type": "incongruent", "word": "green", "color": "yellow", "correct_response": "y", "trial_id": "stroop-trial-1-incongruent-2", "trial_type": "html-keyboard-response", "trial_index": 70, "time_elapsed": 1292824, "internal_node_id": "0.0-4.0-66.0"}}, {"uniqueid": "w47297517:a74361576", "current_trial": 71, "dateTime": 1664556327203, "trialdata": {"rt": 1235, "stimulus": "<p id='stroop-text' class='stroop-red'>YELLOW</p>", "response": "r", "stimulus-type": "incongruent", "word": "yellow", "color": "red", "correct_response": "r", "trial_id": "stroop-trial-1-incongruent-26", "trial_type": "html-keyboard-response", "trial_index": 71, "time_elapsed": 1294560, "internal_node_id": "0.0-4.0-67.0"}}, {"uniqueid": "w47297517:a74361576", "current_trial": 72, "dateTime": 1664556328347, "trialdata": {"rt": 627, "stimulus": "<p id='stroop-text' class='stroop-yellow'>YELLOW</p>", "response": "y", "stimulus-type": "congruent", "word": "yellow", "color": "yellow", "correct_response": "y", "trial_id": "stroop-trial-1-congruent-15", "trial_type": "html-keyboard-response", "trial_index": 72, "time_elapsed": 1295704, "internal_node_id": "0.0-4.0-68.0"}}, {"uniqueid": "w47297517:a74361576", "current_trial": 73, "dateTime": 1664556331131, "trialdata": {"rt": 2283, "stimulus": "<p id='stroop-text' class='stroop-blue'>WINDOW</p>", "response": "b", "stimulus-type": "unrelated", "word": "WINDOW", "color": "blue", "correct_response": "b", "trial_id": "stroop-trial-1-unrelated-25", "trial_type": "html-keyboard-response", "trial_index": 73, "time_elapsed": 1298488, "internal_node_id": "0.0-4.0-69.0"}}, {"uniqueid": "w47297517:a74361576", "current_trial": 74, "dateTime": 1664556332587, "trialdata": {"rt": 955, "stimulus": "<p id='stroop-text' class='stroop-green'>GREEN</p>", "response": "g", "stimulus-type": "congruent", "word": "green", "color": "green", "correct_response": "g", "trial_id": "stroop-trial-1-congruent-23", "trial_type": "html-keyboard-response", "trial_index": 74, "time_elapsed": 1299944, "internal_node_id": "0.0-4.0-70.0"}}, {"uniqueid": "w47297517:a74361576", "current_trial": 75, "dateTime": 1664556333619, "trialdata": {"rt": 530, "stimulus": "<p id='stroop-text' class='stroop-yellow'>WINDOW</p>", "response": "y", "stimulus-type": "unrelated", "word": "WINDOW", "color": "yellow", "correct_response": "y", "trial_id": "stroop-trial-1-unrelated-5", "trial_type": "html-keyboard-response", "trial_index": 75, "time_elapsed": 1300976, "internal_node_id": "0.0-4.0-71.0"}}, {"uniqueid": "w47297517:a74361576", "current_trial": 76, "dateTime": 1664556334995, "trialdata": {"rt": 874, "stimulus": "<p id='stroop-text' class='stroop-yellow'>YELLOW</p>", "response": "y", "stimulus-type": "congruent", "word": "yellow", "color": "yellow", "correct_response": "y", "trial_id": "stroop-trial-1-congruent-21", "trial_type": "html-keyboard-response", "trial_index": 76, "time_elapsed": 1302352, "internal_node_id": "0.0-4.0-72.0"}}, {"uniqueid": "w47297517:a74361576", "current_trial": 77, "dateTime": 1664556335931, "trialdata": {"rt": 433, "stimulus": "<p id='stroop-text' class='stroop-yellow'>BLUE</p>", "response": "y", "stimulus-type": "incongruent", "word": "blue", "color": "yellow", "correct_response": "y", "trial_id": "stroop-trial-1-incongruent-10", "trial_type": "html-keyboard-response", "trial_index": 77, "time_elapsed": 1303288, "internal_node_id": "0.0-4.0-73.0"}}, {"uniqueid": "w47297517:a74361576", "current_trial": 78, "dateTime": 1664556336923, "trialdata": {"rt": 489, "stimulus": "<p id='stroop-text' class='stroop-red'>RED</p>", "response": "r", "stimulus-type": "congruent", "word": "red", "color": "red", "correct_response": "r", "trial_id": "stroop-trial-1-congruent-13", "trial_type": "html-keyboard-response", "trial_index": 78, "time_elapsed": 1304280, "internal_node_id": "0.0-4.0-74.0"}}, {"uniqueid": "w47297517:a74361576", "current_trial": 79, "dateTime": 1664556338675, "trialdata": {"rt": 1251, "stimulus": "<p id='stroop-text' class='stroop-blue'>BLUE</p>", "response": "b", "stimulus-type": "congruent", "word": "blue", "color": "blue", "correct_response": "b", "trial_id": "stroop-trial-1-congruent-5", "trial_type": "html-keyboard-response", "trial_index": 79, "time_elapsed": 1306032, "internal_node_id": "0.0-4.0-75.0"}}, {"uniqueid": "w47297517:a74361576", "current_trial": 80, "dateTime": 1664556340059, "trialdata": {"rt": 881, "stimulus": "<p id='stroop-text' class='stroop-red'>BRAIN</p>", "response": "r", "stimulus-type": "unrelated", "word": "BRAIN", "color": "red", "correct_response": "r", "trial_id": "stroop-trial-1-unrelated-11", "trial_type": "html-keyboard-response", "trial_index": 80, "time_elapsed": 1307416, "internal_node_id": "0.0-4.0-76.0"}}, {"uniqueid": "w47297517:a74361576", "current_trial": 81, "dateTime": 1664556341051, "trialdata": {"rt": 489, "stimulus": "<p id='stroop-text' class='stroop-red'>RED</p>", "response": "r", "stimulus-type": "congruent", "word": "red", "color": "red", "correct_response": "r", "trial_id": "stroop-trial-1-congruent-16", "trial_type": "html-keyboard-response", "trial_index": 81, "time_elapsed": 1308408, "internal_node_id": "0.0-4.0-77.0"}}, {"uniqueid": "w47297517:a74361576", "current_trial": 82, "dateTime": 1664556342252, "trialdata": {"rt": 698, "stimulus": "<p id='stroop-text' class='stroop-blue'>RED</p>", "response": "y", "stimulus-type": "incongruent", "word": "red", "color": "blue", "correct_response": "b", "trial_id": "stroop-trial-1-incongruent-21", "trial_type": "html-keyboard-response", "trial_index": 82, "time_elapsed": 1309609, "internal_node_id": "0.0-4.0-78.0"}}, {"uniqueid": "w47297517:a74361576", "current_trial": 83, "dateTime": 1664556344219, "trialdata": {"rt": 1464, "stimulus": "<p id='stroop-text' class='stroop-blue'>GREEN</p>", "response": "b", "stimulus-type": "incongruent", "word": "green", "color": "blue", "correct_response": "b", "trial_id": "stroop-trial-1-incongruent-3", "trial_type": "html-keyboard-response", "trial_index": 83, "time_elapsed": 1311576, "internal_node_id": "0.0-4.0-79.0"}}, {"uniqueid": "w47297517:a74361576", "current_trial": 84, "dateTime": 1664556346051, "trialdata": {"rt": 1331, "stimulus": "<p id='stroop-text' class='stroop-blue'>BLUE</p>", "response": "b", "stimulus-type": "congruent", "word": "blue", "color": "blue", "correct_response": "b", "trial_id": "stroop-trial-1-congruent-3", "trial_type": "html-keyboard-response", "trial_index": 84, "time_elapsed": 1313408, "internal_node_id": "0.0-4.0-80.0"}}, {"uniqueid": "w47297517:a74361576", "current_trial": 85, "dateTime": 1664556347099, "trialdata": {"rt": 547, "stimulus": "<p id='stroop-text' class='stroop-yellow'>BOAT</p>", "response": "y", "stimulus-type": "unrelated", "word": "BOAT", "color": "yellow", "correct_response": "y", "trial_id": "stroop-trial-1-unrelated-8", "trial_type": "html-keyboard-response", "trial_index": 85, "time_elapsed": 1314456, "internal_node_id": "0.0-4.0-81.0"}}, {"uniqueid": "w47297517:a74361576", "current_trial": 86, "dateTime": 1664556348051, "trialdata": {"rt": 451, "stimulus": "<p id='stroop-text' class='stroop-yellow'>CHAIR</p>", "response": "y", "stimulus-type": "unrelated", "word": "CHAIR", "color": "yellow", "correct_response": "y", "trial_id": "stroop-trial-1-unrelated-28", "trial_type": "html-keyboard-response", "trial_index": 86, "time_elapsed": 1315408, "internal_node_id": "0.0-4.0-82.0"}}, {"uniqueid": "w47297517:a74361576", "current_trial": 87, "dateTime": 1664556349987, "trialdata": {"rt": 1434, "stimulus": "<p id='stroop-text' class='stroop-green'>BOTTLE</p>", "response": "g", "stimulus-type": "unrelated", "word": "BOTTLE", "color": "green", "correct_response": "g", "trial_id": "stroop-trial-1-unrelated-23", "trial_type": "html-keyboard-response", "trial_index": 87, "time_elapsed": 1317344, "internal_node_id": "0.0-4.0-83.0"}}, {"uniqueid": "w47297517:a74361576", "current_trial": 88, "dateTime": 1664556351339, "trialdata": {"rt": 850, "stimulus": "<p id='stroop-text' class='stroop-red'>YELLOW</p>", "response": "r", "stimulus-type": "incongruent", "word": "yellow", "color": "red", "correct_response": "r", "trial_id": "stroop-trial-1-incongruent-28", "trial_type": "html-keyboard-response", "trial_index": 88, "time_elapsed": 1318696, "internal_node_id": "0.0-4.0-84.0"}}, {"uniqueid": "w47297517:a74361576", "current_trial": 89, "dateTime": 1664556352315, "trialdata": {"rt": 473, "stimulus": "<p id='stroop-text' class='stroop-red'>RED</p>", "response": "r", "stimulus-type": "congruent", "word": "red", "color": "red", "correct_response": "r", "trial_id": "stroop-trial-1-congruent-29", "trial_type": "html-keyboard-response", "trial_index": 89, "time_elapsed": 1319671, "internal_node_id": "0.0-4.0-85.0"}}, {"uniqueid": "w47297517:a74361576", "current_trial": 90, "dateTime": 1664556353522, "trialdata": {"rt": 706, "stimulus": "<p id='stroop-text' class='stroop-blue'>STONE</p>", "response": "b", "stimulus-type": "unrelated", "word": "STONE", "color": "blue", "correct_response": "b", "trial_id": "stroop-trial-1-unrelated-30", "trial_type": "html-keyboard-response", "trial_index": 90, "time_elapsed": 1320879, "internal_node_id": "0.0-4.0-86.0"}}, {"uniqueid": "w47297517:a74361576", "current_trial": 91, "dateTime": 1664556356131, "trialdata": {"rt": 2099, "stimulus": "<p id='stroop-text' class='stroop-blue'>DOG</p>", "response": "b", "stimulus-type": "unrelated", "word": "DOG", "color": "blue", "correct_response": "b", "trial_id": "stroop-trial-1-unrelated-1", "trial_type": "html-keyboard-response", "trial_index": 91, "time_elapsed": 1323488, "internal_node_id": "0.0-4.0-87.0"}}, {"uniqueid": "w47297517:a74361576", "current_trial": 92, "dateTime": 1664556357155, "trialdata": {"rt": 521, "stimulus": "<p id='stroop-text' class='stroop-red'>RED</p>", "response": "r", "stimulus-type": "congruent", "word": "red", "color": "red", "correct_response": "r", "trial_id": "stroop-trial-1-congruent-30", "trial_type": "html-keyboard-response", "trial_index": 92, "time_elapsed": 1324512, "internal_node_id": "0.0-4.0-88.0"}}, {"uniqueid": "w47297517:a74361576", "current_trial": 93, "dateTime": 1664556358523, "trialdata": {"rt": 865, "stimulus": "<p id='stroop-text' class='stroop-blue'>RED</p>", "response": "b", "stimulus-type": "incongruent", "word": "red", "color": "blue", "correct_response": "b", "trial_id": "stroop-trial-1-incongruent-17", "trial_type": "html-keyboard-response", "trial_index": 93, "time_elapsed": 1325880, "internal_node_id": "0.0-4.0-89.0"}}, {"uniqueid": "w47297517:a74361576", "current_trial": 94, "dateTime": 1664556473636, "trialdata": {"rt": 114607, "stimulus": "  <h1> End of block! </h1>\n\n  You have reached the end of the block 1/5. If you need a short break, feel free to take one now before moving on.\n\n  <br><br>\n  In the next block, you will complete another 90 rounds of this game.\n\n  <br><br>\n  <div style='text-align: center;'>Press <code>space</code> to begin.</div>\n  <br><br>\n<div style='text-align: center;'>(If the experiment doesn't continue, try clicking on the text and then pressing <code>space</code>.)</div>", "response": " ", "trial_id": "stroop_1_ready_2", "trial_type": "html-keyboard-response", "trial_index": 94, "time_elapsed": 1440992, "internal_node_id": "0.0-5.0"}}, {"uniqueid": "w47297517:a74361576", "current_trial": 95, "dateTime": 1664556474707, "trialdata": {"rt": 1069, "stimulus": "<p id='stroop-text' class='stroop-green'>WINDOW</p>", "response": "g", "stimulus-type": "unrelated", "word": "WINDOW", "color": "green", "correct_response": "g", "trial_id": "stroop-trial-1-unrelated-8", "trial_type": "html-keyboard-response", "trial_index": 95, "time_elapsed": 1442064, "internal_node_id": "0.0-6.0-0.0"}}, {"uniqueid": "w47297517:a74361576", "current_trial": 96, "dateTime": 1664556475555, "trialdata": {"rt": 346, "stimulus": "<p id='stroop-text' class='stroop-green'>GREEN</p>", "response": "g", "stimulus-type": "congruent", "word": "green", "color": "green", "correct_response": "g", "trial_id": "stroop-trial-1-congruent-27", "trial_type": "html-keyboard-response", "trial_index": 96, "time_elapsed": 1442911, "internal_node_id": "0.0-6.0-1.0"}}, {"uniqueid": "w47297517:a74361576", "current_trial": 97, "dateTime": 1664556476371, "trialdata": {"rt": 315, "stimulus": "<p id='stroop-text' class='stroop-green'>GREEN</p>", "response": "g", "stimulus-type": "congruent", "word": "green", "color": "green", "correct_response": "g", "trial_id": "stroop-trial-1-congruent-4", "trial_type": "html-keyboard-response", "trial_index": 97, "time_elapsed": 1443727, "internal_node_id": "0.0-6.0-2.0"}}, {"uniqueid": "w47297517:a74361576", "current_trial": 98, "dateTime": 1664556477267, "trialdata": {"rt": 393, "stimulus": "<p id='stroop-text' class='stroop-red'>CHAIR</p>", "response": "r", "stimulus-type": "unrelated", "word": "CHAIR", "color": "red", "correct_response": "r", "trial_id": "stroop-trial-1-unrelated-3", "trial_type": "html-keyboard-response", "trial_index": 98, "time_elapsed": 1444624, "internal_node_id": "0.0-6.0-3.0"}}, {"uniqueid": "w47297517:a74361576", "current_trial": 99, "dateTime": 1664556478499, "trialdata": {"rt": 731, "stimulus": "<p id='stroop-text' class='stroop-green'>RED</p>", "response": "g", "stimulus-type": "incongruent", "word": "red", "color": "green", "correct_response": "g", "trial_id": "stroop-trial-1-incongruent-5", "trial_type": "html-keyboard-response", "trial_index": 99, "time_elapsed": 1445856, "internal_node_id": "0.0-6.0-4.0"}}, {"uniqueid": "w47297517:a74361576", "current_trial": 100, "dateTime": 1664556479475, "trialdata": {"rt": 473, "stimulus": "<p id='stroop-text' class='stroop-blue'>BLUE</p>", "response": "b", "stimulus-type": "congruent", "word": "blue", "color": "blue", "correct_response": "b", "trial_id": "stroop-trial-1-congruent-22", "trial_type": "html-keyboard-response", "trial_index": 100, "time_elapsed": 1446831, "internal_node_id": "0.0-6.0-5.0"}}, {"uniqueid": "w47297517:a74361576", "current_trial": 101, "dateTime": 1664556481179, "trialdata": {"rt": 1201, "stimulus": "<p id='stroop-text' class='stroop-green'>BLUE</p>", "response": "g", "stimulus-type": "incongruent", "word": "blue", "color": "green", "correct_response": "g", "trial_id": "stroop-trial-1-incongruent-4", "trial_type": "html-keyboard-response", "trial_index": 101, "time_elapsed": 1448536, "internal_node_id": "0.0-6.0-6.0"}}, {"uniqueid": "w47297517:a74361576", "current_trial": 102, "dateTime": 1664556482323, "trialdata": {"rt": 642, "stimulus": "<p id='stroop-text' class='stroop-yellow'>BOAT</p>", "response": "y", "stimulus-type": "unrelated", "word": "BOAT", "color": "yellow", "correct_response": "y", "trial_id": "stroop-trial-1-unrelated-29", "trial_type": "html-keyboard-response", "trial_index": 102, "time_elapsed": 1449679, "internal_node_id": "0.0-6.0-7.0"}}, {"uniqueid": "w47297517:a74361576", "current_trial": 103, "dateTime": 1664556483579, "trialdata": {"rt": 740, "stimulus": "<p id='stroop-text' class='stroop-green'>FORK</p>", "response": "g", "stimulus-type": "unrelated", "word": "FORK", "color": "green", "correct_response": "g", "trial_id": "stroop-trial-1-unrelated-13", "trial_type": "html-keyboard-response", "trial_index": 103, "time_elapsed": 1450935, "internal_node_id": "0.0-6.0-8.0"}}, {"uniqueid": "w47297517:a74361576", "current_trial": 104, "dateTime": 1664556484699, "trialdata": {"rt": 618, "stimulus": "<p id='stroop-text' class='stroop-yellow'>RED</p>", "response": "y", "stimulus-type": "incongruent", "word": "red", "color": "yellow", "correct_response": "y", "trial_id": "stroop-trial-1-incongruent-21", "trial_type": "html-keyboard-response", "trial_index": 104, "time_elapsed": 1452056, "internal_node_id": "0.0-6.0-9.0"}}, {"uniqueid": "w47297517:a74361576", "current_trial": 105, "dateTime": 1664556485715, "trialdata": {"rt": 514, "stimulus": "<p id='stroop-text' class='stroop-red'>RED</p>", "response": "r", "stimulus-type": "congruent", "word": "red", "color": "red", "correct_response": "r", "trial_id": "stroop-trial-1-congruent-8", "trial_type": "html-keyboard-response", "trial_index": 105, "time_elapsed": 1453072, "internal_node_id": "0.0-6.0-10.0"}}, {"uniqueid": "w47297517:a74361576", "current_trial": 106, "dateTime": 1664556486931, "trialdata": {"rt": 714, "stimulus": "<p id='stroop-text' class='stroop-green'>STONE</p>", "response": "g", "stimulus-type": "unrelated", "word": "STONE", "color": "green", "correct_response": "g", "trial_id": "stroop-trial-1-unrelated-7", "trial_type": "html-keyboard-response", "trial_index": 106, "time_elapsed": 1454288, "internal_node_id": "0.0-6.0-11.0"}}, {"uniqueid": "w47297517:a74361576", "current_trial": 107, "dateTime": 1664556487930, "trialdata": {"rt": 498, "stimulus": "<p id='stroop-text' class='stroop-yellow'>YELLOW</p>", "response": "y", "stimulus-type": "congruent", "word": "yellow", "color": "yellow", "correct_response": "y", "trial_id": "stroop-trial-1-congruent-23", "trial_type": "html-keyboard-response", "trial_index": 107, "time_elapsed": 1455287, "internal_node_id": "0.0-6.0-12.0"}}, {"uniqueid": "w47297517:a74361576", "current_trial": 108, "dateTime": 1664556489083, "trialdata": {"rt": 649, "stimulus": "<p id='stroop-text' class='stroop-green'>SHIP</p>", "response": "g", "stimulus-type": "unrelated", "word": "SHIP", "color": "green", "correct_response": "g", "trial_id": "stroop-trial-1-unrelated-21", "trial_type": "html-keyboard-response", "trial_index": 108, "time_elapsed": 1456440, "internal_node_id": "0.0-6.0-13.0"}}, {"uniqueid": "w47297517:a74361576", "current_trial": 109, "dateTime": 1664556490187, "trialdata": {"rt": 601, "stimulus": "<p id='stroop-text' class='stroop-blue'>BRAIN</p>", "response": "b", "stimulus-type": "unrelated", "word": "BRAIN", "color": "blue", "correct_response": "b", "trial_id": "stroop-trial-1-unrelated-23", "trial_type": "html-keyboard-response", "trial_index": 109, "time_elapsed": 1457543, "internal_node_id": "0.0-6.0-14.0"}}, {"uniqueid": "w47297517:a74361576", "current_trial": 110, "dateTime": 1664556491043, "trialdata": {"rt": 353, "stimulus": "<p id='stroop-text' class='stroop-red'>GREEN</p>", "response": "r", "stimulus-type": "incongruent", "word": "green", "color": "red", "correct_response": "r", "trial_id": "stroop-trial-1-incongruent-10", "trial_type": "html-keyboard-response", "trial_index": 110, "time_elapsed": 1458399, "internal_node_id": "0.0-6.0-15.0"}}, {"uniqueid": "w47297517:a74361576", "current_trial": 111, "dateTime": 1664556492203, "trialdata": {"rt": 657, "stimulus": "<p id='stroop-text' class='stroop-blue'>CHAIR</p>", "response": "b", "stimulus-type": "unrelated", "word": "CHAIR", "color": "blue", "correct_response": "b", "trial_id": "stroop-trial-1-unrelated-4", "trial_type": "html-keyboard-response", "trial_index": 111, "time_elapsed": 1459559, "internal_node_id": "0.0-6.0-16.0"}}, {"uniqueid": "w47297517:a74361576", "current_trial": 112, "dateTime": 1664556493179, "trialdata": {"rt": 473, "stimulus": "<p id='stroop-text' class='stroop-yellow'>YELLOW</p>", "response": "y", "stimulus-type": "congruent", "word": "yellow", "color": "yellow", "correct_response": "y", "trial_id": "stroop-trial-1-congruent-14", "trial_type": "html-keyboard-response", "trial_index": 112, "time_elapsed": 1460535, "internal_node_id": "0.0-6.0-17.0"}}, {"uniqueid": "w47297517:a74361576", "current_trial": 113, "dateTime": 1664556494331, "trialdata": {"rt": 650, "stimulus": "<p id='stroop-text' class='stroop-green'>FORK</p>", "response": "g", "stimulus-type": "unrelated", "word": "FORK", "color": "green", "correct_response": "g", "trial_id": "stroop-trial-1-unrelated-6", "trial_type": "html-keyboard-response", "trial_index": 113, "time_elapsed": 1461687, "internal_node_id": "0.0-6.0-18.0"}}, {"uniqueid": "w47297517:a74361576", "current_trial": 114, "dateTime": 1664556495875, "trialdata": {"rt": 1042, "stimulus": "<p id='stroop-text' class='stroop-yellow'>BLUE</p>", "response": "y", "stimulus-type": "incongruent", "word": "blue", "color": "yellow", "correct_response": "y", "trial_id": "stroop-trial-1-incongruent-13", "trial_type": "html-keyboard-response", "trial_index": 114, "time_elapsed": 1463232, "internal_node_id": "0.0-6.0-19.0"}}, {"uniqueid": "w47297517:a74361576", "current_trial": 115, "dateTime": 1664556497035, "trialdata": {"rt": 657, "stimulus": "<p id='stroop-text' class='stroop-green'>WINDOW</p>", "response": "g", "stimulus-type": "unrelated", "word": "WINDOW", "color": "green", "correct_response": "g", "trial_id": "stroop-trial-1-unrelated-19", "trial_type": "html-keyboard-response", "trial_index": 115, "time_elapsed": 1464391, "internal_node_id": "0.0-6.0-20.0"}}, {"uniqueid": "w47297517:a74361576", "current_trial": 116, "dateTime": 1664556498043, "trialdata": {"rt": 506, "stimulus": "<p id='stroop-text' class='stroop-red'>RED</p>", "response": "r", "stimulus-type": "congruent", "word": "red", "color": "red", "correct_response": "r", "trial_id": "stroop-trial-1-congruent-18", "trial_type": "html-keyboard-response", "trial_index": 116, "time_elapsed": 1465399, "internal_node_id": "0.0-6.0-21.0"}}, {"uniqueid": "w47297517:a74361576", "current_trial": 117, "dateTime": 1664556498891, "trialdata": {"rt": 344, "stimulus": "<p id='stroop-text' class='stroop-red'>RED</p>", "response": "r", "stimulus-type": "congruent", "word": "red", "color": "red", "correct_response": "r", "trial_id": "stroop-trial-1-congruent-3", "trial_type": "html-keyboard-response", "trial_index": 117, "time_elapsed": 1466247, "internal_node_id": "0.0-6.0-22.0"}}, {"uniqueid": "w47297517:a74361576", "current_trial": 118, "dateTime": 1664556499875, "trialdata": {"rt": 482, "stimulus": "<p id='stroop-text' class='stroop-red'>FORK</p>", "response": "r", "stimulus-type": "unrelated", "word": "FORK", "color": "red", "correct_response": "r", "trial_id": "stroop-trial-1-unrelated-22", "trial_type": "html-keyboard-response", "trial_index": 118, "time_elapsed": 1467231, "internal_node_id": "0.0-6.0-23.0"}}, {"uniqueid": "w47297517:a74361576", "current_trial": 119, "dateTime": 1664556500747, "trialdata": {"rt": 370, "stimulus": "<p id='stroop-text' class='stroop-blue'>BLUE</p>", "response": "b", "stimulus-type": "congruent", "word": "blue", "color": "blue", "correct_response": "b", "trial_id": "stroop-trial-1-congruent-20", "trial_type": "html-keyboard-response", "trial_index": 119, "time_elapsed": 1468104, "internal_node_id": "0.0-6.0-24.0"}}, {"uniqueid": "w47297517:a74361576", "current_trial": 120, "dateTime": 1664556501603, "trialdata": {"rt": 353, "stimulus": "<p id='stroop-text' class='stroop-green'>FORK</p>", "response": "g", "stimulus-type": "unrelated", "word": "FORK", "color": "green", "correct_response": "g", "trial_id": "stroop-trial-1-unrelated-28", "trial_type": "html-keyboard-response", "trial_index": 120, "time_elapsed": 1468959, "internal_node_id": "0.0-6.0-25.0"}}, {"uniqueid": "w47297517:a74361576", "current_trial": 121, "dateTime": 1664556502699, "trialdata": {"rt": 593, "stimulus": "<p id='stroop-text' class='stroop-red'>BLUE</p>", "response": "r", "stimulus-type": "incongruent", "word": "blue", "color": "red", "correct_response": "r", "trial_id": "stroop-trial-1-incongruent-12", "trial_type": "html-keyboard-response", "trial_index": 121, "time_elapsed": 1470055, "internal_node_id": "0.0-6.0-26.0"}}, {"uniqueid": "w47297517:a74361576", "current_trial": 122, "dateTime": 1664556503523, "trialdata": {"rt": 323, "stimulus": "<p id='stroop-text' class='stroop-red'>BOAT</p>", "response": "r", "stimulus-type": "unrelated", "word": "BOAT", "color": "red", "correct_response": "r", "trial_id": "stroop-trial-1-unrelated-17", "trial_type": "html-keyboard-response", "trial_index": 122, "time_elapsed": 1470879, "internal_node_id": "0.0-6.0-27.0"}}, {"uniqueid": "w47297517:a74361576", "current_trial": 123, "dateTime": 1664556504451, "trialdata": {"rt": 426, "stimulus": "<p id='stroop-text' class='stroop-yellow'>STONE</p>", "response": "y", "stimulus-type": "unrelated", "word": "STONE", "color": "yellow", "correct_response": "y", "trial_id": "stroop-trial-1-unrelated-12", "trial_type": "html-keyboard-response", "trial_index": 123, "time_elapsed": 1471807, "internal_node_id": "0.0-6.0-28.0"}}, {"uniqueid": "w47297517:a74361576", "current_trial": 124, "dateTime": 1664556505514, "trialdata": {"rt": 561, "stimulus": "<p id='stroop-text' class='stroop-green'>RED</p>", "response": "g", "stimulus-type": "incongruent", "word": "red", "color": "green", "correct_response": "g", "trial_id": "stroop-trial-1-incongruent-18", "trial_type": "html-keyboard-response", "trial_index": 124, "time_elapsed": 1472871, "internal_node_id": "0.0-6.0-29.0"}}, {"uniqueid": "w47297517:a74361576", "current_trial": 125, "dateTime": 1664556506595, "trialdata": {"rt": 578, "stimulus": "<p id='stroop-text' class='stroop-yellow'>YELLOW</p>", "response": "y", "stimulus-type": "congruent", "word": "yellow", "color": "yellow", "correct_response": "y", "trial_id": "stroop-trial-1-congruent-30", "trial_type": "html-keyboard-response", "trial_index": 125, "time_elapsed": 1473952, "internal_node_id": "0.0-6.0-30.0"}}, {"uniqueid": "w47297517:a74361576", "current_trial": 126, "dateTime": 1664556507611, "trialdata": {"rt": 513, "stimulus": "<p id='stroop-text' class='stroop-green'>GREEN</p>", "response": "g", "stimulus-type": "congruent", "word": "green", "color": "green", "correct_response": "g", "trial_id": "stroop-trial-1-congruent-7", "trial_type": "html-keyboard-response", "trial_index": 126, "time_elapsed": 1474967, "internal_node_id": "0.0-6.0-31.0"}}, {"uniqueid": "w47297517:a74361576", "current_trial": 127, "dateTime": 1664556508747, "trialdata": {"rt": 635, "stimulus": "<p id='stroop-text' class='stroop-yellow'>BOTTLE</p>", "response": "y", "stimulus-type": "unrelated", "word": "BOTTLE", "color": "yellow", "correct_response": "y", "trial_id": "stroop-trial-1-unrelated-2", "trial_type": "html-keyboard-response", "trial_index": 127, "time_elapsed": 1476103, "internal_node_id": "0.0-6.0-32.0"}}, {"uniqueid": "w47297517:a74361576", "current_trial": 128, "dateTime": 1664556509819, "trialdata": {"rt": 569, "stimulus": "<p id='stroop-text' class='stroop-blue'>DOG</p>", "response": "b", "stimulus-type": "unrelated", "word": "DOG", "color": "blue", "correct_response": "b", "trial_id": "stroop-trial-1-unrelated-20", "trial_type": "html-keyboard-response", "trial_index": 128, "time_elapsed": 1477175, "internal_node_id": "0.0-6.0-33.0"}}, {"uniqueid": "w47297517:a74361576", "current_trial": 129, "dateTime": 1664556510699, "trialdata": {"rt": 378, "stimulus": "<p id='stroop-text' class='stroop-blue'>YELLOW</p>", "response": "b", "stimulus-type": "incongruent", "word": "yellow", "color": "blue", "correct_response": "b", "trial_id": "stroop-trial-1-incongruent-23", "trial_type": "html-keyboard-response", "trial_index": 129, "time_elapsed": 1478055, "internal_node_id": "0.0-6.0-34.0"}}, {"uniqueid": "w47297517:a74361576", "current_trial": 130, "dateTime": 1664556511579, "trialdata": {"rt": 377, "stimulus": "<p id='stroop-text' class='stroop-blue'>DOG</p>", "response": "b", "stimulus-type": "unrelated", "word": "DOG", "color": "blue", "correct_response": "b", "trial_id": "stroop-trial-1-unrelated-25", "trial_type": "html-keyboard-response", "trial_index": 130, "time_elapsed": 1478935, "internal_node_id": "0.0-6.0-35.0"}}, {"uniqueid": "w47297517:a74361576", "current_trial": 131, "dateTime": 1664556512450, "trialdata": {"rt": 359, "stimulus": "<p id='stroop-text' class='stroop-red'>RED</p>", "response": "r", "stimulus-type": "congruent", "word": "red", "color": "red", "correct_response": "r", "trial_id": "stroop-trial-1-congruent-12", "trial_type": "html-keyboard-response", "trial_index": 131, "time_elapsed": 1479807, "internal_node_id": "0.0-6.0-36.0"}}, {"uniqueid": "w47297517:a74361576", "current_trial": 132, "dateTime": 1664556513507, "trialdata": {"rt": 553, "stimulus": "<p id='stroop-text' class='stroop-green'>BLUE</p>", "response": "g", "stimulus-type": "incongruent", "word": "blue", "color": "green", "correct_response": "g", "trial_id": "stroop-trial-1-incongruent-15", "trial_type": "html-keyboard-response", "trial_index": 132, "time_elapsed": 1480864, "internal_node_id": "0.0-6.0-37.0"}}, {"uniqueid": "w47297517:a74361576", "current_trial": 133, "dateTime": 1664556514675, "trialdata": {"rt": 665, "stimulus": "<p id='stroop-text' class='stroop-blue'>BLUE</p>", "response": "b", "stimulus-type": "congruent", "word": "blue", "color": "blue", "correct_response": "b", "trial_id": "stroop-trial-1-congruent-10", "trial_type": "html-keyboard-response", "trial_index": 133, "time_elapsed": 1482031, "internal_node_id": "0.0-6.0-38.0"}}, {"uniqueid": "w47297517:a74361576", "current_trial": 134, "dateTime": 1664556515611, "trialdata": {"rt": 433, "stimulus": "<p id='stroop-text' class='stroop-red'>RED</p>", "response": "r", "stimulus-type": "congruent", "word": "red", "color": "red", "correct_response": "r", "trial_id": "stroop-trial-1-congruent-16", "trial_type": "html-keyboard-response", "trial_index": 134, "time_elapsed": 1482967, "internal_node_id": "0.0-6.0-39.0"}}, {"uniqueid": "w47297517:a74361576", "current_trial": 135, "dateTime": 1664556516659, "trialdata": {"rt": 546, "stimulus": "<p id='stroop-text' class='stroop-yellow'>YELLOW</p>", "response": "y", "stimulus-type": "congruent", "word": "yellow", "color": "yellow", "correct_response": "y", "trial_id": "stroop-trial-1-congruent-5", "trial_type": "html-keyboard-response", "trial_index": 135, "time_elapsed": 1484015, "internal_node_id": "0.0-6.0-40.0"}}, {"uniqueid": "w47297517:a74361576", "current_trial": 136, "dateTime": 1664556517899, "trialdata": {"rt": 737, "stimulus": "<p id='stroop-text' class='stroop-green'>CHAIR</p>", "response": "g", "stimulus-type": "unrelated", "word": "CHAIR", "color": "green", "correct_response": "g", "trial_id": "stroop-trial-1-unrelated-18", "trial_type": "html-keyboard-response", "trial_index": 136, "time_elapsed": 1485255, "internal_node_id": "0.0-6.0-41.0"}}, {"uniqueid": "w47297517:a74361576", "current_trial": 137, "dateTime": 1664556518715, "trialdata": {"rt": 313, "stimulus": "<p id='stroop-text' class='stroop-green'>BLUE</p>", "response": "g", "stimulus-type": "incongruent", "word": "blue", "color": "green", "correct_response": "g", "trial_id": "stroop-trial-1-incongruent-30", "trial_type": "html-keyboard-response", "trial_index": 137, "time_elapsed": 1486071, "internal_node_id": "0.0-6.0-42.0"}}, {"uniqueid": "w47297517:a74361576", "current_trial": 138, "dateTime": 1664556519946, "trialdata": {"rt": 729, "stimulus": "<p id='stroop-text' class='stroop-yellow'>RED</p>", "response": "y", "stimulus-type": "incongruent", "word": "red", "color": "yellow", "correct_response": "y", "trial_id": "stroop-trial-1-incongruent-14", "trial_type": "html-keyboard-response", "trial_index": 138, "time_elapsed": 1487303, "internal_node_id": "0.0-6.0-43.0"}}, {"uniqueid": "w47297517:a74361576", "current_trial": 139, "dateTime": 1664556521691, "trialdata": {"rt": 1242, "stimulus": "<p id='stroop-text' class='stroop-red'>BLUE</p>", "response": "r", "stimulus-type": "incongruent", "word": "blue", "color": "red", "correct_response": "r", "trial_id": "stroop-trial-1-incongruent-3", "trial_type": "html-keyboard-response", "trial_index": 139, "time_elapsed": 1489047, "internal_node_id": "0.0-6.0-44.0"}}, {"uniqueid": "w47297517:a74361576", "current_trial": 140, "dateTime": 1664556522635, "trialdata": {"rt": 442, "stimulus": "<p id='stroop-text' class='stroop-green'>GREEN</p>", "response": "g", "stimulus-type": "congruent", "word": "green", "color": "green", "correct_response": "g", "trial_id": "stroop-trial-1-congruent-29", "trial_type": "html-keyboard-response", "trial_index": 140, "time_elapsed": 1489991, "internal_node_id": "0.0-6.0-45.0"}}, {"uniqueid": "w47297517:a74361576", "current_trial": 141, "dateTime": 1664556523483, "trialdata": {"rt": 345, "stimulus": "<p id='stroop-text' class='stroop-red'>STONE</p>", "response": "r", "stimulus-type": "unrelated", "word": "STONE", "color": "red", "correct_response": "r", "trial_id": "stroop-trial-1-unrelated-9", "trial_type": "html-keyboard-response", "trial_index": 141, "time_elapsed": 1490839, "internal_node_id": "0.0-6.0-46.0"}}, {"uniqueid": "w47297517:a74361576", "current_trial": 142, "dateTime": 1664556524667, "trialdata": {"rt": 682, "stimulus": "<p id='stroop-text' class='stroop-green'>BOTTLE</p>", "response": "g", "stimulus-type": "unrelated", "word": "BOTTLE", "color": "green", "correct_response": "g", "trial_id": "stroop-trial-1-unrelated-26", "trial_type": "html-keyboard-response", "trial_index": 142, "time_elapsed": 1492023, "internal_node_id": "0.0-6.0-47.0"}}, {"uniqueid": "w47297517:a74361576", "current_trial": 143, "dateTime": 1664556525627, "trialdata": {"rt": 457, "stimulus": "<p id='stroop-text' class='stroop-red'>GREEN</p>", "response": "r", "stimulus-type": "incongruent", "word": "green", "color": "red", "correct_response": "r", "trial_id": "stroop-trial-1-incongruent-19", "trial_type": "html-keyboard-response", "trial_index": 143, "time_elapsed": 1492983, "internal_node_id": "0.0-6.0-48.0"}}, {"uniqueid": "w47297517:a74361576", "current_trial": 144, "dateTime": 1664556526675, "trialdata": {"rt": 545, "stimulus": "<p id='stroop-text' class='stroop-yellow'>YELLOW</p>", "response": "y", "stimulus-type": "congruent", "word": "yellow", "color": "yellow", "correct_response": "y", "trial_id": "stroop-trial-1-congruent-24", "trial_type": "html-keyboard-response", "trial_index": 144, "time_elapsed": 1494031, "internal_node_id": "0.0-6.0-49.0"}}, {"uniqueid": "w47297517:a74361576", "current_trial": 145, "dateTime": 1664556528083, "trialdata": {"rt": 905, "stimulus": "<p id='stroop-text' class='stroop-green'>GREEN</p>", "response": "g", "stimulus-type": "congruent", "word": "green", "color": "green", "correct_response": "g", "trial_id": "stroop-trial-1-congruent-2", "trial_type": "html-keyboard-response", "trial_index": 145, "time_elapsed": 1495439, "internal_node_id": "0.0-6.0-50.0"}}, {"uniqueid": "w47297517:a74361576", "current_trial": 146, "dateTime": 1664556529115, "trialdata": {"rt": 516, "stimulus": "<p id='stroop-text' class='stroop-red'>RED</p>", "response": "y", "stimulus-type": "congruent", "word": "red", "color": "red", "correct_response": "r", "trial_id": "stroop-trial-1-congruent-25", "trial_type": "html-keyboard-response", "trial_index": 146, "time_elapsed": 1496471, "internal_node_id": "0.0-6.0-51.0"}}, {"uniqueid": "w47297517:a74361576", "current_trial": 147, "dateTime": 1664556530339, "trialdata": {"rt": 723, "stimulus": "<p id='stroop-text' class='stroop-green'>MONKEY</p>", "response": "g", "stimulus-type": "unrelated", "word": "MONKEY", "color": "green", "correct_response": "g", "trial_id": "stroop-trial-1-unrelated-11", "trial_type": "html-keyboard-response", "trial_index": 147, "time_elapsed": 1497695, "internal_node_id": "0.0-6.0-52.0"}}, {"uniqueid": "w47297517:a74361576", "current_trial": 148, "dateTime": 1664556531395, "trialdata": {"rt": 553, "stimulus": "<p id='stroop-text' class='stroop-red'>MONKEY</p>", "response": "y", "stimulus-type": "unrelated", "word": "MONKEY", "color": "red", "correct_response": "r", "trial_id": "stroop-trial-1-unrelated-5", "trial_type": "html-keyboard-response", "trial_index": 148, "time_elapsed": 1498751, "internal_node_id": "0.0-6.0-53.0"}}, {"uniqueid": "w47297517:a74361576", "current_trial": 149, "dateTime": 1664556532770, "trialdata": {"rt": 872, "stimulus": "<p id='stroop-text' class='stroop-blue'>BLUE</p>", "response": "b", "stimulus-type": "congruent", "word": "blue", "color": "blue", "correct_response": "b", "trial_id": "stroop-trial-1-congruent-26", "trial_type": "html-keyboard-response", "trial_index": 149, "time_elapsed": 1500127, "internal_node_id": "0.0-6.0-54.0"}}, {"uniqueid": "w47297517:a74361576", "current_trial": 150, "dateTime": 1664556533922, "trialdata": {"rt": 649, "stimulus": "<p id='stroop-text' class='stroop-yellow'>BLUE</p>", "response": "y", "stimulus-type": "incongruent", "word": "blue", "color": "yellow", "correct_response": "y", "trial_id": "stroop-trial-1-incongruent-29", "trial_type": "html-keyboard-response", "trial_index": 150, "time_elapsed": 1501279, "internal_node_id": "0.0-6.0-55.0"}}, {"uniqueid": "w47297517:a74361576", "current_trial": 151, "dateTime": 1664556534914, "trialdata": {"rt": 481, "stimulus": "<p id='stroop-text' class='stroop-yellow'>MONKEY</p>", "response": "y", "stimulus-type": "unrelated", "word": "MONKEY", "color": "yellow", "correct_response": "y", "trial_id": "stroop-trial-1-unrelated-24", "trial_type": "html-keyboard-response", "trial_index": 151, "time_elapsed": 1502271, "internal_node_id": "0.0-6.0-56.0"}}, {"uniqueid": "w47297517:a74361576", "current_trial": 152, "dateTime": 1664556536186, "trialdata": {"rt": 769, "stimulus": "<p id='stroop-text' class='stroop-blue'>YELLOW</p>", "response": "g", "stimulus-type": "incongruent", "word": "yellow", "color": "blue", "correct_response": "b", "trial_id": "stroop-trial-1-incongruent-2", "trial_type": "html-keyboard-response", "trial_index": 152, "time_elapsed": 1503543, "internal_node_id": "0.0-6.0-57.0"}}, {"uniqueid": "w47297517:a74361576", "current_trial": 153, "dateTime": 1664556537242, "trialdata": {"rt": 553, "stimulus": "<p id='stroop-text' class='stroop-yellow'>YELLOW</p>", "response": "y", "stimulus-type": "congruent", "word": "yellow", "color": "yellow", "correct_response": "y", "trial_id": "stroop-trial-1-congruent-11", "trial_type": "html-keyboard-response", "trial_index": 153, "time_elapsed": 1504599, "internal_node_id": "0.0-6.0-58.0"}}, {"uniqueid": "w47297517:a74361576", "current_trial": 154, "dateTime": 1664556538546, "trialdata": {"rt": 801, "stimulus": "<p id='stroop-text' class='stroop-blue'>RED</p>", "response": "b", "stimulus-type": "incongruent", "word": "red", "color": "blue", "correct_response": "b", "trial_id": "stroop-trial-1-incongruent-8", "trial_type": "html-keyboard-response", "trial_index": 154, "time_elapsed": 1505903, "internal_node_id": "0.0-6.0-59.0"}}, {"uniqueid": "w47297517:a74361576", "current_trial": 155, "dateTime": 1664556539586, "trialdata": {"rt": 537, "stimulus": "<p id='stroop-text' class='stroop-blue'>GREEN</p>", "response": "b", "stimulus-type": "incongruent", "word": "green", "color": "blue", "correct_response": "b", "trial_id": "stroop-trial-1-incongruent-26", "trial_type": "html-keyboard-response", "trial_index": 155, "time_elapsed": 1506943, "internal_node_id": "0.0-6.0-60.0"}}, {"uniqueid": "w47297517:a74361576", "current_trial": 156, "dateTime": 1664556540738, "trialdata": {"rt": 649, "stimulus": "<p id='stroop-text' class='stroop-yellow'>RED</p>", "response": "y", "stimulus-type": "incongruent", "word": "red", "color": "yellow", "correct_response": "y", "trial_id": "stroop-trial-1-incongruent-22", "trial_type": "html-keyboard-response", "trial_index": 156, "time_elapsed": 1508095, "internal_node_id": "0.0-6.0-61.0"}}, {"uniqueid": "w47297517:a74361576", "current_trial": 157, "dateTime": 1664556541802, "trialdata": {"rt": 562, "stimulus": "<p id='stroop-text' class='stroop-blue'>BLUE</p>", "response": "b", "stimulus-type": "congruent", "word": "blue", "color": "blue", "correct_response": "b", "trial_id": "stroop-trial-1-congruent-6", "trial_type": "html-keyboard-response", "trial_index": 157, "time_elapsed": 1509159, "internal_node_id": "0.0-6.0-62.0"}}, {"uniqueid": "w47297517:a74361576", "current_trial": 158, "dateTime": 1664556543538, "trialdata": {"rt": 1233, "stimulus": "<p id='stroop-text' class='stroop-green'>YELLOW</p>", "response": "g", "stimulus-type": "incongruent", "word": "yellow", "color": "green", "correct_response": "g", "trial_id": "stroop-trial-1-incongruent-17", "trial_type": "html-keyboard-response", "trial_index": 158, "time_elapsed": 1510895, "internal_node_id": "0.0-6.0-63.0"}}, {"uniqueid": "w47297517:a74361576", "current_trial": 159, "dateTime": 1664556544850, "trialdata": {"rt": 808, "stimulus": "<p id='stroop-text' class='stroop-yellow'>YELLOW</p>", "response": "y", "stimulus-type": "congruent", "word": "yellow", "color": "yellow", "correct_response": "y", "trial_id": "stroop-trial-1-congruent-17", "trial_type": "html-keyboard-response", "trial_index": 159, "time_elapsed": 1512207, "internal_node_id": "0.0-6.0-64.0"}}, {"uniqueid": "w47297517:a74361576", "current_trial": 160, "dateTime": 1664556546258, "trialdata": {"rt": 905, "stimulus": "<p id='stroop-text' class='stroop-yellow'>BLUE</p>", "response": "y", "stimulus-type": "incongruent", "word": "blue", "color": "yellow", "correct_response": "y", "trial_id": "stroop-trial-1-incongruent-11", "trial_type": "html-keyboard-response", "trial_index": 160, "time_elapsed": 1513615, "internal_node_id": "0.0-6.0-65.0"}}, {"uniqueid": "w47297517:a74361576", "current_trial": 161, "dateTime": 1664556547562, "trialdata": {"rt": 800, "stimulus": "<p id='stroop-text' class='stroop-blue'>BRIDGE</p>", "response": "b", "stimulus-type": "unrelated", "word": "BRIDGE", "color": "blue", "correct_response": "b", "trial_id": "stroop-trial-1-unrelated-27", "trial_type": "html-keyboard-response", "trial_index": 161, "time_elapsed": 1514919, "internal_node_id": "0.0-6.0-66.0"}}, {"uniqueid": "w47297517:a74361576", "current_trial": 162, "dateTime": 1664556548842, "trialdata": {"rt": 767, "stimulus": "<p id='stroop-text' class='stroop-green'>STONE</p>", "response": "b", "stimulus-type": "unrelated", "word": "STONE", "color": "green", "correct_response": "g", "trial_id": "stroop-trial-1-unrelated-14", "trial_type": "html-keyboard-response", "trial_index": 162, "time_elapsed": 1516199, "internal_node_id": "0.0-6.0-67.0"}}, {"uniqueid": "w47297517:a74361576", "current_trial": 163, "dateTime": 1664556550154, "trialdata": {"rt": 809, "stimulus": "<p id='stroop-text' class='stroop-blue'>BLUE</p>", "response": "b", "stimulus-type": "congruent", "word": "blue", "color": "blue", "correct_response": "b", "trial_id": "stroop-trial-1-congruent-28", "trial_type": "html-keyboard-response", "trial_index": 163, "time_elapsed": 1517511, "internal_node_id": "0.0-6.0-68.0"}}, {"uniqueid": "w47297517:a74361576", "current_trial": 164, "dateTime": 1664556551138, "trialdata": {"rt": 481, "stimulus": "<p id='stroop-text' class='stroop-yellow'>YELLOW</p>", "response": "y", "stimulus-type": "congruent", "word": "yellow", "color": "yellow", "correct_response": "y", "trial_id": "stroop-trial-1-congruent-9", "trial_type": "html-keyboard-response", "trial_index": 164, "time_elapsed": 1518495, "internal_node_id": "0.0-6.0-69.0"}}, {"uniqueid": "w47297517:a74361576", "current_trial": 165, "dateTime": 1664556552122, "trialdata": {"rt": 482, "stimulus": "<p id='stroop-text' class='stroop-green'>GREEN</p>", "response": "g", "stimulus-type": "congruent", "word": "green", "color": "green", "correct_response": "g", "trial_id": "stroop-trial-1-congruent-13", "trial_type": "html-keyboard-response", "trial_index": 165, "time_elapsed": 1519479, "internal_node_id": "0.0-6.0-70.0"}}, {"uniqueid": "w47297517:a74361576", "current_trial": 166, "dateTime": 1664556553178, "trialdata": {"rt": 542, "stimulus": "<p id='stroop-text' class='stroop-yellow'>YELLOW</p>", "response": "y", "stimulus-type": "congruent", "word": "yellow", "color": "yellow", "correct_response": "y", "trial_id": "stroop-trial-1-congruent-19", "trial_type": "html-keyboard-response", "trial_index": 166, "time_elapsed": 1520535, "internal_node_id": "0.0-6.0-71.0"}}, {"uniqueid": "w47297517:a74361576", "current_trial": 167, "dateTime": 1664556554442, "trialdata": {"rt": 762, "stimulus": "<p id='stroop-text' class='stroop-red'>DOG</p>", "response": "r", "stimulus-type": "unrelated", "word": "DOG", "color": "red", "correct_response": "r", "trial_id": "stroop-trial-1-unrelated-1", "trial_type": "html-keyboard-response", "trial_index": 167, "time_elapsed": 1521799, "internal_node_id": "0.0-6.0-72.0"}}, {"uniqueid": "w47297517:a74361576", "current_trial": 168, "dateTime": 1664556556066, "trialdata": {"rt": 1123, "stimulus": "<p id='stroop-text' class='stroop-blue'>BRIDGE</p>", "response": "b", "stimulus-type": "unrelated", "word": "BRIDGE", "color": "blue", "correct_response": "b", "trial_id": "stroop-trial-1-unrelated-16", "trial_type": "html-keyboard-response", "trial_index": 168, "time_elapsed": 1523423, "internal_node_id": "0.0-6.0-73.0"}}, {"uniqueid": "w47297517:a74361576", "current_trial": 169, "dateTime": 1664556557242, "trialdata": {"rt": 672, "stimulus": "<p id='stroop-text' class='stroop-blue'>GREEN</p>", "response": "b", "stimulus-type": "incongruent", "word": "green", "color": "blue", "correct_response": "b", "trial_id": "stroop-trial-1-incongruent-20", "trial_type": "html-keyboard-response", "trial_index": 169, "time_elapsed": 1524599, "internal_node_id": "0.0-6.0-74.0"}}, {"uniqueid": "w47297517:a74361576", "current_trial": 170, "dateTime": 1664556558242, "trialdata": {"rt": 497, "stimulus": "<p id='stroop-text' class='stroop-red'>GREEN</p>", "response": "r", "stimulus-type": "incongruent", "word": "green", "color": "red", "correct_response": "r", "trial_id": "stroop-trial-1-incongruent-27", "trial_type": "html-keyboard-response", "trial_index": 170, "time_elapsed": 1525599, "internal_node_id": "0.0-6.0-75.0"}}, {"uniqueid": "w47297517:a74361576", "current_trial": 171, "dateTime": 1664556559514, "trialdata": {"rt": 767, "stimulus": "<p id='stroop-text' class='stroop-green'>MONKEY</p>", "response": "g", "stimulus-type": "unrelated", "word": "MONKEY", "color": "green", "correct_response": "g", "trial_id": "stroop-trial-1-unrelated-15", "trial_type": "html-keyboard-response", "trial_index": 171, "time_elapsed": 1526871, "internal_node_id": "0.0-6.0-76.0"}}, {"uniqueid": "w47297517:a74361576", "current_trial": 172, "dateTime": 1664556560554, "trialdata": {"rt": 537, "stimulus": "<p id='stroop-text' class='stroop-red'>BOAT</p>", "response": "r", "stimulus-type": "unrelated", "word": "BOAT", "color": "red", "correct_response": "r", "trial_id": "stroop-trial-1-unrelated-10", "trial_type": "html-keyboard-response", "trial_index": 172, "time_elapsed": 1527911, "internal_node_id": "0.0-6.0-77.0"}}, {"uniqueid": "w47297517:a74361576", "current_trial": 173, "dateTime": 1664556561618, "trialdata": {"rt": 562, "stimulus": "<p id='stroop-text' class='stroop-yellow'>YELLOW</p>", "response": "y", "stimulus-type": "congruent", "word": "yellow", "color": "yellow", "correct_response": "y", "trial_id": "stroop-trial-1-congruent-15", "trial_type": "html-keyboard-response", "trial_index": 173, "time_elapsed": 1528975, "internal_node_id": "0.0-6.0-78.0"}}, {"uniqueid": "w47297517:a74361576", "current_trial": 174, "dateTime": 1664556562594, "trialdata": {"rt": 472, "stimulus": "<p id='stroop-text' class='stroop-yellow'>YELLOW</p>", "response": "y", "stimulus-type": "congruent", "word": "yellow", "color": "yellow", "correct_response": "y", "trial_id": "stroop-trial-1-congruent-1", "trial_type": "html-keyboard-response", "trial_index": 174, "time_elapsed": 1529951, "internal_node_id": "0.0-6.0-79.0"}}, {"uniqueid": "w47297517:a74361576", "current_trial": 175, "dateTime": 1664556564730, "trialdata": {"rt": 1633, "stimulus": "<p id='stroop-text' class='stroop-green'>BLUE</p>", "response": "g", "stimulus-type": "incongruent", "word": "blue", "color": "green", "correct_response": "g", "trial_id": "stroop-trial-1-incongruent-25", "trial_type": "html-keyboard-response", "trial_index": 175, "time_elapsed": 1532087, "internal_node_id": "0.0-6.0-80.0"}}, {"uniqueid": "w47297517:a74361576", "current_trial": 176, "dateTime": 1664556566090, "trialdata": {"rt": 857, "stimulus": "<p id='stroop-text' class='stroop-red'>YELLOW</p>", "response": "r", "stimulus-type": "incongruent", "word": "yellow", "color": "red", "correct_response": "r", "trial_id": "stroop-trial-1-incongruent-28", "trial_type": "html-keyboard-response", "trial_index": 176, "time_elapsed": 1533447, "internal_node_id": "0.0-6.0-81.0"}}, {"uniqueid": "w47297517:a74361576", "current_trial": 177, "dateTime": 1664556567194, "trialdata": {"rt": 601, "stimulus": "<p id='stroop-text' class='stroop-yellow'>SHIP</p>", "response": "y", "stimulus-type": "unrelated", "word": "SHIP", "color": "yellow", "correct_response": "y", "trial_id": "stroop-trial-1-unrelated-30", "trial_type": "html-keyboard-response", "trial_index": 177, "time_elapsed": 1534551, "internal_node_id": "0.0-6.0-82.0"}}, {"uniqueid": "w47297517:a74361576", "current_trial": 178, "dateTime": 1664556568274, "trialdata": {"rt": 577, "stimulus": "<p id='stroop-text' class='stroop-yellow'>RED</p>", "response": "y", "stimulus-type": "incongruent", "word": "red", "color": "yellow", "correct_response": "y", "trial_id": "stroop-trial-1-incongruent-1", "trial_type": "html-keyboard-response", "trial_index": 178, "time_elapsed": 1535631, "internal_node_id": "0.0-6.0-83.0"}}, {"uniqueid": "w47297517:a74361576", "current_trial": 179, "dateTime": 1664556569346, "trialdata": {"rt": 568, "stimulus": "<p id='stroop-text' class='stroop-yellow'>GREEN</p>", "response": "y", "stimulus-type": "incongruent", "word": "green", "color": "yellow", "correct_response": "y", "trial_id": "stroop-trial-1-incongruent-24", "trial_type": "html-keyboard-response", "trial_index": 179, "time_elapsed": 1536703, "internal_node_id": "0.0-6.0-84.0"}}, {"uniqueid": "w47297517:a74361576", "current_trial": 180, "dateTime": 1664556570642, "trialdata": {"rt": 794, "stimulus": "<p id='stroop-text' class='stroop-green'>RED</p>", "response": "g", "stimulus-type": "incongruent", "word": "red", "color": "green", "correct_response": "g", "trial_id": "stroop-trial-1-incongruent-9", "trial_type": "html-keyboard-response", "trial_index": 180, "time_elapsed": 1537999, "internal_node_id": "0.0-6.0-85.0"}}, {"uniqueid": "w47297517:a74361576", "current_trial": 181, "dateTime": 1664556571754, "trialdata": {"rt": 609, "stimulus": "<p id='stroop-text' class='stroop-green'>YELLOW</p>", "response": "g", "stimulus-type": "incongruent", "word": "yellow", "color": "green", "correct_response": "g", "trial_id": "stroop-trial-1-incongruent-7", "trial_type": "html-keyboard-response", "trial_index": 181, "time_elapsed": 1539111, "internal_node_id": "0.0-6.0-86.0"}}, {"uniqueid": "w47297517:a74361576", "current_trial": 182, "dateTime": 1664556573282, "trialdata": {"rt": 1025, "stimulus": "<p id='stroop-text' class='stroop-blue'>YELLOW</p>", "response": "b", "stimulus-type": "incongruent", "word": "yellow", "color": "blue", "correct_response": "b", "trial_id": "stroop-trial-1-incongruent-16", "trial_type": "html-keyboard-response", "trial_index": 182, "time_elapsed": 1540639, "internal_node_id": "0.0-6.0-87.0"}}, {"uniqueid": "w47297517:a74361576", "current_trial": 183, "dateTime": 1664556574834, "trialdata": {"rt": 1051, "stimulus": "<p id='stroop-text' class='stroop-red'>RED</p>", "response": "r", "stimulus-type": "congruent", "word": "red", "color": "red", "correct_response": "r", "trial_id": "stroop-trial-1-congruent-21", "trial_type": "html-keyboard-response", "trial_index": 183, "time_elapsed": 1542191, "internal_node_id": "0.0-6.0-88.0"}}, {"uniqueid": "w47297517:a74361576", "current_trial": 184, "dateTime": 1664556575730, "trialdata": {"rt": 393, "stimulus": "<p id='stroop-text' class='stroop-red'>YELLOW</p>", "response": "r", "stimulus-type": "incongruent", "word": "yellow", "color": "red", "correct_response": "r", "trial_id": "stroop-trial-1-incongruent-6", "trial_type": "html-keyboard-response", "trial_index": 184, "time_elapsed": 1543087, "internal_node_id": "0.0-6.0-89.0"}}, {"uniqueid": "w47297517:a74361576", "current_trial": 185, "dateTime": 1664556672978, "trialdata": {"rt": 96745, "stimulus": "  <h1> End of block! </h1>\n\n  You have reached the end of the block 2/5. If you need a short break, feel free to take one now before moving on.\n\n  <br><br>\n  In the next block, you will complete another 90 rounds of this game.\n\n  <br><br>\n  <div style='text-align: center;'>Press <code>space</code> to begin.</div>\n  <br><br>\n<div style='text-align: center;'>(If the experiment doesn't continue, try clicking on the text and then pressing <code>space</code>.)</div>", "response": " ", "trial_id": "stroop_1_ready_3", "trial_type": "html-keyboard-response", "trial_index": 185, "time_elapsed": 1640335, "internal_node_id": "0.0-7.0"}}, {"uniqueid": "w47297517:a74361576", "current_trial": 186, "dateTime": 1664556673834, "trialdata": {"rt": 854, "stimulus": "<p id='stroop-text' class='stroop-green'>STONE</p>", "response": "g", "stimulus-type": "unrelated", "word": "STONE", "color": "green", "correct_response": "g", "trial_id": "stroop-trial-1-unrelated-3", "trial_type": "html-keyboard-response", "trial_index": 186, "time_elapsed": 1641190, "internal_node_id": "0.0-8.0-0.0"}}, {"uniqueid": "w47297517:a74361576", "current_trial": 187, "dateTime": 1664556675114, "trialdata": {"rt": 778, "stimulus": "<p id='stroop-text' class='stroop-blue'>MONKEY</p>", "response": "b", "stimulus-type": "unrelated", "word": "MONKEY", "color": "blue", "correct_response": "b", "trial_id": "stroop-trial-1-unrelated-30", "trial_type": "html-keyboard-response", "trial_index": 187, "time_elapsed": 1642470, "internal_node_id": "0.0-8.0-1.0"}}, {"uniqueid": "w47297517:a74361576", "current_trial": 188, "dateTime": 1664556676218, "trialdata": {"rt": 601, "stimulus": "<p id='stroop-text' class='stroop-blue'>GREEN</p>", "response": "b", "stimulus-type": "incongruent", "word": "green", "color": "blue", "correct_response": "b", "trial_id": "stroop-trial-1-incongruent-14", "trial_type": "html-keyboard-response", "trial_index": 188, "time_elapsed": 1643575, "internal_node_id": "0.0-8.0-2.0"}}, {"uniqueid": "w47297517:a74361576", "current_trial": 189, "dateTime": 1664556677162, "trialdata": {"rt": 441, "stimulus": "<p id='stroop-text' class='stroop-red'>RED</p>", "response": "r", "stimulus-type": "congruent", "word": "red", "color": "red", "correct_response": "r", "trial_id": "stroop-trial-1-congruent-23", "trial_type": "html-keyboard-response", "trial_index": 189, "time_elapsed": 1644519, "internal_node_id": "0.0-8.0-3.0"}}, {"uniqueid": "w47297517:a74361576", "current_trial": 190, "dateTime": 1664556678194, "trialdata": {"rt": 529, "stimulus": "<p id='stroop-text' class='stroop-red'>SHIP</p>", "response": "r", "stimulus-type": "unrelated", "word": "SHIP", "color": "red", "correct_response": "r", "trial_id": "stroop-trial-1-unrelated-6", "trial_type": "html-keyboard-response", "trial_index": 190, "time_elapsed": 1645551, "internal_node_id": "0.0-8.0-4.0"}}, {"uniqueid": "w47297517:a74361576", "current_trial": 191, "dateTime": 1664556679218, "trialdata": {"rt": 522, "stimulus": "<p id='stroop-text' class='stroop-green'>GREEN</p>", "response": "g", "stimulus-type": "congruent", "word": "green", "color": "green", "correct_response": "g", "trial_id": "stroop-trial-1-congruent-14", "trial_type": "html-keyboard-response", "trial_index": 191, "time_elapsed": 1646575, "internal_node_id": "0.0-8.0-5.0"}}, {"uniqueid": "w47297517:a74361576", "current_trial": 192, "dateTime": 1664556680274, "trialdata": {"rt": 553, "stimulus": "<p id='stroop-text' class='stroop-blue'>MONKEY</p>", "response": "b", "stimulus-type": "unrelated", "word": "MONKEY", "color": "blue", "correct_response": "b", "trial_id": "stroop-trial-1-unrelated-23", "trial_type": "html-keyboard-response", "trial_index": 192, "time_elapsed": 1647631, "internal_node_id": "0.0-8.0-6.0"}}, {"uniqueid": "w47297517:a74361576", "current_trial": 193, "dateTime": 1664556681674, "trialdata": {"rt": 897, "stimulus": "<p id='stroop-text' class='stroop-yellow'>BLUE</p>", "response": "y", "stimulus-type": "incongruent", "word": "blue", "color": "yellow", "correct_response": "y", "trial_id": "stroop-trial-1-incongruent-22", "trial_type": "html-keyboard-response", "trial_index": 193, "time_elapsed": 1649031, "internal_node_id": "0.0-8.0-7.0"}}, {"uniqueid": "w47297517:a74361576", "current_trial": 194, "dateTime": 1664556682850, "trialdata": {"rt": 673, "stimulus": "<p id='stroop-text' class='stroop-green'>BOAT</p>", "response": "g", "stimulus-type": "unrelated", "word": "BOAT", "color": "green", "correct_response": "g", "trial_id": "stroop-trial-1-unrelated-11", "trial_type": "html-keyboard-response", "trial_index": 194, "time_elapsed": 1650206, "internal_node_id": "0.0-8.0-8.0"}}, {"uniqueid": "w47297517:a74361576", "current_trial": 195, "dateTime": 1664556683786, "trialdata": {"rt": 434, "stimulus": "<p id='stroop-text' class='stroop-red'>RED</p>", "response": "r", "stimulus-type": "congruent", "word": "red", "color": "red", "correct_response": "r", "trial_id": "stroop-trial-1-congruent-3", "trial_type": "html-keyboard-response", "trial_index": 195, "time_elapsed": 1651142, "internal_node_id": "0.0-8.0-9.0"}}, {"uniqueid": "w47297517:a74361576", "current_trial": 196, "dateTime": 1664556684962, "trialdata": {"rt": 673, "stimulus": "<p id='stroop-text' class='stroop-blue'>CHAIR</p>", "response": "b", "stimulus-type": "unrelated", "word": "CHAIR", "color": "blue", "correct_response": "b", "trial_id": "stroop-trial-1-unrelated-27", "trial_type": "html-keyboard-response", "trial_index": 196, "time_elapsed": 1652319, "internal_node_id": "0.0-8.0-10.0"}}, {"uniqueid": "w47297517:a74361576", "current_trial": 197, "dateTime": 1664556686018, "trialdata": {"rt": 547, "stimulus": "<p id='stroop-text' class='stroop-yellow'>RED</p>", "response": "y", "stimulus-type": "incongruent", "word": "red", "color": "yellow", "correct_response": "y", "trial_id": "stroop-trial-1-incongruent-26", "trial_type": "html-keyboard-response", "trial_index": 197, "time_elapsed": 1653375, "internal_node_id": "0.0-8.0-11.0"}}, {"uniqueid": "w47297517:a74361576", "current_trial": 198, "dateTime": 1664556687106, "trialdata": {"rt": 585, "stimulus": "<p id='stroop-text' class='stroop-green'>GREEN</p>", "response": "g", "stimulus-type": "congruent", "word": "green", "color": "green", "correct_response": "g", "trial_id": "stroop-trial-1-congruent-17", "trial_type": "html-keyboard-response", "trial_index": 198, "time_elapsed": 1654463, "internal_node_id": "0.0-8.0-12.0"}}, {"uniqueid": "w47297517:a74361576", "current_trial": 199, "dateTime": 1664556687970, "trialdata": {"rt": 361, "stimulus": "<p id='stroop-text' class='stroop-red'>CHAIR</p>", "response": "r", "stimulus-type": "unrelated", "word": "CHAIR", "color": "red", "correct_response": "r", "trial_id": "stroop-trial-1-unrelated-15", "trial_type": "html-keyboard-response", "trial_index": 199, "time_elapsed": 1655326, "internal_node_id": "0.0-8.0-13.0"}}, {"uniqueid": "w47297517:a74361576", "current_trial": 200, "dateTime": 1664556689114, "trialdata": {"rt": 641, "stimulus": "<p id='stroop-text' class='stroop-yellow'>GREEN</p>", "response": "y", "stimulus-type": "incongruent", "word": "green", "color": "yellow", "correct_response": "y", "trial_id": "stroop-trial-1-incongruent-9", "trial_type": "html-keyboard-response", "trial_index": 200, "time_elapsed": 1656471, "internal_node_id": "0.0-8.0-14.0"}}, {"uniqueid": "w47297517:a74361576", "current_trial": 201, "dateTime": 1664556690322, "trialdata": {"rt": 706, "stimulus": "<p id='stroop-text' class='stroop-green'>RED</p>", "response": "g", "stimulus-type": "incongruent", "word": "red", "color": "green", "correct_response": "g", "trial_id": "stroop-trial-1-incongruent-4", "trial_type": "html-keyboard-response", "trial_index": 201, "time_elapsed": 1657679, "internal_node_id": "0.0-8.0-15.0"}}, {"uniqueid": "w47297517:a74361576", "current_trial": 202, "dateTime": 1664556691362, "trialdata": {"rt": 530, "stimulus": "<p id='stroop-text' class='stroop-blue'>YELLOW</p>", "response": "b", "stimulus-type": "incongruent", "word": "yellow", "color": "blue", "correct_response": "b", "trial_id": "stroop-trial-1-incongruent-6", "trial_type": "html-keyboard-response", "trial_index": 202, "time_elapsed": 1658718, "internal_node_id": "0.0-8.0-16.0"}}, {"uniqueid": "w47297517:a74361576", "current_trial": 203, "dateTime": 1664556692354, "trialdata": {"rt": 490, "stimulus": "<p id='stroop-text' class='stroop-red'>YELLOW</p>", "response": "r", "stimulus-type": "incongruent", "word": "yellow", "color": "red", "correct_response": "r", "trial_id": "stroop-trial-1-incongruent-1", "trial_type": "html-keyboard-response", "trial_index": 203, "time_elapsed": 1659710, "internal_node_id": "0.0-8.0-17.0"}}, {"uniqueid": "w47297517:a74361576", "current_trial": 204, "dateTime": 1664556693218, "trialdata": {"rt": 361, "stimulus": "<p id='stroop-text' class='stroop-red'>RED</p>", "response": "r", "stimulus-type": "congruent", "word": "red", "color": "red", "correct_response": "r", "trial_id": "stroop-trial-1-congruent-28", "trial_type": "html-keyboard-response", "trial_index": 204, "time_elapsed": 1660574, "internal_node_id": "0.0-8.0-18.0"}}, {"uniqueid": "w47297517:a74361576", "current_trial": 205, "dateTime": 1664556694018, "trialdata": {"rt": 296, "stimulus": "<p id='stroop-text' class='stroop-red'>BOTTLE</p>", "response": "r", "stimulus-type": "unrelated", "word": "BOTTLE", "color": "red", "correct_response": "r", "trial_id": "stroop-trial-1-unrelated-13", "trial_type": "html-keyboard-response", "trial_index": 205, "time_elapsed": 1661374, "internal_node_id": "0.0-8.0-19.0"}}, {"uniqueid": "w47297517:a74361576", "current_trial": 206, "dateTime": 1664556695154, "trialdata": {"rt": 633, "stimulus": "<p id='stroop-text' class='stroop-green'>GREEN</p>", "response": "g", "stimulus-type": "congruent", "word": "green", "color": "green", "correct_response": "g", "trial_id": "stroop-trial-1-congruent-26", "trial_type": "html-keyboard-response", "trial_index": 206, "time_elapsed": 1662510, "internal_node_id": "0.0-8.0-20.0"}}, {"uniqueid": "w47297517:a74361576", "current_trial": 207, "dateTime": 1664556696042, "trialdata": {"rt": 385, "stimulus": "<p id='stroop-text' class='stroop-green'>BLUE</p>", "response": "g", "stimulus-type": "incongruent", "word": "blue", "color": "green", "correct_response": "g", "trial_id": "stroop-trial-1-incongruent-8", "trial_type": "html-keyboard-response", "trial_index": 207, "time_elapsed": 1663398, "internal_node_id": "0.0-8.0-21.0"}}, {"uniqueid": "w47297517:a74361576", "current_trial": 208, "dateTime": 1664556696890, "trialdata": {"rt": 344, "stimulus": "<p id='stroop-text' class='stroop-green'>BOAT</p>", "response": "g", "stimulus-type": "unrelated", "word": "BOAT", "color": "green", "correct_response": "g", "trial_id": "stroop-trial-1-unrelated-14", "trial_type": "html-keyboard-response", "trial_index": 208, "time_elapsed": 1664247, "internal_node_id": "0.0-8.0-22.0"}}, {"uniqueid": "w47297517:a74361576", "current_trial": 209, "dateTime": 1664556698058, "trialdata": {"rt": 666, "stimulus": "<p id='stroop-text' class='stroop-blue'>MONKEY</p>", "response": "b", "stimulus-type": "unrelated", "word": "MONKEY", "color": "blue", "correct_response": "b", "trial_id": "stroop-trial-1-unrelated-5", "trial_type": "html-keyboard-response", "trial_index": 209, "time_elapsed": 1665414, "internal_node_id": "0.0-8.0-23.0"}}, {"uniqueid": "w47297517:a74361576", "current_trial": 210, "dateTime": 1664556698890, "trialdata": {"rt": 328, "stimulus": "<p id='stroop-text' class='stroop-blue'>GREEN</p>", "response": "b", "stimulus-type": "incongruent", "word": "green", "color": "blue", "correct_response": "b", "trial_id": "stroop-trial-1-incongruent-20", "trial_type": "html-keyboard-response", "trial_index": 210, "time_elapsed": 1666246, "internal_node_id": "0.0-8.0-24.0"}}, {"uniqueid": "w47297517:a74361576", "current_trial": 211, "dateTime": 1664556699818, "trialdata": {"rt": 425, "stimulus": "<p id='stroop-text' class='stroop-red'>FORK</p>", "response": "r", "stimulus-type": "unrelated", "word": "FORK", "color": "red", "correct_response": "r", "trial_id": "stroop-trial-1-unrelated-4", "trial_type": "html-keyboard-response", "trial_index": 211, "time_elapsed": 1667175, "internal_node_id": "0.0-8.0-25.0"}}, {"uniqueid": "w47297517:a74361576", "current_trial": 212, "dateTime": 1664556701354, "trialdata": {"rt": 1032, "stimulus": "<p id='stroop-text' class='stroop-blue'>GREEN</p>", "response": "b", "stimulus-type": "incongruent", "word": "green", "color": "blue", "correct_response": "b", "trial_id": "stroop-trial-1-incongruent-27", "trial_type": "html-keyboard-response", "trial_index": 212, "time_elapsed": 1668710, "internal_node_id": "0.0-8.0-26.0"}}, {"uniqueid": "w47297517:a74361576", "current_trial": 213, "dateTime": 1664556702258, "trialdata": {"rt": 401, "stimulus": "<p id='stroop-text' class='stroop-blue'>BOAT</p>", "response": "b", "stimulus-type": "unrelated", "word": "BOAT", "color": "blue", "correct_response": "b", "trial_id": "stroop-trial-1-unrelated-7", "trial_type": "html-keyboard-response", "trial_index": 213, "time_elapsed": 1669615, "internal_node_id": "0.0-8.0-27.0"}}, {"uniqueid": "w47297517:a74361576", "current_trial": 214, "dateTime": 1664556703274, "trialdata": {"rt": 512, "stimulus": "<p id='stroop-text' class='stroop-yellow'>YELLOW</p>", "response": "y", "stimulus-type": "congruent", "word": "yellow", "color": "yellow", "correct_response": "y", "trial_id": "stroop-trial-1-congruent-2", "trial_type": "html-keyboard-response", "trial_index": 214, "time_elapsed": 1670630, "internal_node_id": "0.0-8.0-28.0"}}, {"uniqueid": "w47297517:a74361576", "current_trial": 215, "dateTime": 1664556704170, "trialdata": {"rt": 394, "stimulus": "<p id='stroop-text' class='stroop-yellow'>YELLOW</p>", "response": "y", "stimulus-type": "congruent", "word": "yellow", "color": "yellow", "correct_response": "y", "trial_id": "stroop-trial-1-congruent-27", "trial_type": "html-keyboard-response", "trial_index": 215, "time_elapsed": 1671526, "internal_node_id": "0.0-8.0-29.0"}}, {"uniqueid": "w47297517:a74361576", "current_trial": 216, "dateTime": 1664556705801, "trialdata": {"rt": 1128, "stimulus": "<p id='stroop-text' class='stroop-blue'>BOAT</p>", "response": "b", "stimulus-type": "unrelated", "word": "BOAT", "color": "blue", "correct_response": "b", "trial_id": "stroop-trial-1-unrelated-25", "trial_type": "html-keyboard-response", "trial_index": 216, "time_elapsed": 1673158, "internal_node_id": "0.0-8.0-30.0"}}, {"uniqueid": "w47297517:a74361576", "current_trial": 217, "dateTime": 1664556706986, "trialdata": {"rt": 682, "stimulus": "<p id='stroop-text' class='stroop-green'>RED</p>", "response": "g", "stimulus-type": "incongruent", "word": "red", "color": "green", "correct_response": "g", "trial_id": "stroop-trial-1-incongruent-7", "trial_type": "html-keyboard-response", "trial_index": 217, "time_elapsed": 1674342, "internal_node_id": "0.0-8.0-31.0"}}, {"uniqueid": "w47297517:a74361576", "current_trial": 218, "dateTime": 1664556708226, "trialdata": {"rt": 737, "stimulus": "<p id='stroop-text' class='stroop-blue'>BLUE</p>", "response": "b", "stimulus-type": "congruent", "word": "blue", "color": "blue", "correct_response": "b", "trial_id": "stroop-trial-1-congruent-11", "trial_type": "html-keyboard-response", "trial_index": 218, "time_elapsed": 1675582, "internal_node_id": "0.0-8.0-32.0"}}, {"uniqueid": "w47297517:a74361576", "current_trial": 219, "dateTime": 1664556709130, "trialdata": {"rt": 401, "stimulus": "<p id='stroop-text' class='stroop-blue'>BLUE</p>", "response": "b", "stimulus-type": "congruent", "word": "blue", "color": "blue", "correct_response": "b", "trial_id": "stroop-trial-1-congruent-1", "trial_type": "html-keyboard-response", "trial_index": 219, "time_elapsed": 1676486, "internal_node_id": "0.0-8.0-33.0"}}, {"uniqueid": "w47297517:a74361576", "current_trial": 220, "dateTime": 1664556710074, "trialdata": {"rt": 441, "stimulus": "<p id='stroop-text' class='stroop-green'>BLUE</p>", "response": "b", "stimulus-type": "incongruent", "word": "blue", "color": "green", "correct_response": "g", "trial_id": "stroop-trial-1-incongruent-10", "trial_type": "html-keyboard-response", "trial_index": 220, "time_elapsed": 1677431, "internal_node_id": "0.0-8.0-34.0"}}, {"uniqueid": "w47297517:a74361576", "current_trial": 221, "dateTime": 1664556711066, "trialdata": {"rt": 489, "stimulus": "<p id='stroop-text' class='stroop-red'>SHIP</p>", "response": "r", "stimulus-type": "unrelated", "word": "SHIP", "color": "red", "correct_response": "r", "trial_id": "stroop-trial-1-unrelated-18", "trial_type": "html-keyboard-response", "trial_index": 221, "time_elapsed": 1678422, "internal_node_id": "0.0-8.0-35.0"}}, {"uniqueid": "w47297517:a74361576", "current_trial": 222, "dateTime": 1664556712386, "trialdata": {"rt": 817, "stimulus": "<p id='stroop-text' class='stroop-blue'>BL