{"condition": 1, "counterbalance": 0, "assignmentId": "a16192345", "workerId": "w26841345", "hitId": "h35807032", "currenttrial": 137, "bonus": 0, "data": [{"uniqueid": "w26841345:a16192345", "current_trial": 0, "dateTime": 1664555732639, "trialdata": {"success": true, "trial_type": "fullscreen", "trial_index": 0, "time_elapsed": 23016, "internal_node_id": "0.0-0.0"}}, {"uniqueid": "w26841345:a16192345", "current_trial": 1, "dateTime": 1664555753694, "trialdata": {"view_history": [{"page_index": 0, "viewing_time": 21048}], "rt": 21048, "trial_id": "exp_instructions_no_distractor", "trial_type": "instructions", "trial_index": 1, "time_elapsed": 44071, "internal_node_id": "0.0-1.0"}}, {"uniqueid": "w26841345:a16192345", "current_trial": 2, "dateTime": 1664555757695, "trialdata": {"success": true, "trial_type": "fullscreen", "trial_index": 2, "time_elapsed": 48072, "internal_node_id": "0.0-2.0-0.0"}}, {"uniqueid": "w26841345:a16192345", "current_trial": 3, "dateTime": 1664555870590, "trialdata": {"view_history": [{"page_index": 0, "viewing_time": 48039}, {"page_index": 1, "viewing_time": 28430}, {"page_index": 2, "viewing_time": 9941}, {"page_index": 3, "viewing_time": 9900}, {"page_index": 4, "viewing_time": 16582}], "rt": 112892, "trial_id": "mouselab_instructions_1", "trial_type": "instructions", "trial_index": 3, "time_elapsed": 160966, "internal_node_id": "0.0-2.0-1.0"}}, {"uniqueid": "w26841345:a16192345", "current_trial": 4, "dateTime": 1664555889338, "trialdata": {"revealed_states": [], "num_clicks_accrued": [0, 0, 0, 0, 0, 0, 0, 0, 0, 0, 0, 0, 0], "stateRewards": ["", 10, 10, 10, -10, -10, 10, 10, -10, 10, -10, 10, -10], "withholdReward": false, "trial_id": "practice_1", "block": "test", "trialIndex": 0, "score": 21.75, "costs": -0.25, "simulationMode": [null, null, null, null, null, null, null], "rewards": [10, 10, -10, 10], "path": ["0", "0", "9", "9", "10", "11"], "rt": [8981, 6710, 2001, 1491, 1005, 502, 300], "actions": ["left", "left", "left", "left", "left", "left", "up"], "actionTimes": [6710, 6711, 8717, 8718, 9727, 9728, 10542], "queries": {"click": {"state": {"target": ["9"], "time": [4788]}, "edge": {"target": [], "time": []}}, "mouseover": {"state": {"target": ["0", "9"], "time": [4564, 4678]}, "edge": {"target": [], "time": []}}, "mouseout": {"state": {"target": ["5", "0", "0", "9"], "time": [null, null, 4578, 4995]}, "edge": {"target": [], "time": []}}}, "displayed_time": "11.06", "trialTime": 13474, "trial_type": "mouselab-mdp", "trial_index": 4, "time_elapsed": 179715, "internal_node_id": "0.0-2.0-2.0-0.0"}}, {"uniqueid": "w26841345:a16192345", "current_trial": 5, "dateTime": 1664555899027, "trialdata": {"revealed_states": [], "num_clicks_accrued": [0, 0, 0, 0, 0, 0, 0, 0, 0, 0, 0, 0, 0], "stateRewards": ["", -10, -10, -10, 10, -10, -10, -10, 10, -10, -10, 10, -10], "withholdReward": false, "trial_id": "practice_2", "block": "test", "trialIndex": 1, "score": -8, "costs": 0, "simulationMode": [null, null, null], "rewards": [-10, -10, 10], "path": ["0", "0", "1", "2", "4"], "rt": [3694, 723, 716], "actions": ["up", "up", "left"], "actionTimes": [5136, 6366, 7591], "queries": {"click": {"state": {"target": [], "time": []}, "edge": {"target": [], "time": []}}, "mouseover": {"state": {"target": ["0", "0"], "time": [1961, 2826]}, "edge": {"target": [], "time": []}}, "mouseout": {"state": {"target": ["0", "0", "0"], "time": [1626, 2075, 2842]}, "edge": {"target": [], "time": []}}}, "displayed_time": "8.11", "trialTime": 9615, "trial_type": "mouselab-mdp", "trial_index": 5, "time_elapsed": 189404, "internal_node_id": "0.0-2.0-2.0-1.0"}}, {"uniqueid": "w26841345:a16192345", "current_trial": 6, "dateTime": 1664555960245, "trialdata": {"view_history": [{"page_index": 0, "viewing_time": 21465}, {"page_index": 1, "viewing_time": 15421}, {"page_index": 2, "viewing_time": 24330}], "rt": 61216, "trial_id": "mouselab_instructions_2_scarce", "trial_type": "instructions", "trial_index": 6, "time_elapsed": 250622, "internal_node_id": "0.0-2.0-3.0"}}, {"uniqueid": "w26841345:a16192345", "current_trial": 7, "dateTime": 1664555986615, "trialdata": {"rt": 26365, "response": {"Q0": "$-48 to $48", "Q1": "The cost is always $0.25.", "Q2": "The better I perform the higher my bonus will be.", "Q3": "No, the amount of cash at each node of the web may be different each time.", "Q4": "The values of the nodes walked through from start to finish.", "Q5": "No, the spider might forget to count the money on some rounds."}, "question_order": [0, 1, 2, 3, 4, 5], "correct": {"Q0": "$-48 to $48", "Q1": "The cost is always $0.25.", "Q2": "The better I perform the higher my bonus will be.", "Q3": "No, the amount of cash at each node of the web may be different each time.", "Q4": "The values of the nodes walked through from start to finish.", "Q5": "No, the spider might forget to count the money on some rounds."}, "trial_id": "mouselab_quiz_scarce", "trial_type": "survey-multi-choice", "trial_index": 7, "time_elapsed": 276992, "internal_node_id": "0.0-2.0-4.0"}}, {"uniqueid": "w26841345:a16192345", "current_trial": 8, "dateTime": 1664555995007, "trialdata": {"rt": 8387, "stimulus": "\n<h1> Get ready to start the game! </h1>\n\nThank you for reading the instructions. Get ready start with the first of 4 block(s) of this game.\n<br><br>\nIn this first block, you will complete 30 rounds of this game before moving on.\n<br><br>\nRemember, the more money the spider gets, the bigger your bonus will be!\n<br><br>\n<div style='text-align: center;'>Press <code>space</code> to begin.</div>\n\n<br><br>\n(If, at any point, the <code>space</code> key does not take you to the next page, click once on the text and try again.)", "response": " ", "trial_id": "mdp_ready_1", "trial_type": "html-keyboard-response", "trial_index": 8, "time_elapsed": 285384, "internal_node_id": "0.0-4.0-0.0"}}, {"uniqueid": "w26841345:a16192345", "current_trial": 9, "dateTime": 1664556009098, "trialdata": {"revealed_states": [], "num_clicks_accrued": [0, 0, 0, 0, 0, 0, 0, 0, 0, 0, 0, 0, 0], "stateRewards": ["", -2, 4, 24, 48, 2, 4, -48, -48, -2, 8, 48, -24], "withholdReward": false, "trial_id": "mdp_305701202606", "block": "test1", "trialIndex": 2, "score": -37.5, "costs": -0.5, "simulationMode": [null, null, null], "rewards": [2, 4, -48], "path": ["0", "0", "5", "6", "7"], "rt": [8405, 570, 110], "actions": ["right", "right", "up"], "actionTimes": [9975, 11050, 11672], "queries": {"click": {"state": {"target": ["9", "5"], "time": [5655, 8145]}, "edge": {"target": [], "time": []}}, "mouseover": {"state": {"target": ["0", "0", "9", "5"], "time": [1881, 5330, 5514, 7979]}, "edge": {"target": [], "time": []}}, "mouseout": {"state": {"target": ["0", "0", "0", "9", "5"], "time": [1450, 1947, 5381, 5880, 8362]}, "edge": {"target": [], "time": []}}}, "displayed_time": "12.18", "trialTime": 14012, "trial_type": "mouselab-mdp", "trial_index": 9, "time_elapsed": 299475, "internal_node_id": "0.0-4.0-1.0-0.0"}}, {"uniqueid": "w26841345:a16192345", "current_trial": 10, "dateTime": 1664556022172, "trialdata": {"revealed_states": [], "num_clicks_accrued": [0, 0, 0, 0, 0, 0, 0, 0, 0, 0, 0, 0, 0], "stateRewards": ["", 2, 4, 48, 48, -2, 4, 48, -24, -4, 8, -48, 48], "withholdReward": true, "trial_id": "mdp_407586865939", "block": "test1", "trialIndex": 3, "score": 58.75, "costs": -0.25, "simulationMode": [null, null, null], "rewards": [2, 4, 48], "path": ["0", "0", "1", "2", "4"], "rt": [1980, 516, 202], "actions": ["up", "up", "left"], "actionTimes": [3192, 4219, 4938], "queries": {"click": {"state": {"target": ["1"], "time": [1921]}, "edge": {"target": [], "time": []}}, "mouseover": {"state": {"target": ["1", "5"], "time": [1854, 2270]}, "edge": {"target": [], "time": []}}, "mouseout": {"state": {"target": ["0", "1"], "time": [1165, 2103]}, "edge": {"target": [], "time": []}}}, "displayed_time": "11.28", "trialTime": 12995, "trial_type": "mouselab-mdp", "trial_index": 10, "time_elapsed": 312549, "internal_node_id": "0.0-4.0-1.0-1.0"}}, {"uniqueid": "w26841345:a16192345", "current_trial": 11, "dateTime": 1664556038602, "trialdata": {"revealed_states": [], "num_clicks_accrued": [0, 0, 0, 0, 0, 0, 0, 0, 0, 0, 0, 0, 0], "stateRewards": ["", 2, -4, -24, -48, -2, 8, -24, 48, -2, 8, 24, -48], "withholdReward": true, "trial_id": "mdp_566582551557", "block": "test1", "trialIndex": 4, "score": 33.5, "costs": -1.5, "simulationMode": [null, null, null], "rewards": [-2, 8, 24], "path": ["0", "0", "9", "10", "11"], "rt": [12154, 112, 120], "actions": ["left", "left", "up"], "actionTimes": [13708, 14325, 14948], "queries": {"click": {"state": {"target": ["1", "2", "3", "5", "6", "10"], "time": [3563, 4636, 5768, 7958, 9076, 12189]}, "edge": {"target": [], "time": []}}, "mouseover": {"state": {"target": ["5", "1", "2", "3", "5", "6", "8", "8", "9", "10"], "time": [2465, 3015, 4448, 5514, 6230, 8847, 9330, 11162, 11595, 12028]}, "edge": {"target": [], "time": []}}, "mouseout": {"state": {"target": ["5", "0", "5", "1", "1", "2", "3", "5", "6", "8", "8", "9", "10"], "time": [1248, 1882, 2898, 3815, 4347, 4997, 6014, 8163, 9247, 9447, 11295, 11863, 12395]}, "edge": {"target": [], "time": []}}}, "displayed_time": "15.46", "trialTime": 16359, "trial_type": "mouselab-mdp", "trial_index": 11, "time_elapsed": 328979, "internal_node_id": "0.0-4.0-1.0-2.0"}}, {"uniqueid": "w26841345:a16192345", "current_trial": 12, "dateTime": 1664556048926, "trialdata": {"revealed_states": [], "num_clicks_accrued": [0, 0, 0, 0, 0, 0, 0, 0, 0, 0, 0, 0, 0], "stateRewards": ["", 2, -8, 24, 24, 4, -4, -24, -48, 4, 8, 24, 24], "withholdReward": true, "trial_id": "mdp_249803813713", "block": "test1", "trialIndex": 5, "score": 40.5, "costs": -0.5, "simulationMode": [null, null, null], "rewards": [4, 8, 24], "path": ["0", "0", "9", "10", "11"], "rt": [4943, 52, 114], "actions": ["left", "left", "up"], "actionTimes": [6569, 7136, 7763], "queries": {"click": {"state": {"target": ["9", "10"], "time": [3097, 4732]}, "edge": {"target": [], "time": []}}, "mouseover": {"state": {"target": ["9", "10"], "time": [2683, 4483]}, "edge": {"target": [], "time": []}}, "mouseout": {"state": {"target": ["0", "0", "9", "9", "10"], "time": [1334, 1884, 3334, 4432, 4933]}, "edge": {"target": [], "time": []}}}, "displayed_time": "9.68", "trialTime": 10257, "trial_type": "mouselab-mdp", "trial_index": 12, "time_elapsed": 339303, "internal_node_id": "0.0-4.0-1.0-3.0"}}, {"uniqueid": "w26841345:a16192345", "current_trial": 13, "dateTime": 1664556060098, "trialdata": {"revealed_states": [], "num_clicks_accrued": [0, 0, 0, 0, 0, 0, 0, 0, 0, 0, 0, 0, 0], "stateRewards": ["", -4, -8, 48, -24, 4, -8, 48, 48, -2, 4, -48, -24], "withholdReward": true, "trial_id": "mdp_925905402462", "block": "test1", "trialIndex": 6, "score": -17.75, "costs": -0.75, "simulationMode": [null, null, null], "rewards": [-2, 4, -24], "path": ["0", "0", "9", "10", "12"], "rt": [4599, 207, 82], "actions": ["left", "left", "down"], "actionTimes": [6142, 6865, 7453], "queries": {"click": {"state": {"target": ["10", "2", "6"], "time": [2703, 3909, 5043]}, "edge": {"target": [], "time": []}}, "mouseover": {"state": {"target": ["9", "10", "9", "1", "2", "6"], "time": [2505, 2571, 2938, 3339, 3604, 4687]}, "edge": {"target": [], "time": []}}, "mouseout": {"state": {"target": ["0", "9", "10", "9", "1", "2", "6", "8"], "time": [1722, 2521, 2888, 3188, 3422, 4122, 5208, 9853]}, "edge": {"target": [], "time": []}}}, "displayed_time": "10.63", "trialTime": 11104, "trial_type": "mouselab-mdp", "trial_index": 13, "time_elapsed": 350475, "internal_node_id": "0.0-4.0-1.0-4.0"}}, {"uniqueid": "w26841345:a16192345", "current_trial": 14, "dateTime": 1664556070293, "trialdata": {"revealed_states": [], "num_clicks_accrued": [0, 0, 0, 0, 0, 0, 0, 0, 0, 0, 0, 0, 0], "stateRewards": ["", 2, 4, 24, 48, -2, 8, 24, -24, -4, -4, 48, 48], "withholdReward": true, "trial_id": "mdp_753439303214", "block": "test1", "trialIndex": 7, "score": 34.25, "costs": -0.75, "simulationMode": [null, null, null], "rewards": [-2, 8, 24], "path": ["0", "0", "5", "6", "7"], "rt": [4448, 50, 452], "actions": ["right", "right", "up"], "actionTimes": [4918, 5484, 6470], "queries": {"click": {"state": {"target": ["10", "2", "6"], "time": [2544, 3348, 3954]}, "edge": {"target": [], "time": []}}, "mouseover": {"state": {"target": ["9", "10", "9", "1", "2", "6"], "time": [2302, 2385, 2718, 3068, 3251, 3752]}, "edge": {"target": [], "time": []}}, "mouseout": {"state": {"target": ["0", "9", "10", "9", "1", "2", "6"], "time": [603, 2352, 2685, 2768, 3135, 3551, 4201]}, "edge": {"target": [], "time": []}}}, "displayed_time": "9.52", "trialTime": 10116, "trial_type": "mouselab-mdp", "trial_index": 14, "time_elapsed": 360670, "internal_node_id": "0.0-4.0-1.0-5.0"}}, {"uniqueid": "w26841345:a16192345", "current_trial": 15, "dateTime": 1664556080933, "trialdata": {"revealed_states": [], "num_clicks_accrued": [0, 0, 0, 0, 0, 0, 0, 0, 0, 0, 0, 0, 0], "stateRewards": ["", 2, -8, 48, -24, 2, 8, 24, -24, 4, -4, -48, -48], "withholdReward": true, "trial_id": "mdp_130946197263", "block": "test1", "trialIndex": 8, "score": 38, "costs": -1, "simulationMode": [null, null, null], "rewards": [2, 8, 24], "path": ["0", "0", "5", "6", "7"], "rt": [5075, 97, 33], "actions": ["right", "right", "up"], "actionTimes": [6903, 7504, 8057], "queries": {"click": {"state": {"target": ["10", "2", "6", "7"], "time": [2613, 3415, 4279, 5816]}, "edge": {"target": [], "time": []}}, "mouseover": {"state": {"target": ["0", "9", "10", "9", "1", "2", "6", "8", "5", "7", "8"], "time": [2207, 2341, 2441, 2857, 3090, 3291, 4090, 4607, 5423, 5757, 6240]}, "edge": {"target": [], "time": []}}, "mouseout": {"state": {"target": ["6", "5", "0", "0", "9", "10", "9", "1", "2", "6", "8", "5", "7", "6"], "time": [1424, 1507, 2141, 2290, 2391, 2807, 2990, 3190, 3657, 4540, 4873, 5523, 5974, 6123]}, "edge": {"target": [], "time": []}}}, "displayed_time": "9.90", "trialTime": 10565, "trial_type": "mouselab-mdp", "trial_index": 15, "time_elapsed": 371310, "internal_node_id": "0.0-4.0-1.0-6.0"}}, {"uniqueid": "w26841345:a16192345", "current_trial": 16, "dateTime": 1664556091857, "trialdata": {"revealed_states": [], "num_clicks_accrued": [0, 0, 0, 0, 0, 0, 0, 0, 0, 0, 0, 0, 0], "stateRewards": ["", 4, 4, 24, -48, 2, -8, -24, -48, 4, 8, 48, 48], "withholdReward": true, "trial_id": "mdp_592471239511", "block": "test1", "trialIndex": 9, "score": 64.5, "costs": -0.5, "simulationMode": [null, null, null], "rewards": [4, 8, 48], "path": ["0", "0", "9", "10", "11"], "rt": [4467, 42, 117], "actions": ["left", "left", "up"], "actionTimes": [5800, 6346, 6970], "queries": {"click": {"state": {"target": ["6", "11"], "time": [2471, 4679]}, "edge": {"target": [], "time": []}}, "mouseover": {"state": {"target": ["5", "6", "7", "1", "11", "10"], "time": [2004, 2255, 3171, 4387, 4503, 5203]}, "edge": {"target": [], "time": []}}, "mouseout": {"state": {"target": ["8", "0", "5", "6", "6", "7", "1", "11", "10", "12"], "time": [954, 1537, 2137, 2737, 2937, 4337, 4420, 5053, 5253, 9318]}, "edge": {"target": [], "time": []}}}, "displayed_time": "10.41", "trialTime": 10856, "trial_type": "mouselab-mdp", "trial_index": 16, "time_elapsed": 382234, "internal_node_id": "0.0-4.0-1.0-7.0"}}, {"uniqueid": "w26841345:a16192345", "current_trial": 17, "dateTime": 1664556102474, "trialdata": {"revealed_states": [], "num_clicks_accrued": [0, 0, 0, 0, 0, 0, 0, 0, 0, 0, 0, 0, 0], "stateRewards": ["", 2, 8, 48, 24, -4, 4, -48, 24, 2, 8, 48, 48], "withholdReward": false, "trial_id": "mdp_367344599162", "block": "test1", "trialIndex": 10, "score": 62.75, "costs": -0.25, "simulationMode": [null, null, null], "rewards": [2, 8, 48], "path": ["0", "0", "9", "10", "11"], "rt": [1871, 143, 197], "actions": ["left", "left", "up"], "actionTimes": [3016, 3664, 4370], "queries": {"click": {"state": {"target": ["11"], "time": [1990]}, "edge": {"target": [], "time": []}}, "mouseover": {"state": {"target": ["11"], "time": [1838]}, "edge": {"target": [], "time": []}}, "mouseout": {"state": {"target": ["0", "11"], "time": [1487, 2187]}, "edge": {"target": [], "time": []}}}, "displayed_time": "10.22", "trialTime": 10543, "trial_type": "mouselab-mdp", "trial_index": 17, "time_elapsed": 392851, "internal_node_id": "0.0-4.0-1.0-8.0"}}, {"uniqueid": "w26841345:a16192345", "current_trial": 18, "dateTime": 1664556116146, "trialdata": {"revealed_states": [], "num_clicks_accrued": [0, 0, 0, 0, 0, 0, 0, 0, 0, 0, 0, 0, 0], "stateRewards": ["", -4, 4, -24, 48, -2, 8, -48, 24, 2, 4, 48, -48], "withholdReward": false, "trial_id": "mdp_366632183904", "block": "test1", "trialIndex": 11, "score": 58.75, "costs": -0.25, "simulationMode": [null, null, null], "rewards": [2, 4, 48], "path": ["0", "0", "9", "10", "11"], "rt": [1748, 456, 177], "actions": ["left", "left", "up"], "actionTimes": [2999, 3964, 4656], "queries": {"click": {"state": {"target": ["11"], "time": [1901]}, "edge": {"target": [], "time": []}}, "mouseover": {"state": {"target": ["9", "10", "11"], "time": [1541, 1675, 1825]}, "edge": {"target": [], "time": []}}, "mouseout": {"state": {"target": ["9", "0", "9", "10", "11"], "time": [1008, 1491, 1592, 1708, 2091]}, "edge": {"target": [], "time": []}}}, "displayed_time": "10.35", "trialTime": 13588, "trial_type": "mouselab-mdp", "trial_index": 18, "time_elapsed": 406522, "internal_node_id": "0.0-4.0-1.0-9.0"}}, {"uniqueid": "w26841345:a16192345", "current_trial": 19, "dateTime": 1664556130669, "trialdata": {"revealed_states": [], "num_clicks_accrued": [0, 0, 0, 0, 0, 0, 0, 0, 0, 0, 0, 0, 0], "stateRewards": ["", -4, -4, -24, 24, 4, 4, -24, -24, -4, 4, 24, 24], "withholdReward": true, "trial_id": "mdp_787781487383", "block": "test1", "trialIndex": 12, "score": 28.25, "costs": -0.75, "simulationMode": [null, null, null], "rewards": [-4, 4, 24], "path": ["0", "0", "9", "10", "12"], "rt": [5225, 81, 40], "actions": ["left", "left", "down"], "actionTimes": [10982, 11574, 12133], "queries": {"click": {"state": {"target": ["3", "12", "7"], "time": [7235, 8345, 9527]}, "edge": {"target": [], "time": []}}, "mouseover": {"state": {"target": ["5", "1", "2", "2", "3", "9", "12", "6", "7"], "time": [6160, 6345, 6543, 6655, 7077, 8076, 8193, 9226, 9392]}, "edge": {"target": [], "time": []}}, "mouseout": {"state": {"target": ["0", "5", "1", "2", "2", "3", "9", "12", "6", "7"], "time": [5961, 6209, 6361, 6610, 6993, 7459, 8094, 8610, 9276, 9692]}, "edge": {"target": [], "time": []}}}, "displayed_time": "13.81", "trialTime": 14453, "trial_type": "mouselab-mdp", "trial_index": 19, "time_elapsed": 421045, "internal_node_id": "0.0-4.0-1.0-10.0"}}, {"uniqueid": "w26841345:a16192345", "current_trial": 20, "dateTime": 1664556141644, "trialdata": {"revealed_states": [], "num_clicks_accrued": [0, 0, 0, 0, 0, 0, 0, 0, 0, 0, 0, 0, 0], "stateRewards": ["", 4, 8, -48, 24, -2, 8, -48, -48, -4, 4, 48, -48], "withholdReward": false, "trial_id": "mdp_693807815190", "block": "test1", "trialIndex": 13, "score": 40.75, "costs": -0.25, "simulationMode": [null, null, null], "rewards": [4, 8, 24], "path": ["0", "0", "1", "2", "4"], "rt": [2522, 79, 40], "actions": ["up", "up", "left"], "actionTimes": [4023, 4616, 5174], "queries": {"click": {"state": {"target": ["4"], "time": [2398]}, "edge": {"target": [], "time": []}}, "mouseover": {"state": {"target": ["4", "1", "5"], "time": [2304, 2652, 3018]}, "edge": {"target": [], "time": []}}, "mouseout": {"state": {"target": ["7", "4", "1"], "time": [1067, 2602, 2902]}, "edge": {"target": [], "time": []}}}, "displayed_time": "10.56", "trialTime": 10906, "trial_type": "mouselab-mdp", "trial_index": 20, "time_elapsed": 432020, "internal_node_id": "0.0-4.0-1.0-11.0"}}, {"uniqueid": "w26841345:a16192345", "current_trial": 21, "dateTime": 1664556152303, "trialdata": {"revealed_states": [], "num_clicks_accrued": [0, 0, 0, 0, 0, 0, 0, 0, 0, 0, 0, 0, 0], "stateRewards": ["", -4, 8, -48, -48, -2, -8, -24, -48, 2, -4, -48, 24], "withholdReward": true, "trial_id": "mdp_743906784415", "block": "test1", "trialIndex": 14, "score": 26.25, "costs": -0.75, "simulationMode": [null, null, null], "rewards": [2, -4, 24], "path": ["0", "0", "9", "10", "12"], "rt": [5514, 54, 65], "actions": ["left", "left", "down"], "actionTimes": [6899, 7469, 8047], "queries": {"click": {"state": {"target": ["12", "10", "9"], "time": [1926, 4296, 5728]}, "edge": {"target": [], "time": []}}, "mouseover": {"state": {"target": ["0", "12", "1", "3", "1", "10", "9"], "time": [1566, 1799, 3265, 3449, 3768, 4164, 5614]}, "edge": {"target": [], "time": []}}, "mouseout": {"state": {"target": ["5", "0", "12", "1", "3", "1", "10", "9"], "time": [1132, 1667, 2232, 3348, 3597, 3831, 4465, 5848]}, "edge": {"target": [], "time": []}}}, "displayed_time": "9.46", "trialTime": 10567, "trial_type": "mouselab-mdp", "trial_index": 21, "time_elapsed": 442680, "internal_node_id": "0.0-4.0-1.0-12.0"}}, {"uniqueid": "w26841345:a16192345", "current_trial": 22, "dateTime": 1664556162213, "trialdata": {"revealed_states": [], "num_clicks_accrued": [0, 0, 0, 0, 0, 0, 0, 0, 0, 0, 0, 0, 0], "stateRewards": ["", -2, -4, -48, 48, -2, -4, 24, 48, -4, -8, -24, 24], "withholdReward": true, "trial_id": "mdp_917590390609", "block": "test1", "trialIndex": 15, "score": 46.25, "costs": -0.75, "simulationMode": [null, null, null], "rewards": [-2, -4, 48], "path": ["0", "0", "1", "2", "4"], "rt": [4134, 30, 26], "actions": ["up", "up", "left"], "actionTimes": [5383, 5919, 6463], "queries": {"click": {"state": {"target": ["4", "2", "1"], "time": [2132, 3796, 4426]}, "edge": {"target": [], "time": []}}, "mouseover": {"state": {"target": ["1", "4", "1", "2", "1"], "time": [1822, 2072, 2438, 3672, 4355]}, "edge": {"target": [], "time": []}}, "mouseout": {"state": {"target": ["0", "1", "4", "1", "2", "1"], "time": [1539, 1888, 2306, 3588, 4004, 4571]}, "edge": {"target": [], "time": []}}}, "displayed_time": "9.32", "trialTime": 9836, "trial_type": "mouselab-mdp", "trial_index": 22, "time_elapsed": 452590, "internal_node_id": "0.0-4.0-1.0-13.0"}}, {"uniqueid": "w26841345:a16192345", "current_trial": 23, "dateTime": 1664556174018, "trialdata": {"revealed_states": [], "num_clicks_accrued": [0, 0, 0, 0, 0, 0, 0, 0, 0, 0, 0, 0, 0], "stateRewards": ["", -2, -4, -48, -48, -2, -8, 48, -48, 4, -8, -48, 24], "withholdReward": false, "trial_id": "mdp_468495641521", "block": "test1", "trialIndex": 16, "score": 42.25, "costs": -0.75, "simulationMode": [null, null, null], "rewards": [-2, -8, 48], "path": ["0", "0", "5", "6", "7"], "rt": [4591, 66, 61], "actions": ["right", "right", "up"], "actionTimes": [5947, 6520, 7098], "queries": {"click": {"state": {"target": ["7", "6", "5"], "time": [2855, 4344, 5015]}, "edge": {"target": [], "time": []}}, "mouseover": {"state": {"target": ["5", "6", "7", "6", "5"], "time": [2155, 2405, 2738, 3305, 4938]}, "edge": {"target": [], "time": []}}, "mouseout": {"state": {"target": ["0", "5", "6", "7", "6", "5"], "time": [1772, 2356, 2672, 3072, 4522, 5171]}, "edge": {"target": [], "time": []}}}, "displayed_time": "10.46", "trialTime": 11728, "trial_type": "mouselab-mdp", "trial_index": 23, "time_elapsed": 464394, "internal_node_id": "0.0-4.0-1.0-14.0"}}, {"uniqueid": "w26841345:a16192345", "current_trial": 24, "dateTime": 1664556184180, "trialdata": {"revealed_states": [], "num_clicks_accrued": [0, 0, 0, 0, 0, 0, 0, 0, 0, 0, 0, 0, 0], "stateRewards": ["", -2, -4, -48, -48, 4, -4, 48, 24, 4, 4, 48, 48], "withholdReward": true, "trial_id": "mdp_950960813932", "block": "test1", "trialIndex": 17, "score": 59.75, "costs": -1.25, "simulationMode": [null, null, null], "rewards": [4, 4, 48], "path": ["0", "0", "9", "10", "12"], "rt": [5401, 45, 58], "actions": ["left", "left", "down"], "actionTimes": [6333, 6888, 7450], "queries": {"click": {"state": {"target": ["4", "8", "12", "10", "9"], "time": [1831, 2820, 4171, 5159, 5512]}, "edge": {"target": [], "time": []}}, "mouseover": {"state": {"target": ["1", "4", "1", "5", "8", "6", "9", "12", "10", "9"], "time": [1510, 1730, 2077, 2493, 2660, 3510, 3893, 4043, 5025, 5361]}, "edge": {"target": [], "time": []}}, "mouseout": {"state": {"target": ["0", "0", "1", "4", "1", "5", "8", "8", "6", "9", "12", "10", "9"], "time": [761, 1327, 1611, 2009, 2093, 2527, 2993, 3459, 3660, 3909, 4342, 5325, 5675]}, "edge": {"target": [], "time": []}}}, "displayed_time": "8.99", "trialTime": 10082, "trial_type": "mouselab-mdp", "trial_index": 24, "time_elapsed": 474557, "internal_node_id": "0.0-4.0-1.0-15.0"}}, {"uniqueid": "w26841345:a16192345", "current_trial": 25, "dateTime": 1664556193654, "trialdata": {"revealed_states": [], "num_clicks_accrued": [0, 0, 0, 0, 0, 0, 0, 0, 0, 0, 0, 0, 0], "stateRewards": ["", 4, 4, 48, -24, -4, -8, 24, -24, 2, -8, -24, 24], "withholdReward": true, "trial_id": "mdp_933201675789", "block": "test1", "trialIndex": 18, "score": 60.25, "costs": -0.75, "simulationMode": [null, null, null], "rewards": [4, 4, 48], "path": ["0", "0", "1", "2", "3"], "rt": [4080, 151, 122], "actions": ["up", "up", "right"], "actionTimes": [4999, 5661, 6299], "queries": {"click": {"state": {"target": ["11", "3", "2"], "time": [1800, 2866, 3968]}, "edge": {"target": [], "time": []}}, "mouseover": {"state": {"target": ["11", "9", "1", "3", "1", "2", "1"], "time": [1711, 2210, 2345, 2628, 3628, 3877, 4161]}, "edge": {"target": [], "time": []}}, "mouseout": {"state": {"target": ["0", "11", "9", "1", "3", "1", "2", "1"], "time": [728, 1994, 2244, 2360, 2961, 3677, 4094, 4177]}, "edge": {"target": [], "time": []}}}, "displayed_time": "9.00", "trialTime": 9394, "trial_type": "mouselab-mdp", "trial_index": 25, "time_elapsed": 484030, "internal_node_id": "0.0-4.0-1.0-16.0"}}, {"uniqueid": "w26841345:a16192345", "current_trial": 26, "dateTime": 1664556203531, "trialdata": {"revealed_states": [], "num_clicks_accrued": [0, 0, 0, 0, 0, 0, 0, 0, 0, 0, 0, 0, 0], "stateRewards": ["", -2, 4, -48, -48, 4, 4, 48, -48, 2, 8, 24, 48], "withholdReward": true, "trial_id": "mdp_686771069745", "block": "test1", "trialIndex": 19, "score": 60.5, "costs": -0.5, "simulationMode": [null, null, null], "rewards": [4, 4, 48], "path": ["0", "0", "5", "6", "7"], "rt": [3151, 97, 138], "actions": ["right", "right", "up"], "actionTimes": [4631, 5245, 5886], "queries": {"click": {"state": {"target": ["7", "6"], "time": [2332, 3717]}, "edge": {"target": [], "time": []}}, "mouseover": {"state": {"target": ["0", "5", "6", "7", "6", "8"], "time": [1649, 1982, 2064, 2215, 3464, 4031]}, "edge": {"target": [], "time": []}}, "mouseout": {"state": {"target": ["0", "5", "6", "7", "6"], "time": [1832, 2014, 2114, 2547, 3947]}, "edge": {"target": [], "time": []}}}, "displayed_time": "9.54", "trialTime": 9811, "trial_type": "mouselab-mdp", "trial_index": 26, "time_elapsed": 493908, "internal_node_id": "0.0-4.0-1.0-17.0"}}, {"uniqueid": "w26841345:a16192345", "current_trial": 27, "dateTime": 1664556213289, "trialdata": {"revealed_states": [], "num_clicks_accrued": [0, 0, 0, 0, 0, 0, 0, 0, 0, 0, 0, 0, 0], "stateRewards": ["", 4, -4, 48, -48, 4, -4, 24, -24, 4, 8, -24, -48], "withholdReward": false, "trial_id": "mdp_433630527224", "block": "test1", "trialIndex": 20, "score": 52.25, "costs": -0.75, "simulationMode": [null, null, null], "rewards": [4, -4, 48], "path": ["0", "0", "1", "2", "3"], "rt": [4472, 9, 58], "actions": ["up", "up", "right"], "actionTimes": [5812, 6338, 6920], "queries": {"click": {"state": {"target": ["11", "3", "1"], "time": [1771, 3315, 5019]}, "edge": {"target": [], "time": []}}, "mouseover": {"state": {"target": ["11", "12", "0", "1", "2", "3", "7", "1"], "time": [1679, 2380, 2612, 2746, 2962, 3129, 3729, 4829]}, "edge": {"target": [], "time": []}}, "mouseout": {"state": {"target": ["8", "5", "11", "12", "0", "1", "2", "3", "7", "1"], "time": [695, 963, 1979, 2463, 2646, 2845, 3062, 3496, 4178, 5162]}, "edge": {"target": [], "time": []}}}, "displayed_time": "9.44", "trialTime": 9687, "trial_type": "mouselab-mdp", "trial_index": 27, "time_elapsed": 503666, "internal_node_id": "0.0-4.0-1.0-18.0"}}, {"uniqueid": "w26841345:a16192345", "current_trial": 28, "dateTime": 1664556222811, "trialdata": {"revealed_states": [], "num_clicks_accrued": [0, 0, 0, 0, 0, 0, 0, 0, 0, 0, 0, 0, 0], "stateRewards": ["", -2, 4, 24, 48, 2, 4, -48, -48, 2, 8, 48, -48], "withholdReward": true, "trial_id": "mdp_409609775558", "block": "test1", "trialIndex": 21, "score": 53.75, "costs": -1.25, "simulationMode": [null, null, null], "rewards": [-2, 4, 48], "path": ["0", "0", "1", "2", "4"], "rt": [5352, 42, 31], "actions": ["up", "up", "left"], "actionTimes": [6373, 6930, 7468], "queries": {"click": {"state": {"target": ["7", "12", "4", "1", "2"], "time": [1562, 2650, 3370, 4721, 5494]}, "edge": {"target": [], "time": []}}, "mouseover": {"state": {"target": ["5", "7", "6", "12", "9", "4", "3", "2", "2", "1", "2"], "time": [1272, 1522, 1955, 2505, 2905, 3271, 4004, 4171, 4355, 4620, 5454]}, "edge": {"target": [], "time": []}}, "mouseout": {"state": {"target": ["0", "5", "7", "6", "12", "9", "4", "3", "2", "2", "1", "2"], "time": [1139, 1322, 1872, 2055, 2821, 2972, 3571, 4087, 4321, 4588, 4888, 5654]}, "edge": {"target": [], "time": []}}}, "displayed_time": "9.10", "trialTime": 9439, "trial_type": "mouselab-mdp", "trial_index": 28, "time_elapsed": 513188, "internal_node_id": "0.0-4.0-1.0-19.0"}}, {"uniqueid": "w26841345:a16192345", "current_trial": 29, "dateTime": 1664556233250, "trialdata": {"revealed_states": [], "num_clicks_accrued": [0, 0, 0, 0, 0, 0, 0, 0, 0, 0, 0, 0, 0], "stateRewards": ["", -4, -4, -48, -24, 2, 8, 24, -48, 4, 4, 48, 48], "withholdReward": true, "trial_id": "mdp_693501840209", "block": "test1", "trialIndex": 22, "score": 60, "costs": -1, "simulationMode": [null, null, null], "rewards": [4, 4, 48], "path": ["0", "0", "9", "10", "11"], "rt": [4387, 433, 182], "actions": ["left", "left", "up"], "actionTimes": [6355, 7306, 8004], "queries": {"click": {"state": {"target": ["4", "8", "11", "10"], "time": [2620, 3473, 4240, 5089]}, "edge": {"target": [], "time": []}}, "mouseover": {"state": {"target": ["4", "1", "5", "8", "9", "11", "10", "9"], "time": [2557, 2908, 3190, 3407, 3956, 4157, 4790, 5606]}, "edge": {"target": [], "time": []}}, "mouseout": {"state": {"target": ["4", "1", "5", "8", "9", "11", "10", "9"], "time": [2790, 3124, 3273, 3773, 4023, 4724, 5539, 5889]}, "edge": {"target": [], "time": []}}}, "displayed_time": "10.07", "trialTime": 10367, "trial_type": "mouselab-mdp", "trial_index": 29, "time_elapsed": 523627, "internal_node_id": "0.0-4.0-1.0-20.0"}}, {"uniqueid": "w26841345:a16192345", "current_trial": 30, "dateTime": 1664556243774, "trialdata": {"revealed_states": [], "num_clicks_accrued": [0, 0, 0, 0, 0, 0, 0, 0, 0, 0, 0, 0, 0], "stateRewards": ["", -2, 8, 48, 48, 4, -8, -48, 48, 2, -4, -48, 48], "withholdReward": false, "trial_id": "mdp_132958048709", "block": "test1", "trialIndex": 23, "score": 58, "costs": -1, "simulationMode": [null, null, null], "rewards": [-2, 8, 48], "path": ["0", "0", "1", "2", "4"], "rt": [5036, 94, 47], "actions": ["up", "up", "left"], "actionTimes": [6131, 6737, 7290], "queries": {"click": {"state": {"target": ["11", "7", "4", "2"], "time": [1927, 3419, 4295, 5235]}, "edge": {"target": [], "time": []}}, "mouseover": {"state": {"target": ["0", "11", "9", "7", "7", "6", "2", "4", "2"], "time": [1528, 1828, 2261, 2928, 3360, 3828, 4093, 4227, 5010]}, "edge": {"target": [], "time": []}}, "mouseout": {"state": {"target": ["0", "0", "11", "9", "7", "7", "6", "2", "4", "2"], "time": [1378, 1561, 2127, 2695, 2960, 3644, 3893, 4111, 4893, 5427]}, "edge": {"target": [], "time": []}}}, "displayed_time": "10.17", "trialTime": 10448, "trial_type": "mouselab-mdp", "trial_index": 30, "time_elapsed": 534151, "internal_node_id": "0.0-4.0-1.0-21.0"}}, {"uniqueid": "w26841345:a16192345", "current_trial": 31, "dateTime": 1664556254575, "trialdata": {"revealed_states": [], "num_clicks_accrued": [0, 0, 0, 0, 0, 0, 0, 0, 0, 0, 0, 0, 0], "stateRewards": ["", 4, -8, -24, 48, -4, 8, -24, -48, -4, -4, 24, 48], "withholdReward": true, "trial_id": "mdp_282352776624", "block": "test1", "trialIndex": 24, "score": 48.25, "costs": -0.75, "simulationMode": [null, null, null], "rewards": [4, -8, 48], "path": ["0", "0", "1", "2", "4"], "rt": [5446, 64, 28], "actions": ["up", "up", "left"], "actionTimes": [6458, 7028, 7576], "queries": {"click": {"state": {"target": ["5", "4", "1"], "time": [1871, 3019, 5741]}, "edge": {"target": [], "time": []}}, "mouseover": {"state": {"target": ["5", "5", "6", "1", "4", "1", "1", "1"], "time": [1417, 1765, 2198, 2697, 2931, 3298, 4164, 5513]}, "edge": {"target": [], "time": []}}, "mouseout": {"state": {"target": ["5", "5", "6", "5", "1", "4", "1", "5", "1", "1"], "time": [1500, 2065, 2382, 2481, 2765, 3247, 3381, 3847, 4547, 5913]}, "edge": {"target": [], "time": []}}}, "displayed_time": "10.09", "trialTime": 10722, "trial_type": "mouselab-mdp", "trial_index": 31, "time_elapsed": 544952, "internal_node_id": "0.0-4.0-1.0-22.0"}}, {"uniqueid": "w26841345:a16192345", "current_trial": 32, "dateTime": 1664556266051, "trialdata": {"revealed_states": [], "num_clicks_accrued": [0, 0, 0, 0, 0, 0, 0, 0, 0, 0, 0, 0, 0], "stateRewards": ["", -4, -8, -48, 48, -2, 8, 48, 48, -2, -4, -48, -48], "withholdReward": true, "trial_id": "mdp_752833580638", "block": "test1", "trialIndex": 25, "score": 57.5, "costs": -1.5, "simulationMode": [null, null, null], "rewards": [-2, 8, 48], "path": ["0", "0", "5", "6", "7"], "rt": [7166, 60, 66], "actions": ["right", "right", "up"], "actionTimes": [8440, 9012, 9583], "queries": {"click": {"state": {"target": ["4", "1", "2", "7", "6", "5"], "time": [2171, 3016, 3861, 5319, 5972, 7313]}, "edge": {"target": [], "time": []}}, "mouseover": {"state": {"target": ["4", "1", "1", "2", "6", "7", "6", "5"], "time": [2135, 2618, 2935, 3752, 4685, 5251, 5651, 6534]}, "edge": {"target": [], "time": []}}, "mouseout": {"state": {"target": ["5", "0", "0", "4", "1", "1", "2", "6", "7", "6", "5"], "time": [735, 852, 1702, 2352, 2652, 3152, 4052, 5184, 5519, 6318, 7450]}, "edge": {"target": [], "time": []}}}, "displayed_time": "10.10", "trialTime": 11390, "trial_type": "mouselab-mdp", "trial_index": 32, "time_elapsed": 556428, "internal_node_id": "0.0-4.0-1.0-23.0"}}, {"uniqueid": "w26841345:a16192345", "current_trial": 33, "dateTime": 1664556278032, "trialdata": {"revealed_states": [], "num_clicks_accrued": [0, 0, 0, 0, 0, 0, 0, 0, 0, 0, 0, 0, 0], "stateRewards": ["", -2, -8, 24, -48, -4, 8, -48, -24, 4, 8, -24, 24], "withholdReward": true, "trial_id": "mdp_940444641142", "block": "test1", "trialIndex": 26, "score": 39, "costs": -2, "simulationMode": [null, null, null], "rewards": [4, 8, 24], "path": ["0", "0", "9", "10", "12"], "rt": [7854, 59, 86], "actions": ["left", "left", "down"], "actionTimes": [8933, 9510, 10105], "queries": {"click": {"state": {"target": ["12", "11", "3", "4", "7", "8", "9", "10"], "time": [1644, 2522, 3390, 4119, 4913, 5669, 7171, 7734]}, "edge": {"target": [], "time": []}}, "mouseover": {"state": {"target": ["12", "9", "11", "1", "3", "2", "4", "1", "7", "6", "8", "9", "10"], "time": [1537, 2071, 2388, 3070, 3287, 3870, 4003, 4386, 4702, 5219, 5403, 7070, 7654]}, "edge": {"target": [], "time": []}}, "mouseout": {"state": {"target": ["0", "12", "9", "11", "1", "3", "2", "4", "1", "7", "6", "8", "8", "9", "10"], "time": [1321, 1871, 2120, 2704, 3137, 3654, 3920, 4319, 4453, 5153, 5320, 5969, 6202, 7386, 7868]}, "edge": {"target": [], "time": []}}}, "displayed_time": "10.62", "trialTime": 11910, "trial_type": "mouselab-mdp", "trial_index": 33, "time_elapsed": 568409, "internal_node_id": "0.0-4.0-1.0-24.0"}}, {"uniqueid": "w26841345:a16192345", "current_trial": 34, "dateTime": 1664556288529, "trialdata": {"revealed_states": [], "num_clicks_accrued": [0, 0, 0, 0, 0, 0, 0, 0, 0, 0, 0, 0, 0], "stateRewards": ["", -2, 8, 48, -48, 4, -8, 24, 24, 4, 4, -48, -24], "withholdReward": true, "trial_id": "mdp_746937869927", "block": "test1", "trialIndex": 27, "score": 57.5, "costs": -1.5, "simulationMode": [null, null, null], "rewards": [-2, 8, 48], "path": ["0", "0", "1", "2", "3"], "rt": [5583, 1, 398], "actions": ["up", "up", "right"], "actionTimes": [6687, 7207, 8136], "queries": {"click": {"state": {"target": ["11", "12", "4", "3", "1", "2"], "time": [1807, 2491, 3257, 3887, 4980, 5552]}, "edge": {"target": [], "time": []}}, "mouseover": {"state": {"target": ["0", "0", "9", "11", "12", "4", "1", "3", "1", "2"], "time": [1222, 1456, 1589, 1722, 2438, 3174, 3605, 3771, 4904, 5472]}, "edge": {"target": [], "time": []}}, "mouseout": {"state": {"target": ["0", "0", "0", "9", "11", "12", "4", "1", "3", "1", "2"], "time": [1039, 1389, 1522, 1639, 1989, 2688, 3455, 3657, 4122, 5154, 5704]}, "edge": {"target": [], "time": []}}}, "displayed_time": "10.17", "trialTime": 10428, "trial_type": "mouselab-mdp", "trial_index": 34, "time_elapsed": 578906, "internal_node_id": "0.0-4.0-1.0-25.0"}}, {"uniqueid": "w26841345:a16192345", "current_trial": 35, "dateTime": 1664556299781, "trialdata": {"revealed_states": [], "num_clicks_accrued": [0, 0, 0, 0, 0, 0, 0, 0, 0, 0, 0, 0, 0], "stateRewards": ["", 4, 4, -48, -24, -2, -4, 48, 24, -4, 4, 24, -48], "withholdReward": true, "trial_id": "mdp_617383046444", "block": "test1", "trialIndex": 28, "score": 46.5, "costs": -0.5, "simulationMode": [null, null, null], "rewards": [-2, -4, 48], "path": ["0", "0", "5", "6", "7"], "rt": [2645, 117, 93], "actions": ["right", "right", "up"], "actionTimes": [3786, 4436, 5043], "queries": {"click": {"state": {"target": ["7", "6"], "time": [1709, 3006]}, "edge": {"target": [], "time": []}}, "mouseover": {"state": {"target": ["5", "6", "7", "6"], "time": [1383, 1483, 1600, 2766]}, "edge": {"target": [], "time": []}}, "mouseout": {"state": {"target": ["5", "6", "7", "6", "8"], "time": [1451, 1500, 1916, 3166, 9980]}, "edge": {"target": [], "time": []}}}, "displayed_time": "10.22", "trialTime": 11177, "trial_type": "mouselab-mdp", "trial_index": 35, "time_elapsed": 590157, "internal_node_id": "0.0-4.0-1.0-26.0"}}, {"uniqueid": "w26841345:a16192345", "current_trial": 36, "dateTime": 1664556310407, "trialdata": {"revealed_states": [], "num_clicks_accrued": [0, 0, 0, 0, 0, 0, 0, 0, 0, 0, 0, 0, 0], "stateRewards": ["", 2, 4, -48, -48, 2, 4, 48, -24, -2, 8, 48, -48], "withholdReward": false, "trial_id": "mdp_258528916140", "block": "test1", "trialIndex": 29, "score": 58.75, "costs": -0.25, "simulationMode": [null, null, null], "rewards": [2, 4, 48], "path": ["0", "0", "5", "6", "7"], "rt": [3570, 126, 110], "actions": ["right", "right", "up"], "actionTimes": [4522, 5157, 5776], "queries": {"click": {"state": {"target": ["7"], "time": [1858]}, "edge": {"target": [], "time": []}}, "mouseover": {"state": {"target": ["5", "6", "7", "6"], "time": [1564, 1665, 1781, 2081]}, "edge": {"target": [], "time": []}}, "mouseout": {"state": {"target": ["0", "5", "6", "7", "6"], "time": [1248, 1631, 1699, 2047, 2097]}, "edge": {"target": [], "time": []}}}, "displayed_time": "10.01", "trialTime": 10539, "trial_type": "mouselab-mdp", "trial_index": 36, "time_elapsed": 600784, "internal_node_id": "0.0-4.0-1.0-27.0"}}, {"uniqueid": "w26841345:a16192345", "current_trial": 37, "dateTime": 1664556320620, "trialdata": {"revealed_states": [], "num_clicks_accrued": [0, 0, 0, 0, 0, 0, 0, 0, 0, 0, 0, 0, 0], "stateRewards": ["", 4, 4, -24, -48, 2, 4, 24, -48, 2, 4, 24, 24], "withholdReward": true, "trial_id": "mdp_223558518218", "block": "test1", "trialIndex": 30, "score": 34, "costs": -1, "simulationMode": [null, null, null], "rewards": [2, 4, 24], "path": ["0", "0", "9", "10", "11"], "rt": [5332, 54, 39], "actions": ["left", "left", "up"], "actionTimes": [6526, 7096, 7647], "queries": {"click": {"state": {"target": ["11", "12", "9", "10"], "time": [1794, 3076, 4006, 5369]}, "edge": {"target": [], "time": []}}, "mouseover": {"state": {"target": ["9", "11", "10", "10", "12", "9", "10"], "time": [1527, 1626, 2436, 2708, 2942, 3909, 5293]}, "edge": {"target": [], "time": []}}, "mouseout": {"state": {"target": ["6", "5", "0", "9", "11", "10", "10", "12", "9", "10"], "time": [760, 876, 1476, 1560, 2009, 2526, 2792, 3292, 4209, 5525]}, "edge": {"target": [], "time": []}}}, "displayed_time": "9.29", "trialTime": 10134, "trial_type": "mouselab-mdp", "trial_index": 37, "time_elapsed": 610996, "internal_node_id": "0.0-4.0-1.0-28.0"}}, {"uniqueid": "w26841345:a16192345", "current_trial": 38, "dateTime": 1664556339416, "trialdata": {"revealed_states": [], "num_clicks_accrued": [0, 0, 0, 0, 0, 0, 0, 0, 0, 0, 0, 0, 0], "stateRewards": ["", -4, -8, -48, -48, 4, -8, 48, 48, 2, 8, 48, 24], "withholdReward": true, "trial_id": "mdp_880437222492", "block": "test1", "trialIndex": 31, "score": 48, "costs": -1, "simulationMode": [null, null, null], "rewards": [4, -8, 48], "path": ["0", "0", "5", "6", "8"], "rt": [4238, 67, 61], "actions": ["right", "right", "down"], "actionTimes": [4844, 5417, 5994], "queries": {"click": {"state": {"target": ["4", "8", "6", "5"], "time": [1046, 1878, 3116, 3768]}, "edge": {"target": [], "time": []}}, "mouseover": {"state": {"target": ["4", "1", "5", "8", "6", "5"], "time": [968, 1318, 1584, 1784, 3017, 3684]}, "edge": {"target": [], "time": []}}, "mouseout": {"state": {"target": ["0", "4", "1", "5", "8", "6", "8", "5"], "time": [625, 1235, 1351, 1620, 2184, 3284, 3567, 3933]}, "edge": {"target": [], "time": []}}}, "displayed_time": "8.69", "trialTime": 18725, "trial_type": "mouselab-mdp", "trial_index": 38, "time_elapsed": 629793, "internal_node_id": "0.0-4.0-1.0-29.0"}}, {"uniqueid": "w26841345:a16192345", "current_trial": 39, "dateTime": 1664556348276, "trialdata": {"rt": 8858, "stimulus": "<h1> End of block! </h1>\n\nYou have reached the end of the block 1/4. If you need a short break, feel free to take one now before moving on.\n\n<br><br>\nIn the next block, you will complete another 30 rounds of this game.\n\n<br><br>\n<div style='text-align: center;'>Press <code>space</code> to begin.</div>\n<br><br>\n<div style='text-align: center;'>(If the experiment doesn't continue, try clicking on the text and then pressing <code>space</code>.)</div>", "response": " ", "trial_id": "mdp_ready_2", "trial_type": "html-keyboard-response", "trial_index": 39, "time_elapsed": 638652, "internal_node_id": "0.0-4.0-2.0"}}, {"uniqueid": "w26841345:a16192345", "current_trial": 40, "dateTime": 1664556360812, "trialdata": {"revealed_states": [], "num_clicks_accrued": [0, 0, 0, 0, 0, 0, 0, 0, 0, 0, 0, 0, 0], "stateRewards": ["", -4, 8, -24, 48, 2, -8, 24, 48, 2, -8, -24, -48], "withholdReward": false, "trial_id": "mdp_493778446445", "block": "test2", "trialIndex": 32, "score": 56.25, "costs": -0.75, "simulationMode": [null, null, null], "rewards": [-4, 8, 48], "path": ["0", "0", "1", "2", "4"], "rt": [4057, 82, 60], "actions": ["up", "up", "left"], "actionTimes": [5497, 6093, 6671], "queries": {"click": {"state": {"target": ["4", "1", "2"], "time": [2529, 3676, 4426]}, "edge": {"target": [], "time": []}}, "mouseover": {"state": {"target": ["0", "4", "1", "2"], "time": [2015, 2362, 3578, 4348]}, "edge": {"target": [], "time": []}}, "mouseout": {"state": {"target": ["0", "0", "4", "1", "2", "5", "8"], "time": [1612, 2046, 2712, 3861, 4580, 10826, 11743]}, "edge": {"target": [], "time": []}}}, "displayed_time": "10.53", "trialTime": 12457, "trial_type": "mouselab-mdp", "trial_index": 40, "time_elapsed": 651189, "internal_node_id": "0.0-4.0-3.0-0.0"}}, {"uniqueid": "w26841345:a16192345", "current_trial": 41, "dateTime": 1664556371185, "trialdata": {"revealed_states": [], "num_clicks_accrued": [0, 0, 0, 0, 0, 0, 0, 0, 0, 0, 0, 0, 0], "stateRewards": ["", -2, -4, -24, 24, -2, 4, -24, -24, -4, 4, 24, -24], "withholdReward": true, "trial_id": "mdp_999419261719", "block": "test2", "trialIndex": 33, "score": 27.25, "costs": -1.75, "simulationMode": [null, null, null], "rewards": [-4, 4, 24], "path": ["0", "0", "9", "10", "11"], "rt": [6184, 49, 24], "actions": ["left", "left", "up"], "actionTimes": [7088, 7647, 8191], "queries": {"click": {"state": {"target": ["12", "3", "8", "7", "11", "10", "9"], "time": [1478, 2309, 3317, 4043, 4768, 5899, 6247]}, "edge": {"target": [], "time": []}}, "mouseover": {"state": {"target": ["12", "9", "1", "3", "6", "8", "7", "6", "11", "10", "9"], "time": [1384, 1901, 2034, 2216, 3066, 3233, 3949, 4349, 4732, 5764, 6148]}, "edge": {"target": [], "time": []}}, "mouseout": {"state": {"target": ["8", "0", "12", "9", "1", "3", "6", "8", "7", "6", "11", "10", "9"], "time": [601, 1201, 1784, 1917, 2133, 2600, 3167, 3649, 4249, 4448, 5032, 6099, 6448]}, "edge": {"target": [], "time": []}}}, "displayed_time": "8.98", "trialTime": 10289, "trial_type": "mouselab-mdp", "trial_index": 41, "time_elapsed": 661560, "internal_node_id": "0.0-4.0-3.0-1.0"}}, {"uniqueid": "w26841345:a16192345", "current_trial": 42, "dateTime": 1664556388129, "trialdata": {"revealed_states": [], "num_clicks_accrued": [0, 0, 0, 0, 0, 0, 0, 0, 0, 0, 0, 0, 0], "stateRewards": ["", 2, -4, 48, -48, -2, 8, -48, 24, -2, -8, 48, 48], "withholdReward": false, "trial_id": "mdp_949326095747", "block": "test2", "trialIndex": 34, "score": 48.5, "costs": -2.5, "simulationMode": [null, null, null], "rewards": [2, -4, 48], "path": ["0", "0", "1", "2", "3"], "rt": [12400, 44, 441], "actions": ["up", "up", "right"], "actionTimes": [13383, 13936, 14883], "queries": {"click": {"state": {"target": ["4", "8", "7", "12", "11", "10", "9", "3", "2", "1"], "time": [1837, 2728, 3387, 4047, 4572, 5338, 5713, 7385, 8368, 9313]}, "edge": {"target": [], "time": []}}, "mouseover": {"state": {"target": ["1", "4", "1", "5", "8", "6", "7", "5", "0", "12", "10", "11", "10", "9", "5", "6", "3", "2", "1"], "time": [1496, 1696, 2131, 2479, 2646, 3129, 3312, 3695, 3762, 3947, 4330, 4396, 4945, 5611, 6144, 6262, 7311, 8261, 8643]}, "edge": {"target": [], "time": []}}, "mouseout": {"state": {"target": ["0", "1", "4", "1", "5", "8", "6", "7", "5", "0", "12", "10", "11", "10", "9", "5", "6", "3", "2", "1", "5"], "time": [1363, 1529, 2030, 2162, 2546, 3066, 3229, 3628, 3745, 3779, 4228, 4345, 4862, 5530, 5945, 6213, 6911, 7562, 8560, 9477, 15924]}, "edge": {"target": [], "time": []}}}, "displayed_time": "15.39", "trialTime": 16866, "trial_type": "mouselab-mdp", "trial_index": 42, "time_elapsed": 678506, "internal_node_id": "0.0-4.0-3.0-2.0"}}, {"uniqueid": "w26841345:a16192345", "current_trial": 43, "dateTime": 1664556402733, "trialdata": {"revealed_states": [], "num_clicks_accrued": [0, 0, 0, 0, 0, 0, 0, 0, 0, 0, 0, 0, 0], "stateRewards": ["", -2, 8, 48, 48, 4, -8, -48, 48, 2, -4, -48, 48], "withholdReward": true, "trial_id": "mdp_132958048709", "block": "test2", "trialIndex": 35, "score": 56.75, "costs": -2.25, "simulationMode": [null, null, null], "rewards": [-2, 8, 48], "path": ["0", "0", "1", "2", "4"], "rt": [9706, 93, 37], "actions": ["up", "up", "left"], "actionTimes": [11610, 12208, 12752], "queries": {"click": {"state": {"target": ["11", "12", "10", "9", "7", "4", "3", "1", "2"], "time": [2851, 3399, 5589, 6016, 7012, 7711, 8273, 8963, 9285]}, "edge": {"target": [], "time": []}}, "mouseover": {"state": {"target": ["9", "11", "10", "12", "9", "4", "9", "10", "10", "9", "7", "1", "4", "3", "1", "2", "5"], "time": [2552, 2736, 3067, 3285, 3651, 3902, 4201, 4784, 5429, 5834, 6899, 7449, 7599, 7999, 8816, 9218, 9650]}, "edge": {"target": [], "time": []}}, "mouseout": {"state": {"target": ["0", "9", "11", "10", "12", "9", "4", "9", "10", "10", "9", "7", "1", "4", "3", "1", "2", "5"], "time": [2517, 2585, 3018, 3185, 3584, 3667, 4051, 4667, 4950, 5767, 6217, 7200, 7466, 7900, 8599, 9165, 9482, 9816]}, "edge": {"target": [], "time": []}}}, "displayed_time": "13.27", "trialTime": 14533, "trial_type": "mouselab-mdp", "trial_index": 43, "time_elapsed": 693110, "internal_node_id": "0.0-4.0-3.0-3.0"}}, {"uniqueid": "w26841345:a16192345", "current_trial": 44, "dateTime": 1664556414728, "trialdata": {"revealed_states": [], "num_clicks_accrued": [0, 0, 0, 0, 0, 0, 0, 0, 0, 0, 0, 0, 0], "stateRewards": ["", -2, -8, -48, 24, 2, -4, -48, 48, 2, 4, 24, -24], "withholdReward": true, "trial_id": "mdp_849341543762", "block": "test2", "trialIndex": 36, "score": 49, "costs": -2, "simulationMode": [null, null, null], "rewards": [2, -4, 48], "path": ["0", "0", "5", "6", "8"], "rt": [7730, 92, 110], "actions": ["right", "right", "down"], "actionTimes": [8918, 9516, 10135], "queries": {"click": {"state": {"target": ["4", "3", "7", "8", "5", "6", "12", "11"], "time": [1854, 2669, 3301, 3724, 4972, 5280, 6211, 6659]}, "edge": {"target": [], "time": []}}, "mouseover": {"state": {"target": ["1", "4", "1", "3", "7", "6", "8", "12", "5", "6", "12", "11", "9", "0"], "time": [1444, 1660, 2143, 2610, 3160, 3509, 3610, 4126, 4926, 5210, 6143, 6542, 7058, 7359]}, "edge": {"target": [], "time": []}}, "mouseout": {"state": {"target": ["5", "1", "4", "1", "3", "7", "6", "8", "12", "5", "6", "8", "8", "12", "11", "9", "0", "8"], "time": [844, 1460, 2044, 2360, 2843, 3459, 3561, 3910, 4460, 5159, 5492, 5692, 5859, 6375, 6826, 7092, 7375, 11758]}, "edge": {"target": [], "time": []}}}, "displayed_time": "10.64", "trialTime": 11924, "trial_type": "mouselab-mdp", "trial_index": 44, "time_elapsed": 705104, "internal_node_id": "0.0-4.0-3.0-4.0"}}, {"uniqueid": "w26841345:a16192345", "current_trial": 45, "dateTime": 1664556428898, "trialdata": {"revealed_states": [], "num_clicks_accrued": [0, 0, 0, 0, 0, 0, 0, 0, 0, 0, 0, 0, 0], "stateRewards": ["", 2, 4, 48, 24, -4, 8, 48, 48, 2, -4, -48, -24], "withholdReward": true, "trial_id": "mdp_822099887466", "block": "test2", "trialIndex": 37, "score": 56.5, "costs": -2.5, "simulationMode": [null, null, null], "rewards": [2, 4, 48], "path": ["0", "0", "1", "2", "3"], "rt": [9072, 65, 444], "actions": ["up", "up", "right"], "actionTimes": [10762, 11344, 12306], "queries": {"click": {"state": {"target": ["11", "4", "3", "7", "8", "12", "6", "2", "1", "5"], "time": [2528, 3172, 3759, 4334, 4882, 5436, 6225, 7206, 7717, 8140]}, "edge": {"target": [], "time": []}}, "mouseover": {"state": {"target": ["0", "1", "11", "4", "2", "3", "7", "6", "8", "12", "6", "5", "2", "1", "5"], "time": [1764, 2197, 2482, 3164, 3514, 3613, 4163, 4663, 4763, 5307, 6129, 6679, 7113, 7478, 8045]}, "edge": {"target": [], "time": []}}, "mouseout": {"state": {"target": ["9", "0", "0", "1", "11", "4", "2", "3", "7", "6", "8", "12", "6", "5", "2", "1", "5"], "time": [1397, 1619, 2097, 2214, 2713, 3463, 3563, 3896, 4613, 4729, 5097, 5712, 6446, 6796, 7396, 7879, 8428]}, "edge": {"target": [], "time": []}}}, "displayed_time": "12.81", "trialTime": 14085, "trial_type": "mouselab-mdp", "trial_index": 45, "time_elapsed": 719275, "internal_node_id": "0.0-4.0-3.0-5.0"}}, {"uniqueid": "w26841345:a16192345", "current_trial": 46, "dateTime": 1664556439115, "trialdata": {"revealed_states": [], "num_clicks_accrued": [0, 0, 0, 0, 0, 0, 0, 0, 0, 0, 0, 0, 0], "stateRewards": ["", -2, 8, 24, -48, -4, -8, -24, -48, -4, 8, -24, 48], "withholdReward": true, "trial_id": "mdp_464339499860", "block": "test2", "trialIndex": 38, "score": 55, "costs": -2, "simulationMode": [null, null, null], "rewards": [-4, 8, 48], "path": ["0", "0", "9", "10", "12"], "rt": [5607, 25, 84], "actions": ["left", "left", "down"], "actionTimes": [6603, 7145, 7741], "queries": {"click": {"state": {"target": ["11", "3", "8", "7", "12", "4", "9", "10"], "time": [1731, 2443, 3068, 3583, 4130, 4715, 5390, 5676]}, "edge": {"target": [], "time": []}}, "mouseover": {"state": {"target": ["9", "10", "11", "3", "6", "8", "6", "7", "5", "12", "4", "9", "10"], "time": [1389, 1488, 1638, 2372, 2871, 2988, 3371, 3487, 3838, 4055, 4537, 5087, 5620]}, "edge": {"target": [], "time": []}}, "mouseout": {"state": {"target": ["0", "9", "10", "11", "3", "6", "8", "6", "7", "5", "12", "4", "9", "10"], "time": [1339, 1439, 1572, 2089, 2655, 2905, 3339, 3438, 3804, 3854, 4322, 4971, 5553, 5837]}, "edge": {"target": [], "time": []}}}, "displayed_time": "10.09", "trialTime": 10148, "trial_type": "mouselab-mdp", "trial_index": 46, "time_elapsed": 729491, "internal_node_id": "0.0-4.0-3.0-6.0"}}, {"uniqueid": "w26841345:a16192345", "current_trial": 47, "dateTime": 1664556449647, "trialdata": {"revealed_states": [], "num_clicks_accrued": [0, 0, 0, 0, 0, 0, 0, 0, 0, 0, 0, 0, 0], "stateRewards": ["", -4, -4, 24, -48, -2, 8, -24, -48, -4, 4, 24, -48], "withholdReward": true, "trial_id": "mdp_934626330092", "block": "test2", "trialIndex": 39, "score": 27, "costs": -2, "simulationMode": [null, null, null], "rewards": [-4, 4, 24], "path": ["0", "0", "9", "10", "11"], "rt": [5566, 25, 31], "actions": ["left", "left", "up"], "actionTimes": [6757, 7290, 7832], "queries": {"click": {"state": {"target": ["4", "7", "8", "11", "12", "3", "10", "9"], "time": [1853, 2529, 2956, 3520, 3970, 4583, 5432, 5919]}, "edge": {"target": [], "time": []}}, "mouseover": {"state": {"target": ["1", "4", "1", "7", "6", "8", "0", "9", "11", "10", "12", "9", "1", "3", "1", "10", "9"], "time": [1600, 1749, 2083, 2366, 2715, 2832, 3216, 3255, 3366, 3716, 3831, 4198, 4299, 4482, 4932, 5264, 5798]}, "edge": {"target": [], "time": []}}, "mouseout": {"state": {"target": ["0", "1", "4", "1", "7", "6", "8", "0", "9", "11", "10", "12", "9", "1", "3", "1", "10", "9"], "time": [1516, 1666, 2049, 2116, 2683, 2784, 3133, 3232, 3283, 3666, 3765, 4149, 4232, 4332, 4798, 4966, 5732, 6115]}, "edge": {"target": [], "time": []}}}, "displayed_time": "10.25", "trialTime": 10461, "trial_type": "mouselab-mdp", "trial_index": 47, "time_elapsed": 740023, "internal_node_id": "0.0-4.0-3.0-7.0"}}, {"uniqueid": "w26841345:a16192345", "current_trial": 48, "dateTime": 1664556474432, "trialdata": {"revealed_states": [], "num_clicks_accrued": [0, 0, 0, 0, 0, 0, 0, 0, 0, 0, 0, 0, 0], "stateRewards": ["", -2, 4, 24, 48, 2, 4, -48, -48, 2, 8, 48, -48], "withholdReward": true, "trial_id": "mdp_409609775558", "block": "test2", "trialIndex": 40, "score": 62.25, "costs": -0.75, "simulationMode": [null, null, null], "rewards": [2, 8, 48], "path": ["0", "0", "9", "10", "11"], "rt": [2445, 59, 157], "actions": ["left", "left", "up"], "actionTimes": [3842, 4410, 5075], "queries": {"click": {"state": {"target": ["11", "10", "9"], "time": [1988, 2760, 3036]}, "edge": {"target": [], "time": []}}, "mouseover": {"state": {"target": ["11", "10", "10", "9"], "time": [1950, 2266, 2668, 2967]}, "edge": {"target": [], "time": []}}, "mouseout": {"state": {"target": ["0", "0", "11", "10", "10", "9"], "time": [884, 1567, 2200, 2466, 2933, 3199]}, "edge": {"target": [], "time": []}}}, "displayed_time": "9.46", "trialTime": 24701, "trial_type": "mouselab-mdp", "trial_index": 48, "time_elapsed": 764809, "internal_node_id": "0.0-4.0-3.0-8.0"}}, {"uniqueid": "w26841345:a16192345", "current_trial": 49, "dateTime": 1664556487908, "trialdata": {"revealed_states": [], "num_clicks_accrued": [0, 0, 0, 0, 0, 0, 0, 0, 0, 0, 0, 0, 0], "stateRewards": ["", 2, -4, -48, 24, 4, 4, 48, -48, -2, -4, -24, -48], "withholdReward": true, "trial_id": "mdp_858916930936", "block": "test2", "trialIndex": 41, "score": 59, "costs": -2, "simulationMode": [null, null, null], "rewards": [4, 4, 48], "path": ["0", "0", "5", "6", "7"], "rt": [6778, 83, 90], "actions": ["right", "right", "up"], "actionTimes": [10463, 11067, 11675], "queries": {"click": {"state": {"target": ["11", "12", "3", "4", "7", "8", "6", "5"], "time": [5470, 6684, 7335, 7830, 8460, 8843, 9368, 9622]}, "edge": {"target": [], "time": []}}, "mouseover": {"state": {"target": ["9", "11", "10", "12", "9", "1", "3", "2", "4", "1", "7", "6", "8", "6", "5"], "time": [5118, 5284, 6068, 6600, 6933, 7034, 7283, 7583, 7700, 8083, 8300, 8700, 8766, 9233, 9583]}, "edge": {"target": [], "time": []}}, "mouseout": {"state": {"target": ["0", "9", "11", "10", "12", "9", "1", "3", "2", "4", "1", "7", "6", "8", "6", "5"], "time": [4701, 5151, 5834, 6134, 6867, 6950, 7133, 7534, 7633, 8017, 8166, 8633, 8750, 9183, 9532, 9832]}, "edge": {"target": [], "time": []}}}, "displayed_time": "12.74", "trialTime": 13403, "trial_type": "mouselab-mdp", "trial_index": 49, "time_elapsed": 778284, "internal_node_id": "0.0-4.0-3.0-9.0"}}, {"uniqueid": "w26841345:a16192345", "current_trial": 50, "dateTime": 1664556498711, "trialdata": {"revealed_states": [], "num_clicks_accrued": [0, 0, 0, 0, 0, 0, 0, 0, 0, 0, 0, 0, 0], "stateRewards": ["", 2, -8, 48, -24, -4, -8, -24, 48, -2, 4, 24, -48], "withholdReward": true, "trial_id": "mdp_186932504904", "block": "test2", "trialIndex": 42, "score": 44.5, "costs": -2.5, "simulationMode": [null, null, null], "rewards": [2, -8, 48], "path": ["0", "0", "1", "2", "3"], "rt": [7130, 34, 390], "actions": ["up", "up", "right"], "actionTimes": [7787, 8342, 9262], "queries": {"click": {"state": {"target": ["11", "12", "3", "4", "2", "1", "7", "8", "5", "6"], "time": [1210, 2037, 2665, 3227, 3760, 3971, 4569, 4998, 5785, 5988]}, "edge": {"target": [], "time": []}}, "mouseover": {"state": {"target": ["9", "11", "10", "12", "9", "1", "3", "2", "4", "2", "1", "5", "6", "7", "6", "8", "5", "6", "5", "6"], "time": [958, 1141, 1458, 1873, 2258, 2340, 2624, 2873, 2974, 3623, 3957, 4306, 4424, 4506, 4822, 4923, 5289, 5590, 5739, 5939]}, "edge": {"target": [], "time": []}}, "mouseout": {"state": {"target": ["0", "9", "11", "10", "12", "9", "1", "3", "2", "4", "2", "1", "5", "6", "7", "6", "8", "5", "6", "5", "6", "8", "8", "5"], "time": [809, 1007, 1391, 1641, 2208, 2274, 2407, 2824, 2923, 3557, 3907, 4223, 4323, 4439, 4756, 4873, 5256, 5372, 5689, 5906, 6122, 6273, 6489, 10404]}, "edge": {"target": [], "time": []}}}, "displayed_time": "9.77", "trialTime": 10716, "trial_type": "mouselab-mdp", "trial_index": 50, "time_elapsed": 789088, "internal_node_id": "0.0-4.0-3.0-10.0"}}, {"uniqueid": "w26841345:a16192345", "current_trial": 51, "dateTime": 1664556508205, "trialdata": {"revealed_states": [], "num_clicks_accrued": [0, 0, 0, 0, 0, 0, 0, 0, 0, 0, 0, 0, 0], "stateRewards": ["", 4, -8, -24, 24, 2, -4, 24, 24, 2, -4, 48, 48], "withholdReward": true, "trial_id": "mdp_457607480918", "block": "test2", "trialIndex": 43, "score": 49, "costs": -2, "simulationMode": [null, null, null], "rewards": [2, -4, 48], "path": ["0", "0", "9", "10", "11"], "rt": [5071, 82, 55], "actions": ["left", "left", "up"], "actionTimes": [5950, 6540, 7113], "queries": {"click": {"state": {"target": ["4", "3", "11", "12", "10", "9", "7", "8"], "time": [1465, 2004, 2566, 3105, 3535, 3923, 4516, 4957]}, "edge": {"target": [], "time": []}}, "mouseover": {"state": {"target": ["0", "4", "3", "1", "11", "10", "12", "10", "9", "0", "5", "7", "6", "8"], "time": [943, 1459, 1925, 2292, 2475, 2742, 2925, 3408, 3859, 4141, 4225, 4427, 4707, 4791]}, "edge": {"target": [], "time": []}}, "mouseout": {"state": {"target": ["9", "0", "0", "4", "3", "1", "11", "10", "12", "10", "9", "0", "5", "7", "6", "8"], "time": [442, 809, 1108, 1642, 2159, 2343, 2692, 2842, 3358, 3692, 4108, 4191, 4291, 4657, 4741, 5141]}, "edge": {"target": [], "time": []}}}, "displayed_time": "8.91", "trialTime": 9415, "trial_type": "mouselab-mdp", "trial_index": 51, "time_elapsed": 798581, "internal_node_id": "0.0-4.0-3.0-11.0"}}, {"uniqueid": "w26841345:a16192345", "current_trial": 52, "dateTime": 1664556521436, "trialdata": {"revealed_states": [], "num_clicks_accrued": [0, 0, 0, 0, 0, 0, 0, 0, 0, 0, 0, 0, 0], "stateRewards": ["", 2, 4, -48, 24, -4, -4, -24, 24, 2, -4, 24, -24], "withholdReward": true, "trial_id": "mdp_163600331068", "block": "test2", "trialIndex": 44, "score": 32.5, "costs": -2.5, "simulationMode": [null, null, null], "rewards": [2, 4, 24], "path": ["0", "0", "1", "2", "4"], "rt": [10173, 45, 37], "actions": ["up", "up", "left"], "actionTimes": [10820, 11370, 11911], "queries": {"click": {"state": {"target": ["4", "3", "7", "8", "11", "12", "10", "6", "2", "1"], "time": [1086, 1435, 1972, 2368, 3126, 3605, 5293, 7221, 8189, 10043]}, "edge": {"target": [], "time": []}}, "mouseover": {"state": {"target": ["1", "4", "2", "3", "7", "6", "8", "9", "11", "10", "12", "10", "5", "6", "2", "1"], "time": [812, 995, 1260, 1327, 1760, 2162, 2327, 2809, 2977, 3344, 3493, 5193, 6009, 6059, 8092, 9957]}, "edge": {"target": [], "time": []}}, "mouseout": {"state": {"target": ["9", "0", "1", "4", "2", "3", "7", "6", "8", "9", "11", "10", "12", "10", "5", "6", "7", "3", "2", "3", "1"], "time": [296, 727, 828, 1227, 1294, 1627, 2127, 2211, 2593, 2892, 3310, 3426, 3810, 5475, 6025, 7409, 7808, 7975, 8375, 8458, 10191]}, "edge": {"target": [], "time": []}}}, "displayed_time": "12.42", "trialTime": 13135, "trial_type": "mouselab-mdp", "trial_index": 52, "time_elapsed": 811813, "internal_node_id": "0.0-4.0-3.0-12.0"}}, {"uniqueid": "w26841345:a16192345", "current_trial": 53, "dateTime": 1664556534695, "trialdata": {"revealed_states": [], "num_clicks_accrued": [0, 0, 0, 0, 0, 0, 0, 0, 0, 0, 0, 0, 0], "stateRewards": ["", -2, -4, 48, 48, 2, 4, -48, 24, 4, -8, 24, -24], "withholdReward": false, "trial_id": "mdp_628613319495", "block": "test2", "trialIndex": 45, "score": 45, "costs": -2, "simulationMode": [null, null, null], "rewards": [-2, -4, 48], "path": ["0", "0", "1", "2", "4"], "rt": [9358, 52, 402], "actions": ["up", "up", "left"], "actionTimes": [10765, 11330, 12245], "queries": {"click": {"state": {"target": ["4", "3", "1", "2", "11", "12", "7", "8"], "time": [2307, 5630, 6597, 7055, 7678, 8106, 8804, 9118]}, "edge": {"target": [], "time": []}}, "mouseover": {"state": {"target": ["1", "4", "3", "1", "2", "11", "10", "12", "5", "7", "6", "8"], "time": [2014, 2130, 4197, 6446, 6945, 7595, 7878, 8011, 8529, 8761, 8960, 9044]}, "edge": {"target": [], "time": []}}, "mouseout": {"state": {"target": ["5", "0", "1", "4", "3", "1", "2", "1", "11", "10", "12", "5", "7", "6", "8"], "time": [630, 1914, 2030, 2514, 5779, 6778, 7212, 7469, 7845, 7962, 8327, 8544, 8895, 9010, 9162]}, "edge": {"target": [], "time": []}}}, "displayed_time": "12.76", "trialTime": 13184, "trial_type": "mouselab-mdp", "trial_index": 53, "time_elapsed": 825071, "internal_node_id": "0.0-4.0-3.0-13.0"}}, {"uniqueid": "w26841345:a16192345", "current_trial": 54, "dateTime": 1664556546656, "trialdata": {"revealed_states": [], "num_clicks_accrued": [0, 0, 0, 0, 0, 0, 0, 0, 0, 0, 0, 0, 0], "stateRewards": ["", -4, -8, 24, 48, 2, -4, -24, 24, -4, 8, 48, 48], "withholdReward": true, "trial_id": "mdp_496672670022", "block": "test2", "trialIndex": 46, "score": 54.75, "costs": -2.25, "simulationMode": [null, null, null], "rewards": [-4, 8, 48], "path": ["0", "0", "9", "10", "11"], "rt": [8627, 97, 108], "actions": ["left", "left", "up"], "actionTimes": [9675, 10280, 10906], "queries": {"click": {"state": {"target": ["4", "3", "2", "1", "11", "10", "9", "7", "8"], "time": [1656, 2122, 3185, 3510, 4244, 4983, 6051, 7522, 8042]}, "edge": {"target": [], "time": []}}, "mouseover": {"state": {"target": ["1", "4", "2", "3", "1", "2", "1", "5", "9", "10", "11", "10", "12", "10", "0", "5", "9", "5", "6", "7", "6", "8", "5", "0", "12"], "time": [1418, 1584, 1868, 1968, 2934, 3101, 3383, 3784, 3934, 4067, 4218, 4433, 4616, 4833, 5449, 5533, 5953, 6965, 7265, 7416, 7715, 8032, 8382, 8615, 8765]}, "edge": {"target": [], "time": []}}, "mouseout": {"state": {"target": ["0", "1", "4", "2", "3", "1", "2", "1", "5", "9", "10", "11", "10", "12", "10", "0", "5", "9", "5", "6", "7", "6", "8", "5", "0", "12"], "time": [1350, 1467, 1834, 1885, 2301, 2984, 3334, 3684, 3851, 3967, 4134, 4350, 4517, 4767, 5117, 5485, 5766, 6184, 7032, 7349, 7665, 7932, 8265, 8599, 8648, 8899]}, "edge": {"target": [], "time": []}}}, "displayed_time": "11.41", "trialTime": 11887, "trial_type": "mouselab-mdp", "trial_index": 54, "time_elapsed": 837033, "internal_node_id": "0.0-4.0-3.0-14.0"}}, {"uniqueid": "w26841345:a16192345", "current_trial": 55, "dateTime": 1664556557369, "trialdata": {"revealed_states": [], "num_clicks_accrued": [0, 0, 0, 0, 0, 0, 0, 0, 0, 0, 0, 0, 0], "stateRewards": ["", 4, 4, 24, 24, 4, -4, 48, 48, 4, 4, 24, -48], "withholdReward": true, "trial_id": "mdp_454251689008", "block": "test2", "trialIndex": 47, "score": 51.5, "costs": -1.5, "simulationMode": [null, null, null], "rewards": [4, -4, 48], "path": ["0", "0", "5", "6", "7"], "rt": [5834, 43, 91], "actions": ["right", "right", "up"], "actionTimes": [7033, 7583, 8182], "queries": {"click": {"state": {"target": ["11", "4", "3", "7", "6", "5"], "time": [2342, 2968, 3500, 3950, 4782, 5314]}, "edge": {"target": [], "time": []}}, "mouseover": {"state": {"target": ["0", "10", "11", "4", "3", "7", "6", "6", "5", "8"], "time": [1358, 2074, 2223, 2824, 3340, 3823, 4206, 4623, 5122, 5890]}, "edge": {"target": [], "time": []}}, "mouseout": {"state": {"target": ["0", "0", "10", "11", "4", "3", "7", "6", "6", "5", "8"], "time": [1123, 1425, 2140, 2508, 3174, 3724, 4157, 4273, 4990, 5472, 6072]}, "edge": {"target": [], "time": []}}}, "displayed_time": "10.26", "trialTime": 10644, "trial_type": "mouselab-mdp", "trial_index": 55, "time_elapsed": 847746, "internal_node_id": "0.0-4.0-3.0-15.0"}}, {"uniqueid": "w26841345:a16192345", "current_trial": 56, "dateTime": 1664556566707, "trialdata": {"revealed_states": [], "num_clicks_accrued": [0, 0, 0, 0, 0, 0, 0, 0, 0, 0, 0, 0, 0], "stateRewards": ["", -2, 4, -24, -48, -4, 8, -24, 48, 4, 4, -48, 24], "withholdReward": false, "trial_id": "mdp_341117665701", "block": "test2", "trialIndex": 48, "score": 55.5, "costs": -1.5, "simulationMode": [null, null, null], "rewards": [-4, 8, 48], "path": ["0", "0", "5", "6", "8"], "rt": [4493, 37, 51], "actions": ["right", "right", "down"], "actionTimes": [5202, 5757, 6321], "queries": {"click": {"state": {"target": ["4", "3", "7", "8", "6", "5"], "time": [1192, 2017, 2402, 2790, 4014, 4424]}, "edge": {"target": [], "time": []}}, "mouseover": {"state": {"target": ["4", "1", "3", "7", "6", "8", "12", "6", "5"], "time": [1105, 1588, 1888, 2304, 2571, 2721, 3354, 4004, 4387]}, "edge": {"target": [], "time": []}}, "mouseout": {"state": {"target": ["0", "4", "1", "3", "7", "6", "8", "12", "6", "5"], "time": [815, 1372, 1755, 2187, 2521, 2637, 2988, 3570, 4220, 4571]}, "edge": {"target": [], "time": []}}}, "displayed_time": "8.77", "trialTime": 9266, "trial_type": "mouselab-mdp", "trial_index": 56, "time_elapsed": 857084, "internal_node_id": "0.0-4.0-3.0-16.0"}}, {"uniqueid": "w26841345:a16192345", "current_trial": 57, "dateTime": 1664556595533, "trialdata": {"revealed_states": [], "num_clicks_accrued": [0, 0, 0, 0, 0, 0, 0, 0, 0, 0, 0, 0, 0], "stateRewards": ["", -2, 8, 48, -24, 2, 4, -48, -24, -4, 8, -48, -48], "withholdReward": true, "trial_id": "mdp_539167561933", "block": "test2", "trialIndex": 49, "score": 58.25, "costs": -0.75, "simulationMode": [null, null, null], "rewards": [-2, 8, 48], "path": ["0", "0", "1", "2", "3"], "rt": [15068, 95, 134], "actions": ["up", "up", "right"], "actionTimes": [25543, 26152, 26789], "queries": {"click": {"state": {"target": ["4", "3", "1"], "time": [21380, 22184, 23836]}, "edge": {"target": [], "time": []}}, "mouseover": {"state": {"target": ["0", "4", "1", "3", "1", "9", "9", "1", "1", "2"], "time": [20524, 20942, 21708, 22091, 22473, 22640, 23123, 23190, 23591, 24040]}, "edge": {"target": [], "time": []}}, "mouseout": {"state": {"target": ["8", "6", "5", "0", "0", "4", "1", "3", "1", "9", "9", "1", "1", "2"], "time": [9745, 9860, 10077, 16076, 20541, 21608, 21724, 22357, 22525, 22691, 23141, 23257, 23990, 24340]}, "edge": {"target": [], "time": []}}}, "displayed_time": "27.31", "trialTime": 28737, "trial_type": "mouselab-mdp", "trial_index": 57, "time_elapsed": 885909, "internal_node_id": "0.0-4.0-3.0-17.0"}}, {"uniqueid": "w26841345:a16192345", "current_trial": 58, "dateTime": 1664556617390, "trialdata": {"revealed_states": [], "num_clicks_accrued": [0, 0, 0, 0, 0, 0, 0, 0, 0, 0, 0, 0, 0], "stateRewards": ["", 4, 4, 48, -24, 2, -4, 48, 24, -4, -4, -48, 24], "withholdReward": true, "trial_id": "mdp_496003763005", "block": "test2", "trialIndex": 50, "score": 59.5, "costs": -1.5, "simulationMode": [null, null, null], "rewards": [4, 4, 48], "path": ["0", "0", "1", "2", "3"], "rt": [8008, 146, 755], "actions": ["up", "up", "right"], "actionTimes": [18115, 18772, 20029], "queries": {"click": {"state": {"target": ["11", "12", "4", "3", "2", "1"], "time": [11927, 13000, 13630, 14060, 16233, 17141]}, "edge": {"target": [], "time": []}}, "mouseover": {"state": {"target": ["9", "11", "9", "12", "9", "4", "2", "3", "7", "2", "1", "1"], "time": [11576, 11777, 12293, 12677, 13212, 13426, 13809, 14009, 14475, 16092, 16524, 16825]}, "edge": {"target": [], "time": []}}, "mouseout": {"state": {"target": ["5", "5", "0", "9", "11", "9", "12", "9", "4", "2", "3", "7", "2", "1", "1"], "time": [9494, 9746, 10377, 11643, 12179, 12510, 13177, 13260, 13759, 13876, 14259, 15841, 16409, 16541, 17325]}, "edge": {"target": [], "time": []}}}, "displayed_time": "20.54", "trialTime": 21753, "trial_type": "mouselab-mdp", "trial_index": 58, "time_elapsed": 907766, "internal_node_id": "0.0-4.0-3.0-18.0"}}, {"uniqueid": "w26841345:a16192345", "current_trial": 59, "dateTime": 1664556630357, "trialdata": {"revealed_states": [], "num_clicks_accrued": [0, 0, 0, 0, 0, 0, 0, 0, 0, 0, 0, 0, 0], "stateRewards": ["", 4, 8, -24, 48, -2, -4, 24, -24, -2, 4, 24, 24], "withholdReward": false, "trial_id": "mdp_948713805479", "block": "test2", "trialIndex": 51, "score": 64.25, "costs": -0.75, "simulationMode": [null, null, null], "rewards": [4, 8, 48], "path": ["0", "0", "1", "2", "4"], "rt": [3468, 41, 60], "actions": ["up", "up", "left"], "actionTimes": [6620, 7168, 7736], "queries": {"click": {"state": {"target": ["4", "2", "1"], "time": [3997, 5160, 5871]}, "edge": {"target": [], "time": []}}, "mouseover": {"state": {"target": ["1", "2", "4", "1", "1", "2", "1", "1"], "time": [3727, 3810, 3877, 4227, 4693, 4976, 5344, 5644]}, "edge": {"target": [], "time": []}}, "mouseout": {"state": {"target": ["0", "1", "2", "4", "1", "1", "2", "1", "1", "5", "8"], "time": [3561, 3744, 3828, 4177, 4261, 4927, 5310, 5393, 6010, 8908, 9609]}, "edge": {"target": [], "time": []}}}, "displayed_time": "12.20", "trialTime": 12893, "trial_type": "mouselab-mdp", "trial_index": 59, "time_elapsed": 920733, "internal_node_id": "0.0-4.0-3.0-19.0"}}, {"uniqueid": "w26841345:a16192345", "current_trial": 60, "dateTime": 1664556652586, "trialdata": {"revealed_states": [], "num_clicks_accrued": [0, 0, 0, 0, 0, 0, 0, 0, 0, 0, 0, 0, 0], "stateRewards": ["", 2, -8, 48, -24, 2, -4, 24, 48, 4, -4, 48, -24], "withholdReward": true, "trial_id": "mdp_656500928756", "block": "test2", "trialIndex": 52, "score": 50.25, "costs": -2.75, "simulationMode": [null, null, null], "rewards": [4, -4, 48], "path": ["0", "0", "9", "10", "11"], "rt": [19218, 55, 42], "actions": ["left", "left", "up"], "actionTimes": [19901, 20471, 21024], "queries": {"click": {"state": {"target": ["7", "11", "10", "12", "4", "3", "2", "8", "6", "9", "5"], "time": [4323, 5662, 6531, 7491, 8429, 8990, 9891, 10842, 11774, 14482, 16686]}, "edge": {"target": [], "time": []}}, "mouseover": {"state": {"target": ["3", "5", "5", "0", "5", "6", "1", "5", "6", "7", "5", "0", "9", "11", "10", "10", "9", "12", "1", "2", "4", "2", "3", "2", "1", "5", "8", "6", "5", "0", "9", "0", "1", "5"], "time": [1232, 1456, 1889, 2522, 2805, 2905, 3638, 3938, 4004, 4272, 5138, 5171, 5254, 5537, 5871, 6387, 6937, 7354, 8023, 8203, 8353, 8654, 8854, 9736, 10219, 10469, 10686, 11735, 12419, 13918, 14051, 15735, 15901, 16384]}, "edge": {"target": [], "time": []}}, "mouseout": {"state": {"target": ["8", "0", "3", "5", "5", "0", "5", "6", "1", "5", "6", "7", "5", "0", "9", "11", "10", "10", "9", "12", "1", "2", "4", "2", "3", "2", "1", "5", "8", "6", "5", "0", "9", "0", "1", "5"], "time": [339, 889, 1340, 1555, 2240, 2772, 2856, 3172, 3656, 3988, 4055, 4437, 5155, 5205, 5288, 5787, 5987, 6703, 7237, 7654, 8087, 8254, 8570, 8786, 9186, 10069, 10369, 10503, 11153, 11985, 13901, 13968, 14635, 15751, 16284, 16868]}, "edge": {"target": [], "time": []}}}, "displayed_time": "21.53", "trialTime": 22155, "trial_type": "mouselab-mdp", "trial_index": 60, "time_elapsed": 942963, "internal_node_id": "0.0-4.0-3.0-20.0"}}, {"uniqueid": "w26841345:a16192345", "current_trial": 61, "dateTime": 1664556663276, "trialdata": {"revealed_states": [], "num_clicks_accrued": [0, 0, 0, 0, 0, 0, 0, 0, 0, 0, 0, 0, 0], "stateRewards": ["", 4, 4, -48, -48, 4, 4, -24, -24, -4, 8, -48, 24], "withholdReward": true, "trial_id": "mdp_669785455541", "block": "test2", "trialIndex": 53, "score": 31, "costs": -2, "simulationMode": [null, null, null], "rewards": [-4, 8, 24], "path": ["0", "0", "9", "10", "12"], "rt": [7522, 92, 57], "actions": ["left", "left", "down"], "actionTimes": [8448, 9044, 9609], "queries": {"click": {"state": {"target": ["11", "4", "3", "7", "8", "12", "10", "9"], "time": [1752, 3188, 3841, 4344, 4874, 5506, 6835, 7185]}, "edge": {"target": [], "time": []}}, "mouseover": {"state": {"target": ["0", "11", "1", "4", "2", "3", "7", "6", "8", "12", "10", "9"], "time": [1337, 1637, 2919, 3136, 3387, 3753, 4253, 4553, 4786, 5419, 6752, 7168]}, "edge": {"target": [], "time": []}}, "mouseout": {"state": {"target": ["0", "0", "11", "1", "4", "2", "3", "7", "6", "8", "12", "10", "9"], "time": [1116, 1420, 1903, 3002, 3336, 3419, 4004, 4486, 4686, 5069, 5686, 7034, 7335]}, "edge": {"target": [], "time": []}}}, "displayed_time": "10.12", "trialTime": 10616, "trial_type": "mouselab-mdp", "trial_index": 61, "time_elapsed": 953653, "internal_node_id": "0.0-4.0-3.0-21.0"}}, {"uniqueid": "w26841345:a16192345", "current_trial": 62, "dateTime": 1664556684659, "trialdata": {"revealed_states": [], "num_clicks_accrued": [0, 0, 0, 0, 0, 0, 0, 0, 0, 0, 0, 0, 0], "stateRewards": ["", 2, 8, -24, -48, -4, 8, -48, -48, -2, -8, -24, -24], "withholdReward": false, "trial_id": "mdp_978177451072", "block": "test2", "trialIndex": 54, "score": -11.75, "costs": -2.75, "simulationMode": [null, null, null], "rewards": [2, 8, -24], "path": ["0", "0", "1", "2", "3"], "rt": [17632, 111, 80], "actions": ["up", "up", "right"], "actionTimes": [18571, 19202, 19788], "queries": {"click": {"state": {"target": ["4", "3", "7", "8", "12", "11", "10", "2", "6", "1", "5"], "time": [1690, 2335, 2808, 3242, 3879, 4339, 7863, 10444, 14036, 16031, 17034]}, "edge": {"target": [], "time": []}}, "mouseover": {"state": {"target": ["1", "4", "3", "7", "6", "8", "12", "10", "11", "10", "10", "6", "5", "1", "2", "6", "5", "1", "5"], "time": [1397, 1596, 2180, 2712, 3013, 3179, 3795, 4111, 4246, 4646, 7794, 8561, 9727, 10226, 10344, 10960, 15374, 15541, 16494]}, "edge": {"target": [], "time": []}}, "mouseout": {"state": {"target": ["0", "1", "4", "3", "7", "6", "8", "12", "10", "11", "10", "10", "6", "5", "1", "2", "6", "6", "5", "1", "5"], "time": [1163, 1497, 1896, 2512, 2945, 3096, 3445, 4062, 4178, 4596, 4728, 8010, 9676, 9777, 10260, 10610, 14358, 15342, 15426, 16259, 17291]}, "edge": {"target": [], "time": []}}}, "displayed_time": "20.31", "trialTime": 21312, "trial_type": "mouselab-mdp", "trial_index": 62, "time_elapsed": 975035, "internal_node_id": "0.0-4.0-3.0-22.0"}}, {"uniqueid": "w26841345:a16192345", "current_trial": 63, "dateTime": 1664556696616, "trialdata": {"revealed_states": [], "num_clicks_accrued": [0, 0, 0, 0, 0, 0, 0, 0, 0, 0, 0, 0, 0], "stateRewards": ["", -4, 8, -24, -48, 2, 8, -48, -24, -2, -4, 48, -48], "withholdReward": true, "trial_id": "mdp_599927291428", "block": "test2", "trialIndex": 55, "score": 45.25, "costs": -1.75, "simulationMode": [null, null, null], "rewards": [-2, -4, 48], "path": ["0", "0", "9", "10", "11"], "rt": [5902, 434, 440], "actions": ["left", "left", "up"], "actionTimes": [7118, 8071, 9026], "queries": {"click": {"state": {"target": ["4", "7", "8", "12", "11", "10", "9"], "time": [2047, 3016, 3535, 4178, 4823, 6020, 6286]}, "edge": {"target": [], "time": []}}, "mouseover": {"state": {"target": ["4", "2", "7", "6", "8", "12", "10", "11", "2", "1", "10", "9"], "time": [1938, 2271, 2821, 3255, 3404, 4054, 4405, 4621, 5337, 5653, 5887, 6237]}, "edge": {"target": [], "time": []}}, "mouseout": {"state": {"target": ["0", "4", "2", "7", "6", "8", "12", "10", "11", "2", "1", "10", "9"], "time": [1672, 2205, 2288, 3204, 3354, 3737, 4371, 4437, 5053, 5353, 5704, 6187, 6454]}, "edge": {"target": [], "time": []}}}, "displayed_time": "11.33", "trialTime": 11885, "trial_type": "mouselab-mdp", "trial_index": 63, "time_elapsed": 986992, "internal_node_id": "0.0-4.0-3.0-23.0"}}, {"uniqueid": "w26841345:a16192345", "current_trial": 64, "dateTime": 1664556706841, "trialdata": {"revealed_states": [], "num_clicks_accrued": [0, 0, 0, 0, 0, 0, 0, 0, 0, 0, 0, 0, 0], "stateRewards": ["", 4, -4, 48, -48, -2, -8, -24, 48, -2, 4, 24, -24], "withholdReward": true, "trial_id": "mdp_507290896735", "block": "test2", "trialIndex": 56, "score": 52, "costs": -1, "simulationMode": [null, null, null], "rewards": [4, -4, 48], "path": ["0", "0", "1", "2", "3"], "rt": [4717, 27, 23], "actions": ["up", "up", "right"], "actionTimes": [5561, 6106, 6636], "queries": {"click": {"state": {"target": ["4", "3", "2", "1"], "time": [1584, 2087, 3487, 3881]}, "edge": {"target": [], "time": []}}, "mouseover": {"state": {"target": ["1", "4", "2", "3", "1", "1", "2", "2", "1", "0", "5", "7"], "time": [1213, 1464, 1800, 1997, 2363, 2931, 3030, 3246, 3746, 4263, 4363, 4545]}, "edge": {"target": [], "time": []}}, "mouseout": {"state": {"target": ["0", "1", "4", "2", "3", "1", "1", "2", "2", "1", "0", "5", "7"], "time": [1114, 1284, 1751, 1881, 2264, 2430, 2947, 3081, 3630, 4029, 4313, 4413, 8128]}, "edge": {"target": [], "time": []}}}, "displayed_time": "9.92", "trialTime": 10157, "trial_type": "mouselab-mdp", "trial_index": 64, "time_elapsed": 997218, "internal_node_id": "0.0-4.0-3.0-24.0"}}, {"uniqueid": "w26841345:a16192345", "current_trial": 65, "dateTime": 1664556716747, "trialdata": {"revealed_states": [], "num_clicks_accrued": [0, 0, 0, 0, 0, 0, 0, 0, 0, 0, 0, 0, 0], "stateRewards": ["", -2, -4, -24, -48, 2, -8, -24, -24, 4, -8, 48, 48], "withholdReward": true, "trial_id": "mdp_950599994674", "block": "test2", "trialIndex": 57, "score": 47.25, "costs": -1.75, "simulationMode": [null, null, null], "rewards": [4, -8, 48], "path": ["0", "0", "9", "10", "12"], "rt": [4356, 79, 314], "actions": ["left", "left", "down"], "actionTimes": [4938, 5524, 6343], "queries": {"click": {"state": {"target": ["4", "3", "7", "8", "12", "10", "9"], "time": [977, 1411, 1829, 2176, 2739, 3733, 3988]}, "edge": {"target": [], "time": []}}, "mouseover": {"state": {"target": ["4", "3", "7", "6", "8", "12", "10", "11", "10", "10", "9"], "time": [912, 1329, 1746, 1995, 2145, 2679, 2961, 3062, 3446, 3645, 3928]}, "edge": {"target": [], "time": []}}, "mouseout": {"state": {"target": ["0", "4", "3", "7", "6", "8", "12", "10", "11", "10", "10", "9"], "time": [161, 1146, 1545, 1946, 2078, 2379, 2913, 3028, 3411, 3545, 3878, 4161]}, "edge": {"target": [], "time": []}}}, "displayed_time": "9.64", "trialTime": 9814, "trial_type": "mouselab-mdp", "trial_index": 65, "time_elapsed": 1007124, "internal_node_id": "0.0-4.0-3.0-25.0"}}, {"uniqueid": "w26841345:a16192345", "current_trial": 66, "dateTime": 1664556729079, "trialdata": {"revealed_states": [], "num_clicks_accrued": [0, 0, 0, 0, 0, 0, 0, 0, 0, 0, 0, 0, 0], "stateRewards": ["", 2, -4, 24, 24, 2, 4, 24, 24, -4, 8, 24, 48], "withholdReward": false, "trial_id": "mdp_268430387178", "block": "test2", "trialIndex": 58, "score": 55.25, "costs": -1.75, "simulationMode": [null, null, null], "rewards": [-4, 8, 48], "path": ["0", "0", "9", "10", "12"], "rt": [8785, 38, 49], "actions": ["left", "left", "down"], "actionTimes": [9610, 10162, 10723], "queries": {"click": {"state": {"target": ["4", "3", "12", "10", "9", "7", "8"], "time": [1418, 2586, 4001, 4680, 5131, 7981, 8440]}, "edge": {"target": [], "time": []}}, "mouseover": {"state": {"target": ["1", "4", "3", "9", "12", "10", "9", "5", "11", "5", "6", "7", "6", "8"], "time": [1143, 1310, 2326, 3726, 3910, 4409, 4992, 6242, 6808, 7475, 7791, 7941, 8257, 8424]}, "edge": {"target": [], "time": []}}, "mouseout": {"state": {"target": ["0", "1", "4", "3", "9", "12", "10", "9", "5", "9", "11", "9", "5", "6", "7", "6", "8"], "time": [1077, 1227, 1660, 2759, 3809, 4326, 4926, 5312, 6291, 6692, 7192, 7324, 7609, 7875, 8091, 8340, 8891]}, "edge": {"target": [], "time": []}}}, "displayed_time": "11.24", "trialTime": 12247, "trial_type": "mouselab-mdp", "trial_index": 66, "time_elapsed": 1019456, "internal_node_id": "0.0-4.0-3.0-26.0"}}, {"uniqueid": "w26841345:a16192345", "current_trial": 67, "dateTime": 1664556739221, "trialdata": {"revealed_states": [], "num_clicks_accrued": [0, 0, 0, 0, 0, 0, 0, 0, 0, 0, 0, 0, 0], "stateRewards": ["", 4, 4, -48, -24, -2, -4, 48, 24, -4, 4, 24, -48], "withholdReward": false, "trial_id": "mdp_617383046444", "block": "test2", "trialIndex": 59, "score": 45, "costs": -2, "simulationMode": [null, null, null], "rewards": [-2, -4, 48], "path": ["0", "0", "5", "6", "7"], "rt": [6467, 12, 418], "actions": ["right", "right", "up"], "actionTimes": [7061, 7593, 8536], "queries": {"click": {"state": {"target": ["11", "12", "4", "3", "7", "6", "5", "8"], "time": [1282, 1882, 2520, 2960, 3503, 4371, 4803, 5323]}, "edge": {"target": [], "time": []}}, "mouseover": {"state": {"target": ["0", "9", "11", "12", "4", "2", "3", "7", "6", "6", "5", "8"], "time": [881, 998, 1181, 1766, 2482, 2732, 2915, 3415, 3764, 4151, 4730, 5263]}, "edge": {"target": [], "time": []}}, "mouseout": {"state": {"target": ["0", "0", "9", "11", "12", "4", "2", "3", "7", "6", "6", "5", "8"], "time": [716, 933, 1065, 1466, 2048, 2682, 2782, 3182, 3698, 3897, 4631, 4947, 5514]}, "edge": {"target": [], "time": []}}}, "displayed_time": "9.70", "trialTime": 10065, "trial_type": "mouselab-mdp", "trial_index": 67, "time_elapsed": 1029598, "internal_node_id": "0.0-4.0-3.0-27.0"}}, {"uniqueid": "w26841345:a16192345", "current_trial": 68, "dateTime": 1664556748299, "trialdata": {"revealed_states": [], "num_clicks_accrued": [0, 0, 0, 0, 0, 0, 0, 0, 0, 0, 0, 0, 0], "stateRewards": ["", 2, 8, -48, -24, 2, -4, -48, 24, 2, -4, -24, -24], "withholdReward": true, "trial_id": "mdp_954659099093", "block": "test2", "trialIndex": 60, "score": 25, "costs": -2, "simulationMode": [null, null, null], "rewards": [2, -4, 24], "path": ["0", "0", "5", "6", "8"], "rt": [5368, 23, 22], "actions": ["right", "right", "down"], "actionTimes": [6003, 6535, 7067], "queries": {"click": {"state": {"target": ["4", "3", "11", "12", "7", "8", "6", "5"], "time": [1378, 1819, 2307, 2723, 3462, 3848, 4913, 5285]}, "edge": {"target": [], "time": []}}, "mouseover": {"state": {"target": ["4", "2", "3", "1", "11", "10", "12", "0", "7", "6", "8", "6", "5"], "time": [1313, 1614, 1779, 2129, 2246, 2545, 2679, 2996, 3379, 3679, 3779, 4812, 5228]}, "edge": {"target": [], "time": []}}, "mouseout": {"state": {"target": ["0", "0", "4", "2", "3", "1", "11", "10", "12", "0", "7", "6", "8", "8", "6", "5"], "time": [279, 729, 1546, 1696, 1962, 2146, 2512, 2628, 2913, 3030, 3612, 3745, 4012, 4695, 5112, 5411]}, "edge": {"target": [], "time": []}}}, "displayed_time": "8.72", "trialTime": 8994, "trial_type": "mouselab-mdp", "trial_index": 68, "time_elapsed": 1038675, "internal_node_id": "0.0-4.0-3.0-28.0"}}, {"uniqueid": "w26841345:a16192345", "current_trial": 69, "dateTime": 1664556758707, "trialdata": {"revealed_states": [], "num_clicks_accrued": [0, 0, 0, 0, 0, 0, 0, 0, 0, 0, 0, 0, 0], "stateRewards": ["", -2, 8, -48, 48, 4, -8, -48, 48, 4, -4, -24, 48], "withholdReward": true, "trial_id": "mdp_144739116828", "block": "test2", "trialIndex": 61, "score": 58.25, "costs": -0.75, "simulationMode": [null, null, null], "rewards": [-2, 8, 48], "path": ["0", "0", "1", "2", "4"], "rt": [4403, 109, 101], "actions": ["up", "up", "left"], "actionTimes": [5035, 5658, 6269], "queries": {"click": {"state": {"target": ["4", "2", "1"], "time": [1200, 3117, 3958]}, "edge": {"target": [], "time": []}}, "mouseover": {"state": {"target": ["1", "4", "1", "3", "2", "1"], "time": [851, 1118, 1435, 1718, 3001, 3334]}, "edge": {"target": [], "time": []}}, "mouseout": {"state": {"target": ["1", "0", "1", "4", "1", "3", "2", "1", "5", "5"], "time": [400, 767, 935, 1351, 1601, 2884, 3250, 4133, 9282, 10032]}, "edge": {"target": [], "time": []}}}, "displayed_time": "9.72", "trialTime": 10327, "trial_type": "mouselab-mdp", "trial_index": 69, "time_elapsed": 1049084, "internal_node_id": "0.0-4.0-3.0-29.0"}}, {"uniqueid": "w26841345:a16192345", "current_trial": 70, "dateTime": 1664556761789, "trialdata": {"rt": 3078, "stimulus": "<h1> End of block! </h1>\n\nYou have reached the end of the block 2/4. If you need a short break, feel free to take one now before moving on.\n\n<br><br>\nIn the next block, you will complete another 30 rounds of this game.\n\n<br><br>\n<div style='text-align: center;'>Press <code>space</code> to begin.</div>\n<br><br>\n<div style='text-align: center;'>(If the experiment doesn't continue, try clicking on the text and then pressing <code>space</code>.)</div>", "response": " ", "trial_id": "mdp_ready_3", "trial_type": "html-keyboard-response", "trial_index": 70, "time_elapsed": 1052165, "internal_node_id": "0.0-4.0-4.0"}}, {"uniqueid": "w26841345:a16192345", "current_trial": 71, "dateTime": 1664556771590, "trialdata": {"revealed_states": [], "num_clicks_accrued": [0, 0, 0, 0, 0, 0, 0, 0, 0, 0, 0, 0, 0], "stateRewards": ["", -4, -8, -24, -48, -2, -8, 24, -48, -4, -8, 24, -48], "withholdReward": false, "trial_id": "mdp_621812384092", "block": "test3", "trialIndex": 62, "score": 16.5, "costs": -2.5, "simulationMode": [null, null, null], "rewards": [-2, -8, 24], "path": ["0", "0", "5", "6", "7"], "rt": [6295, 451, 168], "actions": ["right", "right", "up"], "actionTimes": [7092, 8058, 8742], "queries": {"click": {"state": {"target": ["4", "3", "7", "8", "11", "12", "10", "6", "5", "9"], "time": [1599, 2342, 2697, 3197, 3766, 4112, 4531, 5004, 5685, 6167]}, "edge": {"target": [], "time": []}}, "mouseover": {"state": {"target": ["1", "4", "3", "7", "6", "8", "9", "11", "10", "12", "10", "9", "0", "5", "6", "5", "9"], "time": [1292, 1425, 2242, 2575, 2891, 2991, 3525, 3675, 3957, 4058, 4424, 4724, 4775, 4841, 4995, 5574, 6101]}, "edge": {"target": [], "time": []}}, "mouseout": {"state": {"target": ["1", "1", "4", "3", "7", "6", "8", "9", "11", "10", "12", "10", "9", "0", "5", "6", "5", "9"], "time": [358, 1358, 1875, 2508, 2842, 2941, 3391, 3575, 3908, 4007, 4357, 4691, 4758, 4823, 4907, 5258, 5857, 6308]}, "edge": {"target": [], "time": []}}}, "displayed_time": "9.26", "trialTime": 9723, "trial_type": "mouselab-mdp", "trial_index": 71, "time_elapsed": 1061967, "internal_node_id": "0.0-4.0-5.0-0.0"}}, {"uniqueid": "w26841345:a16192345", "current_trial": 72, "dateTime": 1664556783117, "trialdata": {"revealed_states": [], "num_clicks_accrued": [0, 0, 0, 0, 0, 0, 0, 0, 0, 0, 0, 0, 0], "stateRewards": ["", -2, 8, -24, 24, 2, -8, 48, -24, 2, 8, -24, -24], "withholdReward": false, "trial_id": "mdp_674708270444", "block": "test3", "trialIndex": 63, "score": 45, "costs": -2, "simulationMode": [null, null, null], "rewards": [2, -8, 48], "path": ["0", "0", "5", "6", "7"], "rt": [7401, 83, 98], "actions": ["right", "right", "up"], "actionTimes": [7987, 8574, 9189], "queries": {"click": {"state": {"target": ["4", "3", "7", "6", "11", "12", "8", "5"], "time": [1098, 1727, 2140, 3137, 4338, 4921, 5627, 6407]}, "edge": {"target": [], "time": []}}, "mouseover": {"state": {"target": ["0", "1", "4", "2", "3", "7", "6", "6", "5", "0", "11", "10", "12", "8", "5"], "time": [697, 860, 1011, 1294, 1377, 1960, 2327, 3076, 3560, 3975, 4226, 4592, 4860, 5559, 6092]}, "edge": {"target": [], "time": []}}, "mouseout": {"state": {"target": ["0", "0", "1", "4", "2", "3", "7", "6", "6", "5", "0", "11", "10", "12", "8", "5"], "time": [594, 761, 911, 1261, 1311, 1893, 2293, 2410, 3410, 3960, 3992, 4510, 4793, 5125, 5942, 6575]}, "edge": {"target": [], "time": []}}}, "displayed_time": "9.71", "trialTime": 11455, "trial_type": "mouselab-mdp", "trial_index": 72, "time_elapsed": 1073494, "internal_node_id": "0.0-4.0-5.0-1.0"}}, {"uniqueid": "w26841345:a16192345", "current_trial": 73, "dateTime": 1664556794614, "trialdata": {"revealed_states": [], "num_clicks_accrued": [0, 0, 0, 0, 0, 0, 0, 0, 0, 0, 0, 0, 0], "stateRewards": ["", -4, -4, 48, 24, -4, -4, -24, -48, -4, 4, 48, -24], "withholdReward": true, "trial_id": "mdp_896503755738", "block": "test3", "trialIndex": 64, "score": 51, "costs": -2, "simulationMode": [null, null, null], "rewards": [-4, 4, 48], "path": ["0", "0", "9", "10", "11"], "rt": [8459, 114, 113], "actions": ["left", "left", "up"], "actionTimes": [9088, 9719, 10350], "queries": {"click": {"state": {"target": ["4", "3", "2", "7", "8", "12", "11", "10"], "time": [1059, 1696, 4085, 5045, 5634, 6552, 7167, 8020]}, "edge": {"target": [], "time": []}}, "mouseover": {"state": {"target": ["4", "2", "3", "7", "1", "2", "1", "7", "6", "8", "12", "10", "11", "10", "10"], "time": [990, 1257, 1356, 1956, 3340, 4022, 4305, 4956, 5305, 5489, 6488, 6938, 7038, 7487, 7889]}, "edge": {"target": [], "time": []}}, "mouseout": {"state": {"target": ["5", "1", "0", "4", "2", "3", "7", "1", "2", "1", "7", "6", "8", "12", "10", "11", "10", "10"], "time": [24, 440, 723, 1206, 1307, 1840, 2223, 3406, 4238, 4672, 5206, 5438, 5839, 6887, 7004, 7439, 7522, 8170]}, "edge": {"target": [], "time": []}}}, "displayed_time": "10.85", "trialTime": 11401, "trial_type": "mouselab-mdp", "trial_index": 73, "time_elapsed": 1084990, "internal_node_id": "0.0-4.0-5.0-2.0"}}, {"uniqueid": "w26841345:a16192345", "current_trial": 74, "dateTime": 1664556811567, "trialdata": {"revealed_states": [], "num_clicks_accrued": [0, 0, 0, 0, 0, 0, 0, 0, 0, 0, 0, 0, 0], "stateRewards": ["", 2, 4, 48, -48, 2, -4, 48, 24, -2, -8, -24, 48], "withholdReward": true, "trial_id": "mdp_962424406744", "block": "test3", "trialIndex": 65, "score": 56.75, "costs": -2.25, "simulationMode": [null, null, null], "rewards": [2, 4, 48], "path": ["0", "0", "1", "2", "3"], "rt": [13641, 19, 425], "actions": ["up", "up", "right"], "actionTimes": [14465, 15003, 15942], "queries": {"click": {"state": {"target": ["11", "7", "6", "12", "10", "4", "3", "2", "1"], "time": [1404, 2358, 4262, 8418, 9415, 10966, 11526, 12353, 13496]}, "edge": {"target": [], "time": []}}, "mouseover": {"state": {"target": ["11", "7", "5", "0", "6", "12", "10", "9", "4", "2", "3", "2", "1", "1"], "time": [1356, 2287, 2621, 2705, 3471, 5370, 9302, 10669, 10852, 11334, 11451, 12251, 12651, 13351]}, "edge": {"target": [], "time": []}}, "mouseout": {"state": {"target": ["0", "11", "7", "5", "0", "6", "12", "10", "9", "4", "2", "3", "2", "1", "1"], "time": [1138, 1555, 2555, 2670, 2756, 4537, 8619, 9568, 10717, 11268, 11402, 11768, 12534, 12668, 13717]}, "edge": {"target": [], "time": []}}}, "displayed_time": "16.45", "trialTime": 16856, "trial_type": "mouselab-mdp", "trial_index": 74, "time_elapsed": 1101944, "internal_node_id": "0.0-4.0-5.0-3.0"}}, {"uniqueid": "w26841345:a16192345", "current_trial": 75, "dateTime": 1664556823184, "trialdata": {"revealed_states": [], "num_clicks_accrued": [0, 0, 0, 0, 0, 0, 0, 0, 0, 0, 0, 0, 0], "stateRewards": ["", -4, -8, -24, 24, 4, 4, -48, -48, -4, -4, 24, -48], "withholdReward": true, "trial_id": "mdp_431592223624", "block": "test3", "trialIndex": 66, "score": 19, "costs": -2, "simulationMode": [null, null, null], "rewards": [-4, -4, 24], "path": ["0", "0", "9", "10", "11"], "rt": [8047, 33, 114], "actions": ["left", "left", "up"], "actionTimes": [9452, 9995, 10625], "queries": {"click": {"state": {"target": ["4", "3", "11", "12", "7", "8", "10", "2"], "time": [2004, 2574, 3353, 3908, 4522, 5075, 6639, 7264]}, "edge": {"target": [], "time": []}}, "mouseover": {"state": {"target": ["4", "3", "1", "11", "10", "12", "5", "7", "6", "8", "9", "10", "9", "2", "1", "9"], "time": [1947, 2463, 3081, 3298, 3696, 3813, 4246, 4445, 4763, 4929, 6063, 6395, 6878, 7095, 7512, 7813]}, "edge": {"target": [], "time": []}}, "mouseout": {"state": {"target": ["0", "0", "4", "3", "1", "11", "10", "12", "5", "7", "6", "8", "9", "10", "9", "2", "1", "9"], "time": [914, 1180, 2180, 2697, 3114, 3547, 3747, 4030, 4330, 4698, 4879, 5329, 6245, 6812, 6945, 7461, 7629, 8531]}, "edge": {"target": [], "time": []}}}, "displayed_time": "11.13", "trialTime": 11538, "trial_type": "mouselab-mdp", "trial_index": 75, "time_elapsed": 1113561, "internal_node_id": "0.0-4.0-5.0-4.0"}}, {"uniqueid": "w26841345:a16192345", "current_trial": 76, "dateTime": 1664556834182, "trialdata": {"revealed_states": [], "num_clicks_accrued": [0, 0, 0, 0, 0, 0, 0, 0, 0, 0, 0, 0, 0], "stateRewards": ["", 4, 4, 48, -24, -4, -8, 24, -24, 2, -8, -24, 24], "withholdReward": true, "trial_id": "mdp_933201675789", "block": "test3", "trialIndex": 67, "score": 60.25, "costs": -0.75, "simulationMode": [null, null, null], "rewards": [4, 4, 48], "path": ["0", "0", "1", "2", "3"], "rt": [3487, 41, 70], "actions": ["up", "up", "right"], "actionTimes": [4303, 4851, 5430], "queries": {"click": {"state": {"target": ["4", "3", "2"], "time": [1353, 1953, 3162]}, "edge": {"target": [], "time": []}}, "mouseover": {"state": {"target": ["1", "4", "3", "7", "2"], "time": [1147, 1311, 1777, 2244, 3043]}, "edge": {"target": [], "time": []}}, "mouseout": {"state": {"target": ["0", "1", "4", "3", "7", "2"], "time": [1067, 1210, 1510, 2127, 2810, 3345]}, "edge": {"target": [], "time": []}}}, "displayed_time": "8.88", "trialTime": 10921, "trial_type": "mouselab-mdp", "trial_index": 76, "time_elapsed": 1124559, "internal_node_id": "0.0-4.0-5.0-5.0"}}, {"uniqueid": "w26841345:a16192345", "current_trial": 77, "dateTime": 1664556848947, "trialdata": {"revealed_states": [], "num_clicks_accrued": [0, 0, 0, 0, 0, 0, 0, 0, 0, 0, 0, 0, 0], "stateRewards": ["", -4, -4, 24, -48, 2, 4, -24, -48, -2, -8, -24, 24], "withholdReward": true, "trial_id": "mdp_565569130486", "block": "test3", "trialIndex": 68, "score": 19, "costs": -2, "simulationMode": [null, null, null], "rewards": [-4, -4, 24], "path": ["0", "0", "1", "2", "3"], "rt": [10099, 74, 64], "actions": ["up", "up", "right"], "actionTimes": [12397, 12981, 13554], "queries": {"click": {"state": {"target": ["4", "3", "11", "12", "7", "8", "10", "2"], "time": [2807, 3286, 3864, 4365, 5017, 5600, 10287, 11155]}, "edge": {"target": [], "time": []}}, "mouseover": {"state": {"target": ["1", "4", "3", "1", "11", "10", "12", "0", "7", "6", "8", "10", "9", "1", "2"], "time": [2543, 2711, 3227, 3627, 3827, 4126, 4259, 4676, 4927, 5376, 5509, 6642, 10725, 10774, 11008]}, "edge": {"target": [], "time": []}}, "mouseout": {"state": {"target": ["1", "0", "1", "4", "3", "1", "11", "10", "12", "0", "7", "6", "8", "10", "9", "1", "2"], "time": [2144, 2430, 2610, 2994, 3426, 3694, 4076, 4193, 4576, 4694, 5326, 5459, 5842, 10708, 10741, 10841, 11324]}, "edge": {"target": [], "time": []}}}, "displayed_time": "14.07", "trialTime": 14689, "trial_type": "mouselab-mdp", "trial_index": 77, "time_elapsed": 1139324, "internal_node_id": "0.0-4.0-5.0-6.0"}}, {"uniqueid": "w26841345:a16192345", "current_trial": 78, "dateTime": 1664556863731, "trialdata": {"revealed_states": [], "num_clicks_accrued": [0, 0, 0, 0, 0, 0, 0, 0, 0, 0, 0, 0, 0], "stateRewards": ["", -2, -4, -24, 24, -2, 4, -24, -24, -4, 4, 24, -24], "withholdReward": true, "trial_id": "mdp_999419261719", "block": "test3", "trialIndex": 69, "score": 27.25, "costs": -1.75, "simulationMode": [null, null, null], "rewards": [-4, 4, 24], "path": ["0", "0", "9", "10", "11"], "rt": [6687, 41, 65], "actions": ["left", "left", "up"], "actionTimes": [11956, 12513, 13087], "queries": {"click": {"state": {"target": ["4", "3", "7", "8", "11", "12", "10"], "time": [6058, 6987, 7511, 8035, 8848, 9551, 10272]}, "edge": {"target": [], "time": []}}, "mouseover": {"state": {"target": ["1", "4", "1", "3", "3", "7", "7", "6", "8", "9", "11", "10", "12", "10"], "time": [5806, 5959, 6340, 6623, 6806, 7256, 7439, 7704, 7973, 8589, 8806, 9039, 9222, 10121]}, "edge": {"target": [], "time": []}}, "mouseout": {"state": {"target": ["0", "1", "4", "1", "3", "3", "7", "7", "6", "8", "9", "11", "10", "12", "10"], "time": [5740, 5873, 6257, 6522, 6722, 7122, 7273, 7622, 7840, 8256, 8655, 8973, 9139, 9838, 10488]}, "edge": {"target": [], "time": []}}}, "displayed_time": "14.38", "trialTime": 14708, "trial_type": "mouselab-mdp", "trial_index": 78, "time_elapsed": 1154108, "internal_node_id": "0.0-4.0-5.0-7.0"}}, {"uniqueid": "w26841345:a16192345", "current_trial": 79, "dateTime": 1664556874514, "trialdata": {"revealed_states": [], "num_clicks_accrued": [0, 0, 0, 0, 0, 0, 0, 0, 0, 0, 0, 0, 0], "stateRewards": ["", -4, 4, -24, 48, 2, 4, -48, 24, 4, -8, -24, 24], "withholdReward": false, "trial_id": "mdp_740130150937", "block": "test3", "trialIndex": 70, "score": 52.5, "costs": -0.5, "simulationMode": [null, null, null], "rewards": [-4, 4, 48], "path": ["0", "0", "1", "2", "4"], "rt": [2843, 70, 54], "actions": ["up", "up", "left"], "actionTimes": [3763, 4342, 4908], "queries": {"click": {"state": {"target": ["4", "2"], "time": [1452, 2752]}, "edge": {"target": [], "time": []}}, "mouseover": {"state": {"target": ["1", "4", "2", "1"], "time": [1139, 1288, 2661, 3020]}, "edge": {"target": [], "time": []}}, "mouseout": {"state": {"target": ["0", "1", "4", "2", "1"], "time": [1054, 1188, 1642, 2904, 3204]}, "edge": {"target": [], "time": []}}}, "displayed_time": "10.00", "trialTime": 10709, "trial_type": "mouselab-mdp", "trial_index": 79, "time_elapsed": 1164890, "internal_node_id": "0.0-4.0-5.0-8.0"}}, {"uniqueid": "w26841345:a16192345", "current_trial": 80, "dateTime": 1664556887651, "trialdata": {"revealed_states": [], "num_clicks_accrued": [0, 0, 0, 0, 0, 0, 0, 0, 0, 0, 0, 0, 0], "stateRewards": ["", 4, -8, 24, 48, 2, -4, 48, 48, 4, -8, 48, 48], "withholdReward": true, "trial_id": "mdp_962498334245", "block": "test3", "trialIndex": 71, "score": 49.5, "costs": -1.5, "simulationMode": [null, null, null], "rewards": [2, -4, 48], "path": ["0", "0", "5", "6", "7"], "rt": [9323, 10, 52], "actions": ["right", "right", "up"], "actionTimes": [11033, 11558, 12135], "queries": {"click": {"state": {"target": ["4", "2", "7", "6", "11", "10"], "time": [2573, 4005, 5010, 5648, 6721, 7264]}, "edge": {"target": [], "time": []}}, "mouseover": {"state": {"target": ["1", "2", "4", "2", "2", "1", "7", "6", "5", "11", "10", "0"], "time": [2084, 2200, 2484, 2817, 3917, 4217, 4899, 5232, 6183, 6632, 6933, 8198]}, "edge": {"target": [], "time": []}}, "mouseout": {"state": {"target": ["1", "1", "2", "4", "2", "2", "1", "7", "6", "5", "11", "10", "0"], "time": [1467, 2119, 2285, 2767, 2867, 4151, 4283, 5166, 5800, 6199, 6832, 7415, 8232]}, "edge": {"target": [], "time": []}}}, "displayed_time": "12.65", "trialTime": 13063, "trial_type": "mouselab-mdp", "trial_index": 80, "time_elapsed": 1178028, "internal_node_id": "0.0-4.0-5.0-9.0"}}, {"uniqueid": "w26841345:a16192345", "current_trial": 81, "dateTime": 1664556905228, "trialdata": {"revealed_states": [], "num_clicks_accrued": [0, 0, 0, 0, 0, 0, 0, 0, 0, 0, 0, 0, 0], "stateRewards": ["", -2, -8, 24, -48, -4, 8, -48, -24, 4, 8, -24, 24], "withholdReward": true, "trial_id": "mdp_940444641142", "block": "test3", "trialIndex": 72, "score": 39, "costs": -2, "simulationMode": [null, null, null], "rewards": [4, 8, 24], "path": ["0", "0", "9", "10", "12"], "rt": [11023, 53, 53], "actions": ["left", "left", "down"], "actionTimes": [15258, 15827, 16396], "queries": {"click": {"state": {"target": ["4", "3", "11", "12", "7", "8", "2", "10"], "time": [5083, 6074, 9260, 10101, 11166, 11822, 13551, 14255]}, "edge": {"target": [], "time": []}}, "mouseover": {"state": {"target": ["4", "4", "3", "3", "7", "5", "11", "12", "5", "6", "7", "6", "8", "5", "1", "2", "1", "10"], "time": [4611, 4845, 5644, 5845, 6960, 8777, 9193, 10009, 10676, 10875, 11043, 11459, 11692, 13025, 13142, 13358, 13841, 14126]}, "edge": {"target": [], "time": []}}, "mouseout": {"state": {"target": ["0", "0", "4", "4", "3", "3", "7", "5", "11", "12", "5", "6", "7", 