{"condition": 0, "counterbalance": 0, "assignmentId": "a70348098", "workerId": "w46833843", "hitId": "h75409138", "currenttrial": 471, "bonus": 0, "data": [{"uniqueid": "w46833843:a70348098", "current_trial": 0, "dateTime": 1664367936262, "trialdata": {"success": true, "trial_type": "fullscreen", "trial_index": 0, "time_elapsed": 11284, "internal_node_id": "0.0-0.0"}}, {"uniqueid": "w46833843:a70348098", "current_trial": 1, "dateTime": 1664368036957, "trialdata": {"view_history": [{"page_index": 0, "viewing_time": 100684}], "rt": 100687, "trial_id": "exp_instructions_distractor", "trial_type": "instructions", "trial_index": 1, "time_elapsed": 111979, "internal_node_id": "0.0-1.0"}}, {"uniqueid": "w46833843:a70348098", "current_trial": 2, "dateTime": 1664368210478, "trialdata": {"view_history": [{"page_index": 0, "viewing_time": 173515}], "rt": 173515, "trial_id": "color_game_instructions", "trial_type": "instructions", "trial_index": 2, "time_elapsed": 285501, "internal_node_id": "0.0-2.0"}}, {"uniqueid": "w46833843:a70348098", "current_trial": 3, "dateTime": 1664368304058, "trialdata": {"rt": 93576, "stimulus": "<h1> Get ready to start the game! </h1>\n\nThank you for reading the instructions. Get ready start with the first of 5 block(s) of this game.\n<br><br>\nIn this first block, you will complete 90 rounds of this game before moving on.\n<br><br>\nRemember, the better you perform, the bigger your bonus will be!\n<br><br>\n<div style='text-align: center;'>Press <code>space</code> to begin.</div>", "response": " ", "trial_id": "stroop_1_ready_1", "trial_type": "html-keyboard-response", "trial_index": 3, "time_elapsed": 379081, "internal_node_id": "0.0-3.0"}}, {"uniqueid": "w46833843:a70348098", "current_trial": 4, "dateTime": 1664368306883, "trialdata": {"rt": 2800, "stimulus": "<p id='stroop-text' class='stroop-green'>GREEN</p>", "response": "g", "stimulus-type": "congruent", "word": "green", "color": "green", "correct_response": "g", "trial_id": "stroop-trial-1-congruent-21", "trial_type": "html-keyboard-response", "trial_index": 4, "time_elapsed": 381904, "internal_node_id": "0.0-4.0-0.0"}}, {"uniqueid": "w46833843:a70348098", "current_trial": 5, "dateTime": 1664368308826, "trialdata": {"rt": 1439, "stimulus": "<p id='stroop-text' class='stroop-yellow'>YELLOW</p>", "response": "y", "stimulus-type": "congruent", "word": "yellow", "color": "yellow", "correct_response": "y", "trial_id": "stroop-trial-1-congruent-12", "trial_type": "html-keyboard-response", "trial_index": 5, "time_elapsed": 383849, "internal_node_id": "0.0-4.0-1.0"}}, {"uniqueid": "w46833843:a70348098", "current_trial": 6, "dateTime": 1664368310727, "trialdata": {"rt": 1378, "stimulus": "<p id='stroop-text' class='stroop-yellow'>BOTTLE</p>", "response": "y", "stimulus-type": "unrelated", "word": "BOTTLE", "color": "yellow", "correct_response": "y", "trial_id": "stroop-trial-1-unrelated-26", "trial_type": "html-keyboard-response", "trial_index": 6, "time_elapsed": 385749, "internal_node_id": "0.0-4.0-2.0"}}, {"uniqueid": "w46833843:a70348098", "current_trial": 7, "dateTime": 1664368313640, "trialdata": {"rt": 2406, "stimulus": "<p id='stroop-text' class='stroop-red'>YELLOW</p>", "response": "r", "stimulus-type": "incongruent", "word": "yellow", "color": "red", "correct_response": "r", "trial_id": "stroop-trial-1-incongruent-14", "trial_type": "html-keyboard-response", "trial_index": 7, "time_elapsed": 388662, "internal_node_id": "0.0-4.0-3.0"}}, {"uniqueid": "w46833843:a70348098", "current_trial": 8, "dateTime": 1664368315328, "trialdata": {"rt": 1176, "stimulus": "<p id='stroop-text' class='stroop-blue'>BLUE</p>", "response": "b", "stimulus-type": "congruent", "word": "blue", "color": "blue", "correct_response": "b", "trial_id": "stroop-trial-1-congruent-14", "trial_type": "html-keyboard-response", "trial_index": 8, "time_elapsed": 390350, "internal_node_id": "0.0-4.0-4.0"}}, {"uniqueid": "w46833843:a70348098", "current_trial": 9, "dateTime": 1664368317687, "trialdata": {"rt": 1846, "stimulus": "<p id='stroop-text' class='stroop-green'>RED</p>", "response": "g", "stimulus-type": "incongruent", "word": "red", "color": "green", "correct_response": "g", "trial_id": "stroop-trial-1-incongruent-12", "trial_type": "html-keyboard-response", "trial_index": 9, "time_elapsed": 392709, "internal_node_id": "0.0-4.0-5.0"}}, {"uniqueid": "w46833843:a70348098", "current_trial": 10, "dateTime": 1664368319420, "trialdata": {"rt": 1219, "stimulus": "<p id='stroop-text' class='stroop-yellow'>YELLOW</p>", "response": "y", "stimulus-type": "congruent", "word": "yellow", "color": "yellow", "correct_response": "y", "trial_id": "stroop-trial-1-congruent-7", "trial_type": "html-keyboard-response", "trial_index": 10, "time_elapsed": 394443, "internal_node_id": "0.0-4.0-6.0"}}, {"uniqueid": "w46833843:a70348098", "current_trial": 11, "dateTime": 1664368321302, "trialdata": {"rt": 1370, "stimulus": "<p id='stroop-text' class='stroop-blue'>BLUE</p>", "response": "b", "stimulus-type": "congruent", "word": "blue", "color": "blue", "correct_response": "b", "trial_id": "stroop-trial-1-congruent-22", "trial_type": "html-keyboard-response", "trial_index": 11, "time_elapsed": 396324, "internal_node_id": "0.0-4.0-7.0"}}, {"uniqueid": "w46833843:a70348098", "current_trial": 12, "dateTime": 1664368322893, "trialdata": {"rt": 1082, "stimulus": "<p id='stroop-text' class='stroop-red'>RED</p>", "response": "r", "stimulus-type": "congruent", "word": "red", "color": "red", "correct_response": "r", "trial_id": "stroop-trial-1-congruent-30", "trial_type": "html-keyboard-response", "trial_index": 12, "time_elapsed": 397915, "internal_node_id": "0.0-4.0-8.0"}}, {"uniqueid": "w46833843:a70348098", "current_trial": 13, "dateTime": 1664368324686, "trialdata": {"rt": 1288, "stimulus": "<p id='stroop-text' class='stroop-yellow'>RED</p>", "response": "y", "stimulus-type": "incongruent", "word": "red", "color": "yellow", "correct_response": "y", "trial_id": "stroop-trial-1-incongruent-5", "trial_type": "html-keyboard-response", "trial_index": 13, "time_elapsed": 399709, "internal_node_id": "0.0-4.0-9.0"}}, {"uniqueid": "w46833843:a70348098", "current_trial": 14, "dateTime": 1664368326675, "trialdata": {"rt": 1476, "stimulus": "<p id='stroop-text' class='stroop-green'>RED</p>", "response": "g", "stimulus-type": "incongruent", "word": "red", "color": "green", "correct_response": "g", "trial_id": "stroop-trial-1-incongruent-20", "trial_type": "html-keyboard-response", "trial_index": 14, "time_elapsed": 401697, "internal_node_id": "0.0-4.0-10.0"}}, {"uniqueid": "w46833843:a70348098", "current_trial": 15, "dateTime": 1664368328462, "trialdata": {"rt": 1271, "stimulus": "<p id='stroop-text' class='stroop-blue'>YELLOW</p>", "response": "b", "stimulus-type": "incongruent", "word": "yellow", "color": "blue", "correct_response": "b", "trial_id": "stroop-trial-1-incongruent-25", "trial_type": "html-keyboard-response", "trial_index": 15, "time_elapsed": 403484, "internal_node_id": "0.0-4.0-11.0"}}, {"uniqueid": "w46833843:a70348098", "current_trial": 16, "dateTime": 1664368330053, "trialdata": {"rt": 1083, "stimulus": "<p id='stroop-text' class='stroop-green'>GREEN</p>", "response": "g", "stimulus-type": "congruent", "word": "green", "color": "green", "correct_response": "g", "trial_id": "stroop-trial-1-congruent-15", "trial_type": "html-keyboard-response", "trial_index": 16, "time_elapsed": 405076, "internal_node_id": "0.0-4.0-12.0"}}, {"uniqueid": "w46833843:a70348098", "current_trial": 17, "dateTime": 1664368331621, "trialdata": {"rt": 1055, "stimulus": "<p id='stroop-text' class='stroop-yellow'>SHIP</p>", "response": "y", "stimulus-type": "unrelated", "word": "SHIP", "color": "yellow", "correct_response": "y", "trial_id": "stroop-trial-1-unrelated-23", "trial_type": "html-keyboard-response", "trial_index": 17, "time_elapsed": 406643, "internal_node_id": "0.0-4.0-13.0"}}, {"uniqueid": "w46833843:a70348098", "current_trial": 18, "dateTime": 1664368332940, "trialdata": {"rt": 807, "stimulus": "<p id='stroop-text' class='stroop-yellow'>SHIP</p>", "response": "y", "stimulus-type": "unrelated", "word": "SHIP", "color": "yellow", "correct_response": "y", "trial_id": "stroop-trial-1-unrelated-5", "trial_type": "html-keyboard-response", "trial_index": 18, "time_elapsed": 407962, "internal_node_id": "0.0-4.0-14.0"}}, {"uniqueid": "w46833843:a70348098", "current_trial": 19, "dateTime": 1664368334539, "trialdata": {"rt": 1086, "stimulus": "<p id='stroop-text' class='stroop-red'>YELLOW</p>", "response": "r", "stimulus-type": "incongruent", "word": "yellow", "color": "red", "correct_response": "r", "trial_id": "stroop-trial-1-incongruent-1", "trial_type": "html-keyboard-response", "trial_index": 19, "time_elapsed": 409562, "internal_node_id": "0.0-4.0-15.0"}}, {"uniqueid": "w46833843:a70348098", "current_trial": 20, "dateTime": 1664368335936, "trialdata": {"rt": 893, "stimulus": "<p id='stroop-text' class='stroop-yellow'>YELLOW</p>", "response": "y", "stimulus-type": "congruent", "word": "yellow", "color": "yellow", "correct_response": "y", "trial_id": "stroop-trial-1-congruent-11", "trial_type": "html-keyboard-response", "trial_index": 20, "time_elapsed": 410959, "internal_node_id": "0.0-4.0-16.0"}}, {"uniqueid": "w46833843:a70348098", "current_trial": 21, "dateTime": 1664368337343, "trialdata": {"rt": 901, "stimulus": "<p id='stroop-text' class='stroop-yellow'>BRIDGE</p>", "response": "y", "stimulus-type": "unrelated", "word": "BRIDGE", "color": "yellow", "correct_response": "y", "trial_id": "stroop-trial-1-unrelated-19", "trial_type": "html-keyboard-response", "trial_index": 21, "time_elapsed": 412366, "internal_node_id": "0.0-4.0-17.0"}}, {"uniqueid": "w46833843:a70348098", "current_trial": 22, "dateTime": 1664368338869, "trialdata": {"rt": 1016, "stimulus": "<p id='stroop-text' class='stroop-green'>BRIDGE</p>", "response": "g", "stimulus-type": "unrelated", "word": "BRIDGE", "color": "green", "correct_response": "g", "trial_id": "stroop-trial-1-unrelated-21", "trial_type": "html-keyboard-response", "trial_index": 22, "time_elapsed": 413892, "internal_node_id": "0.0-4.0-18.0"}}, {"uniqueid": "w46833843:a70348098", "current_trial": 23, "dateTime": 1664368340724, "trialdata": {"rt": 1345, "stimulus": "<p id='stroop-text' class='stroop-red'>GREEN</p>", "response": "r", "stimulus-type": "incongruent", "word": "green", "color": "red", "correct_response": "r", "trial_id": "stroop-trial-1-incongruent-13", "trial_type": "html-keyboard-response", "trial_index": 23, "time_elapsed": 415746, "internal_node_id": "0.0-4.0-19.0"}}, {"uniqueid": "w46833843:a70348098", "current_trial": 24, "dateTime": 1664368342051, "trialdata": {"rt": 817, "stimulus": "<p id='stroop-text' class='stroop-blue'>BLUE</p>", "response": "b", "stimulus-type": "congruent", "word": "blue", "color": "blue", "correct_response": "b", "trial_id": "stroop-trial-1-congruent-17", "trial_type": "html-keyboard-response", "trial_index": 24, "time_elapsed": 417073, "internal_node_id": "0.0-4.0-20.0"}}, {"uniqueid": "w46833843:a70348098", "current_trial": 25, "dateTime": 1664368343529, "trialdata": {"rt": 969, "stimulus": "<p id='stroop-text' class='stroop-red'>GREEN</p>", "response": "r", "stimulus-type": "incongruent", "word": "green", "color": "red", "correct_response": "r", "trial_id": "stroop-trial-1-incongruent-11", "trial_type": "html-keyboard-response", "trial_index": 25, "time_elapsed": 418551, "internal_node_id": "0.0-4.0-21.0"}}, {"uniqueid": "w46833843:a70348098", "current_trial": 26, "dateTime": 1664368345060, "trialdata": {"rt": 1024, "stimulus": "<p id='stroop-text' class='stroop-green'>YELLOW</p>", "response": "g", "stimulus-type": "incongruent", "word": "yellow", "color": "green", "correct_response": "g", "trial_id": "stroop-trial-1-incongruent-22", "trial_type": "html-keyboard-response", "trial_index": 26, "time_elapsed": 420083, "internal_node_id": "0.0-4.0-22.0"}}, {"uniqueid": "w46833843:a70348098", "current_trial": 27, "dateTime": 1664368346527, "trialdata": {"rt": 955, "stimulus": "<p id='stroop-text' class='stroop-yellow'>BOAT</p>", "response": "y", "stimulus-type": "unrelated", "word": "BOAT", "color": "yellow", "correct_response": "y", "trial_id": "stroop-trial-1-unrelated-25", "trial_type": "html-keyboard-response", "trial_index": 27, "time_elapsed": 421549, "internal_node_id": "0.0-4.0-23.0"}}, {"uniqueid": "w46833843:a70348098", "current_trial": 28, "dateTime": 1664368347885, "trialdata": {"rt": 846, "stimulus": "<p id='stroop-text' class='stroop-red'>DOG</p>", "response": "r", "stimulus-type": "unrelated", "word": "DOG", "color": "red", "correct_response": "r", "trial_id": "stroop-trial-1-unrelated-4", "trial_type": "html-keyboard-response", "trial_index": 28, "time_elapsed": 422907, "internal_node_id": "0.0-4.0-24.0"}}, {"uniqueid": "w46833843:a70348098", "current_trial": 29, "dateTime": 1664368349037, "trialdata": {"rt": 644, "stimulus": "<p id='stroop-text' class='stroop-red'>DOG</p>", "response": "r", "stimulus-type": "unrelated", "word": "DOG", "color": "red", "correct_response": "r", "trial_id": "stroop-trial-1-unrelated-28", "trial_type": "html-keyboard-response", "trial_index": 29, "time_elapsed": 424059, "internal_node_id": "0.0-4.0-25.0"}}, {"uniqueid": "w46833843:a70348098", "current_trial": 30, "dateTime": 1664368350658, "trialdata": {"rt": 1111, "stimulus": "<p id='stroop-text' class='stroop-blue'>GREEN</p>", "response": "b", "stimulus-type": "incongruent", "word": "green", "color": "blue", "correct_response": "b", "trial_id": "stroop-trial-1-incongruent-26", "trial_type": "html-keyboard-response", "trial_index": 30, "time_elapsed": 425680, "internal_node_id": "0.0-4.0-26.0"}}, {"uniqueid": "w46833843:a70348098", "current_trial": 31, "dateTime": 1664368351632, "trialdata": {"rt": 465, "stimulus": "<p id='stroop-text' class='stroop-blue'>BLUE</p>", "response": "b", "stimulus-type": "congruent", "word": "blue", "color": "blue", "correct_response": "b", "trial_id": "stroop-trial-1-congruent-5", "trial_type": "html-keyboard-response", "trial_index": 31, "time_elapsed": 426654, "internal_node_id": "0.0-4.0-27.0"}}, {"uniqueid": "w46833843:a70348098", "current_trial": 32, "dateTime": 1664368352874, "trialdata": {"rt": 738, "stimulus": "<p id='stroop-text' class='stroop-red'>RED</p>", "response": "r", "stimulus-type": "congruent", "word": "red", "color": "red", "correct_response": "r", "trial_id": "stroop-trial-1-congruent-27", "trial_type": "html-keyboard-response", "trial_index": 32, "time_elapsed": 427897, "internal_node_id": "0.0-4.0-28.0"}}, {"uniqueid": "w46833843:a70348098", "current_trial": 33, "dateTime": 1664368354068, "trialdata": {"rt": 679, "stimulus": "<p id='stroop-text' class='stroop-blue'>RED</p>", "response": "b", "stimulus-type": "incongruent", "word": "red", "color": "blue", "correct_response": "b", "trial_id": "stroop-trial-1-incongruent-23", "trial_type": "html-keyboard-response", "trial_index": 33, "time_elapsed": 429090, "internal_node_id": "0.0-4.0-29.0"}}, {"uniqueid": "w46833843:a70348098", "current_trial": 34, "dateTime": 1664368355526, "trialdata": {"rt": 951, "stimulus": "<p id='stroop-text' class='stroop-red'>BOAT</p>", "response": "r", "stimulus-type": "unrelated", "word": "BOAT", "color": "red", "correct_response": "r", "trial_id": "stroop-trial-1-unrelated-13", "trial_type": "html-keyboard-response", "trial_index": 34, "time_elapsed": 430548, "internal_node_id": "0.0-4.0-30.0"}}, {"uniqueid": "w46833843:a70348098", "current_trial": 35, "dateTime": 1664368356897, "trialdata": {"rt": 862, "stimulus": "<p id='stroop-text' class='stroop-yellow'>GREEN</p>", "response": "y", "stimulus-type": "incongruent", "word": "green", "color": "yellow", "correct_response": "y", "trial_id": "stroop-trial-1-incongruent-9", "trial_type": "html-keyboard-response", "trial_index": 35, "time_elapsed": 431919, "internal_node_id": "0.0-4.0-31.0"}}, {"uniqueid": "w46833843:a70348098", "current_trial": 36, "dateTime": 1664368358458, "trialdata": {"rt": 1057, "stimulus": "<p id='stroop-text' class='stroop-red'>GREEN</p>", "response": "r", "stimulus-type": "incongruent", "word": "green", "color": "red", "correct_response": "r", "trial_id": "stroop-trial-1-incongruent-2", "trial_type": "html-keyboard-response", "trial_index": 36, "time_elapsed": 433481, "internal_node_id": "0.0-4.0-32.0"}}, {"uniqueid": "w46833843:a70348098", "current_trial": 37, "dateTime": 1664368359792, "trialdata": {"rt": 828, "stimulus": "<p id='stroop-text' class='stroop-blue'>BLUE</p>", "response": "b", "stimulus-type": "congruent", "word": "blue", "color": "blue", "correct_response": "b", "trial_id": "stroop-trial-1-congruent-8", "trial_type": "html-keyboard-response", "trial_index": 37, "time_elapsed": 434814, "internal_node_id": "0.0-4.0-33.0"}}, {"uniqueid": "w46833843:a70348098", "current_trial": 38, "dateTime": 1664368361156, "trialdata": {"rt": 858, "stimulus": "<p id='stroop-text' class='stroop-green'>SHIP</p>", "response": "g", "stimulus-type": "unrelated", "word": "SHIP", "color": "green", "correct_response": "g", "trial_id": "stroop-trial-1-unrelated-8", "trial_type": "html-keyboard-response", "trial_index": 38, "time_elapsed": 436178, "internal_node_id": "0.0-4.0-34.0"}}, {"uniqueid": "w46833843:a70348098", "current_trial": 39, "dateTime": 1664368363148, "trialdata": {"rt": 1480, "stimulus": "<p id='stroop-text' class='stroop-green'>BLUE</p>", "response": "g", "stimulus-type": "incongruent", "word": "blue", "color": "green", "correct_response": "g", "trial_id": "stroop-trial-1-incongruent-4", "trial_type": "html-keyboard-response", "trial_index": 39, "time_elapsed": 438171, "internal_node_id": "0.0-4.0-35.0"}}, {"uniqueid": "w46833843:a70348098", "current_trial": 40, "dateTime": 1664368364541, "trialdata": {"rt": 871, "stimulus": "<p id='stroop-text' class='stroop-yellow'>YELLOW</p>", "response": "y", "stimulus-type": "congruent", "word": "yellow", "color": "yellow", "correct_response": "y", "trial_id": "stroop-trial-1-congruent-4", "trial_type": "html-keyboard-response", "trial_index": 40, "time_elapsed": 439563, "internal_node_id": "0.0-4.0-36.0"}}, {"uniqueid": "w46833843:a70348098", "current_trial": 41, "dateTime": 1664368365832, "trialdata": {"rt": 781, "stimulus": "<p id='stroop-text' class='stroop-yellow'>YELLOW</p>", "response": "y", "stimulus-type": "congruent", "word": "yellow", "color": "yellow", "correct_response": "y", "trial_id": "stroop-trial-1-congruent-28", "trial_type": "html-keyboard-response", "trial_index": 41, "time_elapsed": 440854, "internal_node_id": "0.0-4.0-37.0"}}, {"uniqueid": "w46833843:a70348098", "current_trial": 42, "dateTime": 1664368367447, "trialdata": {"rt": 1106, "stimulus": "<p id='stroop-text' class='stroop-green'>GREEN</p>", "response": "g", "stimulus-type": "congruent", "word": "green", "color": "green", "correct_response": "g", "trial_id": "stroop-trial-1-congruent-24", "trial_type": "html-keyboard-response", "trial_index": 42, "time_elapsed": 442470, "internal_node_id": "0.0-4.0-38.0"}}, {"uniqueid": "w46833843:a70348098", "current_trial": 43, "dateTime": 1664368368762, "trialdata": {"rt": 801, "stimulus": "<p id='stroop-text' class='stroop-green'>YELLOW</p>", "response": "g", "stimulus-type": "incongruent", "word": "yellow", "color": "green", "correct_response": "g", "trial_id": "stroop-trial-1-incongruent-15", "trial_type": "html-keyboard-response", "trial_index": 43, "time_elapsed": 443784, "internal_node_id": "0.0-4.0-39.0"}}, {"uniqueid": "w46833843:a70348098", "current_trial": 44, "dateTime": 1664368370284, "trialdata": {"rt": 1012, "stimulus": "<p id='stroop-text' class='stroop-yellow'>BRAIN</p>", "response": "y", "stimulus-type": "unrelated", "word": "BRAIN", "color": "yellow", "correct_response": "y", "trial_id": "stroop-trial-1-unrelated-20", "trial_type": "html-keyboard-response", "trial_index": 44, "time_elapsed": 445306, "internal_node_id": "0.0-4.0-40.0"}}, {"uniqueid": "w46833843:a70348098", "current_trial": 45, "dateTime": 1664368371780, "trialdata": {"rt": 988, "stimulus": "<p id='stroop-text' class='stroop-green'>WINDOW</p>", "response": "g", "stimulus-type": "unrelated", "word": "WINDOW", "color": "green", "correct_response": "g", "trial_id": "stroop-trial-1-unrelated-17", "trial_type": "html-keyboard-response", "trial_index": 45, "time_elapsed": 446803, "internal_node_id": "0.0-4.0-41.0"}}, {"uniqueid": "w46833843:a70348098", "current_trial": 46, "dateTime": 1664368373163, "trialdata": {"rt": 871, "stimulus": "<p id='stroop-text' class='stroop-blue'>BLUE</p>", "response": "b", "stimulus-type": "congruent", "word": "blue", "color": "blue", "correct_response": "b", "trial_id": "stroop-trial-1-congruent-1", "trial_type": "html-keyboard-response", "trial_index": 46, "time_elapsed": 448186, "internal_node_id": "0.0-4.0-42.0"}}, {"uniqueid": "w46833843:a70348098", "current_trial": 47, "dateTime": 1664368374635, "trialdata": {"rt": 958, "stimulus": "<p id='stroop-text' class='stroop-green'>DOG</p>", "response": "g", "stimulus-type": "unrelated", "word": "DOG", "color": "green", "correct_response": "g", "trial_id": "stroop-trial-1-unrelated-24", "trial_type": "html-keyboard-response", "trial_index": 47, "time_elapsed": 449657, "internal_node_id": "0.0-4.0-43.0"}}, {"uniqueid": "w46833843:a70348098", "current_trial": 48, "dateTime": 1664368375977, "trialdata": {"rt": 833, "stimulus": "<p id='stroop-text' class='stroop-yellow'>YELLOW</p>", "response": "y", "stimulus-type": "congruent", "word": "yellow", "color": "yellow", "correct_response": "y", "trial_id": "stroop-trial-1-congruent-9", "trial_type": "html-keyboard-response", "trial_index": 48, "time_elapsed": 451000, "internal_node_id": "0.0-4.0-44.0"}}, {"uniqueid": "w46833843:a70348098", "current_trial": 49, "dateTime": 1664368377397, "trialdata": {"rt": 913, "stimulus": "<p id='stroop-text' class='stroop-red'>RED</p>", "response": "r", "stimulus-type": "congruent", "word": "red", "color": "red", "correct_response": "r", "trial_id": "stroop-trial-1-congruent-25", "trial_type": "html-keyboard-response", "trial_index": 49, "time_elapsed": 452420, "internal_node_id": "0.0-4.0-45.0"}}, {"uniqueid": "w46833843:a70348098", "current_trial": 50, "dateTime": 1664368379016, "trialdata": {"rt": 1114, "stimulus": "<p id='stroop-text' class='stroop-red'>BLUE</p>", "response": "r", "stimulus-type": "incongruent", "word": "blue", "color": "red", "correct_response": "r", "trial_id": "stroop-trial-1-incongruent-19", "trial_type": "html-keyboard-response", "trial_index": 50, "time_elapsed": 454039, "internal_node_id": "0.0-4.0-46.0"}}, {"uniqueid": "w46833843:a70348098", "current_trial": 51, "dateTime": 1664368380772, "trialdata": {"rt": 1247, "stimulus": "<p id='stroop-text' class='stroop-yellow'>SHIP</p>", "response": "y", "stimulus-type": "unrelated", "word": "SHIP", "color": "yellow", "correct_response": "y", "trial_id": "stroop-trial-1-unrelated-30", "trial_type": "html-keyboard-response", "trial_index": 51, "time_elapsed": 455794, "internal_node_id": "0.0-4.0-47.0"}}, {"uniqueid": "w46833843:a70348098", "current_trial": 52, "dateTime": 1664368382537, "trialdata": {"rt": 1254, "stimulus": "<p id='stroop-text' class='stroop-red'>YELLOW</p>", "response": "r", "stimulus-type": "incongruent", "word": "yellow", "color": "red", "correct_response": "r", "trial_id": "stroop-trial-1-incongruent-17", "trial_type": "html-keyboard-response", "trial_index": 52, "time_elapsed": 457560, "internal_node_id": "0.0-4.0-48.0"}}, {"uniqueid": "w46833843:a70348098", "current_trial": 53, "dateTime": 1664368384535, "trialdata": {"rt": 1483, "stimulus": "<p id='stroop-text' class='stroop-yellow'>BLUE</p>", "response": "y", "stimulus-type": "incongruent", "word": "blue", "color": "yellow", "correct_response": "y", "trial_id": "stroop-trial-1-incongruent-18", "trial_type": "html-keyboard-response", "trial_index": 53, "time_elapsed": 459557, "internal_node_id": "0.0-4.0-49.0"}}, {"uniqueid": "w46833843:a70348098", "current_trial": 54, "dateTime": 1664368385842, "trialdata": {"rt": 798, "stimulus": "<p id='stroop-text' class='stroop-yellow'>YELLOW</p>", "response": "y", "stimulus-type": "congruent", "word": "yellow", "color": "yellow", "correct_response": "y", "trial_id": "stroop-trial-1-congruent-16", "trial_type": "html-keyboard-response", "trial_index": 54, "time_elapsed": 460864, "internal_node_id": "0.0-4.0-50.0"}}, {"uniqueid": "w46833843:a70348098", "current_trial": 55, "dateTime": 1664368387098, "trialdata": {"rt": 745, "stimulus": "<p id='stroop-text' class='stroop-green'>GREEN</p>", "response": "g", "stimulus-type": "congruent", "word": "green", "color": "green", "correct_response": "g", "trial_id": "stroop-trial-1-congruent-26", "trial_type": "html-keyboard-response", "trial_index": 55, "time_elapsed": 462120, "internal_node_id": "0.0-4.0-51.0"}}, {"uniqueid": "w46833843:a70348098", "current_trial": 56, "dateTime": 1664368388760, "trialdata": {"rt": 1157, "stimulus": "<p id='stroop-text' class='stroop-green'>YELLOW</p>", "response": "g", "stimulus-type": "incongruent", "word": "yellow", "color": "green", "correct_response": "g", "trial_id": "stroop-trial-1-incongruent-27", "trial_type": "html-keyboard-response", "trial_index": 56, "time_elapsed": 463782, "internal_node_id": "0.0-4.0-52.0"}}, {"uniqueid": "w46833843:a70348098", "current_trial": 57, "dateTime": 1664368390471, "trialdata": {"rt": 1201, "stimulus": "<p id='stroop-text' class='stroop-yellow'>RED</p>", "response": "y", "stimulus-type": "incongruent", "word": "red", "color": "yellow", "correct_response": "y", "trial_id": "stroop-trial-1-incongruent-24", "trial_type": "html-keyboard-response", "trial_index": 57, "time_elapsed": 465493, "internal_node_id": "0.0-4.0-53.0"}}, {"uniqueid": "w46833843:a70348098", "current_trial": 58, "dateTime": 1664368391698, "trialdata": {"rt": 721, "stimulus": "<p id='stroop-text' class='stroop-red'>FORK</p>", "response": "r", "stimulus-type": "unrelated", "word": "FORK", "color": "red", "correct_response": "r", "trial_id": "stroop-trial-1-unrelated-12", "trial_type": "html-keyboard-response", "trial_index": 58, "time_elapsed": 466720, "internal_node_id": "0.0-4.0-54.0"}}, {"uniqueid": "w46833843:a70348098", "current_trial": 59, "dateTime": 1664368392646, "trialdata": {"rt": 437, "stimulus": "<p id='stroop-text' class='stroop-red'>RED</p>", "response": "r", "stimulus-type": "congruent", "word": "red", "color": "red", "correct_response": "r", "trial_id": "stroop-trial-1-congruent-29", "trial_type": "html-keyboard-response", "trial_index": 59, "time_elapsed": 467669, "internal_node_id": "0.0-4.0-55.0"}}, {"uniqueid": "w46833843:a70348098", "current_trial": 60, "dateTime": 1664368393817, "trialdata": {"rt": 659, "stimulus": "<p id='stroop-text' class='stroop-blue'>BLUE</p>", "response": "b", "stimulus-type": "congruent", "word": "blue", "color": "blue", "correct_response": "b", "trial_id": "stroop-trial-1-congruent-23", "trial_type": "html-keyboard-response", "trial_index": 60, "time_elapsed": 468840, "internal_node_id": "0.0-4.0-56.0"}}, {"uniqueid": "w46833843:a70348098", "current_trial": 61, "dateTime": 1664368395065, "trialdata": {"rt": 735, "stimulus": "<p id='stroop-text' class='stroop-yellow'>SHIP</p>", "response": "y", "stimulus-type": "unrelated", "word": "SHIP", "color": "yellow", "correct_response": "y", "trial_id": "stroop-trial-1-unrelated-6", "trial_type": "html-keyboard-response", "trial_index": 61, "time_elapsed": 470088, "internal_node_id": "0.0-4.0-57.0"}}, {"uniqueid": "w46833843:a70348098", "current_trial": 62, "dateTime": 1664368396264, "trialdata": {"rt": 685, "stimulus": "<p id='stroop-text' class='stroop-blue'>BOTTLE</p>", "response": "b", "stimulus-type": "unrelated", "word": "BOTTLE", "color": "blue", "correct_response": "b", "trial_id": "stroop-trial-1-unrelated-15", "trial_type": "html-keyboard-response", "trial_index": 62, "time_elapsed": 471287, "internal_node_id": "0.0-4.0-58.0"}}, {"uniqueid": "w46833843:a70348098", "current_trial": 63, "dateTime": 1664368397518, "trialdata": {"rt": 750, "stimulus": "<p id='stroop-text' class='stroop-green'>GREEN</p>", "response": "g", "stimulus-type": "congruent", "word": "green", "color": "green", "correct_response": "g", "trial_id": "stroop-trial-1-congruent-6", "trial_type": "html-keyboard-response", "trial_index": 63, "time_elapsed": 472540, "internal_node_id": "0.0-4.0-59.0"}}, {"uniqueid": "w46833843:a70348098", "current_trial": 64, "dateTime": 1664368398468, "trialdata": {"rt": 442, "stimulus": "<p id='stroop-text' class='stroop-red'>YELLOW</p>", "response": "r", "stimulus-type": "incongruent", "word": "yellow", "color": "red", "correct_response": "r", "trial_id": "stroop-trial-1-incongruent-7", "trial_type": "html-keyboard-response", "trial_index": 64, "time_elapsed": 473490, "internal_node_id": "0.0-4.0-60.0"}}, {"uniqueid": "w46833843:a70348098", "current_trial": 65, "dateTime": 1664368399787, "trialdata": {"rt": 808, "stimulus": "<p id='stroop-text' class='stroop-green'>MONKEY</p>", "response": "g", "stimulus-type": "unrelated", "word": "MONKEY", "color": "green", "correct_response": "g", "trial_id": "stroop-trial-1-unrelated-3", "trial_type": "html-keyboard-response", "trial_index": 65, "time_elapsed": 474810, "internal_node_id": "0.0-4.0-61.0"}}, {"uniqueid": "w46833843:a70348098", "current_trial": 66, "dateTime": 1664368400982, "trialdata": {"rt": 682, "stimulus": "<p id='stroop-text' class='stroop-green'>BLUE</p>", "response": "g", "stimulus-type": "incongruent", "word": "blue", "color": "green", "correct_response": "g", "trial_id": "stroop-trial-1-incongruent-29", "trial_type": "html-keyboard-response", "trial_index": 66, "time_elapsed": 476004, "internal_node_id": "0.0-4.0-62.0"}}, {"uniqueid": "w46833843:a70348098", "current_trial": 67, "dateTime": 1664368402284, "trialdata": {"rt": 794, "stimulus": "<p id='stroop-text' class='stroop-blue'>BRIDGE</p>", "response": "b", "stimulus-type": "unrelated", "word": "BRIDGE", "color": "blue", "correct_response": "b", "trial_id": "stroop-trial-1-unrelated-9", "trial_type": "html-keyboard-response", "trial_index": 67, "time_elapsed": 477307, "internal_node_id": "0.0-4.0-63.0"}}, {"uniqueid": "w46833843:a70348098", "current_trial": 68, "dateTime": 1664368403443, "trialdata": {"rt": 646, "stimulus": "<p id='stroop-text' class='stroop-blue'>BOAT</p>", "response": "b", "stimulus-type": "unrelated", "word": "BOAT", "color": "blue", "correct_response": "b", "trial_id": "stroop-trial-1-unrelated-7", "trial_type": "html-keyboard-response", "trial_index": 68, "time_elapsed": 478466, "internal_node_id": "0.0-4.0-64.0"}}, {"uniqueid": "w46833843:a70348098", "current_trial": 69, "dateTime": 1664368404800, "trialdata": {"rt": 853, "stimulus": "<p id='stroop-text' class='stroop-red'>YELLOW</p>", "response": "r", "stimulus-type": "incongruent", "word": "yellow", "color": "red", "correct_response": "r", "trial_id": "stroop-trial-1-incongruent-16", "trial_type": "html-keyboard-response", "trial_index": 69, "time_elapsed": 479823, "internal_node_id": "0.0-4.0-65.0"}}, {"uniqueid": "w46833843:a70348098", "current_trial": 70, "dateTime": 1664368406197, "trialdata": {"rt": 882, "stimulus": "<p id='stroop-text' class='stroop-yellow'>SHIP</p>", "response": "y", "stimulus-type": "unrelated", "word": "SHIP", "color": "yellow", "correct_response": "y", "trial_id": "stroop-trial-1-unrelated-27", "trial_type": "html-keyboard-response", "trial_index": 70, "time_elapsed": 481219, "internal_node_id": "0.0-4.0-66.0"}}, {"uniqueid": "w46833843:a70348098", "current_trial": 71, "dateTime": 1664368407613, "trialdata": {"rt": 906, "stimulus": "<p id='stroop-text' class='stroop-green'>BRIDGE</p>", "response": "g", "stimulus-type": "unrelated", "word": "BRIDGE", "color": "green", "correct_response": "g", "trial_id": "stroop-trial-1-unrelated-16", "trial_type": "html-keyboard-response", "trial_index": 71, "time_elapsed": 482636, "internal_node_id": "0.0-4.0-67.0"}}, {"uniqueid": "w46833843:a70348098", "current_trial": 72, "dateTime": 1664368408723, "trialdata": {"rt": 600, "stimulus": "<p id='stroop-text' class='stroop-red'>RED</p>", "response": "r", "stimulus-type": "congruent", "word": "red", "color": "red", "correct_response": "r", "trial_id": "stroop-trial-1-congruent-2", "trial_type": "html-keyboard-response", "trial_index": 72, "time_elapsed": 483746, "internal_node_id": "0.0-4.0-68.0"}}, {"uniqueid": "w46833843:a70348098", "current_trial": 73, "dateTime": 1664368410179, "trialdata": {"rt": 945, "stimulus": "<p id='stroop-text' class='stroop-green'>MONKEY</p>", "response": "g", "stimulus-type": "unrelated", "word": "MONKEY", "color": "green", "correct_response": "g", "trial_id": "stroop-trial-1-unrelated-11", "trial_type": "html-keyboard-response", "trial_index": 73, "time_elapsed": 485201, "internal_node_id": "0.0-4.0-69.0"}}, {"uniqueid": "w46833843:a70348098", "current_trial": 74, "dateTime": 1664368411500, "trialdata": {"rt": 813, "stimulus": "<p id='stroop-text' class='stroop-green'>GREEN</p>", "response": "g", "stimulus-type": "congruent", "word": "green", "color": "green", "correct_response": "g", "trial_id": "stroop-trial-1-congruent-19", "trial_type": "html-keyboard-response", "trial_index": 74, "time_elapsed": 486523, "internal_node_id": "0.0-4.0-70.0"}}, {"uniqueid": "w46833843:a70348098", "current_trial": 75, "dateTime": 1664368412828, "trialdata": {"rt": 818, "stimulus": "<p id='stroop-text' class='stroop-green'>YELLOW</p>", "response": "g", "stimulus-type": "incongruent", "word": "yellow", "color": "green", "correct_response": "g", "trial_id": "stroop-trial-1-incongruent-28", "trial_type": "html-keyboard-response", "trial_index": 75, "time_elapsed": 487851, "internal_node_id": "0.0-4.0-71.0"}}, {"uniqueid": "w46833843:a70348098", "current_trial": 76, "dateTime": 1664368414037, "trialdata": {"rt": 702, "stimulus": "<p id='stroop-text' class='stroop-green'>GREEN</p>", "response": "g", "stimulus-type": "congruent", "word": "green", "color": "green", "correct_response": "g", "trial_id": "stroop-trial-1-congruent-3", "trial_type": "html-keyboard-response", "trial_index": 76, "time_elapsed": 489060, "internal_node_id": "0.0-4.0-72.0"}}, {"uniqueid": "w46833843:a70348098", "current_trial": 77, "dateTime": 1664368415296, "trialdata": {"rt": 745, "stimulus": "<p id='stroop-text' class='stroop-yellow'>DOG</p>", "response": "y", "stimulus-type": "unrelated", "word": "DOG", "color": "yellow", "correct_response": "y", "trial_id": "stroop-trial-1-unrelated-22", "trial_type": "html-keyboard-response", "trial_index": 77, "time_elapsed": 490319, "internal_node_id": "0.0-4.0-73.0"}}, {"uniqueid": "w46833843:a70348098", "current_trial": 78, "dateTime": 1664368416667, "trialdata": {"rt": 860, "stimulus": "<p id='stroop-text' class='stroop-red'>YELLOW</p>", "response": "r", "stimulus-type": "incongruent", "word": "yellow", "color": "red", "correct_response": "r", "trial_id": "stroop-trial-1-incongruent-21", "trial_type": "html-keyboard-response", "trial_index": 78, "time_elapsed": 491690, "internal_node_id": "0.0-4.0-74.0"}}, {"uniqueid": "w46833843:a70348098", "current_trial": 79, "dateTime": 1664368418469, "trialdata": {"rt": 1291, "stimulus": "<p id='stroop-text' class='stroop-yellow'>RED</p>", "response": "y", "stimulus-type": "incongruent", "word": "red", "color": "yellow", "correct_response": "y", "trial_id": "stroop-trial-1-incongruent-30", "trial_type": "html-keyboard-response", "trial_index": 79, "time_elapsed": 493491, "internal_node_id": "0.0-4.0-75.0"}}, {"uniqueid": "w46833843:a70348098", "current_trial": 80, "dateTime": 1664368419751, "trialdata": {"rt": 772, "stimulus": "<p id='stroop-text' class='stroop-yellow'>SHIP</p>", "response": "y", "stimulus-type": "unrelated", "word": "SHIP", "color": "yellow", "correct_response": "y", "trial_id": "stroop-trial-1-unrelated-18", "trial_type": "html-keyboard-response", "trial_index": 80, "time_elapsed": 494773, "internal_node_id": "0.0-4.0-76.0"}}, {"uniqueid": "w46833843:a70348098", "current_trial": 81, "dateTime": 1664368420940, "trialdata": {"rt": 680, "stimulus": "<p id='stroop-text' class='stroop-red'>SHIP</p>", "response": "r", "stimulus-type": "unrelated", "word": "SHIP", "color": "red", "correct_response": "r", "trial_id": "stroop-trial-1-unrelated-10", "trial_type": "html-keyboard-response", "trial_index": 81, "time_elapsed": 495962, "internal_node_id": "0.0-4.0-77.0"}}, {"uniqueid": "w46833843:a70348098", "current_trial": 82, "dateTime": 1664368422215, "trialdata": {"rt": 758, "stimulus": "<p id='stroop-text' class='stroop-green'>GREEN</p>", "response": "g", "stimulus-type": "congruent", "word": "green", "color": "green", "correct_response": "g", "trial_id": "stroop-trial-1-congruent-13", "trial_type": "html-keyboard-response", "trial_index": 82, "time_elapsed": 497237, "internal_node_id": "0.0-4.0-78.0"}}, {"uniqueid": "w46833843:a70348098", "current_trial": 83, "dateTime": 1664368423614, "trialdata": {"rt": 891, "stimulus": "<p id='stroop-text' class='stroop-red'>YELLOW</p>", "response": "r", "stimulus-type": "incongruent", "word": "yellow", "color": "red", "correct_response": "r", "trial_id": "stroop-trial-1-incongruent-8", "trial_type": "html-keyboard-response", "trial_index": 83, "time_elapsed": 498636, "internal_node_id": "0.0-4.0-79.0"}}, {"uniqueid": "w46833843:a70348098", "current_trial": 84, "dateTime": 1664368424785, "trialdata": {"rt": 665, "stimulus": "<p id='stroop-text' class='stroop-blue'>YELLOW</p>", "response": "b", "stimulus-type": "incongruent", "word": "yellow", "color": "blue", "correct_response": "b", "trial_id": "stroop-trial-1-incongruent-6", "trial_type": "html-keyboard-response", "trial_index": 84, "time_elapsed": 499807, "internal_node_id": "0.0-4.0-80.0"}}, {"uniqueid": "w46833843:a70348098", "current_trial": 85, "dateTime": 1664368426321, "trialdata": {"rt": 1024, "stimulus": "<p id='stroop-text' class='stroop-red'>BRAIN</p>", "response": "r", "stimulus-type": "unrelated", "word": "BRAIN", "color": "red", "correct_response": "r", "trial_id": "stroop-trial-1-unrelated-2", "trial_type": "html-keyboard-response", "trial_index": 85, "time_elapsed": 501343, "internal_node_id": "0.0-4.0-81.0"}}, {"uniqueid": "w46833843:a70348098", "current_trial": 86, "dateTime": 1664368427433, "trialdata": {"rt": 604, "stimulus": "<p id='stroop-text' class='stroop-red'>BLUE</p>", "response": "r", "stimulus-type": "incongruent", "word": "blue", "color": "red", "correct_response": "r", "trial_id": "stroop-trial-1-incongruent-10", "trial_type": "html-keyboard-response", "trial_index": 86, "time_elapsed": 502455, "internal_node_id": "0.0-4.0-82.0"}}, {"uniqueid": "w46833843:a70348098", "current_trial": 87, "dateTime": 1664368428462, "trialdata": {"rt": 524, "stimulus": "<p id='stroop-text' class='stroop-red'>GREEN</p>", "response": "r", "stimulus-type": "incongruent", "word": "green", "color": "red", "correct_response": "r", "trial_id": "stroop-trial-1-incongruent-3", "trial_type": "html-keyboard-response", "trial_index": 87, "time_elapsed": 503484, "internal_node_id": "0.0-4.0-83.0"}}, {"uniqueid": "w46833843:a70348098", "current_trial": 88, "dateTime": 1664368429720, "trialdata": {"rt": 748, "stimulus": "<p id='stroop-text' class='stroop-yellow'>YELLOW</p>", "response": "y", "stimulus-type": "congruent", "word": "yellow", "color": "yellow", "correct_response": "y", "trial_id": "stroop-trial-1-congruent-10", "trial_type": "html-keyboard-response", "trial_index": 88, "time_elapsed": 504743, "internal_node_id": "0.0-4.0-84.0"}}, {"uniqueid": "w46833843:a70348098", "current_trial": 89, "dateTime": 1664368430874, "trialdata": {"rt": 650, "stimulus": "<p id='stroop-text' class='stroop-red'>BOAT</p>", "response": "r", "stimulus-type": "unrelated", "word": "BOAT", "color": "red", "correct_response": "r", "trial_id": "stroop-trial-1-unrelated-14", "trial_type": "html-keyboard-response", "trial_index": 89, "time_elapsed": 505897, "internal_node_id": "0.0-4.0-85.0"}}, {"uniqueid": "w46833843:a70348098", "current_trial": 90, "dateTime": 1664368432017, "trialdata": {"rt": 635, "stimulus": "<p id='stroop-text' class='stroop-yellow'>YELLOW</p>", "response": "y", "stimulus-type": "congruent", "word": "yellow", "color": "yellow", "correct_response": "y", "trial_id": "stroop-trial-1-congruent-20", "trial_type": "html-keyboard-response", "trial_index": 90, "time_elapsed": 507040, "internal_node_id": "0.0-4.0-86.0"}}, {"uniqueid": "w46833843:a70348098", "current_trial": 91, "dateTime": 1664368433363, "trialdata": {"rt": 835, "stimulus": "<p id='stroop-text' class='stroop-green'>STONE</p>", "response": "g", "stimulus-type": "unrelated", "word": "STONE", "color": "green", "correct_response": "g", "trial_id": "stroop-trial-1-unrelated-29", "trial_type": "html-keyboard-response", "trial_index": 91, "time_elapsed": 508385, "internal_node_id": "0.0-4.0-87.0"}}, {"uniqueid": "w46833843:a70348098", "current_trial": 92, "dateTime": 1664368434495, "trialdata": {"rt": 616, "stimulus": "<p id='stroop-text' class='stroop-blue'>BLUE</p>", "response": "b", "stimulus-type": "congruent", "word": "blue", "color": "blue", "correct_response": "b", "trial_id": "stroop-trial-1-congruent-18", "trial_type": "html-keyboard-response", "trial_index": 92, "time_elapsed": 509517, "internal_node_id": "0.0-4.0-88.0"}}, {"uniqueid": "w46833843:a70348098", "current_trial": 93, "dateTime": 1664368435648, "trialdata": {"rt": 641, "stimulus": "<p id='stroop-text' class='stroop-red'>SHIP</p>", "response": "r", "stimulus-type": "unrelated", "word": "SHIP", "color": "red", "correct_response": "r", "trial_id": "stroop-trial-1-unrelated-1", "trial_type": "html-keyboard-response", "trial_index": 93, "time_elapsed": 510670, "internal_node_id": "0.0-4.0-89.0"}}, {"uniqueid": "w46833843:a70348098", "current_trial": 94, "dateTime": 1664368498604, "trialdata": {"rt": 62440, "stimulus": "  <h1> End of block! </h1>\n\n  You have reached the end of the block 1/5. If you need a short break, feel free to take one now before moving on.\n\n  <br><br>\n  In the next block, you will complete another 90 rounds of this game.\n\n  <br><br>\n  <div style='text-align: center;'>Press <code>space</code> to begin.</div>\n  <br><br>\n<div style='text-align: center;'>(If the experiment doesn't continue, try clicking on the text and then pressing <code>space</code>.)</div>", "response": " ", "trial_id": "stroop_1_ready_2", "trial_type": "html-keyboard-response", "trial_index": 94, "time_elapsed": 573626, "internal_node_id": "0.0-5.0"}}, {"uniqueid": "w46833843:a70348098", "current_trial": 95, "dateTime": 1664368499752, "trialdata": {"rt": 1140, "stimulus": "<p id='stroop-text' class='stroop-green'>GREEN</p>", "response": "g", "stimulus-type": "congruent", "word": "green", "color": "green", "correct_response": "g", "trial_id": "stroop-trial-1-congruent-19", "trial_type": "html-keyboard-response", "trial_index": 95, "time_elapsed": 574775, "internal_node_id": "0.0-6.0-0.0"}}, {"uniqueid": "w46833843:a70348098", "current_trial": 96, "dateTime": 1664368501143, "trialdata": {"rt": 884, "stimulus": "<p id='stroop-text' class='stroop-blue'>BLUE</p>", "response": "b", "stimulus-type": "congruent", "word": "blue", "color": "blue", "correct_response": "b", "trial_id": "stroop-trial-1-congruent-11", "trial_type": "html-keyboard-response", "trial_index": 96, "time_elapsed": 576166, "internal_node_id": "0.0-6.0-1.0"}}, {"uniqueid": "w46833843:a70348098", "current_trial": 97, "dateTime": 1664368502644, "trialdata": {"rt": 994, "stimulus": "<p id='stroop-text' class='stroop-yellow'>STONE</p>", "response": "y", "stimulus-type": "unrelated", "word": "STONE", "color": "yellow", "correct_response": "y", "trial_id": "stroop-trial-1-unrelated-25", "trial_type": "html-keyboard-response", "trial_index": 97, "time_elapsed": 577666, "internal_node_id": "0.0-6.0-2.0"}}, {"uniqueid": "w46833843:a70348098", "current_trial": 98, "dateTime": 1664368503765, "trialdata": {"rt": 608, "stimulus": "<p id='stroop-text' class='stroop-yellow'>RED</p>", "response": "y", "stimulus-type": "incongruent", "word": "red", "color": "yellow", "correct_response": "y", "trial_id": "stroop-trial-1-incongruent-10", "trial_type": "html-keyboard-response", "trial_index": 98, "time_elapsed": 578785, "internal_node_id": "0.0-6.0-3.0"}}, {"uniqueid": "w46833843:a70348098", "current_trial": 99, "dateTime": 1664368504863, "trialdata": {"rt": 592, "stimulus": "<p id='stroop-text' class='stroop-yellow'>RED</p>", "response": "y", "stimulus-type": "incongruent", "word": "red", "color": "yellow", "correct_response": "y", "trial_id": "stroop-trial-1-incongruent-29", "trial_type": "html-keyboard-response", "trial_index": 99, "time_elapsed": 579886, "internal_node_id": "0.0-6.0-4.0"}}, {"uniqueid": "w46833843:a70348098", "current_trial": 100, "dateTime": 1664368506625, "trialdata": {"rt": 1255, "stimulus": "<p id='stroop-text' class='stroop-red'>RED</p>", "response": "r", "stimulus-type": "congruent", "word": "red", "color": "red", "correct_response": "r", "trial_id": "stroop-trial-1-congruent-17", "trial_type": "html-keyboard-response", "trial_index": 100, "time_elapsed": 581648, "internal_node_id": "0.0-6.0-5.0"}}, {"uniqueid": "w46833843:a70348098", "current_trial": 101, "dateTime": 1664368507908, "trialdata": {"rt": 775, "stimulus": "<p id='stroop-text' class='stroop-blue'>BLUE</p>", "response": "b", "stimulus-type": "congruent", "word": "blue", "color": "blue", "correct_response": "b", "trial_id": "stroop-trial-1-congruent-25", "trial_type": "html-keyboard-response", "trial_index": 101, "time_elapsed": 582930, "internal_node_id": "0.0-6.0-6.0"}}, {"uniqueid": "w46833843:a70348098", "current_trial": 102, "dateTime": 1664368509106, "trialdata": {"rt": 687, "stimulus": "<p id='stroop-text' class='stroop-blue'>GREEN</p>", "response": "b", "stimulus-type": "incongruent", "word": "green", "color": "blue", "correct_response": "b", "trial_id": "stroop-trial-1-incongruent-13", "trial_type": "html-keyboard-response", "trial_index": 102, "time_elapsed": 584128, "internal_node_id": "0.0-6.0-7.0"}}, {"uniqueid": "w46833843:a70348098", "current_trial": 103, "dateTime": 1664368510322, "trialdata": {"rt": 700, "stimulus": "<p id='stroop-text' class='stroop-yellow'>SHIP</p>", "response": "y", "stimulus-type": "unrelated", "word": "SHIP", "color": "yellow", "correct_response": "y", "trial_id": "stroop-trial-1-unrelated-19", "trial_type": "html-keyboard-response", "trial_index": 103, "time_elapsed": 585345, "internal_node_id": "0.0-6.0-8.0"}}, {"uniqueid": "w46833843:a70348098", "current_trial": 104, "dateTime": 1664368511536, "trialdata": {"rt": 705, "stimulus": "<p id='stroop-text' class='stroop-blue'>BOTTLE</p>", "response": "b", "stimulus-type": "unrelated", "word": "BOTTLE", "color": "blue", "correct_response": "b", "trial_id": "stroop-trial-1-unrelated-2", "trial_type": "html-keyboard-response", "trial_index": 104, "time_elapsed": 586558, "internal_node_id": "0.0-6.0-9.0"}}, {"uniqueid": "w46833843:a70348098", "current_trial": 105, "dateTime": 1664368512686, "trialdata": {"rt": 639, "stimulus": "<p id='stroop-text' class='stroop-red'>BLUE</p>", "response": "r", "stimulus-type": "incongruent", "word": "blue", "color": "red", "correct_response": "r", "trial_id": "stroop-trial-1-incongruent-4", "trial_type": "html-keyboard-response", "trial_index": 105, "time_elapsed": 587708, "internal_node_id": "0.0-6.0-10.0"}}, {"uniqueid": "w46833843:a70348098", "current_trial": 106, "dateTime": 1664368514534, "trialdata": {"rt": 1335, "stimulus": "<p id='stroop-text' class='stroop-blue'>DOG</p>", "response": "b", "stimulus-type": "unrelated", "word": "DOG", "color": "blue", "correct_response": "b", "trial_id": "stroop-trial-1-unrelated-23", "trial_type": "html-keyboard-response", "trial_index": 106, "time_elapsed": 589557, "internal_node_id": "0.0-6.0-11.0"}}, {"uniqueid": "w46833843:a70348098", "current_trial": 107, "dateTime": 1664368515973, "trialdata": {"rt": 931, "stimulus": "<p id='stroop-text' class='stroop-red'>GREEN</p>", "response": "r", "stimulus-type": "incongruent", "word": "green", "color": "red", "correct_response": "r", "trial_id": "stroop-trial-1-incongruent-25", "trial_type": "html-keyboard-response", "trial_index": 107, "time_elapsed": 590994, "internal_node_id": "0.0-6.0-12.0"}}, {"uniqueid": "w46833843:a70348098", "current_trial": 108, "dateTime": 1664368517209, "trialdata": {"rt": 730, "stimulus": "<p id='stroop-text' class='stroop-blue'>WINDOW</p>", "response": "b", "stimulus-type": "unrelated", "word": "WINDOW", "color": "blue", "correct_response": "b", "trial_id": "stroop-trial-1-unrelated-9", "trial_type": "html-keyboard-response", "trial_index": 108, "time_elapsed": 592231, "internal_node_id": "0.0-6.0-13.0"}}, {"uniqueid": "w46833843:a70348098", "current_trial": 109, "dateTime": 1664368518392, "trialdata": {"rt": 673, "stimulus": "<p id='stroop-text' class='stroop-red'>MONKEY</p>", "response": "r", "stimulus-type": "unrelated", "word": "MONKEY", "color": "red", "correct_response": "r", "trial_id": "stroop-trial-1-unrelated-27", "trial_type": "html-keyboard-response", "trial_index": 109, "time_elapsed": 593414, "internal_node_id": "0.0-6.0-14.0"}}, {"uniqueid": "w46833843:a70348098", "current_trial": 110, "dateTime": 1664368519560, "trialdata": {"rt": 655, "stimulus": "<p id='stroop-text' class='stroop-yellow'>MONKEY</p>", "response": "y", "stimulus-type": "unrelated", "word": "MONKEY", "color": "yellow", "correct_response": "y", "trial_id": "stroop-trial-1-unrelated-13", "trial_type": "html-keyboard-response", "trial_index": 110, "time_elapsed": 594583, "internal_node_id": "0.0-6.0-15.0"}}, {"uniqueid": "w46833843:a70348098", "current_trial": 111, "dateTime": 1664368520637, "trialdata": {"rt": 572, "stimulus": "<p id='stroop-text' class='stroop-blue'>BRIDGE</p>", "response": "b", "stimulus-type": "unrelated", "word": "BRIDGE", "color": "blue", "correct_response": "b", "trial_id": "stroop-trial-1-unrelated-6", "trial_type": "html-keyboard-response", "trial_index": 111, "time_elapsed": 595660, "internal_node_id": "0.0-6.0-16.0"}}, {"uniqueid": "w46833843:a70348098", "current_trial": 112, "dateTime": 1664368521772, "trialdata": {"rt": 618, "stimulus": "<p id='stroop-text' class='stroop-blue'>YELLOW</p>", "response": "b", "stimulus-type": "incongruent", "word": "yellow", "color": "blue", "correct_response": "b", "trial_id": "stroop-trial-1-incongruent-30", "trial_type": "html-keyboard-response", "trial_index": 112, "time_elapsed": 596795, "internal_node_id": "0.0-6.0-17.0"}}, {"uniqueid": "w46833843:a70348098", "current_trial": 113, "dateTime": 1664368522839, "trialdata": {"rt": 555, "stimulus": "<p id='stroop-text' class='stroop-blue'>BRAIN</p>", "response": "b", "stimulus-type": "unrelated", "word": "BRAIN", "color": "blue", "correct_response": "b", "trial_id": "stroop-trial-1-unrelated-30", "trial_type": "html-keyboard-response", "trial_index": 113, "time_elapsed": 597861, "internal_node_id": "0.0-6.0-18.0"}}, {"uniqueid": "w46833843:a70348098", "current_trial": 114, "dateTime": 1664368523876, "trialdata": {"rt": 528, "stimulus": "<p id='stroop-text' class='stroop-blue'>BLUE</p>", "response": "b", "stimulus-type": "congruent", "word": "blue", "color": "blue", "correct_response": "b", "trial_id": "stroop-trial-1-congruent-13", "trial_type": "html-keyboard-response", "trial_index": 114, "time_elapsed": 598898, "internal_node_id": "0.0-6.0-19.0"}}, {"uniqueid": "w46833843:a70348098", "current_trial": 115, "dateTime": 1664368524892, "trialdata": {"rt": 496, "stimulus": "<p id='stroop-text' class='stroop-blue'>RED</p>", "response": "b", "stimulus-type": "incongruent", "word": "red", "color": "blue", "correct_response": "b", "trial_id": "stroop-trial-1-incongruent-18", "trial_type": "html-keyboard-response", "trial_index": 115, "time_elapsed": 599914, "internal_node_id": "0.0-6.0-20.0"}}, {"uniqueid": "w46833843:a70348098", "current_trial": 116, "dateTime": 1664368526231, "trialdata": {"rt": 830, "stimulus": "<p id='stroop-text' class='stroop-green'>BLUE</p>", "response": "g", "stimulus-type": "incongruent", "word": "blue", "color": "green", "correct_response": "g", "trial_id": "stroop-trial-1-incongruent-16", "trial_type": "html-keyboard-response", "trial_index": 116, "time_elapsed": 601254, "internal_node_id": "0.0-6.0-21.0"}}, {"uniqueid": "w46833843:a70348098", "current_trial": 117, "dateTime": 1664368527408, "trialdata": {"rt": 669, "stimulus": "<p id='stroop-text' class='stroop-yellow'>YELLOW</p>", "response": "y", "stimulus-type": "congruent", "word": "yellow", "color": "yellow", "correct_response": "y", "trial_id": "stroop-trial-1-congruent-28", "trial_type": "html-keyboard-response", "trial_index": 117, "time_elapsed": 602431, "internal_node_id": "0.0-6.0-22.0"}}, {"uniqueid": "w46833843:a70348098", "current_trial": 118, "dateTime": 1664368528899, "trialdata": {"rt": 975, "stimulus": "<p id='stroop-text' class='stroop-green'>BRAIN</p>", "response": "g", "stimulus-type": "unrelated", "word": "BRAIN", "color": "green", "correct_response": "g", "trial_id": "stroop-trial-1-unrelated-18", "trial_type": "html-keyboard-response", "trial_index": 118, "time_elapsed": 603921, "internal_node_id": "0.0-6.0-23.0"}}, {"uniqueid": "w46833843:a70348098", "current_trial": 119, "dateTime": 1664368530137, "trialdata": {"rt": 730, "stimulus": "<p id='stroop-text' class='stroop-green'>MONKEY</p>", "response": "g", "stimulus-type": "unrelated", "word": "MONKEY", "color": "green", "correct_response": "g", "trial_id": "stroop-trial-1-unrelated-5", "trial_type": "html-keyboard-response", "trial_index": 119, "time_elapsed": 605156, "internal_node_id": "0.0-6.0-24.0"}}, {"uniqueid": "w46833843:a70348098", "current_trial": 120, "dateTime": 1664368531399, "trialdata": {"rt": 756, "stimulus": "<p id='stroop-text' class='stroop-blue'>BLUE</p>", "response": "b", "stimulus-type": "congruent", "word": "blue", "color": "blue", "correct_response": "b", "trial_id": "stroop-trial-1-congruent-5", "trial_type": "html-keyboard-response", "trial_index": 120, "time_elapsed": 606421, "internal_node_id": "0.0-6.0-25.0"}}, {"uniqueid": "w46833843:a70348098", "current_trial": 121, "dateTime": 1664368532847, "trialdata": {"rt": 942, "stimulus": "<p id='stroop-text' class='stroop-blue'>RED</p>", "response": "b", "stimulus-type": "incongruent", "word": "red", "color": "blue", "correct_response": "b", "trial_id": "stroop-trial-1-incongruent-15", "trial_type": "html-keyboard-response", "trial_index": 121, "time_elapsed": 607869, "internal_node_id": "0.0-6.0-26.0"}}, {"uniqueid": "w46833843:a70348098", "current_trial": 122, "dateTime": 1664368534134, "trialdata": {"rt": 778, "stimulus": "<p id='stroop-text' class='stroop-green'>GREEN</p>", "response": "g", "stimulus-type": "congruent", "word": "green", "color": "green", "correct_response": "g", "trial_id": "stroop-trial-1-congruent-20", "trial_type": "html-keyboard-response", "trial_index": 122, "time_elapsed": 609157, "internal_node_id": "0.0-6.0-27.0"}}, {"uniqueid": "w46833843:a70348098", "current_trial": 123, "dateTime": 1664368535388, "trialdata": {"rt": 733, "stimulus": "<p id='stroop-text' class='stroop-blue'>BLUE</p>", "response": "b", "stimulus-type": "congruent", "word": "blue", "color": "blue", "correct_response": "b", "trial_id": "stroop-trial-1-congruent-7", "trial_type": "html-keyboard-response", "trial_index": 123, "time_elapsed": 610410, "internal_node_id": "0.0-6.0-28.0"}}, {"uniqueid": "w46833843:a70348098", "current_trial": 124, "dateTime": 1664368536628, "trialdata": {"rt": 733, "stimulus": "<p id='stroop-text' class='stroop-red'>BRAIN</p>", "response": "r", "stimulus-type": "unrelated", "word": "BRAIN", "color": "red", "correct_response": "r", "trial_id": "stroop-trial-1-unrelated-10", "trial_type": "html-keyboard-response", "trial_index": 124, "time_elapsed": 611651, "internal_node_id": "0.0-6.0-29.0"}}, {"uniqueid": "w46833843:a70348098", "current_trial": 125, "dateTime": 1664368538177, "trialdata": {"rt": 1038, "stimulus": "<p id='stroop-text' class='stroop-blue'>YELLOW</p>", "response": "b", "stimulus-type": "incongruent", "word": "yellow", "color": "blue", "correct_response": "b", "trial_id": "stroop-trial-1-incongruent-3", "trial_type": "html-keyboard-response", "trial_index": 125, "time_elapsed": 613199, "internal_node_id": "0.0-6.0-30.0"}}, {"uniqueid": "w46833843:a70348098", "current_trial": 126, "dateTime": 1664368539453, "trialdata": {"rt": 766, "stimulus": "<p id='stroop-text' class='stroop-yellow'>STONE</p>", "response": "y", "stimulus-type": "unrelated", "word": "STONE", "color": "yellow", "correct_response": "y", "trial_id": "stroop-trial-1-unrelated-15", "trial_type": "html-keyboard-response", "trial_index": 126, "time_elapsed": 614475, "internal_node_id": "0.0-6.0-31.0"}}, {"uniqueid": "w46833843:a70348098", "current_trial": 127, "dateTime": 1664368540671, "trialdata": {"rt": 701, "stimulus": "<p id='stroop-text' class='stroop-yellow'>RED</p>", "response": "y", "stimulus-type": "incongruent", "word": "red", "color": "yellow", "correct_response": "y", "trial_id": "stroop-trial-1-incongruent-27", "trial_type": "html-keyboard-response", "trial_index": 127, "time_elapsed": 615694, "internal_node_id": "0.0-6.0-32.0"}}, {"uniqueid": "w46833843:a70348098", "current_trial": 128, "dateTime": 1664368542107, "trialdata": {"rt": 917, "stimulus": "<p id='stroop-text' class='stroop-green'>STONE</p>", "response": "g", "stimulus-type": "unrelated", "word": "STONE", "color": "green", "correct_response": "g", "trial_id": "stroop-trial-1-unrelated-11", "trial_type": "html-keyboard-response", "trial_index": 128, "time_elapsed": 617129, "internal_node_id": "0.0-6.0-33.0"}}, {"uniqueid": "w46833843:a70348098", "current_trial": 129, "dateTime": 1664368543409, "trialdata": {"rt": 792, "stimulus": "<p id='stroop-text' class='stroop-red'>RED</p>", "response": "r", "stimulus-type": "congruent", "word": "red", "color": "red", "correct_response": "r", "trial_id": "stroop-trial-1-congruent-2", "trial_type": "html-keyboard-response", "trial_index": 129, "time_elapsed": 618432, "internal_node_id": "0.0-6.0-34.0"}}, {"uniqueid": "w46833843:a70348098", "current_trial": 130, "dateTime": 1664368545612, "trialdata": {"rt": 1688, "stimulus": "<p id='stroop-text' class='stroop-green'>BLUE</p>", "response": "g", "stimulus-type": "incongruent", "word": "blue", "color": "green", "correct_response": "g", "trial_id": "stroop-trial-1-incongruent-21", "trial_type": "html-keyboard-response", "trial_index": 130, "time_elapsed": 620634, "internal_node_id": "0.0-6.0-35.0"}}, {"uniqueid": "w46833843:a70348098", "current_trial": 131, "dateTime": 1664368546874, "trialdata": {"rt": 750, "stimulus": "<p id='stroop-text' class='stroop-green'>YELLOW</p>", "response": "g", "stimulus-type": "incongruent", "word": "yellow", "color": "green", "correct_response": "g", "trial_id": "stroop-trial-1-incongruent-23", "trial_type": "html-keyboard-response", "trial_index": 131, "time_elapsed": 621896, "internal_node_id": "0.0-6.0-36.0"}}, {"uniqueid": "w46833843:a70348098", "current_trial": 132, "dateTime": 1664368548199, "trialdata": {"rt": 812, "stimulus": "<p id='stroop-text' class='stroop-red'>RED</p>", "response": "r", "stimulus-type": "congruent", "word": "red", "color": "red", "correct_response": "r", "trial_id": "stroop-trial-1-congruent-23", "trial_type": "html-keyboard-response", "trial_index": 132, "time_elapsed": 623222, "internal_node_id": "0.0-6.0-37.0"}}, {"uniqueid": "w46833843:a70348098", "current_trial": 133, "dateTime": 1664368549539, "trialdata": {"rt": 829, "stimulus": "<p id='stroop-text' class='stroop-blue'>YELLOW</p>", "response": "b", "stimulus-type": "incongruent", "word": "yellow", "color": "blue", "correct_response": "b", "trial_id": "stroop-trial-1-incongruent-7", "trial_type": "html-keyboard-response", "trial_index": 133, "time_elapsed": 624562, "internal_node_id": "0.0-6.0-38.0"}}, {"uniqueid": "w46833843:a70348098", "current_trial": 134, "dateTime": 1664368550760, "trialdata": {"rt": 705, "stimulus": "<p id='stroop-text' class='stroop-yellow'>YELLOW</p>", "response": "y", "stimulus-type": "congruent", "word": "yellow", "color": "yellow", "correct_response": "y", "trial_id": "stroop-trial-1-congruent-29", "trial_type": "html-keyboard-response", "trial_index": 134, "time_elapsed": 625783, "internal_node_id": "0.0-6.0-39.0"}}, {"uniqueid": "w46833843:a70348098", "current_trial": 135, "dateTime": 1664368552720, "trialdata": {"rt": 1450, "stimulus": "<p id='stroop-text' class='stroop-green'>YELLOW</p>", "response": "g", "stimulus-type": "incongruent", "word": "yellow", "color": "green", "correct_response": "g", "trial_id": "stroop-trial-1-incongruent-14", "trial_type": "html-keyboard-response", "trial_index": 135, "time_elapsed": 627742, "internal_node_id": "0.0-6.0-40.0"}}, {"uniqueid": "w46833843:a70348098", "current_trial": 136, "dateTime": 1664368554085, "trialdata": {"rt": 858, "stimulus": "<p id='stroop-text' class='stroop-green'>DOG</p>", "response": "g", "stimulus-type": "unrelated", "word": "DOG", "color": "green", "correct_response": "g", "trial_id": "stroop-trial-1-unrelated-28", "trial_type": "html-keyboard-response", "trial_index": 136, "time_elapsed": 629108, "internal_node_id": "0.0-6.0-41.0"}}, {"uniqueid": "w46833843:a70348098", "current_trial": 137, "dateTime": 1664368555356, "trialdata": {"rt": 761, "stimulus": "<p id='stroop-text' class='stroop-green'>BLUE</p>", "response": "g", "stimulus-type": "incongruent", "word": "blue", "color": "green", "correct_response": "g", "trial_id": "stroop-trial-1-incongruent-8", "trial_type": "html-keyboard-response", "trial_index": 137, "time_elapsed": 630378, "internal_node_id": "0.0-6.0-42.0"}}, {"uniqueid": "w46833843:a70348098", "current_trial": 138, "dateTime": 1664368556714, "trialdata": {"rt": 850, "stimulus": "<p id='stroop-text' class='stroop-yellow'>BLUE</p>", "response": "y", "stimulus-type": "incongruent", "word": "blue", "color": "yellow", "correct_response": "y", "trial_id": "stroop-trial-1-incongruent-12", "trial_type": "html-keyboard-response", "trial_index": 138, "time_elapsed": 631736, "internal_node_id": "0.0-6.0-43.0"}}, {"uniqueid": "w46833843:a70348098", "current_trial": 139, "dateTime": 1664368557917, "trialdata": {"rt": 699, "stimulus": "<p id='stroop-text' class='stroop-yellow'>BRAIN</p>", "response": "y", "stimulus-type": "unrelated", "word": "BRAIN", "color": "yellow", "correct_response": "y", "trial_id": "stroop-trial-1-unrelated-21", "trial_type": "html-keyboard-response", "trial_index": 139, "time_elapsed": 632940, "internal_node_id": "0.0-6.0-44.0"}}, {"uniqueid": "w46833843:a70348098", "current_trial": 140, "dateTime": 1664368559258, "trialdata": {"rt": 829, "stimulus": "<p id='stroop-text' class='stroop-green'>WINDOW</p>", "response": "g", "stimulus-type": "unrelated", "word": "WINDOW", "color": "green", "correct_response": "g", "trial_id": "stroop-trial-1-unrelated-14", "trial_type": "html-keyboard-response", "trial_index": 140, "time_elapsed": 634280, "internal_node_id": "0.0-6.0-45.0"}}, {"uniqueid": "w46833843:a70348098", "current_trial": 141, "dateTime": 1664368560462, "trialdata": {"rt": 689, "stimulus": "<p id='stroop-text' class='stroop-yellow'>YELLOW</p>", "response": "y", "stimulus-type": "congruent", "word": "yellow", "color": "yellow", "correct_response": "y", "trial_id": "stroop-trial-1-congruent-6", "trial_type": "html-keyboard-response", "trial_index": 141, "time_elapsed": 635485, "internal_node_id": "0.0-6.0-46.0"}}, {"uniqueid": "w46833843:a70348098", "current_trial": 142, "dateTime": 1664368561658, "trialdata": {"rt": 684, "stimulus": "<p id='stroop-text' class='stroop-blue'>BOTTLE</p>", "response": "b", "stimulus-type": "unrelated", "word": "BOTTLE", "color": "blue", "correct_response": "b", "trial_id": "stroop-trial-1-unrelated-29", "trial_type": "html-keyboard-response", "trial_index": 142, "time_elapsed": 636681, "internal_node_id": "0.0-6.0-47.0"}}, {"uniqueid": "w46833843:a70348098", "current_trial": 143, "dateTime": 1664368562849, "trialdata": {"rt": 679, "stimulus": "<p id='stroop-text' class='stroop-red'>STONE</p>", "response": "r", "stimulus-type": "unrelated", "word": "STONE", "color": "red", "correct_response": "r", "trial_id": "stroop-trial-1-unrelated-16", "trial_type": "html-keyboard-response", "trial_index": 143, "time_elapsed": 637872, "internal_node_id": "0.0-6.0-48.0"}}, {"uniqueid": "w46833843:a70348098", "current_trial": 144, "dateTime": 1664368564020, "trialdata": {"rt": 662, "stimulus": "<p id='stroop-text' class='stroop-yellow'>YELLOW</p>", "response": "y", "stimulus-type": "congruent", "word": "yellow", "color": "yellow", "correct_response": "y", "trial_id": "stroop-trial-1-congruent-26", "trial_type": "html-keyboard-response", "trial_index": 144, "time_elapsed": 639042, "internal_node_id": "0.0-6.0-49.0"}}, {"uniqueid": "w46833843:a70348098", "current_trial": 145, "dateTime": 1664368565260, "trialdata": {"rt": 727, "stimulus": "<p id='stroop-text' class='stroop-green'>GREEN</p>", "response": "g", "stimulus-type": "congruent", "word": "green", "color": "green", "correct_response": "g", "trial_id": "stroop-trial-1-congruent-22", "trial_type": "html-keyboard-response", "trial_index": 145, "time_elapsed": 640282, "internal_node_id": "0.0-6.0-50.0"}}, {"uniqueid": "w46833843:a70348098", "current_trial": 146, "dateTime": 1664368566480, "trialdata": {"rt": 714, "stimulus": "<p id='stroop-text' class='stroop-yellow'>BLUE</p>", "response": "y", "stimulus-type": "incongruent", "word": "blue", "color": "yellow", "correct_response": "y", "trial_id": "stroop-trial-1-incongruent-19", "trial_type": "html-keyboard-response", "trial_index": 146, "time_elapsed": 641502, "internal_node_id": "0.0-6.0-51.0"}}, {"uniqueid": "w46833843:a70348098", "current_trial": 147, "dateTime": 1664368567617, "trialdata": {"rt": 612, "stimulus": "<p id='stroop-text' class='stroop-yellow'>YELLOW</p>", "response": "y", "stimulus-type": "congruent", "word": "yellow", "color": "yellow", "correct_response": "y", "trial_id": "stroop-trial-1-congruent-8", "trial_type": "html-keyboard-response", "trial_index": 147, "time_elapsed": 642639, "internal_node_id": "0.0-6.0-52.0"}}, {"uniqueid": "w46833843:a70348098", "current_trial": 148, "dateTime": 1664368568975, "trialdata": {"rt": 845, "stimulus": "<p id='stroop-text' class='stroop-red'>RED</p>", "response": "r", "stimulus-type": "congruent", "word": "red", "color": "red", "correct_response": "r", "trial_id": "stroop-trial-1-congruent-1", "trial_type": "html-keyboard-response", "trial_index": 148, "time_elapsed": 643998, "internal_node_id": "0.0-6.0-53.0"}}, {"uniqueid": "w46833843:a70348098", "current_trial": 149, "dateTime": 1664368570178, "trialdata": {"rt": 697, "stimulus": "<p id='stroop-text' class='stroop-yellow'>WINDOW</p>", "response": "y", "stimulus-type": "unrelated", "word": "WINDOW", "color": "yellow", "correct_response": "y", "trial_id": "stroop-trial-1-unrelated-1", "trial_type": "html-keyboard-response", "trial_index": 149, "time_elapsed": 645201, "internal_node_id": "0.0-6.0-54.0"}}, {"uniqueid": "w46833843:a70348098", "current_trial": 150, "dateTime": 1664368571456, "trialdata": {"rt": 768, "stimulus": "<p id='stroop-text' class='stroop-yellow'>BOTTLE</p>", "response": "y", "stimulus-type": "unrelated", "word": "BOTTLE", "color": "yellow", "correct_response": "y", "trial_id": "stroop-trial-1-unrelated-26", "trial_type": "html-keyboard-response", "trial_index": 150, "time_elapsed": 646478, "internal_node_id": "0.0-6.0-55.0"}}, {"uniqueid": "w46833843:a70348098", "current_trial": 151, "dateTime": 1664368572630, "trialdata": {"rt": 663, "stimulus": "<p id='stroop-text' class='stroop-yellow'>BRAIN</p>", "response": "y", "stimulus-type": "unrelated", "word": "BRAIN", "color": "yellow", "correct_response": "y", "trial_id": "stroop-trial-1-unrelated-22", "trial_type": "html-keyboard-response", "trial_index": 151, "time_elapsed": 647653, "internal_node_id": "0.0-6.0-56.0"}}, {"uniqueid": "w46833843:a70348098", "current_trial": 152, "dateTime": 1664368573794, "trialdata": {"rt": 655, "stimulus": "<p id='stroop-text' class='stroop-green'>RED</p>", "response": "g", "stimulus-type": "incongruent", "word": "red", "color": "green", "correct_response": "g", "trial_id": "stroop-trial-1-incongruent-5", "trial_type": "html-keyboard-response", "trial_index": 152, "time_elapsed": 648816, "internal_node_id": "0.0-6.0-57.0"}}, {"uniqueid": "w46833843:a70348098", "current_trial": 153, "dateTime": 1664368574873, "trialdata": {"rt": 563, "stimulus": "<p id='stroop-text' class='stroop-red'>RED</p>", "response": "r", "stimulus-type": "congruent", "word": "red", "color": "red", "correct_response": "r", "trial_id": "stroop-trial-1-congruent-27", "trial_type": "html-keyboard-response", "trial_index": 153, "time_elapsed": 649895, "internal_node_id": "0.0-6.0-58.0"}}, {"uniqueid": "w46833843:a70348098", "current_trial": 154, "dateTime": 1664368576146, "trialdata": {"rt": 760, "stimulus": "<p id='stroop-text' class='stroop-green'>BLUE</p>", "response": "g", "stimulus-type": "incongruent", "word": "blue", "color": "green", "correct_response": "g", "trial_id": "stroop-trial-1-incongruent-17", "trial_type": "html-keyboard-response", "trial_index": 154, "time_elapsed": 651169, "internal_node_id": "0.0-6.0-59.0"}}, {"uniqueid": "w46833843:a70348098", "current_trial": 155, "dateTime": 1664368577256, "trialdata": {"rt": 597, "stimulus": "<p id='stroop-text' class='stroop-yellow'>GREEN</p>", "response": "r", "stimulus-type": "incongruent", "word": "green", "color": "yellow", "correct_response": "y", "trial_id": "stroop-trial-1-incongruent-24", "trial_type": "html-keyboard-response", "trial_index": 155, "time_elapsed": 652279, "internal_node_id": "0.0-6.0-60.0"}}, {"uniqueid": "w46833843:a70348098", "current_trial": 156, "dateTime": 1664368578762, "trialdata": {"rt": 991, "stimulus": "<p id='stroop-text' class='stroop-blue'>YELLOW</p>", "response": "b", "stimulus-type": "incongruent", "word": "yellow", "color": "blue", "correct_response": "b", "trial_id": "stroop-trial-1-incongruent-11", "trial_type": "html-keyboard-response", "trial_index": 156, "time_elapsed": 653784, "internal_node_id": "0.0-6.0-61.0"}}, {"uniqueid": "w46833843:a70348098", "current_trial": 157, "dateTime": 1664368579879, "trialdata": {"rt": 610, "stimulus": "<p id='stroop-text' class='stroop-blue'>BLUE</p>", "response": "b", "stimulus-type": "congruent", "word": "blue", "color": "blue", "correct_response": "b", "trial_id": "stroop-trial-1-congruent-30", "trial_type": "html-keyboard-response", "trial_index": 157, "time_elapsed": 654902, "internal_node_id": "0.0-6.0-62.0"}}, {"uniqueid": "w46833843:a70348098", "current_trial": 158, "dateTime": 1664368581506, "trialdata": {"rt": 1110, "stimulus": "<p id='stroop-text' class='stroop-yellow'>FORK</p>", "response": "y", "stimulus-type": "unrelated", "word": "FORK", "color": "yellow", "correct_response": "y", "trial_id": "stroop-trial-1-unrelated-20", "trial_type": "html-keyboard-response", "trial_index": 158, "time_elapsed": 656529, "internal_node_id": "0.0-6.0-63.0"}}, {"uniqueid": "w46833843:a70348098", "current_trial": 159, "dateTime": 1664368583323, "trialdata": {"rt": 1297, "stimulus": "<p id='stroop-text' class='stroop-blue'>BRAIN</p>", "response": "b", "stimulus-type": "unrelated", "word": "BRAIN", "color": "blue", "correct_response": "b", "trial_id": "stroop-trial-1-unrelated-4", "trial_type": "html-keyboard-response", "trial_index": 159, "time_elapsed": 658345, "internal_node_id": "0.0-6.0-64.0"}}, {"uniqueid": "w46833843:a70348098", "current_trial": 160, "dateTime": 1664368584527, "trialdata": {"rt": 689, "stimulus": "<p id='stroop-text' class='stroop-yellow'>YELLOW</p>", "response": "y", "stimulus-type": "congruent", "word": "yellow", "color": "yellow", "correct_response": "y", "trial_id": "stroop-trial-1-congruent-12", "trial_type": "html-keyboard-response", "trial_index": 160, "time_elapsed": 659549, "internal_node_id": "0.0-6.0-65.0"}}, {"uniqueid": "w46833843:a70348098", "current_trial": 161, "dateTime": 1664368585887, "trialdata": {"rt": 846, "stimulus": "<p id='stroop-text' class='stroop-blue'>BLUE</p>", "response": "b", "stimulus-type": "congruent", "word": "blue", "color": "blue", "correct_response": "b", "trial_id": "stroop-trial-1-congruent-9", "trial_type": "html-keyboard-response", "trial_index": 161, "time_elapsed": 660910, "internal_node_id": "0.0-6.0-66.0"}}, {"uniqueid": "w46833843:a70348098", "current_trial": 162, "dateTime": 1664368587332, "trialdata": {"rt": 933, "stimulus": "<p id='stroop-text' class='stroop-blue'>GREEN</p>", "response": "g", "stimulus-type": "incongruent", "word": "green", "color": "blue", "correct_response": "b", "trial_id": "stroop-trial-1-incongruent-26", "trial_type": "html-keyboard-response", "trial_index": 162, "time_elapsed": 662354, "internal_node_id": "0.0-6.0-67.0"}}, {"uniqueid": "w46833843:a70348098", "current_trial": 163, "dateTime": 1664368589451, "trialdata": {"rt": 1607, "stimulus": "<p id='stroop-text' class='stroop-green'>BLUE</p>", "response": "g", "stimulus-type": "incongruent", "word": "blue", "color": "green", "correct_response": "g", "trial_id": "stroop-trial-1-incongruent-6", "trial_type": "html-keyboard-response", "trial_index": 163, "time_elapsed": 664474, "internal_node_id": "0.0-6.0-68.0"}}, {"uniqueid": "w46833843:a70348098", "current_trial": 164, "dateTime": 1664368590873, "trialdata": {"rt": 904, "stimulus": "<p id='stroop-text' class='stroop-blue'>MONKEY</p>", "response": "b", "stimulus-type": "unrelated", "word": "MONKEY", "color": "blue", "correct_response": "b", "trial_id": "stroop-trial-1-unrelated-17", "trial_type": "html-keyboard-response", "trial_index": 164, "time_elapsed": 665895, "internal_node_id": "0.0-6.0-69.0"}}, {"uniqueid": "w46833843:a70348098", "current_trial": 165, "dateTime": 1664368592406, "trialdata": {"rt": 1025, "stimulus": "<p id='stroop-text' class='stroop-red'>RED</p>", "response": "r", "stimulus-type": "congruent", "word": "red", "color": "red", "correct_response": "r", "trial_id": "stroop-trial-1-congruent-21", "trial_type": "html-keyboard-response", "trial_index": 165, "time_elapsed": 667428, "internal_node_id": "0.0-6.0-70.0"}}, {"uniqueid": "w46833843:a70348098", "current_trial": 166, "dateTime": 1664368593614, "trialdata": {"rt": 700, "stimulus": "<p id='stroop-text' class='stroop-yellow'>YELLOW</p>", "response": "y", "stimulus-type": "congruent", "word": "yellow", "color": "yellow", "correct_response": "y", "trial_id": "stroop-trial-1-congruent-10", "trial_type": "html-keyboard-response", "trial_index": 166, "time_elapsed": 668637, "internal_node_id": "0.0-6.0-71.0"}}, {"uniqueid": "w46833843:a70348098", "current_trial": 167, "dateTime": 1664368594904, "trialdata": {"rt": 783, "stimulus": "<p id='stroop-text' class='stroop-blue'>BLUE</p>", "response": "b", "stimulus-type": "congruent", "word": "blue", "color": "blue", "correct_response": "b", "trial_id": "stroop-trial-1-congruent-15", "trial_type": "html-keyboard-response", "trial_index": 167, "time_elapsed": 669926, "internal_node_id": "0.0-6.0-72.0"}}, {"uniqueid": "w46833843:a70348098", "current_trial": 168, "dateTime": 1664368596461, "trialdata": {"rt": 1042, "stimulus": "<p id='stroop-text' class='stroop-red'>BLUE</p>", "response": "r", "stimulus-type": "incongruent", "word": "blue", "color": "red", "correct_response": "r", "trial_id": "stroop-trial-1-incongruent-9", "trial_type": "html-keyboard-response", "trial_index": 168, "time_elapsed": 671483, "internal_node_id": "0.0-6.0-73.0"}}, {"uniqueid": "w46833843:a70348098", "current_trial": 169, "dateTime": 1664368597864, "trialdata": {"rt": 892, "stimulus": "<p id='stroop-text' class='stroop-blue'>RED</p>", "response": "b", "stimulus-type": "incongruent", "word": "red", "color": "blue", "correct_response": "b", "trial_id": "stroop-trial-1-incongruent-28", "trial_type": "html-keyboard-response", "trial_index": 169, "time_elapsed": 672886, "internal_node_id": "0.0-6.0-74.0"}}, {"uniqueid": "w46833843:a70348098", "current_trial": 170, "dateTime": 1664368599230, "trialdata": {"rt": 859, "stimulus": "<p id='stroop-text' class='stroop-red'>RED</p>", "response": "r", "stimulus-type": "congruent", "word": "red", "color": "red", "correct_response": "r", "trial_id": "stroop-trial-1-congruent-18", "trial_type": "html-keyboard-response", "trial_index": 170, "time_elapsed": 674252, "internal_node_id": "0.0-6.0-75.0"}}, {"uniqueid": "w46833843:a70348098", "current_trial": 171, "dateTime": 1664368600575, "trialdata": {"rt": 835, "stimulus": "<p id='stroop-text' class='stroop-green'>SHIP</p>", "response": "g", "stimulus-type": "unrelated", "word": "SHIP", "color": "green", "correct_response": "g", "trial_id": "stroop-trial-1-unrelated-7", "trial_type": "html-keyboard-response", "trial_index": 171, "time_elapsed": 675597, "internal_node_id": "0.0-6.0-76.0"}}, {"uniqueid": "w46833843:a70348098", "current_trial": 172, "dateTime": 1664368602116, "trialdata": {"rt": 1026, "stimulus": "<p id='stroop-text' class='stroop-red'>RED</p>", "response": "r", "stimulus-type": "congruent", "word": "red", "color": "red", "correct_response": "r", "trial_id": "stroop-trial-1-congruent-3", "trial_type": "html-keyboard-response", "trial_index": 172, "time_elapsed": 677138, "internal_node_id": "0.0-6.0-77.0"}}, {"uniqueid": "w46833843:a70348098", "current_trial": 173, "dateTime": 1664368603763, "trialdata": {"rt": 1133, "stimulus": "<p id='stroop-text' class='stroop-green'>GREEN</p>", "response": "g", "stimulus-type": "congruent", "word": "green", "color": "green", "correct_response": "g", "trial_id": "stroop-trial-1-congruent-14", "trial_type": "html-keyboard-response", "trial_index": 173, "time_elapsed": 678786, "internal_node_id": "0.0-6.0-78.0"}}, {"uniqueid": "w46833843:a70348098", "current_trial": 174, "dateTime": 1664368605036, "trialdata": {"rt": 766, "stimulus": "<p id='stroop-text' class='stroop-green'>BOTTLE</p>", "response": "g", "stimulus-type": "unrelated", "word": "BOTTLE", "color": "green", "correct_response": "g", "trial_id": "stroop-trial-1-unrelated-8", "trial_type": "html-keyboard-response", "trial_index": 174, "time_elapsed": 680058, "internal_node_id": "0.0-6.0-79.0"}}, {"uniqueid": "w46833843:a70348098", "current_trial": 175, "dateTime": 1664368606330, "trialdata": {"rt": 780, "stimulus": "<p id='stroop-text' class='stroop-red'>RED</p>", "response": "r", "stimulus-type": "congruent", "word": "red", "color": "red", "correct_response": "r", "trial_id": "stroop-trial-1-congruent-16", "trial_type": "html-keyboard-response", "trial_index": 175, "time_elapsed": 681352, "internal_node_id": "0.0-6.0-80.0"}}, {"uniqueid": "w46833843:a70348098", "current_trial": 176, "dateTime": 1664368607484, "trialdata": {"rt": 643, "stimulus": "<p id='stroop-text' class='stroop-yellow'>YELLOW</p>", "response": "y", "stimulus-type": "congruent", "word": "yellow", "color": "yellow", "correct_response": "y", "trial_id": "stroop-trial-1-congruent-4", "trial_type": "html-keyboard-response", "trial_index": 176, "time_elapsed": 682506, "internal_node_id": "0.0-6.0-81.0"}}, {"uniqueid": "w46833843:a70348098", "current_trial": 177, "dateTime": 1664368608775, "trialdata": {"rt": 777, "stimulus": "<p id='stroop-text' class='stroop-yellow'>BLUE</p>", "response": "y", "stimulus-type": "incongruent", "word": "blue", "color": "yellow", "correct_response": "y", "trial_id": "stroop-trial-1-incongruent-22", "trial_type": "html-keyboard-response", "trial_index": 177, "time_elapsed": 683797, "internal_node_id": "0.0-6.0-82.0"}}, {"uniqueid": "w46833843:a70348098", "current_trial": 178, "dateTime": 1664368610221, "trialdata": {"rt": 932, "stimulus": "<p id='stroop-text' class='stroop-blue'>GREEN</p>", "response": "b", "stimulus-type": "incongruent", "word": "green", "color": "blue", "correct_response": "b", "trial_id": "stroop-trial-1-incongruent-2", "trial_type": "html-keyboard-response", "trial_index": 178, "time_elapsed": 685243, "internal_node_id": "0.0-6.0-83.0"}}, {"uniqueid": "w46833843:a70348098", "current_trial": 179, "dateTime": 1664368611635, "trialdata": {"rt": 905, "stimulus": "<p id='stroop-text' class='stroop-blue'>MONKEY</p>", "response": "b", "stimulus-type": "unrelated", "word": "MONKEY", "color": "blue", "correct_response": "b", "trial_id": "stroop-trial-1-unrelated-24", "trial_type": "html-keyboard-response", "trial_index": 179, "time_elapsed": 686657, "internal_node_id": "0.0-6.0-84.0"}}, {"uniqueid": "w46833843:a70348098", "current_trial": 180, "dateTime": 1664368613101, "trialdata": {"rt": 952, "stimulus": "<p id='stroop-text' class='stroop-red'>RED</p>", "response": "r", "stimulus-type": "congruent", "word": "red", "color": "red", "correct_response": "r", "trial_id": "stroop-trial-1-congruent-24", "trial_type": "html-keyboard-response", "trial_index": 180, "time_elapsed": 688124, "internal_node_id": "0.0-6.0-85.0"}}, {"uniqueid": "w46833843:a70348098", "current_trial": 181, "dateTime": 1664368614539, "trialdata": {"rt": 925, "stimulus": "<p id='stroop-text' class='stroop-red'>YELLOW</p>", "response": "r", "stimulus-type": "incongruent", "word": "yellow", "color": "red", "correct_response": "r", "trial_id": "stroop-trial-1-incongruent-20", "trial_type": "html-keyboard-response", "trial_index": 181, "time_elapsed": 689562, "internal_node_id": "0.0-6.0-86.0"}}, {"uniqueid": "w46833843:a70348098", "current_trial": 182, "dateTime": 1664368615822, "trialdata": {"rt": 772, "stimulus": "<p id='stroop-text' class='stroop-red'>STONE</p>", "response": "r", "stimulus-type": "unrelated", "word": "STONE", "color": "red", "correct_response": "r", "trial_id": "stroop-trial-1-unrelated-12", "trial_type": "html-keyboard-response", "trial_index": 182, "time_elapsed": 690844, "internal_node_id": "0.0-6.0-87.0"}}, {"uniqueid": "w46833843:a70348098", "current_trial": 183, "dateTime": 1664368617152, "trialdata": {"rt": 815, "stimulus": "<p id='stroop-text' class='stroop-yellow'>FORK</p>", "response": "y", "stimulus-type": "unrelated", "word": "FORK", "color": "yellow", "correct_response": "y", "trial_id": "stroop-trial-1-unrelated-3", "trial_type": "html-keyboard-response", "trial_index": 183, "time_elapsed": 692175, "internal_node_id": "0.0-6.0-88.0"}}, {"uniqueid": "w46833843:a70348098", "current_trial": 184, "dateTime": 1664368618470, "trialdata": {"rt": 802, "stimulus": "<p id='stroop-text' class='stroop-yellow'>BLUE</p>", "response": "y", "stimulus-type": "incongruent", "word": "blue", "color": "yellow", "correct_response": "y", "trial_id": "stroop-trial-1-incongruent-1", "trial_type": "html-keyboard-response", "trial_index": 184, "time_elapsed": 693492, "internal_node_id": "0.0-6.0-89.0"}}, {"uniqueid": "w46833843:a70348098", "current_trial": 185, "dateTime": 1664368665002, "trialdata": {"rt": 46025, "stimulus": "  <h1> End of block! </h1>\n\n  You have reached the end of the block 2/5. If you need a short break, feel free to take one now before moving on.\n\n  <br><br>\n  In the next block, you will complete another 90 rounds of this game.\n\n  <br><br>\n  <div style='text-align: center;'>Press <code>space</code> to begin.</div>\n  <br><br>\n<div style='text-align: center;'>(If the experiment doesn't continue, try clicking on the text and then pressing <code>space</code>.)</div>", "response": " ", "trial_id": "stroop_1_ready_3", "trial_type": "html-keyboard-response", "trial_index": 185, "time_elapsed": 740025, "internal_node_id": "0.0-7.0"}}, {"uniqueid": "w46833843:a70348098", "current_trial": 186, "dateTime": 1664368666151, "trialdata": {"rt": 1138, "stimulus": "<p id='stroop-text' class='stroop-red'>SHIP</p>", "response": "r", "stimulus-type": "unrelated", "word": "SHIP", "color": "red", "correct_response": "r", "trial_id": "stroop-trial-1-unrelated-26", "trial_type": "html-keyboard-response", "trial_index": 186, "time_elapsed": 741174, "internal_node_id": "0.0-8.0-0.0"}}, {"uniqueid": "w46833843:a70348098", "current_trial": 187, "dateTime": 1664368667431, "trialdata": {"rt": 774, "stimulus": "<p id='stroop-text' class='stroop-green'>SHIP</p>", "response": "g", "stimulus-type": "unrelated", "word": "SHIP", "color": "green", "correct_response": "g", "trial_id": "stroop-trial-1-unrelated-3", "trial_type": "html-keyboard-response", "trial_index": 187, "time_elapsed": 742454, "internal_node_id": "0.0-8.0-1.0"}}, {"uniqueid": "w46833843:a70348098", "current_trial": 188, "dateTime": 1664368668584, "trialdata": {"rt": 638, "stimulus": "<p id='stroop-text' class='stroop-green'>RED</p>", "response": "g", "stimulus-type": "incongruent", "word": "red", "color": "green", "correct_response": "g", "trial_id": "stroop-trial-1-incongruent-1", "trial_type": "html-keyboard-response", "trial_index": 188, "time_elapsed": 743606, "internal_node_id": "0.0-8.0-2.0"}}, {"uniqueid": "w46833843:a70348098", "current_trial": 189, "dateTime": 1664368669871, "trialdata": {"rt": 776, "stimulus": "<p id='stroop-text' class='stroop-blue'>WINDOW</p>", "response": "b", "stimulus-type": "unrelated", "word": "WINDOW", "color": "blue", "correct_response": "b", "trial_id": "stroop-trial-1-unrelated-22", "trial_type": "html-keyboard-response", "trial_index": 189, "time_elapsed": 744893, "internal_node_id": "0.0-8.0-3.0"}}, {"uniqueid": "w46833843:a70348098", "current_trial": 190, "dateTime": 1664368671159, "trialdata": {"rt": 779, "stimulus": "<p id='stroop-text' class='stroop-yellow'>SHIP</p>", "response": "y", "stimulus-type": "unrelated", "word": "SHIP", "color": "yellow", "correct_response": "y", "trial_id": "stroop-trial-1-unrelated-11", "trial_type": "html-keyboard-response", "trial_index": 190, "time_elapsed": 746182, "internal_node_id": "0.0-8.0-4.0"}}, {"uniqueid": "w46833843:a70348098", "current_trial": 191, "dateTime": 1664368672510, "trialdata": {"rt": 839, "stimulus": "<p id='stroop-text' class='stroop-green'>CHAIR</p>", "response": "g", "stimulus-type": "unrelated", "word": "CHAIR", "color": "green", "correct_response": "g", "trial_id": "stroop-trial-1-unrelated-17", "trial_type": "html-keyboard-response", "trial_index": 191, "time_elapsed": 747532, "internal_node_id": "0.0-8.0-5.0"}}, {"uniqueid": "w46833843:a70348098", "current_trial": 192, "dateTime": 1664368673646, "trialdata": {"rt": 630, "stimulus": "<p id='stroop-text' class='stroop-yellow'>RED</p>", "response": "y", "stimulus-type": "incongruent", "word": "red", "color": "yellow", "correct_response": "y", "trial_id": "stroop-trial-1-incongruent-27", "trial_type": "html-keyboard-response", "trial_index": 192, "time_elapsed": 748669, "internal_node_id": "0.0-8.0-6.0"}}, {"uniqueid": "w46833843:a70348098", "current_trial": 193, "dateTime": 1664368674737, "trialdata": {"rt": 584, "stimulus": "<p id='stroop-text' class='stroop-yellow'>YELLOW</p>", "response": "y", "stimulus-type": "congruent", "word": "yellow", "color": "yellow", "correct_response": "y", "trial_id": "stroop-trial-1-congruent-29", "trial_type": "html-keyboard-response", "trial_index": 193, "time_elapsed": 749759, "internal_node_id": "0.0-8.0-7.0"}}, {"uniqueid": "w46833843:a70348098", "current_trial": 194, "dateTime": 1664368676227, "trialdata": {"rt": 980, "stimulus": "<p id='stroop-text' class='stroop-red'>GREEN</p>", "response": "r", "stimulus-type": "incongruent", "word": "green", "color": "red", "correct_response": "r", "trial_id": "stroop-trial-1-incongruent-16", "trial_type": "html-keyboard-response", "trial_index": 194, "time_elapsed": 751250, "internal_node_id": "0.0-8.0-8.0"}}, {"uniqueid": "w46833843:a70348098", "current_trial": 195, "dateTime": 1664368677547, "trialdata": {"rt": 808, "stimulus": "<p id='stroop-text' class='stroop-blue'>BLUE</p>", "response": "b", "stimulus-type": "congruent", "word": "blue", "color": "blue", "correct_response": "b", "trial_id": "stroop-trial-1-congruent-2", "trial_type": "html-keyboard-response", "trial_index": 195, "time_elapsed": 752569, "internal_node_id": "0.0-8.0-9.0"}}, {"uniqueid": "w46833843:a70348098", "current_trial": 196, "dateTime": 1664368678717, "trialdata": {"rt": 660, "stimulus": "<p id='stroop-text' class='stroop-blue'>BRIDGE</p>", "response": "b", "stimulus-type": "unrelated", "word": "BRIDGE", "color": "blue", "correct_response": "b", "trial_id": "stroop-trial-1-unrelated-16", "trial_type": "html-keyboard-response", "trial_index": 196, "time_elapsed": 753739, "internal_node_id": "0.0-8.0-10.0"}}, {"uniqueid": "w46833843:a70348098", "current_trial": 197, "dateTime": 1664368679707, "trialdata": {"rt": 476, "stimulus": "<p id='stroop-text' class='stroop-blue'>MONKEY</p>", "response": "b", "stimulus-type": "unrelated", "word": "MONKEY", "color": "blue", "correct_response": "b", "trial_id": "stroop-trial-1-unrelated-9", "trial_type": "html-keyboard-response", "trial_index": 197, "time_elapsed": 754729, "internal_node_id": "0.0-8.0-11.0"}}, {"uniqueid": "w46833843:a70348098", "current_trial": 198, "dateTime": 1664368680924, "trialdata": {"rt": 705, "stimulus": "<p id='stroop-text' class='stroop-yellow'>RED</p>", "response": "y", "stimulus-type": "incongruent", "word": "red", "color": "yellow", "correct_response": "y", "trial_id": "stroop-trial-1-incongruent-13", "trial_type": "html-keyboard-response", "trial_index": 198, "time_elapsed": 755946, "internal_node_id": "0.0-8.0-12.0"}}, {"uniqueid": "w46833843:a70348098", "current_trial": 199, "dateTime": 1664368682211, "trialdata": {"rt": 776, "stimulus": "<p id='stroop-text' class='stroop-blue'>YELLOW</p>", "response": "b", "stimulus-type": "incongruent", "word": "yellow", "color": "blue", "correct_response": "b", "trial_id": "stroop-trial-1-incongruent-26", "trial_type": "html-keyboard-response", "trial_index": 199, "time_elapsed": 757233, "internal_node_id": "0.0-8.0-13.0"}}, {"uniqueid": "w46833843:a70348098", "current_trial": 200, "dateTime": 1664368683562, "trialdata": {"rt": 840, "stimulus": "<p id='stroop-text' class='stroop-yellow'>BRAIN</p>", "response": "y", "stimulus-type": "unrelated", "word": "BRAIN", "color": "yellow", "correct_response": "y", "trial_id": "stroop-trial-1-unrelated-12", "trial_type": "html-keyboard-response", "trial_index": 200, "time_elapsed": 758585, "internal_node_id": "0.0-8.0-14.0"}}, {"uniqueid": "w46833843:a70348098", "current_trial": 201, "dateTime": 1664368684877, "trialdata": {"rt": 803, "stimulus": "<p id='stroop-text' class='stroop-red'>RED</p>", "response": "r", "stimulus-type": "congruent", "word": "red", "color": "red", "correct_response": "r", "trial_id": "stroop-trial-1-congruent-13", "trial_type": "html-keyboard-response", "trial_index": 201, "time_elapsed": 759900, "internal_node_id": "0.0-8.0-15.0"}}, {"uniqueid": "w46833843:a70348098", "current_trial": 202, "dateTime": 1664368686190, "trialdata": {"rt": 802, "stimulus": "<p id='stroop-text' class='stroop-red'>YELLOW</p>", "response": "r", "stimulus-type": "incongruent", "word": "yellow", "color": "red", "correct_response": "r", "trial_id": "stroop-trial-1-incongruent-30", "trial_type": "html-keyboard-response", "trial_index": 202, "time_elapsed": 761212, "internal_node_id": "0.0-8.0-16.0"}}, {"uniqueid": "w46833843:a70348098", "current_trial": 203, "dateTime": 1664368687533, "trialdata": {"rt": 825, "stimulus": "<p id='stroop-text' class='stroop-blue'>DOG</p>", "response": "b", "stimulus-type": "unrelated", "word": "DOG", "color": "blue", "correct_response": "b", "trial_id": "stroop-trial-1-unrelated-2", "trial_type": "html-keyboard-response", "trial_index": 203, "time_elapsed": 762555, "internal_node_id": "0.0-8.0-17.0"}}, {"uniqueid": "w46833843:a70348098", "current_trial": 204, "dateTime": 1664368688682, "trialdata": {"rt": 636, "stimulus": "<p id='stroop-text' class='stroop-green'>YELLOW</p>", "response": "g", "stimulus-type": "incongruent", "word": "yellow", "color": "green", "correct_response": "g", "trial_id": "stroop-trial-1-incongruent-25", "trial_type": "html-keyboard-response", "trial_index": 204, "time_elapsed": 763705, "internal_node_id": "0.0-8.0-18.0"}}, {"uniqueid": "w46833843:a70348098", "current_trial": 205, "dateTime": 1664368689803, "trialdata": {"rt": 613, "stimulus": "<p id='stroop-text' class='stroop-blue'>BLUE</p>", "response": "b", "stimulus-type": "congruent", "word": "blue", "color": "blue", "correct_response": "b", "trial_id": "stroop-trial-1-congruent-10", "trial_type": "html-keyboard-response", "trial_index": 205, "time_elapsed": 764826, "internal_node_id": "0.0-8.0-19.0"}}, {"uniqueid": "w46833843:a70348098", "current_trial": 206, "dateTime": 1664368691026, "trialdata": {"rt": 710, "stimulus": "<p id='stroop-text' class='stroop-red'>BRAIN</p>", "response": "r", "stimulus-type": "unrelated", "word": "BRAIN", "color": "red", "correct_response": "r", "trial_id": "stroop-trial-1-unrelated-6", "trial_type": "html-keyboard-response", "trial_index": 206, "time_elapsed": 766049, "internal_node_id": "0.0-8.0-20.0"}}, {"uniqueid": "w46833843:a70348098", "current_trial": 207, "dateTime": 1664368692527, "trialdata": {"rt": 994, "stimulus": "<p id='stroop-text' class='stroop-red'>BRAIN</p>", "response": "r", "stimulus-type": "unrelated", "word": "BRAIN", "color": "red", "correct_response": "r", "trial_id": "stroop-trial-1-unrelated-8", "trial_type": "html-keyboard-response", "trial_index": 207, "time_elapsed": 767550, "internal_node_id": "0.0-8.0-21.0"}}, {"uniqueid": "w46833843:a70348098", "current_trial": 208, "dateTime": 1664368693639, "trialdata": {"rt": 603, "stimulus": "<p id='stroop-text' class='stroop-blue'>RED</p>", "response": "b", "stimulus-type": "incongruent", "word": "red", "color": "blue", "correct_response": "b", "trial_id": "stroop-trial-1-incongruent-21", "trial_type": "html-keyboard-response", "trial_index": 208, "time_elapsed": 768661, "internal_node_id": "0.0-8.0-22.0"}}, {"uniqueid": "w46833843:a70348098", "current_trial": 209, "dateTime": 1664368694745, "trialdata": {"rt": 599, "stimulus": "<p id='stroop-text' class='stroop-blue'>DOG</p>", "response": "b", "stimulus-type": "unrelated", "word": "DOG", "color": "blue", "correct_response": "b", "trial_id": "stroop-trial-1-unrelated-10", "trial_type": "html-keyboard-response", "trial_index": 209, "time_elapsed": 769767, "internal_node_id": "0.0-8.0-23.0"}}, {"uniqueid": "w46833843:a70348098", "current_trial": 210, "dateTime": 1664368696108, "trialdata": {"rt": 846, "stimulus": "<p id='stroop-text' class='stroop-blue'>GREEN</p>", "response": "b", "stimulus-type": "incongruent", "word": "green", "color": "blue", "correct_response": "b", "trial_id": "stroop-trial-1-incongruent-18", "trial_type": "html-keyboard-response", "trial_index": 210, "time_elapsed": 771130, "internal_node_id": "0.0-8.0-24.0"}}, {"uniqueid": "w46833843:a70348098", "current_trial": 211, "dateTime": 1664368697427, "trialdata": {"rt": 809, "stimulus": "<p id='stroop-text' class='stroop-yellow'>GREEN</p>", "response": "y", "stimulus-type": "incongruent", "word": "green", "color": "yellow", "correct_response": "y", "trial_id": "stroop-trial-1-incongruent-24", "trial_type": "html-keyboard-response", "trial_index": 211, "time_elapsed": 772449, "internal_node_id": "0.0-8.0-25.0"}}, {"uniqueid": "w46833843:a70348098", "current_trial": 212, "dateTime": 1664368698720, "trialdata": {"rt": 784, "stimulus": "<p id='stroop-text' class='stroop-green'>YELLOW</p>", "response": "g", "stimulus-type": "incongruent", "word": "yellow", "color": "green", "correct_response": "g", "trial_id": "stroop-trial-1-incongruent-20", "trial_type": "html-keyboard-response", "trial_index": 212, "time_elapsed": 773743, "internal_node_id": "0.0-8.0-26.0"}}, {"uniqueid": "w46833843:a70348098", "current_trial": 213, "dateTime": 1664368699977, "trialdata": {"rt": 740, "stimulus": "<p id='stroop-text' class='stroop-yellow'>BLUE</p>", "response": "y", "stimulus-type": "incongruent", "word": "blue", "color": "yellow", "correct_response": "y", "trial_id": "stroop-trial-1-incongruent-4", "trial_type": "html-keyboard-response", "trial_index": 213, "time_elapsed": 775000, "internal_node_id": "0.0-8.0-27.0"}}, {"uniqueid": "w46833843:a70348098", "current_trial": 214, "dateTime": 1664368701301, "trialdata": {"rt": 815, "stimulus": "<p id='stroop-text' class='stroop-blue'>YELLOW</p>", "response": "b", "stimulus-type": "incongruent", "word": "yellow", "color": "blue", "correct_response": "b", "trial_id": "stroop-trial-1-incongruent-12", "trial_type": "html-keyboard-response", "trial_index": 214, "time_elapsed": 776323, "internal_node_id": "0.0-8.0-28.0"}}, {"uniqueid": "w46833843:a70348098", "current_trial": 215, "dateTime": 1664368702472, "trialdata": {"rt": 664, "stimulus": "<p id='stroop-text' class='stroop-yellow'>BLUE</p>", "response": "y", "stimulus-type": "incongruent", "word": "blue", "color": "yellow", "correct_response": "y", "trial_id": "stroop-trial-1-incongruent-2", "trial_type": "html-keyboard-response", "trial_index": 215, "time_elapsed": 777495, "internal_node_id": "0.0-8.0-29.0"}}, {"uniqueid": "w46833843:a70348098", "current_trial": 216, "dateTime": 1664368703621, "trialdata": {"rt": 625, "stimulus": "<p id='stroop-text' class='stroop-green'>STONE</p>", "response": "g", "stimulus-type": "unrelated", "word": "STONE", "color": "green", "correct_response": "g", "trial_id": "stroop-trial-1-unrelated-19", "trial_type": "html-keyboard-response", "trial_index": 216, "time_elapsed": 778643, "internal_node_id": "0.0-8.0-30.0"}}, {"uniqueid": "w46833843:a70348098", "current_trial": 217, "dateTime": 1664368704881, "trialdata": {"rt": 747, "stimulus": "<p id='stroop-text' class='stroop-blue'>BOTTLE</p>", "response": "b", "stimulus-type": "unrelated", "word": "BOTTLE", "color": "blue", "correct_response": "b", "trial_id": "stroop-trial-1-unrelated-25", "trial_type": "html-keyboard-response", "trial_index": 217, "time_elapsed": 779903, "internal_node_id": "0.0-8.0-31.0"}}, {"uniqueid": "w46833843:a70348098", "current_trial": 218, "dateTime": 1664368706088, "trialdata": {"rt": 694, "stimulus": "<p id='stroop-text' class='stroop-red'>GREEN</p>", "response": "r", "stimulus-type": "incongruent", "word": "green", "color": "red", "correct_response": "r", "trial_id": "stroop-trial-1-incongruent-15", "trial_type": "html-keyboard-response", "trial_index": 218, "time_elapsed": 781110, "internal_node_id": "0.0-8.0-32.0"}}, {"uniqueid": "w46833843:a70348098", "current_trial": 219, "dateTime": 1664368707190, "trialdata": {"rt": 591, "stimulus": "<p id='stroop-text' class='stroop-red'>YELLOW</p>", "response": "r", "stimulus-type": "incongruent", "word": "yellow", "color": "red", "correct_response": "r", "trial_id": "stroop-trial-1-incongruent-6", "trial_type": "html-keyboard-response", "trial_index": 219, "time_elapsed": 782212, "internal_node_id": "0.0-8.0-33.0"}}, {"uniqueid": "w46833843:a70348098", "current_trial": 220, "dateTime": 1664368708290, "trialdata": {"rt": 586, "stimulus": "<p id='stroop-text' class='stroop-green'>BOTTLE</p>", "response": "b", "stimulus-type": "unrelated", "word": "BOTTLE", "color": "green", "correct_response": "g", "trial_id": "stroop-trial-1-unrelated-1", "trial_type": "html-keyboard-response", "trial_index": 220, "time_elapsed": 783312, "internal_node_id": "0.0-8.0-34.0"}}, {"uniqueid": "w46833843:a70348098", "current_trial": 221, "dateTime": 1664368709682, "trialdata": {"rt": 877, "stimulus": "<p id='stroop-text' class='stroop-blue'>RED</p>", "response": "b", "stimulus-type": "incongruent", "word": "red", "color": "blue", "correct_response": "b", "trial_id": "stroop-trial-1-incongruent-3", "trial_type": "html-keyboard-response", "trial_index": 221, "time_elapsed": 784704, "internal_node_id": "0.0-8.0-35.0"}}, {"uniqueid": "w46833843:a70348098", "current_trial": 222, "dateTime": 1664368710957, "trialdata": {"rt": 766, "stimulus": "<p id='stroop-text' class='stroop-red'>MONKEY</p>", "response": "r", "stimulus-type": "unrelated", "word": "MONKEY", "color": "red", "correct_response": "r", "trial_id