{"condition": 1, "counterbalance": 0, "assignmentId": "a68129849", "workerId": "w55110689", "hitId": "h60018200", "currenttrial": 137, "bonus": 0, "data": [{"uniqueid": "w55110689:a68129849", "current_trial": 0, "dateTime": 1664555083157, "trialdata": {"success": true, "trial_type": "fullscreen", "trial_index": 0, "time_elapsed": 3883, "internal_node_id": "0.0-0.0"}}, {"uniqueid": "w55110689:a68129849", "current_trial": 1, "dateTime": 1664555121421, "trialdata": {"view_history": [{"page_index": 0, "viewing_time": 38259}], "rt": 38260, "trial_id": "exp_instructions_no_distractor", "trial_type": "instructions", "trial_index": 1, "time_elapsed": 42147, "internal_node_id": "0.0-1.0"}}, {"uniqueid": "w55110689:a68129849", "current_trial": 2, "dateTime": 1664555125021, "trialdata": {"success": true, "trial_type": "fullscreen", "trial_index": 2, "time_elapsed": 45747, "internal_node_id": "0.0-2.0-0.0"}}, {"uniqueid": "w55110689:a68129849", "current_trial": 3, "dateTime": 1664555217589, "trialdata": {"view_history": [{"page_index": 0, "viewing_time": 51261}, {"page_index": 1, "viewing_time": 23113}, {"page_index": 2, "viewing_time": 10432}, {"page_index": 3, "viewing_time": 3152}, {"page_index": 4, "viewing_time": 4608}], "rt": 92566, "trial_id": "mouselab_instructions_1", "trial_type": "instructions", "trial_index": 3, "time_elapsed": 138315, "internal_node_id": "0.0-2.0-1.0"}}, {"uniqueid": "w55110689:a68129849", "current_trial": 4, "dateTime": 1664555233054, "trialdata": {"revealed_states": [], "num_clicks_accrued": [0, 0, 0, 0, 0, 0, 0, 0, 0, 0, 0, 0, 0], "stateRewards": ["", 10, 10, -10, 10, 10, 10, -10, 10, -10, 10, -10, -10], "withholdReward": false, "trial_id": "practice_1", "block": "test", "trialIndex": 0, "score": 12, "costs": 0, "simulationMode": [null, null, null], "rewards": [10, 10, -10], "path": ["0", "0", "1", "2", "3"], "rt": [2389, 2755, 2129], "actions": ["up", "up", "right"], "actionTimes": [5696, 8949, 11573], "queries": {"click": {"state": {"target": [], "time": []}, "edge": {"target": [], "time": []}}, "mouseover": {"state": {"target": ["1"], "time": [4053]}, "edge": {"target": [], "time": []}}, "mouseout": {"state": {"target": [], "time": []}, "edge": {"target": [], "time": []}}}, "displayed_time": "12.07", "trialTime": 15324, "trial_type": "mouselab-mdp", "trial_index": 4, "time_elapsed": 153779, "internal_node_id": "0.0-2.0-2.0-0.0"}}, {"uniqueid": "w55110689:a68129849", "current_trial": 5, "dateTime": 1664555241616, "trialdata": {"revealed_states": [], "num_clicks_accrued": [0, 0, 0, 0, 0, 0, 0, 0, 0, 0, 0, 0, 0], "stateRewards": ["", -10, -10, 10, 10, 10, -10, -10, -10, -10, 10, -10, -10], "withholdReward": false, "trial_id": "practice_2", "block": "test", "trialIndex": 1, "score": -8, "costs": 0, "simulationMode": [null, null, null], "rewards": [-10, 10, -10], "path": ["0", "0", "9", "10", "12"], "rt": [1006, 1225, 212], "actions": ["left", "left", "down"], "actionTimes": [3177, 4897, 5618], "queries": {"click": {"state": {"target": [], "time": []}, "edge": {"target": [], "time": []}}, "mouseover": {"state": {"target": [], "time": []}, "edge": {"target": [], "time": []}}, "mouseout": {"state": {"target": ["1"], "time": [1888]}, "edge": {"target": [], "time": []}}}, "displayed_time": "6.11", "trialTime": 8515, "trial_type": "mouselab-mdp", "trial_index": 5, "time_elapsed": 162342, "internal_node_id": "0.0-2.0-2.0-1.0"}}, {"uniqueid": "w55110689:a68129849", "current_trial": 6, "dateTime": 1664555294021, "trialdata": {"view_history": [{"page_index": 0, "viewing_time": 24210}, {"page_index": 1, "viewing_time": 20799}, {"page_index": 2, "viewing_time": 7392}], "rt": 52402, "trial_id": "mouselab_instructions_2_scarce", "trial_type": "instructions", "trial_index": 6, "time_elapsed": 214747, "internal_node_id": "0.0-2.0-3.0"}}, {"uniqueid": "w55110689:a68129849", "current_trial": 7, "dateTime": 1664555343901, "trialdata": {"rt": 49876, "response": {"Q0": "$-48 to $48", "Q1": "The cost is always $0.25.", "Q2": "The better I perform the higher my bonus will be.", "Q3": "No, the amount of cash at each node of the web may be different each time.", "Q4": "The values of the nodes walked through from start to finish.", "Q5": "No, the spider might forget to count the money on some rounds."}, "question_order": [0, 1, 2, 3, 4, 5], "correct": {"Q0": "$-48 to $48", "Q1": "The cost is always $0.25.", "Q2": "The better I perform the higher my bonus will be.", "Q3": "No, the amount of cash at each node of the web may be different each time.", "Q4": "The values of the nodes walked through from start to finish.", "Q5": "No, the spider might forget to count the money on some rounds."}, "trial_id": "mouselab_quiz_scarce", "trial_type": "survey-multi-choice", "trial_index": 7, "time_elapsed": 264627, "internal_node_id": "0.0-2.0-4.0"}}, {"uniqueid": "w55110689:a68129849", "current_trial": 8, "dateTime": 1664555359232, "trialdata": {"rt": 15323, "stimulus": "\n<h1> Get ready to start the game! </h1>\n\nThank you for reading the instructions. Get ready start with the first of 4 block(s) of this game.\n<br><br>\nIn this first block, you will complete 30 rounds of this game before moving on.\n<br><br>\nRemember, the more money the spider gets, the bigger your bonus will be!\n<br><br>\n<div style='text-align: center;'>Press <code>space</code> to begin.</div>\n\n<br><br>\n(If, at any point, the <code>space</code> key does not take you to the next page, click once on the text and try again.)", "response": " ", "trial_id": "mdp_ready_1", "trial_type": "html-keyboard-response", "trial_index": 8, "time_elapsed": 279958, "internal_node_id": "0.0-4.0-0.0"}}, {"uniqueid": "w55110689:a68129849", "current_trial": 9, "dateTime": 1664555371100, "trialdata": {"revealed_states": [], "num_clicks_accrued": [0, 0, 0, 0, 0, 0, 0, 0, 0, 0, 0, 0, 0], "stateRewards": ["", 2, 8, -24, -48, 2, 4, -24, 48, 2, -8, 48, -24], "withholdReward": true, "trial_id": "mdp_791659307216", "block": "test1", "trialIndex": 2, "score": -33.25, "costs": -0.25, "simulationMode": [null, null, null], "rewards": [2, 8, -48], "path": ["0", "0", "1", "2", "4"], "rt": [3994, 1007, 1397], "actions": ["up", "up", "left"], "actionTimes": [5496, 7003, 8901], "queries": {"click": {"state": {"target": ["1"], "time": [3869]}, "edge": {"target": [], "time": []}}, "mouseover": {"state": {"target": ["1"], "time": [3470]}, "edge": {"target": [], "time": []}}, "mouseout": {"state": {"target": ["0", "0", "1"], "time": [324, 3315, 4123]}, "edge": {"target": [], "time": []}}}, "displayed_time": "9.50", "trialTime": 11818, "trial_type": "mouselab-mdp", "trial_index": 9, "time_elapsed": 291826, "internal_node_id": "0.0-4.0-1.0-0.0"}}, {"uniqueid": "w55110689:a68129849", "current_trial": 10, "dateTime": 1664555384212, "trialdata": {"revealed_states": [], "num_clicks_accrued": [0, 0, 0, 0, 0, 0, 0, 0, 0, 0, 0, 0, 0], "stateRewards": ["", -2, 4, -24, -24, -2, 4, 48, 24, -4, -8, 24, -48], "withholdReward": false, "trial_id": "mdp_191839460481", "block": "test1", "trialIndex": 3, "score": 16.75, "costs": -0.25, "simulationMode": [null, null, null], "rewards": [-4, -8, 24], "path": ["0", "0", "9", "10", "11"], "rt": [3679, 375, 475], "actions": ["left", "left", "up"], "actionTimes": [4748, 5624, 6607], "queries": {"click": {"state": {"target": ["5"], "time": [1804]}, "edge": {"target": [], "time": []}}, "mouseover": {"state": {"target": ["5"], "time": [1690]}, "edge": {"target": [], "time": []}}, "mouseout": {"state": {"target": ["5"], "time": [2207]}, "edge": {"target": [], "time": []}}}, "displayed_time": "11.07", "trialTime": 13066, "trial_type": "mouselab-mdp", "trial_index": 10, "time_elapsed": 304937, "internal_node_id": "0.0-4.0-1.0-1.0"}}, {"uniqueid": "w55110689:a68129849", "current_trial": 11, "dateTime": 1664555395807, "trialdata": {"revealed_states": [], "num_clicks_accrued": [0, 0, 0, 0, 0, 0, 0, 0, 0, 0, 0, 0, 0], "stateRewards": ["", 2, 8, 48, 24, -4, 4, -48, 24, 2, 8, 48, 48], "withholdReward": true, "trial_id": "mdp_367344599162", "block": "test1", "trialIndex": 4, "score": 62.75, "costs": -0.25, "simulationMode": [null, null, null], "rewards": [2, 8, 48], "path": ["0", "0", "1", "2", "3"], "rt": [1786, 196, 679], "actions": ["up", "up", "right"], "actionTimes": [2656, 3358, 4532], "queries": {"click": {"state": {"target": ["1"], "time": [1702]}, "edge": {"target": [], "time": []}}, "mouseover": {"state": {"target": ["1"], "time": [1453]}, "edge": {"target": [], "time": []}}, "mouseout": {"state": {"target": ["0", "1", "0"], "time": [1196, 1903, 5452]}, "edge": {"target": [], "time": []}}}, "displayed_time": "9.87", "trialTime": 11550, "trial_type": "mouselab-mdp", "trial_index": 11, "time_elapsed": 316533, "internal_node_id": "0.0-4.0-1.0-2.0"}}, {"uniqueid": "w55110689:a68129849", "current_trial": 12, "dateTime": 1664555412675, "trialdata": {"revealed_states": [], "num_clicks_accrued": [0, 0, 0, 0, 0, 0, 0, 0, 0, 0, 0, 0, 0], "stateRewards": ["", -2, -4, -48, -48, 4, -4, 48, 24, 4, 4, 48, 48], "withholdReward": false, "trial_id": "mdp_950960813932", "block": "test1", "trialIndex": 5, "score": 60.75, "costs": -0.25, "simulationMode": [null, null, null], "rewards": [4, 4, 48], "path": ["0", "0", "9", "10", "12"], "rt": [2285, 314, 249], "actions": ["left", "left", "down"], "actionTimes": [3767, 4579, 5330], "queries": {"click": {"state": {"target": ["9"], "time": [3001]}, "edge": {"target": [], "time": []}}, "mouseover": {"state": {"target": ["9"], "time": [2789]}, "edge": {"target": [], "time": []}}, "mouseout": {"state": {"target": ["0", "9"], "time": [2112, 3232]}, "edge": {"target": [], "time": []}}}, "displayed_time": "9.48", "trialTime": 16830, "trial_type": "mouselab-mdp", "trial_index": 12, "time_elapsed": 333401, "internal_node_id": "0.0-4.0-1.0-3.0"}}, {"uniqueid": "w55110689:a68129849", "current_trial": 13, "dateTime": 1664555425225, "trialdata": {"revealed_states": [], "num_clicks_accrued": [0, 0, 0, 0, 0, 0, 0, 0, 0, 0, 0, 0, 0], "stateRewards": ["", 2, 4, 24, 48, -2, 8, 24, -24, -4, -4, 48, 48], "withholdReward": false, "trial_id": "mdp_753439303214", "block": "test1", "trialIndex": 6, "score": 58.75, "costs": -0.25, "simulationMode": [null, null, null], "rewards": [2, 4, 48], "path": ["0", "0", "1", "2", "4"], "rt": [2563, 242, 126], "actions": ["up", "up", "left"], "actionTimes": [3714, 4455, 5081], "queries": {"click": {"state": {"target": ["1"], "time": [2357]}, "edge": {"target": [], "time": []}}, "mouseover": {"state": {"target": ["1"], "time": [2087]}, "edge": {"target": [], "time": []}}, "mouseout": {"state": {"target": ["1"], "time": [2629]}, "edge": {"target": [], "time": []}}}, "displayed_time": "10.15", "trialTime": 12503, "trial_type": "mouselab-mdp", "trial_index": 13, "time_elapsed": 345951, "internal_node_id": "0.0-4.0-1.0-4.0"}}, {"uniqueid": "w55110689:a68129849", "current_trial": 14, "dateTime": 1664555435838, "trialdata": {"revealed_states": [], "num_clicks_accrued": [0, 0, 0, 0, 0, 0, 0, 0, 0, 0, 0, 0, 0], "stateRewards": ["", -2, 8, -24, 48, -4, 4, -48, 24, 4, -8, 48, -24], "withholdReward": true, "trial_id": "mdp_425320427962", "block": "test1", "trialIndex": 7, "score": -23.25, "costs": -0.25, "simulationMode": [null, null, null], "rewards": [4, -8, -24], "path": ["0", "0", "9", "10", "12"], "rt": [4391, 124, 10], "actions": ["left", "left", "down"], "actionTimes": [5687, 6312, 6831], "queries": {"click": {"state": {"target": ["5"], "time": [1991]}, "edge": {"target": [], "time": []}}, "mouseover": {"state": {"target": ["5", "0"], "time": [1821, 2622]}, "edge": {"target": [], "time": []}}, "mouseout": {"state": {"target": ["0", "5", "0"], "time": [1204, 2558, 2754]}, "edge": {"target": [], "time": []}}}, "displayed_time": "9.30", "trialTime": 10575, "trial_type": "mouselab-mdp", "trial_index": 14, "time_elapsed": 356564, "internal_node_id": "0.0-4.0-1.0-5.0"}}, {"uniqueid": "w55110689:a68129849", "current_trial": 15, "dateTime": 1664555446679, "trialdata": {"revealed_states": [], "num_clicks_accrued": [0, 0, 0, 0, 0, 0, 0, 0, 0, 0, 0, 0, 0], "stateRewards": ["", -2, 8, -48, -24, -2, 8, 48, -48, -4, 8, 24, 48], "withholdReward": true, "trial_id": "mdp_160707003673", "block": "test1", "trialIndex": 8, "score": 32.75, "costs": -0.25, "simulationMode": [null, null, null], "rewards": [-4, 8, 24], "path": ["0", "0", "9", "10", "11"], "rt": [2304, 157, 184], "actions": ["left", "left", "up"], "actionTimes": [2900, 3556, 4249], "queries": {"click": {"state": {"target": ["1"], "time": [1257]}, "edge": {"target": [], "time": []}}, "mouseover": {"state": {"target": ["1", "9"], "time": [940, 1736]}, "edge": {"target": [], "time": []}}, "mouseout": {"state": {"target": ["0", "1", "9"], "time": [849, 1544, 10148]}, "edge": {"target": [], "time": []}}}, "displayed_time": "9.60", "trialTime": 10794, "trial_type": "mouselab-mdp", "trial_index": 15, "time_elapsed": 367405, "internal_node_id": "0.0-4.0-1.0-6.0"}}, {"uniqueid": "w55110689:a68129849", "current_trial": 16, "dateTime": 1664555456715, "trialdata": {"revealed_states": [], "num_clicks_accrued": [0, 0, 0, 0, 0, 0, 0, 0, 0, 0, 0, 0, 0], "stateRewards": ["", -4, -4, 24, -24, 4, 4, 24, 48, 4, -4, 48, -48], "withholdReward": true, "trial_id": "mdp_522385334882", "block": "test1", "trialIndex": 9, "score": 60.75, "costs": -0.25, "simulationMode": [null, null, null], "rewards": [4, 4, 48], "path": ["0", "0", "5", "6", "8"], "rt": [1398, 135, 173], "actions": ["right", "right", "down"], "actionTimes": [2040, 2684, 3364], "queries": {"click": {"state": {"target": ["5"], "time": [1232]}, "edge": {"target": [], "time": []}}, "mouseover": {"state": {"target": ["5"], "time": [1065]}, "edge": {"target": [], "time": []}}, "mouseout": {"state": {"target": ["0"], "time": [1007]}, "edge": {"target": [], "time": []}}}, "displayed_time": "8.64", "trialTime": 9996, "trial_type": "mouselab-mdp", "trial_index": 16, "time_elapsed": 377441, "internal_node_id": "0.0-4.0-1.0-7.0"}}, {"uniqueid": "w55110689:a68129849", "current_trial": 17, "dateTime": 1664555467732, "trialdata": {"revealed_states": [], "num_clicks_accrued": [0, 0, 0, 0, 0, 0, 0, 0, 0, 0, 0, 0, 0], "stateRewards": ["", 2, 4, 48, 24, -4, 8, 48, 48, 2, -4, -48, -24], "withholdReward": true, "trial_id": "mdp_822099887466", "block": "test1", "trialIndex": 10, "score": 58.75, "costs": -0.25, "simulationMode": [null, null, null], "rewards": [2, 4, 48], "path": ["0", "0", "1", "2", "3"], "rt": [1388, 84, 89], "actions": ["up", "up", "right"], "actionTimes": [2212, 2795, 3390], "queries": {"click": {"state": {"target": ["1"], "time": [1465]}, "edge": {"target": [], "time": []}}, "mouseover": {"state": {"target": ["1"], "time": [1326]}, "edge": {"target": [], "time": []}}, "mouseout": {"state": {"target": ["5", "0", "1"], "time": [443, 1210, 4552]}, "edge": {"target": [], "time": []}}}, "displayed_time": "9.83", "trialTime": 10966, "trial_type": "mouselab-mdp", "trial_index": 17, "time_elapsed": 388457, "internal_node_id": "0.0-4.0-1.0-8.0"}}, {"uniqueid": "w55110689:a68129849", "current_trial": 18, "dateTime": 1664555514329, "trialdata": {"revealed_states": [], "num_clicks_accrued": [0, 0, 0, 0, 0, 0, 0, 0, 0, 0, 0, 0, 0], "stateRewards": ["", 2, 4, 48, -48, 2, 4, 24, -24, 2, -4, -24, -48], "withholdReward": true, "trial_id": "mdp_706591889062", "block": "test1", "trialIndex": 11, "score": -21.25, "costs": -0.25, "simulationMode": [null, null, null], "rewards": [2, -4, -24], "path": ["0", "0", "9", "10", "11"], "rt": [1281, 26, 223], "actions": ["left", "left", "up"], "actionTimes": [2244, 2766, 3504], "queries": {"click": {"state": {"target": ["9"], "time": [1382]}, "edge": {"target": [], "time": []}}, "mouseover": {"state": {"target": ["9"], "time": [1290]}, "edge": {"target": [], "time": []}}, "mouseout": {"state": {"target": ["0", "9"], "time": [1206, 44884]}, "edge": {"target": [], "time": []}}}, "displayed_time": "9.96", "trialTime": 46561, "trial_type": "mouselab-mdp", "trial_index": 18, "time_elapsed": 435055, "internal_node_id": "0.0-4.0-1.0-9.0"}}, {"uniqueid": "w55110689:a68129849", "current_trial": 19, "dateTime": 1664555525093, "trialdata": {"revealed_states": [], "num_clicks_accrued": [0, 0, 0, 0, 0, 0, 0, 0, 0, 0, 0, 0, 0], "stateRewards": ["", 2, -4, 24, 48, -2, 4, -48, -48, -4, 4, 24, -24], "withholdReward": true, "trial_id": "mdp_900363662757", "block": "test1", "trialIndex": 12, "score": 50.75, "costs": -0.25, "simulationMode": [null, null, null], "rewards": [2, -4, 48], "path": ["0", "0", "1", "2", "4"], "rt": [1898, 108, 276], "actions": ["up", "up", "left"], "actionTimes": [3182, 3797, 4580], "queries": {"click": {"state": {"target": ["1"], "time": [1788]}, "edge": {"target": [], "time": []}}, "mouseover": {"state": {"target": ["1"], "time": [1579]}, "edge": {"target": [], "time": []}}, "mouseout": {"state": {"target": ["0", "1", "1"], "time": [1499, 2212, 2595]}, "edge": {"target": [], "time": []}}}, "displayed_time": "10.29", "trialTime": 10708, "trial_type": "mouselab-mdp", "trial_index": 19, "time_elapsed": 445819, "internal_node_id": "0.0-4.0-1.0-10.0"}}, {"uniqueid": "w55110689:a68129849", "current_trial": 20, "dateTime": 1664555536191, "trialdata": {"revealed_states": [], "num_clicks_accrued": [0, 0, 0, 0, 0, 0, 0, 0, 0, 0, 0, 0, 0], "stateRewards": ["", -2, 4, -48, -48, -4, -8, 48, -48, 2, 4, 48, -48], "withholdReward": true, "trial_id": "mdp_258647270500", "block": "test1", "trialIndex": 13, "score": 58.75, "costs": -0.25, "simulationMode": [null, null, null], "rewards": [2, 4, 48], "path": ["0", "0", "9", "10", "11"], "rt": [2214, 54, 414], "actions": ["left", "left", "up"], "actionTimes": [3735, 4293, 5211], "queries": {"click": {"state": {"target": ["5"], "time": [2479]}, "edge": {"target": [], "time": []}}, "mouseover": {"state": {"target": ["5", "0"], "time": [2388, 2955]}, "edge": {"target": [], "time": []}}, "mouseout": {"state": {"target": ["1", "5", "0"], "time": [1263, 2894, 2980]}, "edge": {"target": [], "time": []}}}, "displayed_time": "10.52", "trialTime": 11048, "trial_type": "mouselab-mdp", "trial_index": 20, "time_elapsed": 456917, "internal_node_id": "0.0-4.0-1.0-11.0"}}, {"uniqueid": "w55110689:a68129849", "current_trial": 21, "dateTime": 1664555546253, "trialdata": {"revealed_states": [], "num_clicks_accrued": [0, 0, 0, 0, 0, 0, 0, 0, 0, 0, 0, 0, 0], "stateRewards": ["", 4, -8, -24, 24, 2, -4, 24, 24, 2, -4, 48, 48], "withholdReward": true, "trial_id": "mdp_457607480918", "block": "test1", "trialIndex": 14, "score": -23.25, "costs": -0.25, "simulationMode": [null, null, null], "rewards": [4, -8, -24], "path": ["0", "0", "1", "2", "3"], "rt": [1764, 105, 609], "actions": ["up", "up", "right"], "actionTimes": [3123, 3729, 4833], "queries": {"click": {"state": {"target": ["1"], "time": [2118]}, "edge": {"target": [], "time": []}}, "mouseover": {"state": {"target": ["1"], "time": [1925]}, "edge": {"target": [], "time": []}}, "mouseout": {"state": {"target": ["0"], "time": [1766]}, "edge": {"target": [], "time": []}}}, "displayed_time": "9.36", "trialTime": 10012, "trial_type": "mouselab-mdp", "trial_index": 21, "time_elapsed": 466979, "internal_node_id": "0.0-4.0-1.0-12.0"}}, {"uniqueid": "w55110689:a68129849", "current_trial": 22, "dateTime": 1664555555395, "trialdata": {"revealed_states": [], "num_clicks_accrued": [0, 0, 0, 0, 0, 0, 0, 0, 0, 0, 0, 0, 0], "stateRewards": ["", 2, -8, -24, 48, 4, -8, -24, -24, 2, 8, -24, 24], "withholdReward": false, "trial_id": "mdp_480787552818", "block": "test1", "trialIndex": 15, "score": -9.25, "costs": -0.25, "simulationMode": [null, null, null], "rewards": [2, 8, -24], "path": ["0", "0", "9", "10", "11"], "rt": [1358, 155, 901], "actions": ["left", "left", "up"], "actionTimes": [2727, 3378, 4783], "queries": {"click": {"state": {"target": ["9"], "time": [1875]}, "edge": {"target": [], "time": []}}, "mouseover": {"state": {"target": ["9"], "time": [1723]}, "edge": {"target": [], "time": []}}, "mouseout": {"state": {"target": ["1"], "time": [1090]}, "edge": {"target": [], "time": []}}}, "displayed_time": "8.37", "trialTime": 9096, "trial_type": "mouselab-mdp", "trial_index": 22, "time_elapsed": 476121, "internal_node_id": "0.0-4.0-1.0-13.0"}}, {"uniqueid": "w55110689:a68129849", "current_trial": 23, "dateTime": 1664555566443, "trialdata": {"revealed_states": [], "num_clicks_accrued": [0, 0, 0, 0, 0, 0, 0, 0, 0, 0, 0, 0, 0], "stateRewards": ["", 4, -4, 48, -48, 2, 8, -48, 24, -2, -4, -24, 48], "withholdReward": true, "trial_id": "mdp_937564992306", "block": "test1", "trialIndex": 16, "score": -33, "costs": 0, "simulationMode": [null, null, null], "rewards": [2, 8, -48], "path": ["0", "0", "5", "6", "7"], "rt": [1124, 224, 384], "actions": ["right", "right", "up"], "actionTimes": [2675, 3394, 4287], "queries": {"click": {"state": {"target": [], "time": []}, "edge": {"target": [], "time": []}}, "mouseover": {"state": {"target": [], "time": []}, "edge": {"target": [], "time": []}}, "mouseout": {"state": {"target": ["9", "0"], "time": [1320, 1435]}, "edge": {"target": [], "time": []}}}, "displayed_time": "10.55", "trialTime": 10998, "trial_type": "mouselab-mdp", "trial_index": 23, "time_elapsed": 487169, "internal_node_id": "0.0-4.0-1.0-14.0"}}, {"uniqueid": "w55110689:a68129849", "current_trial": 24, "dateTime": 1664555576371, "trialdata": {"revealed_states": [], "num_clicks_accrued": [0, 0, 0, 0, 0, 0, 0, 0, 0, 0, 0, 0, 0], "stateRewards": ["", 2, 4, -48, 24, -4, 4, -24, 48, -2, -8, -48, 48], "withholdReward": false, "trial_id": "mdp_424193661731", "block": "test1", "trialIndex": 17, "score": -37.25, "costs": -0.25, "simulationMode": [null, null, null], "rewards": [2, 4, -48], "path": ["0", "0", "1", "2", "3"], "rt": [1318, 71, 31], "actions": ["up", "up", "right"], "actionTimes": [1948, 2529, 3056], "queries": {"click": {"state": {"target": ["1"], "time": [1285]}, "edge": {"target": [], "time": []}}, "mouseover": {"state": {"target": ["1"], "time": [1066]}, "edge": {"target": [], "time": []}}, "mouseout": {"state": {"target": ["0"], "time": [597]}, "edge": {"target": [], "time": []}}}, "displayed_time": "8.63", "trialTime": 9874, "trial_type": "mouselab-mdp", "trial_index": 24, "time_elapsed": 497097, "internal_node_id": "0.0-4.0-1.0-15.0"}}, {"uniqueid": "w55110689:a68129849", "current_trial": 25, "dateTime": 1664555586744, "trialdata": {"revealed_states": [], "num_clicks_accrued": [0, 0, 0, 0, 0, 0, 0, 0, 0, 0, 0, 0, 0], "stateRewards": ["", 2, -4, 48, -48, -2, 8, -48, 24, -2, -8, 48, 48], "withholdReward": false, "trial_id": "mdp_949326095747", "block": "test1", "trialIndex": 18, "score": 50.25, "costs": -0.75, "simulationMode": [null, null, null], "rewards": [2, -4, 48], "path": ["0", "0", "1", "2", "3"], "rt": [3128, 97, 261], "actions": ["up", "up", "right"], "actionTimes": [4250, 4848, 5612], "queries": {"click": {"state": {"target": ["9", "1", "5"], "time": [1609, 2442, 3033]}, "edge": {"target": [], "time": []}}, "mouseover": {"state": {"target": ["9", "1", "5"], "time": [1500, 2025, 2858]}, "edge": {"target": [], "time": []}}, "mouseout": {"state": {"target": ["1", "0", "9", "1", "5"], "time": [896, 1376, 1912, 2712, 3417]}, "edge": {"target": [], "time": []}}}, "displayed_time": "9.12", "trialTime": 10323, "trial_type": "mouselab-mdp", "trial_index": 25, "time_elapsed": 507470, "internal_node_id": "0.0-4.0-1.0-16.0"}}, {"uniqueid": "w55110689:a68129849", "current_trial": 26, "dateTime": 1664555597658, "trialdata": {"revealed_states": [], "num_clicks_accrued": [0, 0, 0, 0, 0, 0, 0, 0, 0, 0, 0, 0, 0], "stateRewards": ["", -2, 4, -24, 48, 4, -8, 48, -48, 2, -8, 48, 24], "withholdReward": true, "trial_id": "mdp_501111216502", "block": "test1", "trialIndex": 19, "score": 22.75, "costs": -0.25, "simulationMode": [null, null, null], "rewards": [2, -8, 24], "path": ["0", "0", "9", "10", "12"], "rt": [1589, 77, 371], "actions": ["left", "left", "down"], "actionTimes": [2783, 3369, 4238], "queries": {"click": {"state": {"target": ["9"], "time": [1938]}, "edge": {"target": [], "time": []}}, "mouseover": {"state": {"target": ["9"], "time": [1767]}, "edge": {"target": [], "time": []}}, "mouseout": {"state": {"target": [], "time": []}, "edge": {"target": [], "time": []}}}, "displayed_time": "9.20", "trialTime": 10862, "trial_type": "mouselab-mdp", "trial_index": 26, "time_elapsed": 518384, "internal_node_id": "0.0-4.0-1.0-17.0"}}, {"uniqueid": "w55110689:a68129849", "current_trial": 27, "dateTime": 1664555608357, "trialdata": {"revealed_states": [], "num_clicks_accrued": [0, 0, 0, 0, 0, 0, 0, 0, 0, 0, 0, 0, 0], "stateRewards": ["", 2, 8, 24, -48, 4, 8, 24, 24, 4, -8, 48, 48], "withholdReward": true, "trial_id": "mdp_646103824875", "block": "test1", "trialIndex": 20, "score": -33.25, "costs": -0.25, "simulationMode": [null, null, null], "rewards": [2, 8, -48], "path": ["0", "0", "1", "2", "4"], "rt": [1037, 320, 174], "actions": ["up", "up", "left"], "actionTimes": [1675, 2495, 3167], "queries": {"click": {"state": {"target": ["1"], "time": [998]}, "edge": {"target": [], "time": []}}, "mouseover": {"state": {"target": ["1"], "time": [869]}, "edge": {"target": [], "time": []}}, "mouseout": {"state": {"target": ["9", "0", "1"], "time": [417, 550, 3885]}, "edge": {"target": [], "time": []}}}, "displayed_time": "9.64", "trialTime": 10644, "trial_type": "mouselab-mdp", "trial_index": 27, "time_elapsed": 529083, "internal_node_id": "0.0-4.0-1.0-18.0"}}, {"uniqueid": "w55110689:a68129849", "current_trial": 28, "dateTime": 1664555619363, "trialdata": {"revealed_states": [], "num_clicks_accrued": [0, 0, 0, 0, 0, 0, 0, 0, 0, 0, 0, 0, 0], "stateRewards": ["", -2, 8, -48, 48, 4, -8, -48, 48, 4, -4, -24, 48], "withholdReward": true, "trial_id": "mdp_144739116828", "block": "test1", "trialIndex": 21, "score": -47.25, "costs": -0.25, "simulationMode": [null, null, null], "rewards": [4, -8, -48], "path": ["0", "0", "5", "6", "7"], "rt": [1158, 268, 287], "actions": ["right", "right", "up"], "actionTimes": [2565, 3340, 4134], "queries": {"click": {"state": {"target": ["5"], "time": [1799]}, "edge": {"target": [], "time": []}}, "mouseover": {"state": {"target": ["5"], "time": [1739]}, "edge": {"target": [], "time": []}}, "mouseout": {"state": {"target": ["3", "0", "5"], "time": [513, 1639, 6696]}, "edge": {"target": [], "time": []}}}, "displayed_time": "10.41", "trialTime": 10956, "trial_type": "mouselab-mdp", "trial_index": 28, "time_elapsed": 540089, "internal_node_id": "0.0-4.0-1.0-19.0"}}, {"uniqueid": "w55110689:a68129849", "current_trial": 29, "dateTime": 1664555630568, "trialdata": {"revealed_states": [], "num_clicks_accrued": [0, 0, 0, 0, 0, 0, 0, 0, 0, 0, 0, 0, 0], "stateRewards": ["", 4, -4, 48, 24, 2, -8, 24, -48, -2, -4, -48, -48], "withholdReward": true, "trial_id": "mdp_655302318695", "block": "test1", "trialIndex": 22, "score": 28.75, "costs": -0.25, "simulationMode": [null, null, null], "rewards": [4, -4, 24], "path": ["0", "0", "1", "2", "4"], "rt": [1947, 203, 159], "actions": ["up", "up", "left"], "actionTimes": [2836, 3538, 4202], "queries": {"click": {"state": {"target": ["9"], "time": [1531]}, "edge": {"target": [], "time": []}}, "mouseover": {"state": {"target": ["9", "0"], "time": [1426, 2370]}, "edge": {"target": [], "time": []}}, "mouseout": {"state": {"target": ["0", "9", "0", "5"], "time": [1346, 1893, 2387, 10876]}, "edge": {"target": [], "time": []}}}, "displayed_time": "9.89", "trialTime": 11149, "trial_type": "mouselab-mdp", "trial_index": 29, "time_elapsed": 551294, "internal_node_id": "0.0-4.0-1.0-20.0"}}, {"uniqueid": "w55110689:a68129849", "current_trial": 30, "dateTime": 1664555641731, "trialdata": {"revealed_states": [], "num_clicks_accrued": [0, 0, 0, 0, 0, 0, 0, 0, 0, 0, 0, 0, 0], "stateRewards": ["", -4, 8, 24, 24, 2, 4, -48, 24, -2, -4, -24, -24], "withholdReward": true, "trial_id": "mdp_752328329546", "block": "test1", "trialIndex": 23, "score": 32.75, "costs": -0.25, "simulationMode": [null, null, null], "rewards": [-4, 8, 24], "path": ["0", "0", "1", "2", "3"], "rt": [2250, 112, 396], "actions": ["up", "up", "right"], "actionTimes": [3098, 3711, 4612], "queries": {"click": {"state": {"target": ["3"], "time": [1737]}, "edge": {"target": [], "time": []}}, "mouseover": {"state": {"target": ["1", "2", "3"], "time": [1265, 1474, 1640]}, "edge": {"target": [], "time": []}}, "mouseout": {"state": {"target": ["0", "1", "2", "3", "1"], "time": [1090, 1349, 1540, 6208, 7190]}, "edge": {"target": [], "time": []}}}, "displayed_time": "9.85", "trialTime": 11110, "trial_type": "mouselab-mdp", "trial_index": 30, "time_elapsed": 562457, "internal_node_id": "0.0-4.0-1.0-21.0"}}, {"uniqueid": "w55110689:a68129849", "current_trial": 31, "dateTime": 1664555651739, "trialdata": {"revealed_states": [], "num_clicks_accrued": [0, 0, 0, 0, 0, 0, 0, 0, 0, 0, 0, 0, 0], "stateRewards": ["", 2, 4, -24, -48, 4, -4, 24, 48, -4, -4, -24, 48], "withholdReward": true, "trial_id": "mdp_181958792175", "block": "test1", "trialIndex": 24, "score": 52.75, "costs": -0.25, "simulationMode": [null, null, null], "rewards": [4, -4, 48], "path": ["0", "0", "5", "6", "8"], "rt": [2121, 145, 317], "actions": ["right", "right", "down"], "actionTimes": [2565, 3213, 4036], "queries": {"click": {"state": {"target": ["8"], "time": [1477]}, "edge": {"target": [], "time": []}}, "mouseover": {"state": {"target": ["0", "8"], "time": [1012, 1364]}, "edge": {"target": [], "time": []}}, "mouseout": {"state": {"target": ["0", "0", "8"], "time": [404, 1118, 1748]}, "edge": {"target": [], "time": []}}}, "displayed_time": "9.44", "trialTime": 9946, "trial_type": "mouselab-mdp", "trial_index": 31, "time_elapsed": 572465, "internal_node_id": "0.0-4.0-1.0-22.0"}}, {"uniqueid": "w55110689:a68129849", "current_trial": 32, "dateTime": 1664555661867, "trialdata": {"revealed_states": [], "num_clicks_accrued": [0, 0, 0, 0, 0, 0, 0, 0, 0, 0, 0, 0, 0], "stateRewards": ["", 4, 4, 24, 24, 4, -4, 48, 48, 4, 4, 24, -48], "withholdReward": false, "trial_id": "mdp_454251689008", "block": "test1", "trialIndex": 25, "score": 52.25, "costs": -0.75, "simulationMode": [null, null, null], "rewards": [4, -4, 48], "path": ["0", "0", "5", "6", "8"], "rt": [5195, 70, 189], "actions": ["right", "right", "down"], "actionTimes": [5996, 6574, 7268], "queries": {"click": {"state": {"target": ["12", "3", "8"], "time": [1239, 3855, 4983]}, "edge": {"target": [], "time": []}}, "mouseover": {"state": {"target": ["9", "12", "0", "3", "5", "8"], "time": [983, 1088, 3270, 3637, 4654, 4795]}, "edge": {"target": [], "time": []}}, "mouseout": {"state": {"target": ["0", "9", "12", "0", "3", "5", "8"], "time": [951, 1007, 1437, 3312, 4104, 4712, 8079]}, "edge": {"target": [], "time": []}}}, "displayed_time": "8.80", "trialTime": 10069, "trial_type": "mouselab-mdp", "trial_index": 32, "time_elapsed": 582593, "internal_node_id": "0.0-4.0-1.0-23.0"}}, {"uniqueid": "w55110689:a68129849", "current_trial": 33, "dateTime": 1664555671402, "trialdata": {"revealed_states": [], "num_clicks_accrued": [0, 0, 0, 0, 0, 0, 0, 0, 0, 0, 0, 0, 0], "stateRewards": ["", 4, -4, 48, -48, -4, -4, 48, -48, 4, 4, -48, -24], "withholdReward": true, "trial_id": "mdp_490058671112", "block": "test1", "trialIndex": 26, "score": 44.75, "costs": -0.25, "simulationMode": [null, null, null], "rewards": [-4, -4, 48], "path": ["0", "0", "5", "6", "7"], "rt": [1749, 89, 388], "actions": ["right", "right", "up"], "actionTimes": [2446, 3038, 3920], "queries": {"click": {"state": {"target": ["7"], "time": [1357]}, "edge": {"target": [], "time": []}}, "mouseover": {"state": {"target": ["5", "6", "7", "6"], "time": [1040, 1106, 1273, 1615]}, "edge": {"target": [], "time": []}}, "mouseout": {"state": {"target": ["0", "5", "6", "7", "6"], "time": [523, 1081, 1156, 1548, 1797]}, "edge": {"target": [], "time": []}}}, "displayed_time": "8.70", "trialTime": 9482, "trial_type": "mouselab-mdp", "trial_index": 33, "time_elapsed": 592128, "internal_node_id": "0.0-4.0-1.0-24.0"}}, {"uniqueid": "w55110689:a68129849", "current_trial": 34, "dateTime": 1664555683515, "trialdata": {"revealed_states": [], "num_clicks_accrued": [0, 0, 0, 0, 0, 0, 0, 0, 0, 0, 0, 0, 0], "stateRewards": ["", -4, 4, -48, -48, -4, 8, -24, 24, 2, -4, 48, 48], "withholdReward": true, "trial_id": "mdp_821566905048", "block": "test1", "trialIndex": 27, "score": 50.5, "costs": -0.5, "simulationMode": [null, null, null], "rewards": [2, -4, 48], "path": ["0", "0", "9", "10", "12"], "rt": [2698, 142, 380], "actions": ["left", "left", "down"], "actionTimes": [3488, 4135, 5023], "queries": {"click": {"state": {"target": ["4", "12"], "time": [1746, 2610]}, "edge": {"target": [], "time": []}}, "mouseover": {"state": {"target": ["11", "4", "10", "12"], "time": [1018, 1650, 2353, 2467]}, "edge": {"target": [], "time": []}}, "mouseout": {"state": {"target": ["5", "0", "11", "4", "10", "12"], "time": [585, 650, 1026, 2009, 2401, 2826]}, "edge": {"target": [], "time": []}}}, "displayed_time": "8.79", "trialTime": 12064, "trial_type": "mouselab-mdp", "trial_index": 34, "time_elapsed": 604241, "internal_node_id": "0.0-4.0-1.0-25.0"}}, {"uniqueid": "w55110689:a68129849", "current_trial": 35, "dateTime": 1664555694939, "trialdata": {"revealed_states": [], "num_clicks_accrued": [0, 0, 0, 0, 0, 0, 0, 0, 0, 0, 0, 0, 0], "stateRewards": ["", -4, -8, 48, 24, 4, -8, 24, -48, -2, -8, 24, -48], "withholdReward": true, "trial_id": "mdp_952038635544", "block": "test1", "trialIndex": 28, "score": 40.25, "costs": -0.75, "simulationMode": [null, null, null], "rewards": [-4, -8, 48], "path": ["0", "0", "1", "2", "3"], "rt": [3953, 304, 131], "actions": ["up", "up", "right"], "actionTimes": [4900, 5705, 6332], "queries": {"click": {"state": {"target": ["7", "11", "3"], "time": [1862, 2966, 3934]}, "edge": {"target": [], "time": []}}, "mouseover": {"state": {"target": ["7", "7", "5", "10", "11", "1", "3"], "time": [1326, 1726, 2434, 2667, 2861, 3592, 3842]}, "edge": {"target": [], "time": []}}, "mouseout": {"state": {"target": ["0", "7", "7", "5", "10", "11", "1", "3"], "time": [775, 1376, 2245, 2467, 2701, 3269, 3600, 4167]}, "edge": {"target": [], "time": []}}}, "displayed_time": "9.95", "trialTime": 11372, "trial_type": "mouselab-mdp", "trial_index": 35, "time_elapsed": 615665, "internal_node_id": "0.0-4.0-1.0-26.0"}}, {"uniqueid": "w55110689:a68129849", "current_trial": 36, "dateTime": 1664555705050, "trialdata": {"revealed_states": [], "num_clicks_accrued": [0, 0, 0, 0, 0, 0, 0, 0, 0, 0, 0, 0, 0], "stateRewards": ["", -2, -8, -24, 24, -2, -8, -48, 24, -2, -8, 24, 24], "withholdReward": true, "trial_id": "mdp_336617436097", "block": "test1", "trialIndex": 29, "score": 17.5, "costs": -1.5, "simulationMode": [null, null, null], "rewards": [-2, -8, 24], "path": ["0", "0", "9", "10", "12"], "rt": [6554, 316, 484], "actions": ["left", "left", "down"], "actionTimes": [7027, 7841, 8833], "queries": {"click": {"state": {"target": ["4", "12", "11", "8", "7", "3"], "time": [956, 2052, 2748, 3444, 4020, 4564]}, "edge": {"target": [], "time": []}}, "mouseover": {"state": {"target": ["1", "4", "9", "12", "12", "10", "11", "9", "0", "8", "5", "7", "3", "3"], "time": [733, 841, 1507, 1591, 1875, 2443, 2674, 3043, 3059, 3357, 3782, 3891, 4416, 4516]}, "edge": {"target": [], "time": []}}, "mouseout": {"state": {"target": ["1", "1", "4", "9", "12", "12", "10", "11", "9", "0", "8", "5", "7", "3", "3"], "time": [275, 766, 1203, 1533, 1624, 2411, 2492, 3003, 3051, 3083, 3628, 3816, 4219, 4424, 5051]}, "edge": {"target": [], "time": []}}}, "displayed_time": "9.33", "trialTime": 10057, "trial_type": "mouselab-mdp", "trial_index": 36, "time_elapsed": 625776, "internal_node_id": "0.0-4.0-1.0-27.0"}}, {"uniqueid": "w55110689:a68129849", "current_trial": 37, "dateTime": 1664555714766, "trialdata": {"revealed_states": [], "num_clicks_accrued": [0, 0, 0, 0, 0, 0, 0, 0, 0, 0, 0, 0, 0], "stateRewards": ["", -2, 8, 48, 24, 2, -8, -24, -48, -4, 8, -48, 24], "withholdReward": true, "trial_id": "mdp_224053025943", "block": "test1", "trialIndex": 30, "score": 58.5, "costs": -0.5, "simulationMode": [null, null, null], "rewards": [-2, 8, 48], "path": ["0", "0", "1", "2", "3"], "rt": [2325, 34, 26], "actions": ["up", "up", "right"], "actionTimes": [3546, 4088, 4622], "queries": {"click": {"state": {"target": ["4", "3"], "time": [1972, 2804]}, "edge": {"target": [], "time": []}}, "mouseover": {"state": {"target": ["4", "3"], "time": [1820, 2679]}, "edge": {"target": [], "time": []}}, "mouseout": {"state": {"target": ["4", "3", "5"], "time": [2267, 5684, 7988]}, "edge": {"target": [], "time": []}}}, "displayed_time": "9.22", "trialTime": 9660, "trial_type": "mouselab-mdp", "trial_index": 37, "time_elapsed": 635491, "internal_node_id": "0.0-4.0-1.0-28.0"}}, {"uniqueid": "w55110689:a68129849", "current_trial": 38, "dateTime": 1664555724577, "trialdata": {"revealed_states": [], "num_clicks_accrued": [0, 0, 0, 0, 0, 0, 0, 0, 0, 0, 0, 0, 0], "stateRewards": ["", -4, 8, 48, -48, 2, -4, 24, -24, -2, 4, -24, -24], "withholdReward": false, "trial_id": "mdp_804988042722", "block": "test1", "trialIndex": 31, "score": 55.5, "costs": -1.5, "simulationMode": [null, null, null], "rewards": [-4, 8, 48], "path": ["0", "0", "1", "2", "3"], "rt": [4870, 24, 111], "actions": ["up", "up", "right"], "actionTimes": [5390, 5919, 6548], "queries": {"click": {"state": {"target": ["11", "12", "7", "8", "4", "3"], "time": [1383, 2111, 2775, 3271, 4063, 4575]}, "edge": {"target": [], "time": []}}, "mouseover": {"state": {"target": ["9", "11", "9", "12", "7", "6", "8", "0", "9", "4", "4", "2", "3"], "time": [911, 1295, 1761, 1886, 2662, 2995, 3153, 3403, 3412, 3561, 3945, 4203, 4454]}, "edge": {"target": [], "time": []}}, "mouseout": {"state": {"target": ["9", "11", "9", "12", "7", "6", "8", "0", "9", "4", "4", "2", "3"], "time": [953, 1671, 1803, 2246, 2961, 3086, 3362, 3411, 3436, 3611, 4178, 4295, 4836]}, "edge": {"target": [], "time": []}}}, "displayed_time": "8.52", "trialTime": 9755, "trial_type": "mouselab-mdp", "trial_index": 38, "time_elapsed": 645303, "internal_node_id": "0.0-4.0-1.0-29.0"}}, {"uniqueid": "w55110689:a68129849", "current_trial": 39, "dateTime": 1664555818468, "trialdata": {"rt": 93887, "stimulus": "<h1> End of block! </h1>\n\nYou have reached the end of the block 1/4. If you need a short break, feel free to take one now before moving on.\n\n<br><br>\nIn the next block, you will complete another 30 rounds of this game.\n\n<br><br>\n<div style='text-align: center;'>Press <code>space</code> to begin.</div>\n<br><br>\n<div style='text-align: center;'>(If the experiment doesn't continue, try clicking on the text and then pressing <code>space</code>.)</div>", "response": " ", "trial_id": "mdp_ready_2", "trial_type": "html-keyboard-response", "trial_index": 39, "time_elapsed": 739194, "internal_node_id": "0.0-4.0-2.0"}}, {"uniqueid": "w55110689:a68129849", "current_trial": 40, "dateTime": 1664555828097, "trialdata": {"revealed_states": [], "num_clicks_accrued": [0, 0, 0, 0, 0, 0, 0, 0, 0, 0, 0, 0, 0], "stateRewards": ["", -4, -8, 48, -48, 2, -4, 48, -24, 2, -8, -48, -48], "withholdReward": true, "trial_id": "mdp_624553692913", "block": "test2", "trialIndex": 32, "score": 40.5, "costs": -0.5, "simulationMode": [null, null, null], "rewards": [-4, -8, 48], "path": ["0", "0", "1", "2", "3"], "rt": [2010, 176, 156], "actions": ["up", "up", "right"], "actionTimes": [2680, 3351, 4014], "queries": {"click": {"state": {"target": ["4", "3"], "time": [1114, 1602]}, "edge": {"target": [], "time": []}}, "mouseover": {"state": {"target": ["1", "4", "2", "3"], "time": [850, 1008, 1333, 1483]}, "edge": {"target": [], "time": []}}, "mouseout": {"state": {"target": ["1", "4", "2", "3", "5"], "time": [866, 1274, 1399, 1783, 7834]}, "edge": {"target": [], "time": []}}}, "displayed_time": "8.67", "trialTime": 9573, "trial_type": "mouselab-mdp", "trial_index": 40, "time_elapsed": 748823, "internal_node_id": "0.0-4.0-3.0-0.0"}}, {"uniqueid": "w55110689:a68129849", "current_trial": 41, "dateTime": 1664555837617, "trialdata": {"revealed_states": [], "num_clicks_accrued": [0, 0, 0, 0, 0, 0, 0, 0, 0, 0, 0, 0, 0], "stateRewards": ["", -2, 4, -48, 24, -4, 8, 48, 24, -2, 4, -48, -24], "withholdReward": true, "trial_id": "mdp_740882974347", "block": "test2", "trialIndex": 33, "score": 56.5, "costs": -0.5, "simulationMode": [null, null, null], "rewards": [-4, 8, 48], "path": ["0", "0", "5", "6", "7"], "rt": [2181, 16, 12], "actions": ["right", "right", "up"], "actionTimes": [3114, 3637, 4155], "queries": {"click": {"state": {"target": ["8", "7"], "time": [1636, 2220]}, "edge": {"target": [], "time": []}}, "mouseover": {"state": {"target": ["8", "8", "7", "1", "2"], "time": [1144, 1560, 2060, 2393, 2593]}, "edge": {"target": [], "time": []}}, "mouseout": {"state": {"target": ["0", "8", "8", "7", "1", "2", "4", "4", "0", "0", "1"], "time": [860, 1152, 1719, 2352, 2419, 5293, 5345, 7810, 7910, 8893, 9236]}, "edge": {"target": [], "time": []}}}, "displayed_time": "8.94", "trialTime": 9471, "trial_type": "mouselab-mdp", "trial_index": 41, "time_elapsed": 758342, "internal_node_id": "0.0-4.0-3.0-1.0"}}, {"uniqueid": "w55110689:a68129849", "current_trial": 42, "dateTime": 1664555847035, "trialdata": {"revealed_states": [], "num_clicks_accrued": [0, 0, 0, 0, 0, 0, 0, 0, 0, 0, 0, 0, 0], "stateRewards": ["", -4, -4, -48, -24, 2, 8, 24, -48, 4, 4, 48, 48], "withholdReward": false, "trial_id": "mdp_693501840209", "block": "test2", "trialIndex": 34, "score": 59.75, "costs": -1.25, "simulationMode": [null, null, null], "rewards": [4, 4, 48], "path": ["0", "0", "9", "10", "11"], "rt": [3473, 27, 141], "actions": ["left", "left", "up"], "actionTimes": [3999, 4536, 5191], "queries": {"click": {"state": {"target": ["4", "3", "8", "7", "11"], "time": [1021, 1525, 2021, 2453, 3157]}, "edge": {"target": [], "time": []}}, "mouseover": {"state": {"target": ["4", "3", "6", "8", "6", "7", "5", "12", "12", "10", "11", "10", "12"], "time": [866, 1404, 1775, 1858, 2158, 2225, 2575, 2633, 2788, 2883, 3075, 3308, 3366]}, "edge": {"target": [], "time": []}}, "mouseout": {"state": {"target": ["0", "4", "3", "6", "8", "6", "7", "5", "12", "12", "10", "11", "10", "12", "9"], "time": [292, 1237, 1652, 1825, 2141, 2200, 2556, 2583, 2650, 2850, 2958, 3283, 3341, 3550, 5675]}, "edge": {"target": [], "time": []}}}, "displayed_time": "8.53", "trialTime": 9363, "trial_type": "mouselab-mdp", "trial_index": 42, "time_elapsed": 767761, "internal_node_id": "0.0-4.0-3.0-2.0"}}, {"uniqueid": "w55110689:a68129849", "current_trial": 43, "dateTime": 1664555857604, "trialdata": {"revealed_states": [], "num_clicks_accrued": [0, 0, 0, 0, 0, 0, 0, 0, 0, 0, 0, 0, 0], "stateRewards": ["", -4, 8, -24, 48, 2, -8, 24, 48, 2, -8, -24, -48], "withholdReward": false, "trial_id": "mdp_493778446445", "block": "test2", "trialIndex": 35, "score": 56.75, "costs": -0.25, "simulationMode": [null, null, null], "rewards": [-4, 8, 48], "path": ["0", "0", "1", "2", "4"], "rt": [1232, 41, 288], "actions": ["up", "up", "left"], "actionTimes": [1914, 2461, 3258], "queries": {"click": {"state": {"target": ["4"], "time": [1072]}, "edge": {"target": [], "time": []}}, "mouseover": {"state": {"target": ["4"], "time": [970]}, "edge": {"target": [], "time": []}}, "mouseout": {"state": {"target": ["0", "4"], "time": [411, 1279]}, "edge": {"target": [], "time": []}}}, "displayed_time": "9.68", "trialTime": 10519, "trial_type": "mouselab-mdp", "trial_index": 43, "time_elapsed": 778330, "internal_node_id": "0.0-4.0-3.0-3.0"}}, {"uniqueid": "w55110689:a68129849", "current_trial": 44, "dateTime": 1664555867447, "trialdata": {"revealed_states": [], "num_clicks_accrued": [0, 0, 0, 0, 0, 0, 0, 0, 0, 0, 0, 0, 0], "stateRewards": ["", 4, 8, -48, 24, -2, 8, -48, -48, -4, 4, 48, -48], "withholdReward": true, "trial_id": "mdp_693807815190", "block": "test2", "trialIndex": 36, "score": 51.75, "costs": -1.25, "simulationMode": [null, null, null], "rewards": [-4, 4, 48], "path": ["0", "0", "9", "10", "11"], "rt": [3290, 27, 128], "actions": ["left", "left", "up"], "actionTimes": [3809, 4331, 4974], "queries": {"click": {"state": {"target": ["4", "3", "8", "7", "11"], "time": [890, 1394, 1890, 2426, 2970]}, "edge": {"target": [], "time": []}}, "mouseover": {"state": {"target": ["4", "1", "3", "7", "6", "8", "7", "11", "10", "12"], "time": [762, 1112, 1229, 1596, 1654, 1754, 2313, 2887, 3105, 3212]}, "edge": {"target": [], "time": []}}, "mouseout": {"state": {"target": ["1", "4", "1", "3", "7", "6", "8", "7", "11", "10", "12", "10"], "time": [129, 1012, 1145, 1529, 1612, 1679, 2009, 2633, 3073, 3154, 3345, 9329]}, "edge": {"target": [], "time": []}}}, "displayed_time": "8.52", "trialTime": 9788, "trial_type": "mouselab-mdp", "trial_index": 44, "time_elapsed": 788173, "internal_node_id": "0.0-4.0-3.0-4.0"}}, {"uniqueid": "w55110689:a68129849", "current_trial": 45, "dateTime": 1664555877921, "trialdata": {"revealed_states": [], "num_clicks_accrued": [0, 0, 0, 0, 0, 0, 0, 0, 0, 0, 0, 0, 0], "stateRewards": ["", -4, -8, 48, 24, 4, -8, 24, -48, -2, -8, 24, -48], "withholdReward": true, "trial_id": "mdp_952038635544", "block": "test2", "trialIndex": 37, "score": 40, "costs": -1, "simulationMode": [null, null, null], "rewards": [-4, -8, 48], "path": ["0", "0", "1", "2", "3"], "rt": [2984, 40, 135], "actions": ["up", "up", "right"], "actionTimes": [3931, 4481, 5116], "queries": {"click": {"state": {"target": ["12", "11", "4", "3"], "time": [1467, 1963, 2683, 3091]}, "edge": {"target": [], "time": []}}, "mouseover": {"state": {"target": ["0", "12", "10", "11", "4", "2", "3", "7"], "time": [1026, 1363, 1723, 1882, 2586, 2840, 2940, 3290]}, "edge": {"target": [], "time": []}}, "mouseout": {"state": {"target": ["9", "0", "12", "10", "11", "4", "2", "3", "7", "5"], "time": [640, 1181, 1598, 1731, 2274, 2806, 2890, 3240, 6324, 9606]}, "edge": {"target": [], "time": []}}}, "displayed_time": "9.95", "trialTime": 10415, "trial_type": "mouselab-mdp", "trial_index": 45, "time_elapsed": 798647, "internal_node_id": "0.0-4.0-3.0-5.0"}}, {"uniqueid": "w55110689:a68129849", "current_trial": 46, "dateTime": 1664555888158, "trialdata": {"revealed_states": [], "num_clicks_accrued": [0, 0, 0, 0, 0, 0, 0, 0, 0, 0, 0, 0, 0], "stateRewards": ["", 2, 4, -48, -24, -4, 4, -24, 24, -2, -8, -24, 24], "withholdReward": false, "trial_id": "mdp_640720803523", "block": "test2", "trialIndex": 38, "score": 17.5, "costs": -1.5, "simulationMode": [null, null, null], "rewards": [-2, -8, 24], "path": ["0", "0", "9", "10", "12"], "rt": [5463, 276, 240], "actions": ["left", "left", "down"], "actionTimes": [5989, 6760, 7500], "queries": {"click": {"state": {"target": ["3", "4", "12", "11", "7", "8"], "time": [995, 1499, 2019, 2483, 3179, 3595]}, "edge": {"target": [], "time": []}}, "mouseover": {"state": {"target": ["3", "2", "4", "10", "12", "10", "11", "9", "0", "6", "7", "6", "8"], "time": [876, 1276, 1401, 1810, 1892, 2210, 2359, 2701, 2759, 2976, 3059, 3359, 3442]}, "edge": {"target": [], "time": []}}, "mouseout": {"state": {"target": ["0", "3", "2", "4", "10", "12", "10", "11", "9", "0", "6", "7", "6", "8", "8"], "time": [459, 1202, 1351, 1667, 1859, 2186, 2292, 2642, 2725, 2801, 3026, 3309, 3417, 4378, 9359]}, "edge": {"target": [], "time": []}}}, "displayed_time": "8.53", "trialTime": 10180, "trial_type": "mouselab-mdp", "trial_index": 46, "time_elapsed": 808884, "internal_node_id": "0.0-4.0-3.0-6.0"}}, {"uniqueid": "w55110689:a68129849", "current_trial": 47, "dateTime": 1664555897663, "trialdata": {"revealed_states": [], "num_clicks_accrued": [0, 0, 0, 0, 0, 0, 0, 0, 0, 0, 0, 0, 0], "stateRewards": ["", 4, -4, 48, -48, 2, 8, -48, 24, -2, -4, -24, 48], "withholdReward": false, "trial_id": "mdp_937564992306", "block": "test2", "trialIndex": 39, "score": 52.75, "costs": -0.25, "simulationMode": [null, null, null], "rewards": [4, -4, 48], "path": ["0", "0", "1", "2", "3"], "rt": [1256, 105, 2], "actions": ["up", "up", "right"], "actionTimes": [1839, 2446, 2944], "queries": {"click": {"state": {"target": ["3"], "time": [1032]}, "edge": {"target": [], "time": []}}, "mouseover": {"state": {"target": ["3", "2"], "time": [899, 1183]}, "edge": {"target": [], "time": []}}, "mouseout": {"state": {"target": ["0", "3", "2", "2", "3", "6", "8"], "time": [415, 1151, 1207, 4257, 7657, 7782, 7857]}, "edge": {"target": [], "time": []}}}, "displayed_time": "8.58", "trialTime": 9442, "trial_type": "mouselab-mdp", "trial_index": 47, "time_elapsed": 818389, "internal_node_id": "0.0-4.0-3.0-7.0"}}, {"uniqueid": "w55110689:a68129849", "current_trial": 48, "dateTime": 1664555908825, "trialdata": {"revealed_states": [], "num_clicks_accrued": [0, 0, 0, 0, 0, 0, 0, 0, 0, 0, 0, 0, 0], "stateRewards": ["", -2, -4, 48, -24, -4, -4, -24, -24, -2, 4, -48, -24], "withholdReward": true, "trial_id": "mdp_410467837196", "block": "test2", "trialIndex": 40, "score": 46.5, "costs": -0.5, "simulationMode": [null, null, null], "rewards": [-2, -4, 48], "path": ["0", "0", "1", "2", "3"], "rt": [1863, 127, 155], "actions": ["up", "up", "right"], "actionTimes": [2396, 3032, 3694], "queries": {"click": {"state": {"target": ["4", "3"], "time": [1090, 1602]}, "edge": {"target": [], "time": []}}, "mouseover": {"state": {"target": ["4", "1", "3", "7"], "time": [1022, 1330, 1505, 1830]}, "edge": {"target": [], "time": []}}, "mouseout": {"state": {"target": ["0", "4", "1", "3", "7", "5"], "time": [713, 1273, 1397, 1763, 7763, 9821]}, "edge": {"target": [], "time": []}}}, "displayed_time": "9.54", "trialTime": 11102, "trial_type": "mouselab-mdp", "trial_index": 48, "time_elapsed": 829551, "internal_node_id": "0.0-4.0-3.0-8.0"}}, {"uniqueid": "w55110689:a68129849", "current_trial": 49, "dateTime": 1664555918980, "trialdata": {"revealed_states": [], "num_clicks_accrued": [0, 0, 0, 0, 0, 0, 0, 0, 0, 0, 0, 0, 0], "stateRewards": ["", 2, -8, 48, -24, 2, -4, 24, 48, 4, -4, 48, -24], "withholdReward": false, "trial_id": "mdp_656500928756", "block": "test2", "trialIndex": 41, "score": 46.5, "costs": -0.5, "simulationMode": [null, null, null], "rewards": [2, -8, 48], "path": ["0", "0", "1", "2", "3"], "rt": [2005, 99, 189], "actions": ["up", "up", "right"], "actionTimes": [3259, 3861, 4551], "queries": {"click": {"state": {"target": ["4", "3"], "time": [2026, 2530]}, "edge": {"target": [], "time": []}}, "mouseover": {"state": {"target": ["1", "2", "4", "2", "3", "7"], "time": [1445, 1611, 1921, 2253, 2395, 2721]}, "edge": {"target": [], "time": []}}, "mouseout": {"state": {"target": ["5", "1", "2", "4", "2", "3", "7"], "time": [945, 1536, 1865, 2203, 2336, 2673, 5436]}, "edge": {"target": [], "time": []}}}, "displayed_time": "9.26", "trialTime": 10097, "trial_type": "mouselab-mdp", "trial_index": 49, "time_elapsed": 839706, "internal_node_id": "0.0-4.0-3.0-9.0"}}, {"uniqueid": "w55110689:a68129849", "current_trial": 50, "dateTime": 1664555929376, "trialdata": {"revealed_states": [], "num_clicks_accrued": [0, 0, 0, 0, 0, 0, 0, 0, 0, 0, 0, 0, 0], "stateRewards": ["", 4, 4, 48, -48, -2, -8, -48, -24, 2, 4, -24, -48], "withholdReward": true, "trial_id": "mdp_239929662917", "block": "test2", "trialIndex": 42, "score": 60.5, "costs": -0.5, "simulationMode": [null, null, null], "rewards": [4, 4, 48], "path": ["0", "0", "1", "2", "3"], "rt": [1591, 182, 175], "actions": ["up", "up", "right"], "actionTimes": [2184, 2861, 3546], "queries": {"click": {"state": {"target": ["4", "3"], "time": [949, 1437]}, "edge": {"target": [], "time": []}}, "mouseover": {"state": {"target": ["4", "1", "3", "7"], "time": [821, 1196, 1346, 1646]}, "edge": {"target": [], "time": []}}, "mouseout": {"state": {"target": ["6", "1", "2", "1", "0", "4", "1", "3", "7", "7"], "time": [20, 104, 252, 379, 638, 1156, 1213, 1564, 4571, 8813]}, "edge": {"target": [], "time": []}}}, "displayed_time": "9.59", "trialTime": 10336, "trial_type": "mouselab-mdp", "trial_index": 50, "time_elapsed": 850102, "internal_node_id": "0.0-4.0-3.0-10.0"}}, {"uniqueid": "w55110689:a68129849", "current_trial": 51, "dateTime": 1664555938387, "trialdata": {"revealed_states": [], "num_clicks_accrued": [0, 0, 0, 0, 0, 0, 0, 0, 0, 0, 0, 0, 0], "stateRewards": ["", -2, 4, 48, -24, 2, 8, 24, 48, 2, 4, -24, -48], "withholdReward": true, "trial_id": "mdp_892412058587", "block": "test2", "trialIndex": 43, "score": 54.75, "costs": -0.25, "simulationMode": [null, null, null], "rewards": [-2, 4, 48], "path": ["0", "0", "1", "2", "3"], "rt": [1087, 88, 111], "actions": ["up", "up", "right"], "actionTimes": [1579, 2163, 2777], "queries": {"click": {"state": {"target": ["3"], "time": [881]}, "edge": {"target": [], "time": []}}, "mouseover": {"state": {"target": ["3"], "time": [808]}, "edge": {"target": [], "time": []}}, "mouseout": {"state": {"target": ["0", "3"], "time": [391, 1050]}, "edge": {"target": [], "time": []}}}, "displayed_time": "8.49", "trialTime": 8951, "trial_type": "mouselab-mdp", "trial_index": 51, "time_elapsed": 859113, "internal_node_id": "0.0-4.0-3.0-11.0"}}, {"uniqueid": "w55110689:a68129849", "current_trial": 52, "dateTime": 1664555948007, "trialdata": {"revealed_states": [], "num_clicks_accrued": [0, 0, 0, 0, 0, 0, 0, 0, 0, 0, 0, 0, 0], "stateRewards": ["", -2, 8, -24, 24, -4, -8, -24, 48, -2, -8, -48, 48], "withholdReward": true, "trial_id": "mdp_238332601315", "block": "test2", "trialIndex": 44, "score": 42.25, "costs": -0.75, "simulationMode": [null, null, null], "rewards": [-2, -8, 48], "path": ["0", "0", "9", "10", "12"], "rt": [2231, 25, 179], "actions": ["left", "left", "down"], "actionTimes": [2788, 3306, 4002], "queries": {"click": {"state": {"target": ["3", "4", "12"], "time": [935, 1447, 2007]}, "edge": {"target": [], "time": []}}, "mouseover": {"state": {"target": ["3", "1", "4", "9", "12", "10", "11"], "time": [889, 1248, 1364, 1689, 1831, 2123, 2173]}, "edge": {"target": [], "time": []}}, "mouseout": {"state": {"target": ["3", "1", "4", "9", "12", "10", "11"], "time": [1098, 1281, 1548, 1790, 2106, 2148, 2431]}, "edge": {"target": [], "time": []}}}, "displayed_time": "8.56", "trialTime": 9561, "trial_type": "mouselab-mdp", "trial_index": 52, "time_elapsed": 868733, "internal_node_id": "0.0-4.0-3.0-12.0"}}, {"uniqueid": "w55110689:a68129849", "current_trial": 53, "dateTime": 1664555957287, "trialdata": {"revealed_states": [], "num_clicks_accrued": [0, 0, 0, 0, 0, 0, 0, 0, 0, 0, 0, 0, 0], "stateRewards": ["", 2, 4, 48, -48, 2, -4, 48, 24, -2, -8, -24, 48], "withholdReward": true, "trial_id": "mdp_962424406744", "block": "test2", "trialIndex": 45, "score": 42.75, "costs": -0.25, "simulationMode": [null, null, null], "rewards": [-2, -8, 48], "path": ["0", "0", "9", "10", "12"], "rt": [1376, 23, 651], "actions": ["left", "left", "down"], "actionTimes": [2199, 2716, 3869], "queries": {"click": {"state": {"target": ["12"], "time": [1466]}, "edge": {"target": [], "time": []}}, "mouseover": {"state": {"target": ["11", "10", "12", "10"], "time": [1151, 1276, 1351, 1601]}, "edge": {"target": [], "time": []}}, "mouseout": {"state": {"target": ["10", "9", "11", "10", "12", "10", "11"], "time": [268, 493, 1235, 1318, 1576, 1685, 8677]}, "edge": {"target": [], "time": []}}}, "displayed_time": "8.82", "trialTime": 9220, "trial_type": "mouselab-mdp", "trial_index": 53, "time_elapsed": 878013, "internal_node_id": "0.0-4.0-3.0-13.0"}}, {"uniqueid": "w55110689:a68129849", "current_trial": 54, "dateTime": 1664555966370, "trialdata": {"revealed_states": [], "num_clicks_accrued": [0, 0, 0, 0, 0, 0, 0, 0, 0, 0, 0, 0, 0], "stateRewards": ["", -2, -8, 24, -24, 4, -8, 48, 48, -4, -8, -24, -48], "withholdReward": true, "trial_id": "mdp_286767261523", "block": "test2", "trialIndex": 46, "score": 48.25, "costs": -0.75, "simulationMode": [null, null, null], "rewards": [4, -8, 48], "path": ["0", "0", "5", "6", "7"], "rt": [2819, 86, 141], "actions": ["right", "right", "up"], "actionTimes": [3258, 3849, 4487], "queries": {"click": {"state": {"target": ["11", "12", "7"], "time": [1170, 1802, 2546]}, "edge": {"target": [], "time": []}}, "mouseover": {"state": {"target": ["11", "12", "6", "7"], "time": [1057, 1714, 2329, 2455]}, "edge": {"target": [], "time": []}}, "mouseout": {"state": {"target": ["0", "11", "12", "6", "7", "5", "0", "9"], "time": [513, 1329, 1971, 2405, 2721, 7146, 7204, 8896]}, "edge": {"target": [], "time": []}}}, "displayed_time": "8.44", "trialTime": 9023, "trial_type": "mouselab-mdp", "trial_index": 54, "time_elapsed": 887096, "internal_node_id": "0.0-4.0-3.0-14.0"}}, {"uniqueid": "w55110689:a68129849", "current_trial": 55, "dateTime": 1664555975738, "trialdata": {"revealed_states": [], "num_clicks_accrued": [0, 0, 0, 0, 0, 0, 0, 0, 0, 0, 0, 0, 0], "stateRewards": ["", 2, 4, -24, -48, 4, -4, 24, 48, -4, -4, -24, 48], "withholdReward": true, "trial_id": "mdp_181958792175", "block": "test2", "trialIndex": 47, "score": 52.5, "costs": -0.5, "simulationMode": [null, null, null], "rewards": [4, -4, 48], "path": ["0", "0", "5", "6", "8"], "rt": [1736, 50, 258], "actions": ["right", "right", "down"], "actionTimes": [2330, 2890, 3656], "queries": {"click": {"state": {"target": ["7", "8"], "time": [1040, 1616]}, "edge": {"target": [], "time": []}}, "mouseover": {"state": {"target": ["5", "7", "6", "8", "5"], "time": [800, 939, 1223, 1495, 1783]}, "edge": {"target": [], "time": []}}, "mouseout": {"state": {"target": ["0", "5", "7", "6", "8", "5", "5", "0"], "time": [481, 847, 1151, 1406, 1743, 8896, 9131, 9222]}, "edge": {"target": [], "time": []}}}, "displayed_time": "8.60", "trialTime": 9301, "trial_type": "mouselab-mdp", "trial_index": 55, "time_elapsed": 896464, "internal_node_id": "0.0-4.0-3.0-15.0"}}, {"uniqueid": "w55110689:a68129849", "current_trial": 56, "dateTime": 1664555985823, "trialdata": {"revealed_states": [], "num_clicks_accrued": [0, 0, 0, 0, 0, 0, 0, 0, 0, 0, 0, 0, 0], "stateRewards": ["", -4, -8, -48, 48, -2, -8, -48, -24, 4, 8, 24, -48], "withholdReward": false, "trial_id": "mdp_509977295685", "block": "test2", "trialIndex": 48, "score": 40.75, "costs": -0.25, "simulationMode": [null, null, null], "rewards": [-4, -8, 48], "path": ["0", "0", "1", "2", "4"], "rt": [1216, 125, 338], "actions": ["up", "up", "left"], "actionTimes": [1985, 2619, 3463], "queries": {"click": {"state": {"target": ["4"], "time": [1148]}, "edge": {"target": [], "time": []}}, "mouseover": {"state": {"target": ["4"], "time": [1083]}, "edge": {"target": [], "time": []}}, "mouseout": {"state": {"target": ["1", "4", "1", "4"], "time": [75, 379, 458, 1267]}, "edge": {"target": [], "time": []}}}, "displayed_time": "9.77", "trialTime": 10021, "trial_type": "mouselab-mdp", "trial_index": 56, "time_elapsed": 906549, "internal_node_id": "0.0-4.0-3.0-16.0"}}, {"uniqueid": "w55110689:a68129849", "current_trial": 57, "dateTime": 1664555995770, "trialdata": {"revealed_states": [], "num_clicks_accrued": [0, 0, 0, 0, 0, 0, 0, 0, 0, 0, 0, 0, 0], "stateRewards": ["", 2, 4, 24, 48, -2, 8, 24, -24, -4, -4, 48, 48], "withholdReward": false, "trial_id": "mdp_753439303214", "block": "test2", "trialIndex": 49, "score": 44.75, "costs": -0.25, "simulationMode": [null, null, null], "rewards": [-4, -4, 48], "path": ["0", "0", "9", "10", "11"], "rt": [1104, 70, 238], "actions": ["left", "left", "up"], "actionTimes": [1855, 2421, 3155], "queries": {"click": {"state": {"target": ["11"], "time": [1185]}, "edge": {"target": [], "time": []}}, "mouseover": {"state": {"target": ["11"], "time": [1033]}, "edge": {"target": [], "time": []}}, "mouseout": {"state": {"target": ["11", "1", "0"], "time": [1292, 8800, 8908]}, "edge": {"target": [], "time": []}}}, "displayed_time": "8.75", "trialTime": 9885, "trial_type": "mouselab-mdp", "trial_index": 57, "time_elapsed": 916495, "internal_node_id": "0.0-4.0-3.0-17.0"}}, {"uniqueid": "w55110689:a68129849", "current_trial": 58, "dateTime": 1664556004830, "trialdata": {"revealed_states": [], "num_clicks_accrued": [0, 0, 0, 0, 0, 0, 0, 0, 0, 0, 0, 0, 0], "stateRewards": ["", -2, -8, 48, 24, 2, 4, 24, -24, -2, -4, 48, -48], "withholdReward": true, "trial_id": "mdp_411152402386", "block": "test2", "trialIndex": 50, "score": 42.5, "costs": -0.5, "simulationMode": [null, null, null], "rewards": [-2, -8, 48], "path": ["0", "0", "1", "2", "3"], "rt": [1788, 157, 177], "actions": ["up", "up", "right"], "actionTimes": [2331, 3007, 3693], "queries": {"click": {"state": {"target": ["4", "3"], "time": [882, 1522]}, "edge": {"target": [], "time": []}}, "mouseover": {"state": {"target": ["4", "1", "3", "5", "5"], "time": [782, 1316, 1424, 1749, 1866]}, "edge": {"target": [], "time": []}}, "mouseout": {"state": {"target": ["0", "4", "1", "3", "5", "5"], "time": [257, 982, 1349, 1641, 1815, 8777]}, "edge": {"target": [], "time": []}}}, "displayed_time": "8.54", "trialTime": 8995, "trial_type": "mouselab-mdp", "trial_index": 58, "time_elapsed": 925556, "internal_node_id": "0.0-4.0-3.0-18.0"}}, {"uniqueid": "w55110689:a68129849", "current_trial": 59, "dateTime": 1664556016617, "trialdata": {"revealed_states": [], "num_clicks_accrued": [0, 0, 0, 0, 0, 0, 0, 0, 0, 0, 0, 0, 0], "stateRewards": ["", -2, 4, -24, 24, -4, -8, 24, -48, -4, -4, -48, -24], "withholdReward": true, "trial_id": "mdp_753137520419", "block": "test2", "trialIndex": 51, "score": 15.5, "costs": -1.5, "simulationMode": [null, null, null], "rewards": [-4, -8, 24], "path": ["0", "0", "5", "6", "7"], "rt": [4631, 203, 495], "actions": ["right", "right", "up"], "actionTimes": [5075, 5773, 6773], "queries": {"click": {"state": {"target": ["11", "4", "3", "8", "7", "12"], "time": [828, 1292, 1932, 2844, 3260, 3820]}, "edge": {"target": [], "time": []}}, "mouseover": {"state": {"target": ["11", "4", "2", "3", "3", "7", "6", "8", "6", "8", "6", "7", "0", "12", "10", "9"], "time": [753, 1219, 1513, 1586, 1828, 2136, 2277, 2569, 2619, 2755, 3061, 3169, 3544, 3711, 3986, 4195]}, "edge": {"target": [], "time": []}}, "mouseout": {"state": {"target": ["0", "11", "4", "2", "3", "3", "7", "6", "8", "6", "8", "6", "7", "0", "12", "10", "9"], "time": [386, 1053, 1435, 1544, 1619, 2052, 2236, 2286, 2594, 2739, 2986, 3128, 3419, 3561, 3944, 4155, 4211]}, "edge": {"target": [], "time": []}}}, "displayed_time": "8.45", "trialTime": 11728, "trial_type": "mouselab-mdp", "trial_index": 59, "time_elapsed": 937343, "internal_node_id": "0.0-4.0-3.0-19.0"}}, {"uniqueid": "w55110689:a68129849", "current_trial": 60, "dateTime": 1664556027251, "trialdata": {"revealed_states": [], "num_clicks_accrued": [0, 0, 0, 0, 0, 0, 0, 0, 0, 0, 0, 0, 0], "stateRewards": ["", 2, 4, -48, 48, -4, 8, -48, -24, -4, -4, 48, 48], "withholdReward": true, "trial_id": "mdp_613582696541", "block": "test2", "trialIndex": 52, "score": 44.75, "costs": -0.25, "simulationMode": [null, null, null], "rewards": [-4, -4, 48], "path": ["0", "0", "9", "10", "11"], "rt": [1356, 261, 156], "actions": ["left", "left", "up"], "actionTimes": [2805, 3568, 4222], "queries": {"click": {"state": {"target": ["11"], "time": [1897]}, "edge": {"target": [], "time": []}}, "mouseover": {"state": {"target": ["11"], "time": [1815]}, "edge": {"target": [], "time": []}}, "mouseout": {"state": {"target": ["5", "11", "9", "0"], "time": [1168, 1965, 5657, 7474]}, "edge": {"target": [], "time": []}}}, "displayed_time": "9.45", "trialTime": 10574, "trial_type": "mouselab-mdp", "trial_index": 60, "time_elapsed": 947976, "internal_node_id": "0.0-4.0-3.0-20.0"}}, {"uniqueid": "w55110689:a68129849", "current_trial": 61, "dateTime": 1664556037401, "trialdata": {"revealed_states": [], "num_clicks_accrued": [0, 0, 0, 0, 0, 0, 0, 0, 0, 0, 0, 0, 0], "stateRewards": ["", 4, 4, 48, -24, -4, -8, 24, -24, 2, -8, -24, 24], "withholdReward": true, "trial_id": "mdp_933201675789", "block": "test2", "trialIndex": 53, "score": 60.25, "costs": -0.75, "simulationMode": [null, null, null], "rewards": [4, 4, 48], "path": ["0", "0", "1", "2", "3"], "rt": [2659, 49, 213], "actions": ["up", "up", "right"], "actionTimes": [3055, 3614, 4328], "queries": {"click": {"state": {"target": ["12", "11", "3"], "time": [1335, 1799, 2311]}, "edge": {"target": [], "time": []}}, "mouseover": {"state": {"target": ["9", "10", "12", "11", "2", "3", "2"], "time": [910, 1126, 1248, 1698, 2106, 2190, 2498]}, "edge": {"target": [], "time": []}}, "mouseout": {"state": {"target": ["0", "9", "10", "12", "11", "2", "3", "2"], "time": [198, 1048, 1214, 1423, 1890, 2148, 2439, 2648]}, "edge": {"target": [], "time": []}}}, "displayed_time": "9.40", "trialTime": 10082, "trial_type": "mouselab-mdp", "trial_index": 61, "time_elapsed": 958127, "internal_node_id": "0.0-4.0-3.0-21.0"}}, {"uniqueid": "w55110689:a68129849", "current_trial": 62, "dateTime": 1664556049060, "trialdata": {"revealed_states": [], "num_clicks_accrued": [0, 0, 0, 0, 0, 0, 0, 0, 0, 0, 0, 0, 0], "stateRewards": ["", -2, -8, 48, 24, 2, 8, -48, 24, -4, 8, 48, 48], "withholdReward": false, "trial_id": "mdp_875436109858", "block": "test2", "trialIndex": 54, "score": 42.25, "costs": -0.75, "simulationMode": [null, null, null], "rewards": [-2, -8, 48], "path": ["0", "0", "1", "2", "3"], "rt": [2684, 468, 116], "actions": ["up", "up", "right"], "actionTimes": [3615, 4585, 5199], "queries": {"click": {"state": {"target": ["7", "4", "3"], "time": [1467, 2259, 2795]}, "edge": {"target": [], "time": []}}, "mouseover": {"state": {"target": ["7", "3", "2", "4", "2", "3"], "time": [1400, 1891, 2059, 2116, 2550, 2746]}, "edge": {"target": [], "time": []}}, "mouseout": {"state": {"target": ["5", "0", "7", "3", "2", "4", "2", "3", "5"], "time": [724, 1058, 1666, 2034, 2091, 2525, 2608, 3158, 11010]}, "edge": {"target": [], "time": []}}}, "displayed_time": "9.93", "trialTime": 11593, "trial_type": "mouselab-mdp", "trial_index": 62, "time_elapsed": 969786, "internal_node_id": "0.0-4.0-3.0-22.0"}}, {"uniqueid": "w55110689:a68129849", "current_trial": 63, "dateTime": 1664556059067, "trialdata": {"revealed_states": [], "num_clicks_accrued": [0, 0, 0, 0, 0, 0, 0, 0, 0, 0, 0, 0, 0], "stateRewards": ["", 2, 8, 24, -48, 4, 8, 24, 48, 2, -8, -24, 24], "withholdReward": true, "trial_id": "mdp_939899431582", "block": "test2", "trialIndex": 55, "score": 63.75, "costs": -1.25, "simulationMode": [null, null, null], "rewards": [4, 8, 48], "path": ["0", "0", "5", "6", "8"], "rt": [4542, 372, 142], "actions": ["right", "right", "down"], "actionTimes": [5656, 6523, 7161], "queries": {"click": {"state": {"target": ["12", "11", "3", "4", "8"], "time": [1794, 2282, 2770, 3578, 4346]}, "edge": {"target": [], "time": []}}, "mouseover": {"state": {"target": ["9", "10", "12", "11", "1", "3", "1", "4", "4", "1", "6", "8", "6"], "time": [1385, 1450, 1692, 2167, 2509, 2692, 3145, 3177, 3517, 3751, 3834, 4226, 4713]}, "edge": {"target": [], "time": []}}, "mouseout": {"state": {"target": ["5", "0", "9", "10", "12", "11", "1", "3", "1", "4", "4", "1", "6", "8", "6"], "time": [825, 1242, 1426, 1476, 2017, 2417, 2542, 2909, 3153, 3185, 3705, 3784, 3884, 4426, 9338]}, "edge": {"target": [], "time": []}}}, "displayed_time": "9.11", "trialTime": 9944, "trial_type": "mouselab-mdp", "trial_index": 63, "time_elapsed": 979793, "internal_node_id": "0.0-4.0-3.0-23.0"}}, {"uniqueid": "w55110689:a68129849", "current_trial": 64, "dateTime": 1664556069858, "trialdata": {"revealed_states": [], "num_clicks_accrued": [0, 0, 0, 0, 0, 0, 0, 0, 0, 0, 0, 0, 0], "stateRewards": ["", 4, -8, 48, 24, 4, -4, 48, 48, -4, 8, -48, 24], "withholdReward": true, "trial_id": "mdp_303828806348", "block": "test2", "trialIndex": 56, "score": 52.75, "costs": -0.25, "simulationMode": [null, null, null], "rewards": [4, -4, 48], "path": ["0", "0", "5", "6", "7"], "rt": [1730, 50, 132], "actions": ["right", "right", "up"], "actionTimes": [2521, 3079, 3721], "queries": {"click": {"state": {"target": ["7"], "time": [1789]}, "edge": {"target": [], "time": []}}, "mouseover": {"state": {"target": ["5", "7"], "time": [1004, 1696]}, "edge": {"target": [], "time": []}}, "mouseout": {"state": {"target": ["0", "5", "7"], "time": [980, 1021, 1932]}, "edge": {"target": [], "time": []}}}, "displayed_time": "9.79", "trialTime": 10722, "trial_type": "mouselab-mdp", "trial_index": 64, "time_elapsed": 990584, "internal_node_id": "0.0-4.0-3.0-24.0"}}, {"uniqueid": "w55110689:a68129849", "current_trial": 65, "dateTime": 1664556080678, "trialdata": {"revealed_states": [], "num_clicks_accrued": [0, 0, 0, 0, 0, 0, 0, 0, 0, 0, 0, 0, 0], "stateRewards": ["", 4, -8, 24, 48, -2, -4, -48, 24, 2, 4, -48, -24], "withholdReward": true, "trial_id": "mdp_749974461966", "block": "test2", "trialIndex": 57, "score": 48.5, "costs": -0.5, "simulationMode": [null, null, null], "rewards": [4, -8, 48], "path": ["0", "0", "1", "2", "4"], "rt": [1934, 90, 36], "actions": ["up", "up", "left"], "actionTimes": [2727, 3315, 3861], "queries": {"click": {"state": {"target": ["3", "4"], "time": [1234, 1874]}, "edge": {"target": [], "time": []}}, "mouseover": {"state": {"target": ["1", "3", "4", "5"], "time": [961, 1117, 1767, 2158]}, "edge": {"target": [], "time": []}}, "mouseout": {"state": {"target": ["1", "3", "4", "5", "5"], "time": [1017, 1353, 1985, 2175, 10258]}, "edge": {"target": [], "time": []}}}, "displayed_time": "9.79", "trialTime": 10754, "trial_type": "mouselab-mdp", "trial_index": 65, "time_elapsed": 1001404, "internal_node_id": "0.0-4.0-3.0-25.0"}}, {"uniqueid": "w55110689:a68129849", "current_trial": 66, "dateTime": 1664556091108, "trialdata": {"revealed_states": [], "num_clicks_accrued": [0, 0, 0, 0, 0, 0, 0, 0, 0, 0, 0, 0, 0], "stateRewards": ["", 2, 4, 48, -48, 2, 8, -24, 48, 4, 8, 48, -48], "withholdReward": true, "trial_id": "mdp_110142964375", "block": "test2", "trialIndex": 58, "score": 58.25, "costs": -0.75, "simulationMode": [null, null, null], "rewards": [2, 4, 48], "path": ["0", "0", "1", "2", "3"], "rt": [2435, 398, 68], "actions": ["up", "up", "right"], "actionTimes": [3279, 4184, 4747], "queries": {"click": {"state": {"target": ["7", "4", "3"], "time": [1420, 2092, 2556]}, "edge": {"target": [], "time": []}}, "mouseover": {"state": {"target": ["5", "6", "7", "2", "4", "2", "3", "6", "8"], "time": [970, 1111, 1311, 1903, 1936, 2236, 2403, 2770, 2803]}, "edge": {"target": [], "time": []}}, "mouseout": {"state": {"target": ["5", "0", "5", "6", "7", "2", "4", "2", "3", "6", "8"], "time": [611, 920, 1053, 1186, 1611, 1911, 2203, 2328, 2675, 2778, 2911]}, "edge": {"target": [], "time": []}}}, "displayed_time": "8.85", "trialTime": 10362, "trial_type": "mouselab-mdp", "trial_index": 66, "time_elapsed": 1011833, "internal_node_id": "0.0-4.0-3.0-26.0"}}, {"uniqueid": "w55110689:a68129849", "current_trial": 67, "dateTime": 1664556101901, "trialdata": {"revealed_states": [], "num_clicks_accrued": [0, 0, 0, 0, 0, 0, 0, 0, 0, 0, 0, 0, 0], "stateRewards": ["", -4, 8, 24, 24, -2, 8, -48, 48, 4, -8, 48, -48], "withholdReward": true, "trial_id": "mdp_295249220524", "block": "test2", "trialIndex": 59, "score": 48.25, "costs": -0.75, "simulationMode": [null, null, null], "rewards": [4, -8, 48], "path": ["0", "0", "9", "10", "11"], "rt": [2871, 316, 55], "actions": ["left", "left", "up"], "actionTimes": [3775, 4599, 5164], "queries": {"click": {"state": {"target": ["4", "12", "11"], "time": [1576, 2616, 3048]}, "edge": {"target": [], "time": []}}, "mouseover": {"state": {"target": ["4", "9", "10", "12", "10", "11", "1"], "time": [1479, 1908, 1991, 2375, 2841, 2967, 3400]}, "edge": {"target": [], "time": []}}, "mouseout": {"state": {"target": ["8", "0", "4", "9", "10", "12", "10", "11", "1"], "time": [463, 941, 1759, 1924, 2016, 2800, 2916, 3279, 3416]}, "edge": {"target": [], "time": []}}}, "displayed_time": "9.90", "trialTime": 10728, "trial_type": "mouselab-mdp", "trial_index": 67, "time_elapsed": 1022627, "internal_node_id": "0.0-4.0-3.0-27.0"}}, {"uniqueid": "w55110689:a68129849", "current_trial": 68, "dateTime": 1664556113097, "trialdata": {"revealed_states": [], "num_clicks_accrued": [0, 0, 0, 0, 0, 0, 0, 0, 0, 0, 0, 0, 0], "stateRewards": ["", -2, 8, 48, -24, 2, 4, -48, -24, -4, 8, -48, -48], "withholdReward": true, "trial_id": "mdp_539167561933", "block": "test2", "trialIndex": 60, "score": 58.25, "costs": -0.75, "simulationMode": [null, null, null], "rewards": [-2, 8, 48], "path": ["0", "0", "1", "2", "3"], "rt": [2624, 384, 52], "actions": ["up", "up", "right"], "actionTimes": [3632, 4525, 5076], "queries": {"click": {"state": {"target": ["7", "8", "3"], "time": [1511, 2007, 2647]}, "edge": {"target": [], "time": []}}, "mouseover": {"state": {"target": ["7", "6", "8", "3", "2"], "time": [1398, 1758, 1865, 2507, 2923]}, "edge": {"target": [], "time": []}}, "mouseout": {"state": {"target": ["0", "7", "6", "8", "7", "3"], "time": [1126, 1710, 1815, 2158, 2382, 2865]}, "edge": {"target": [], "time": []}}}, "displayed_time": "10.01", "trialTime": 11123, "trial_type": "mouselab-mdp", "trial_index": 68, "time_elapsed": 1033823, "internal_node_id": "0.0-4.0-3.0-28.0"}}, {"uniqueid": "w55110689:a68129849", "current_trial": 69, "dateTime": 1664556125186, "trialdata": {"revealed_states": [], "num_clicks_accrued": [0, 0, 0, 0, 0, 0, 0, 0, 0, 0, 0, 0, 0], "stateRewards": ["", -2, -4, -24, 48, -2, -8, -48, -24, 4, 8, 48, 24], "withholdReward": true, "trial_id": "mdp_625355871626", "block": "test2", "trialIndex": 61, "score": 46.75, "costs": -0.25, "simulationMode": [null, null, null], "rewards": [-2, -4, 48], "path": ["0", "0", "1", "2", "4"], "rt": [1737, 524, 234], "actions": ["up", "up", "left"], "actionTimes": [2641, 3667, 4408], "queries": {"click": {"state": {"target": ["4"], "time": [1880]}, "edge": {"target": [], "time": []}}, "mouseover": {"state": {"target": ["1", "4", "4", "4", "2", "1"], "time": [1165, 1332, 1543, 1775, 2115, 2274]}, "edge": {"target": [], "time": []}}, "mouseout": {"state": {"target": ["2", "1", "0", "1", "4", "4", "4", "2", "1"], "time": [559, 715, 1082, 1207, 1382, 1590, 2048, 2232, 9616]}, "edge": {"target": [], "time": []}}}, "displayed_time": "10.90", "trialTime": 12021, "trial_type": "mouselab-mdp", "trial_index": 69, "time_elapsed": 1045912, "internal_node_id": "0.0-4.0-3.0-29.0"}}, {"uniqueid": "w55110689:a68129849", "current_trial": 70, "dateTime": 1664556127018, "trialdata": {"rt": 1828, "stimulus": "<h1> End of block! </h1>\n\nYou have reached the end of the block 2/4. If you need a short break, feel free to take one now before moving on.\n\n<br><br>\nIn the next block, you will complete another 30 rounds of this game.\n\n<br><br>\n<div style='text-align: center;'>Press <code>space</code> to begin.</div>\n<br><br>\n<div style='text-align: center;'>(If the experiment doesn't continue, try clicking on the text and then pressing <code>space</code>.)</div>", "response": " ", "trial_id": "mdp_ready_3", "trial_type": "html-keyboard-response", "trial_index": 70, "time_elapsed": 1047744, "internal_node_id": "0.0-4.0-4.0"}}, {"uniqueid": "w55110689:a68129849", "current_trial": 71, "dateTime": 1664556137881, "trialdata": {"revealed_states": [], "num_clicks_accrued": [0, 0, 0, 0, 0, 0, 0, 0, 0, 0, 0, 0, 0], "stateRewards": ["", 4, 8, 48, 48, 4, 4, -24, -48, 4, 8, -48, -48], "withholdReward": true, "trial_id": "mdp_984548726931", "block": "test3", "trialIndex": 62, "score": 64.75, "costs": -0.25, "simulationMode": [null, null, null], "rewards": [4, 8, 48], "path": ["0", "0", "1", "2", "3"], "rt": [1189, 197, 277], "actions": ["up", "up", "right"], "actionTimes": [2163, 2865, 3645], "queries": {"click": {"state": {"target": ["3"], "time": [1493]}, "edge": {"target": [], "time": []}}, "mouseover": {"state": {"target": ["3"], "time": [1376]}, "edge": {"target": [], "time": []}}, "mouseout": {"state": {"target": ["5", "3", "3", "3", "0", "12", "9", "0"], "time": [701, 1620, 7792, 9204, 9309, 9469, 9592, 9734]}, "edge": {"target": [], "time": []}}}, "displayed_time": "9.98", "trialTime": 10793, "trial_type": "mouselab-mdp", "trial_index": 71, "time_elapsed": 1058607, "internal_node_id": "0.0-4.0-5.0-0.0"}}, {"uniqueid": "w55110689:a68129849", "current_trial": 72, "dateTime": 1664556148552, "trialdata": {"revealed_states": [], "num_clicks_accrued": [0, 0, 0, 0, 0, 0, 0, 0, 0, 0, 0, 0, 0], "stateRewards": ["", 4, -8, -24, 24, 2, -4, 24, 24, 2, -4, 48, 48], "withholdReward": true, "trial_id": "mdp_457607480918", "block": "test3", "trialIndex": 63, "score": 50.75, "costs": -0.25, "simulationMode": [null, null, null], "rewards": [2, -4, 48], "path": ["0", "0", "9", "10", "12"], "rt": [1307, 50, 270], "actions": ["left", "left", "down"], "actionTimes": [2124, 2675, 3445], "queries": {"click": {"state": {"target": ["12"], "time": [1419]}, "edge": {"target": [], "time": []}}, "mouseover": {"state": {"target": ["12"], "time": [1350]}, "edge": {"target": [], "time": []}}, "mouseout": {"state": {"target": ["5", "3", "2", "1", "0", "12"], "time": [401, 533, 575, 608, 906, 1542]}, "edge": {"target": [], "time": []}}}, "displayed_time": "9.82", "trialTime": 10597, "trial_type": "mouselab-mdp", "trial_index": 72, "time_elapsed": 1069278, "internal_node_id": "0.0-4.0-5.0-1.0"}}, {"uniqueid": "w55110689:a68129849", "current_trial": 73, "dateTime": 1664556160178, "trialdata": {"revealed_states": [], "num_clicks_accrued": [0, 0, 0, 0, 0, 0, 0, 0, 0, 0, 0, 0, 0], "stateRewards": ["", -4, 4, -48, -48, -4, 8, -24, 24, 2, -4, 48, 48], "withholdReward": true, "trial_id": "mdp_821566905048", "block": "test3", "trialIndex": 64, "score": 49.75, "costs": -1.25, "simulationMode": [null, null, null], "rewards": [2, -4, 48], "path": ["0", "0", "9", "10", "11"], "rt": [3813, 232, 81], "actions": ["left", "left", "up"], "actionTimes": [5135, 5876, 6457], "queries": {"click": {"state": {"target": ["4", "3", "8", "7", "11"], "time": [1945, 2457, 3073, 3553, 4434]}, "edge": {"target": [], "time": []}}, "mouseover": {"state": {"target": ["4", "3", "7", "8", "7", "5", "9", "11", "10"], "time": [1843, 2351, 2743, 2985, 3476, 3784, 3885, 4328, 4601]}, "edge": {"target": [], "time": []}}, "mouseout": {"state": {"target": ["12", "9", "0", "4", "3", "7", "8", "7", "5", "9", "11"], "time": [468, 712, 1369, 2201, 2617, 2776, 3160, 3704, 3826, 3910, 4569]}, "edge": {"target": [], "time": []}}}, "displayed_time": "10.32", "trialTime": 11557, "trial_type": "mouselab-mdp", "trial_index": 73, "time_elapsed": 1080904, "internal_node_id": "0.0-4.0-5.0-2.0"}}, {"uniqueid": "w55110689:a68129849", "current_trial": 74, "dateTime": 1664556171196, "trialdata": {"revealed_states": [], "num_clicks_accrued": [0, 0, 0, 0, 0, 0, 0, 0, 0, 0, 0, 0, 0], "stateRewards": ["", -2, 4, -48, 24, -4, 8, 48, 24, -2, 4, -48, -24], "withholdReward": false, "trial_id": "mdp_740882974347", "block": "test3", "trialIndex": 65, "score": 55.75, "costs": -1.25, "simulationMode": [null, null, null], "rewards": [-4, 8, 48], "path": ["0", "0", "5", "6", "7"], "rt": [3589, 156, 111], "actions": ["right", "right", "up"], "actionTimes": [4934, 5585, 6190], "queries": {"click": {"state": {"target": ["12", "11", "4", "3", "7"], "time": [1746, 2386, 2866, 3354, 3954]}, "edge": {"target": [], "time": []}}, "mouseover": {"state": {"target": ["0", "12", "11", "4", "2", "3", "7", "7"], "time": [1378, 1537, 2153, 2737, 3078, 3203, 3578, 3870]}, "edge": {"target": [], "time": []}}, "mouseout": {"state": {"target": ["10", "9", "0", "5", "0", "0", "12", "11", "4", "2", "3", "7", "7"], "time": [570, 753, 778, 895, 978, 1395, 1873, 2612, 3037, 3178, 3505, 3620, 4061]}, "edge": {"target": [], "time": []}}}, "displayed_time": "10.35", "trialTime": 10945, "trial_type": "mouselab-mdp", "trial_index": 74, "time_elapsed": 1091922, "internal_node_id": "0.0-4.0-5.0-3.0"}}, {"uniqueid": "w55110689:a68129849", "current_trial": 75, "dateTime": 1664556181716, "trialdata": {"revealed_states": [], "num_clicks_accrued": [0, 0, 0, 0, 0, 0, 0, 0, 0, 0, 0, 0, 0], "stateRewards": ["", 2, 8, -48, -24, 2, -4, -48, 24, 2, -4, -24, -24], "withholdReward": true, "trial_id": "mdp_954659099093", "block": "test3", "trialIndex": 66, "score": 25.5, "costs": -1.5, "simulationMode": [null, null, null], "rewards": [2, -4, 24], "path": ["0", "0", "5", "6", "8"], "rt": [4475, 168, 173], "actions": ["right", "right", "down"], "actionTimes": [5818, 6484, 7163], "queries": {"click": {"state": {"target": ["7", "3", "4", "11", "12", "8"], "time": [1853, 2661, 3165, 3813, 4373, 4941]}, "edge": {"target": [], "time": []}}, "mouseover": {"state": {"target": ["7", "3", "2", "4", "11", "11", "10", "12", "8"], "time": [1765, 2450, 2982, 3040, 3506, 3741, 3973, 4282, 4773]}, "edge": {"target": [], "time": []}}, "mouseout": {"state": {"target": ["6", "5", "0", "0", "7", "3", "2", "4", "11", "11", "10", "12", "8"], "time": [700, 823, 948, 1165, 2204, 2916, 3015, 3452, 3540, 3941, 3982, 4507, 5068]}, "edge": {"target": [], "time": []}}}, "displayed_time": "9.34", "trialTime": 10451, "trial_type": "mouselab-mdp", "trial_index": 75, "time_elapsed": 1102441, "internal_node_id": "0.0-4.0-5.0-4.0"}}, {"uniqueid": "w55110689:a68129849", "current_trial": 76, "dateTime": 1664556192345, "trialdata": {"revealed_states": [], "num_clicks_accrued": [0, 0, 0, 0, 0, 0, 0, 0, 0, 0, 0, 0, 0], "stateRewards": ["", -4, 8, 24, -24, 4, 8, -24, -48, 2, 4, 24, -24], "withholdReward": true, "trial_id": "mdp_782187007008", "block": "test3", "trialIndex": 67, "score": 33.5, "costs": -1.5, "simulationMode": [null, null, null], "rewards": [2, 4, 24], "path": ["0", "0", "9", "10", "11"], "rt": [4950, 20, 2], "actions": ["left", "left", "up"], "actionTimes": [5761, 6286, 6785], "queries": {"click": {"state": {"target": ["7", "3", "4", "11", "12", "8"], "time": [1313, 1785, 2793, 3337, 3801, 4401]}, "edge": {"target": [], "time": []}}, "mouseover": {"state": {"target": ["7", "3", "4", "4", "4", "11", "10", "12", "8", "9"], "time": [1200, 1682, 2225, 2474, 2691, 3274, 3507, 3674, 4199, 4816]}, "edge": {"target": [], "time": []}}, "mouseout": {"state": {"target": ["0", "7", "3", "4", "4", "4", "11", "10", "12", "8", "9"], "time": [874, 1466, 1916, 2265, 2499, 2915, 3449, 3557, 3891, 4649, 4857]}, "edge": {"target": [], "time": []}}}, "displayed_time": "9.81", "trialTime": 10556, "trial_type": "mouselab-mdp", "trial_index": 76, "time_elapsed": 1113071, "internal_node_id": "0.0-4.0-5.0-5.0"}}, {"uniqueid": "w55110689:a68129849", "current_trial": 77, "dateTime": 1664556203979, "trialdata": {"revealed_states": [], "num_clicks_accrued": [0, 0, 0, 0, 0, 0, 0, 0, 0, 0, 0, 0, 0], "stateRewards": ["", -4, 8, -24, -24, 2, 4, 48, 48, -2, 4, 24, -48], "withholdReward": false, "trial_id": "mdp_397308196941", "block": "test3", "trialIndex": 68, "score": 58.25, "costs": -0.75, "simulationMode": [null, null, null], "rewards": [2, 4, 48], "path": ["0", "0", "5", "6", "7"], "rt": [2543, 212, 173], "actions": ["right", "right", "up"], "actionTimes": [3622, 4338, 5015], "queries": {"click": {"state": {"target": ["4", "3", "7"], "time": [1465, 1985, 2745]}, "edge": {"target": [], "time": []}}, "mouseover": {"state": {"target": ["4", "3", "7", "7", "6"], "time": [1400, 1883, 2250, 2679, 2925]}, "edge": {"target": [], "time": []}}, "mouseout": {"state": {"target": ["2", "1", "0", "4", "3", "7", "7", "6"], "time": [733, 858, 1123, 1600, 2137, 2408, 2891, 3025]}, "edge": {"target": [], "time": []}}}, "displayed_time": "10.08", "trialTime": 11567, "trial_type": "mouselab-mdp", "trial_index": 77, "time_elapsed": 1124705, "internal_node_id": "0.0-4.0-5.0-6.0"}}, {"uniqueid": "w55110689:a68129849", "current_trial": 78, "dateTime": 1664556213829, "trialdata": {"revealed_states": [], "num_clicks_accrued": [0, 0, 0, 0, 0, 0, 0, 0, 0, 0, 0, 0, 0], "stateRewards": ["", -4, -8, -24, 24, 2, 8, 24, 48, 2, 4, 24, -48], "withholdReward": true, "trial_id": "mdp_122352383932", "block": "test3", "trialIndex": 69, "score": 61.5, "costs": -1.5, "simulationMode": [null, null, null], "rewards": [2, 8, 48], "path": ["0", "0", "5", "6", "8"], "rt": [4006, 70, 380], "actions": ["right", "right", "down"], "actionTimes": [4930, 5495, 6381], "queries": {"click": {"state": {"target": ["3", "4", "11", "12", "7", "8"], "time": [1472, 2104, 2864, 3304, 3904, 4336]}, "edge": {"target": [], "time": []}}, "mouseover": {"state": {"target": ["3", "4", "11", "10", "12", "6", "7", "8"], "time": [1400, 1975, 2783, 3075, 3150, 3567, 3833, 4250]}, "edge": {"target": [], "time": []}}, "mouseout": {"state": {"target": ["8", "5", "3", "4", "11", "10", "12", "6", "7", "8", "8"], "time": [584, 675, 1760, 2392, 3033, 3125, 3400, 3617, 4056, 4455, 9267]}, "edge": {"target": [], "time": []}}}, "displayed_time": "8.93", "trialTime": 9776, "trial_type": "mouselab-mdp", "trial_index": 78, "time_elapsed": 1134555, "internal_node_id": "0.0-4.0-5.0-7.0"}}, {"uniqueid": "w55110689:a68129849", "current_trial": 79, "dateTime": 1664556225173, "trialdata": {"revealed_states": [], "num_clicks_accrued": [0, 0, 0, 0, 0, 0, 0, 0, 0, 0, 0, 0, 0], "stateRewards": ["", -2, -4, -24, -48, 2, -8, -24, -24, 4, -8, 48, 48], "withholdReward": false, "trial_id": "mdp_950599994674", "block": "test3", "trialIndex": 70, "score": 48, "costs": -1, "simulationMode": [null, null, null], "rewards": [4, -8, 48], "path": ["0", "0", "9", "10", "11"], "rt": [2506, 125, 155], "actions": ["left", "left", "up"], "actionTimes": [3618, 4247, 4909], "queries": {"click": {"state": {"target": ["7", "3", "4", "11"], "time": [1474, 1954, 2450, 2898]}, "edge": {"target": [], "time": []}}, "mouseover": {"state": {"target": ["7", "3", "2", "4", "11", "12"], "time": [1387, 1820, 2196, 2354, 2762, 3171]}, "edge": {"target": [], "time": []}}, "mouseout": {"state": {"target": ["8", "6", "7", "7", "3", "2", "4", "11", "12", "9"], "time": [489, 513, 620, 1746, 2137, 2312, 2637, 3029, 3250, 8722]}, "edge": {"target": [], "time": []}}}, "displayed_time": "10.11", "trialTime": 11274, "trial_type": "mouselab-mdp", "trial_index": 79, "time_elapsed": 1145899, "internal_node_id": "0.0-4.0-5.0-8.0"}}, {"uniqueid": "w55110689:a68129849", "current_trial": 80, "dateTime": 1664556236178, "trialdata": {"revealed_states": [], "num_clicks_accrued": [0, 0, 0, 0, 0, 0, 0, 0, 0, 0, 0, 0, 0], "stateRewards": ["", 4, -4, 24, 48, 4, 8, -24, -24, -2, 4, 48, 48], "withholdReward": true, "trial_id": "mdp_624998450453", "block": "test3", "trialIndex": 71, "score": 52.75, "costs": -0.25, "simulationMode": [null, null, null], "rewards": [4, -4, 48], "path": ["0", "0", "1", "2", "4"], "rt": [1169, 29, 376], "actions": ["up", "up", "left"], "actionTimes": [2135, 2672, 3562], "queries": {"click": {"state": {"target": ["4"], "time": [1419]}, "edge": {"target": [], "time": []}}, "mouseover": {"state": {"target": ["4", "2"], "time": [1294, 1660]}, "edge": {"target": [], "time": []}}, "mouseout": {"state": {"target": ["4", "2", "5"], "time": [1644, 1677, 10277]}, "edge": {"target": [], "time": []}}}, "displayed_time": "9.97", "trialTime": 10936, "trial_type": "mouselab-mdp", "trial_index": 80, "time_elapsed": 1156904, "internal_node_id": "0.0-4.0-5.0-9.0"}}, {"uniqueid": "w55110689:a68129849", "current_trial": 81, "dateTime": 1664556248092, "trialdata": {"revealed_states": [], "num_clicks_accrued": [0, 0, 0, 0, 0, 0, 0, 0, 0, 0, 0, 0, 0], "stateRewards": ["", 2, -4, -24, -48, -2, 8, -24, 48, -2, 8, 24, -48], "withholdReward": true, "trial_id": "mdp_566582551557", "block": "test3", "trialIndex": 72, "score": 57.5, "costs": -1.5, "simulationMode": [null, null, null], "rewards": [-2, 8, 48], "path": ["0", "0", "5", "6", "8"], "rt": [3959, 481, 355], "actions": ["right", "right", "down"], "actionTimes": [4786, 5772, 6629], "queries": {"click": {"state": {"target": ["3", "4", "11", "12", "7", "8"], "time": [1263, 1799, 2503, 3047, 3720, 4208]}, "edge": {"target": [], "time": []}}, "mouseover": {"state": {"target": ["3", "2", "4", "11", "10", "12", "5", "6", "7", "8"], "time": [1165, 1456, 1665, 2365, 2690, 2934, 3340, 3373, 3607, 4095]}, "edge": {"target": [], "time": []}}, "mouseout": {"state": {"target": ["8", "3", "2", "4", "11", "10", "12", "5", "6", "7", "8"], "time": [415, 1399, 1490, 1942, 2648, 2723, 3165, 3348, 3432, 3882, 4289]}, "edge": {"target": [], "time": []}}}, "displayed_time": "10.83", "trialTime": 11838, "trial_type": "mouselab-mdp", "trial_index": 81, "time_elapsed": 1168818, "internal_node_id": "0.0-4.0-5.0-10.0"}}, {"uniqueid": "w55110689:a68129849", "current_trial": 82, "dateTime": 1664556257439, "trialdata": {"revealed_states": [], "num_clicks_accrued": [0, 0, 0, 0, 0, 0, 0, 0, 0, 0, 0, 0, 0], "stateRewards": ["", 2, -4, 48, -48, -2, 8, -48, 24, -2, -8, 48, 48], "withholdReward": false, "trial_id": "mdp_949326095747", "block": "test3", "trialIndex": 73, "score": 50.5, "costs": -0.5, "simulationMode": [null, null, null], "rewards": [2, -4, 48], "path": ["0", "0", "1", "2", "3"], "rt": [1683, 274, 141], "actions": ["up", "up", "right"], "actionTimes": [2521, 3314, 3964], "queries": {"click": {"state": {"target": ["7", "3"], "time": [1210, 1714]}, "edge": {"target": [], "time": []}}, "mouseover": {"state": {"target": ["7", "3", "1"], "time": [1072, 1622, 2074]}, "edge": {"target": [], "time": []}}, "mouseout": {"state": {"target": ["8", "5", "7", "3", "1", "1", "0"], "time": [322, 455, 1547, 1856, 7770, 7855, 7906]}, "edge": {"target": [], "time": []}}}, "displayed_time": "8.84", "trialTime": 9276, "trial_type": "mouselab-mdp", "trial_index": 82, "time_elapsed": 1178165, "internal_node_id": "0.0-4.0-5.0-11.0"}}, {"uniqueid": "w55110689:a68129849", "current_trial": 83, "dateTime": 1664556266737, "trialdata": {"revealed_states": [], "num_clicks_accrued": [0, 0, 0, 0, 0, 0, 0, 0, 0, 0, 0, 0, 0], "stateRewards": ["", -4, 4, -48, -48, -2, -8, -48, -24, 4, 8, -24, 24], "withholdReward": true, "trial_id": "mdp_449260894259", "block": "test3", "trialIndex": 74, "score": 39.5, "costs": -1.5, "simulationMode": [null, null, null], "rewards": [4, 8, 24], "path": ["0", "0", "9", "10", "12"], "rt": [5147, 71, 185], "actions": ["left", "left", "down"], "actionTimes": [5774, 6345, 7035], "queries": {"click": {"state": {"target": ["4", "11", "12", "8", "7", "3"], "time": [1358, 1806, 2463, 3166, 3558, 4374]}, "edge": {"target": [], "time": []}}, "mouseover": {"state": {"target": ["4", "11", "10", "12", "6", "8", "6", "7", "2", "3", "1"], "time": [1182, 1674, 2091, 2342, 2941, 3132, 3382, 3449, 4049, 4286, 4824]}, "edge": {"target": [], "time": []}}, "mouseout": {"state": {"target": ["0", "4", "11", "10", "12", "6", "8", "6", "7", "2", "3", "1"], "time": [815, 1566, 2054, 2124, 2633, 3032, 3342, 3416, 3782, 4074, 4726, 8566]}, "edge": {"target": [], "time": []}}}, "displayed_time": "8.63", "trialTime": 9226, "trial_type": "mouselab-mdp", "trial_index": 83, "time_elapsed": 1187463, "internal_node_id": "0.0-4.0-5.0-12.0"}}, {"uniqueid": "w55110689:a68129849", "current_trial": 84, "dateTime": 1664556277725, "trialdata": {"revealed_states": [], "num_clicks_accrued": [0, 0, 0, 0, 0, 0, 0, 0, 0, 0, 0, 0, 0], "stateRewards": ["", -2, 4, -24, -48, -4, 8, -24, 48, 4, 4, -48, 24], "withholdReward": true, "trial_id": "mdp_341117665701", "block": "test3", "trialIndex": 75, "score": 56, "costs": -1, "simulationMode": [null, null, null], "rewards": [-4, 8, 48], "path": ["0", "0", "5", "6", "8"], "rt": [3146, 107, 185], "actions": ["right", "right", "down"], "actionTimes": [4081, 4698, 5392], "queries": {"click": {"state": {"target": ["4", "11", "12", "8"], "time": [1406, 1915, 2506, 3066]}, "edge": {"target": [], "time": []}}, "mouseover": {"state": {"target": ["4", "11", "12", "8", "6", "7"], "time": [1291, 1842, 2457, 2899, 3190, 3274]}, "edge": {"target": [], "time": []}}, "mouseout": {"state": {"target": ["4", "11", "12", "8", "6", "7"], "time": [1607, 2082, 2607, 3157, 3240, 6799]}, "edge": {"target": [], "time": []}}}, "displayed_time": "8.94", "trialTime": 10914, "trial_type": "mouselab-mdp", "trial_index": 84, "time_elapsed": 1198451, "internal_node_id": "0.0-4.0-5.0-13.0"}}, {"uniqueid": "w55110689:a68129849", "current_trial": 85, "dateTime": 1664556290635, "trialdata": {"revealed_states": [], "num_clicks_accrued": [0, 0, 0, 0, 0, 0, 0, 0, 0, 0, 0, 0, 0], "stateRewards": ["", -2, 8, 48, -24, 2, 4, -48, -24, -4, 8, -48, -48], "withholdReward": false, "trial_id": "mdp_539167561933", "block": "test3", "trialIndex": 76, "score": 58.5, "costs": -0.5, "simulationMode": [null, null, null], "rewards": [-2, 8, 48], "path": ["0", "0", "1", "2", "3"], "rt": [1652, 418, 99], "actions": ["up", "up", "right"], "actionTimes": [4092, 5013, 5611], "queries": {"click": {"state": {"target": ["4", "3"], "time": [2798, 3262]}, "edge": {"target": [], "time": []}}, "mouseover": {"state": {"target": ["4", "2", "3", "7"], "time": [2694, 3002, 3086, 3452]}, "edge": {"target": [], "time": []}}, "mouseout": {"state": {"target": ["0", "4", "2", "3", "7", "6", "5"], "time": [2494, 2966, 3052, 3410, 3477, 10798, 10910]}, "edge": {"target": [], "time": []}}}, "displayed_time": "11.44", "trialTime": 12835, "trial_type": "mouselab-mdp", "trial_index": 85, "time_elapsed": 1211360, "internal_node_id": "0.0-4.0-5.0-14.0"}}, {"uniqueid": "w55110689:a68129849", "current_trial": 86, "dateTime": 1664556301919, "trialdata": {"revealed_states": [], "num_clicks_accrued": [0, 0, 0, 0, 0, 0, 0, 0, 0, 0, 0, 0, 0], "stateRewards": ["", -2, -8, -24, 24, -2, -8, -48, 24, -2, -8, 24, 24], "withholdReward": false, "trial_id": "mdp_336617436097", "block": "test3", "trialIndex": 77, "score": 17.5, "costs": -1.5, "simulationMode": [null, null, null], "rewards": [-2, -8, 24], "path": ["0", "0", "9", "10", "12"], "rt": [4919, 3, 94], "actions": ["left", "left", "down"], "actionTimes": [5511, 6017, 6624], "queries": {"click": {"state": {"target": ["3", "4", "11", "12", "7", "8"], "time": [1301, 1733, 2165, 3206, 3773, 4245]}, "edge": {"target": [], "time": []}}, "mouseover": {"state": {"target": ["3", "2", "4", "11", "10", "12", "12", "0", "7", "6", "8"], "time": [1127, 1447, 1588, 1955, 2330, 2864, 3080, 3397, 3714, 4022, 4102]}, "edge": {"target": [], "time": []}}, "mouseout": {"state": {"target": ["0", "3", "2", "4", "11", "10", "12", "12", "0", "7", "6", "8"], "time": [805, 1413, 1488, 1863, 2285, 2380, 2897, 3308, 3464, 3997, 4055, 10741]}, "edge": {"target": [], "time": []}}}, "displayed_time": "8.59", "trialTime": 11215, "trial_type": "mouselab-mdp", "trial_index": 86, "time_elapsed": 1222645, "internal_node_id": "0.0-4.0-5.0-15.0"}}, {"uniqueid": "w55110689:a68129849", "current_trial": 87, "dateTime": 1664556311132, "trialdata": {"revealed_states": [], "num_clicks_accrued": [0, 0, 0, 0, 0, 0, 0, 0, 0, 0, 0, 0, 0], "stateRewards": ["", -2, 8, 48, 24, 2, -8, -24, -48, -4, 8, -48, 24], "withholdReward": true, "trial_id": "mdp_224053025943", "block": "test3", "trialIndex": 78, "score": 58.75, "costs": -0.25, "simulationMode": [null, null, null], "rewards": [-2, 8, 48], "path": ["0", "0", "1", "2", "3"], "rt": [1265, 379, 72], "actions": ["up", "up", "right"], "actionTimes": [2027, 2916, 3493], "queries": {"click": {"state": {"target": ["3"], "time": [1211]}, "edge": {"target": [], "time": []}}, "mouseover": {"state": {"target": ["3", "1"], "time": [1080, 1584]}, "edge": {"target": [], "time": []}}, "mouseout": {"state": {"target": ["8", "0", "3", "1", "5", "8"], "time": [5, 947, 1387, 4312, 5695, 5753]}, "edge": {"target": [], "time": []}}}, "displayed_time": "8.76", "trialTime": 9135, "trial_type": "mouselab-mdp", "trial_index": 87, "time_elapsed": 1231858, "internal_node_id": "0.0-4.0-5.0-16.0"}}, {"uniqueid": "w55110689:a68129849", "current_trial": 88, "dateTime": 1664556321461, "trialdata": {"revealed_states": [], "num_clicks_accrued": [0, 0, 0, 0, 0, 0, 0, 0, 0, 0, 0, 0, 0], "stateRewards": ["", 2, 4, -48, -48, 2, 4, 48, -24, -2, 8, 48, -48], "withholdReward": true, "trial_id": "mdp_258528916140", "block": "test3", "trialIndex": 79, "score": 58.25, "costs": -0.75, "simulationMode": [null, null, null], "rewards": [-2, 8, 48], "path": ["0", "0", "9", "10", "11"], "rt": [2097, 140, 306], "actions": ["left", "left", "up"], "actionTimes": [2865, 3514, 4329], "queries": {"click": {"state": {"target": ["3", "4", "11"], "time": [1146, 1554, 1986]}, "edge": {"target": [], "time": []}}, "mouseover": {"state": {"target": ["3", "3", "2", "4", "11"], "time": [1047, 1106, 1289, 1347, 1897]}, "edge": {"target": [], "time": []}}, "mouseout": {"state": {"target": ["0", "3", "3", "2", "4", "11", "9", "0"], "time": [639, 1072, 1255, 1314, 1698, 2098, 5049, 5681]}, "edge": {"target": [], "time": []}}}, "displayed_time": "9.77", "trialTime": 10257, "trial_type": "mouselab-mdp", "trial_index": 88, "time_elapsed": 1242187, "internal_node_id": "0.0-4.0-5.0-17.0"}}, {"uniqueid": "w55110689:a68129849", "current_trial": 89, "dateTime": 1664556330589, "trialdata": {"revealed_states": [], "num_clicks_accrued": [0, 0, 0, 0, 0, 0, 0, 0, 0, 0, 0, 0, 0], "stateRewards": ["", 2, 4, 48, -24, 2, -8, -24, -24, 2, -8, -24, -48], "withholdReward": true, "trial_id": "mdp_274832552938", "block": "test3", "trialIndex": 80, "score": 58.25, "costs": -0.75, "simulationMode": [null, null, null], "rewards": [2, 4, 48], "path": ["0", "0", "1", "2", "3"], "rt": [2285, 2424, 92], "actions": ["up", "up", "right"], "actionTimes": [2964, 5894, 6483], "queries": {"click": {"state": {"target": ["8", "7", "3"], "time": [1054, 1790, 2182]}, "edge": {"target": [], "time": []}}, "mouseover": {"state": {"target": ["8", "7", "3", "2"], "time": [873, 1677, 2082, 2331]}, "edge": {"target": [], "time": []}}, "mouseout": {"state": {"target": ["0", "8", "7", "3", "2", "2"], "time": [782, 1315, 1934, 2307, 2365, 7670]}, "edge": {"target": [], "time": []}}}, "displayed_time": "8.68", "trialTime": 9054, "trial_type": "mouselab-mdp", "trial_index": 89, "time_elapsed": 1251315, "internal_node_id": "0.0-4.0-5.0-18.0"}}, {"uniqueid": "w55110689:a68129849", "current_trial": 90, "dateTime": 1664556339678, "trialdata": {"revealed_states": [], "num_clicks_accrued": [0, 0, 0, 0, 0, 0, 0, 0, 0, 0, 0, 0, 0], "stateRewards": ["", -2, -8, 48, 24, 4, -8, 24, 48, 4, -4, 24, -48], "withholdReward": true, "trial_id": "mdp_871576155740", "block": "test3", "trialIndex": 81, "score": 42.5, "costs": -0.5, "simulationMode": [null, null, null], "rewards": [-2, -8, 48], "path": ["0", "0", "1", "2", "3"], "rt": [1677, 11, 522], "actions": ["up", "up", "right"], "actionTimes": [2161, 2674, 3702], "queries": {"click": {"state": {"target": ["7", "3"], "time": [887, 1295]}, "edge": {"target": [], "time": []}}, "mouseover": {"state": {"target": ["7", "3", "4"], "time": [814, 1229, 1654]}, "edge": {"target": [], "time": []}}, "mouseout": {"state": {"target": ["7", "3", "4", "2", "3"], "time": [1055, 1447, 4710, 4796, 5579]}, "edge": {"target": [], "time": []}}}, "displayed_time": "8.48", "trialTime": 9015, "trial_type": "mouselab-mdp", "trial_index": 90, "time_elapsed": 1260404, "internal_node_id": "0.0-4.0-5.0-19.0"}}, {"uniqueid": "w55110689:a68129849", "current_trial": 91, "dateTime": 1664556348584, "trialdata": {"revealed_states": [], "num_clicks_accrued": [0, 0, 0, 0, 0, 0, 0, 0, 0, 0, 0, 0, 0], "stateRewards": ["", 2, 4, 48, 48, 4, -8, 24, -48, -4, -8, -24, -48], "withholdReward": true, "trial_id": "mdp_343818007251", "block": "test3", "trialIndex": 82, "score": 58.75, "costs": -0.25, "simulationMode": [null, null, null], "rewards": [2, 4, 48], "path": ["0", "0", "1", "2", "4"], "rt": [1128, 71, 297], "actions": ["up", "up", "left"], "actionTimes": [1584, 2164, 2965], "queries": {"click": {"state": {"target": ["4"], "time": [840]}, "edge": {"target": [], "time": []}}, "mouseover": {"state": {"target": ["4"], "time": [784]}, "edge": {"target": [], "time": []}}, "mouseout": {"state": {"target": ["0", "4", "4", "4", "0"], "time": [117, 1026, 4025, 5256, 5534]}, "edge": {"target": [], "time": []}}}, "displayed_time": "8.46", "trialTime": 8827, "trial_type": "mouselab-mdp", "trial_index": 91, "time_elapsed": 1269310, "internal_node_id": "0.0-4.0-5.0-20.0"}}, {"uniqueid": "w55110689:a68129849", "current_trial": 92, "dateTime": 1664556361158, "trialdata": {"revealed_states": [], "num_clicks_accrued": [0, 0, 0, 0, 0, 0, 0, 0, 0, 0, 0, 0, 0], "stateRewards": ["", 2, 4, 24, 48, -2, 8, 24, -24, -4, -4, 48, 48], "withholdReward": false, "trial_id": "mdp_753439303214", "block": "test3", "trialIndex": 83, "score": 58.5, "costs": -0.5, "simulationMode": [null, null, null], "rewards": [2, 4, 48], "path": [