{"condition": 0, "counterbalance": 0, "assignmentId": "a92172252", "workerId": "w24741546", "hitId": "h67339673", "currenttrial": 959, "bonus": 0, "data": [{"uniqueid": "w24741546:a92172252", "current_trial": 0, "dateTime": 1664375502047, "trialdata": {"success": true, "trial_type": "fullscreen", "trial_index": 0, "time_elapsed": 3327, "internal_node_id": "0.0-0.0"}}, {"uniqueid": "w24741546:a92172252", "current_trial": 1, "dateTime": 1664375544092, "trialdata": {"view_history": [{"page_index": 0, "viewing_time": 42039}], "rt": 42041, "trial_id": "exp_instructions_distractor", "trial_type": "instructions", "trial_index": 1, "time_elapsed": 45372, "internal_node_id": "0.0-1.0"}}, {"uniqueid": "w24741546:a92172252", "current_trial": 2, "dateTime": 1664375569608, "trialdata": {"view_history": [{"page_index": 0, "viewing_time": 25512}], "rt": 25513, "trial_id": "color_game_instructions", "trial_type": "instructions", "trial_index": 2, "time_elapsed": 70888, "internal_node_id": "0.0-2.0"}}, {"uniqueid": "w24741546:a92172252", "current_trial": 3, "dateTime": 1664375573743, "trialdata": {"rt": 4131, "stimulus": "<h1> Get ready to start the game! </h1>\n\nThank you for reading the instructions. Get ready start with the first of 5 block(s) of this game.\n<br><br>\nIn this first block, you will complete 90 rounds of this game before moving on.\n<br><br>\nRemember, the better you perform, the bigger your bonus will be!\n<br><br>\n<div style='text-align: center;'>Press <code>space</code> to begin.</div>", "response": " ", "trial_id": "stroop_1_ready_1", "trial_type": "html-keyboard-response", "trial_index": 3, "time_elapsed": 75023, "internal_node_id": "0.0-3.0"}}, {"uniqueid": "w24741546:a92172252", "current_trial": 4, "dateTime": 1664375574425, "trialdata": {"rt": 675, "stimulus": "<p id='stroop-text' class='stroop-red'>BOTTLE</p>", "response": "r", "stimulus-type": "unrelated", "word": "BOTTLE", "color": "red", "correct_response": "r", "trial_id": "stroop-trial-1-unrelated-16", "trial_type": "html-keyboard-response", "trial_index": 4, "time_elapsed": 75704, "internal_node_id": "0.0-4.0-0.0"}}, {"uniqueid": "w24741546:a92172252", "current_trial": 5, "dateTime": 1664375576073, "trialdata": {"rt": 1143, "stimulus": "<p id='stroop-text' class='stroop-green'>GREEN</p>", "response": "g", "stimulus-type": "congruent", "word": "green", "color": "green", "correct_response": "g", "trial_id": "stroop-trial-1-congruent-3", "trial_type": "html-keyboard-response", "trial_index": 5, "time_elapsed": 77352, "internal_node_id": "0.0-4.0-1.0"}}, {"uniqueid": "w24741546:a92172252", "current_trial": 6, "dateTime": 1664375577264, "trialdata": {"rt": 686, "stimulus": "<p id='stroop-text' class='stroop-red'>BRIDGE</p>", "response": "b", "stimulus-type": "unrelated", "word": "BRIDGE", "color": "red", "correct_response": "r", "trial_id": "stroop-trial-1-unrelated-14", "trial_type": "html-keyboard-response", "trial_index": 6, "time_elapsed": 78543, "internal_node_id": "0.0-4.0-2.0"}}, {"uniqueid": "w24741546:a92172252", "current_trial": 7, "dateTime": 1664375579481, "trialdata": {"rt": 1713, "stimulus": "<p id='stroop-text' class='stroop-yellow'>YELLOW</p>", "response": "y", "stimulus-type": "congruent", "word": "yellow", "color": "yellow", "correct_response": "y", "trial_id": "stroop-trial-1-congruent-26", "trial_type": "html-keyboard-response", "trial_index": 7, "time_elapsed": 80760, "internal_node_id": "0.0-4.0-3.0"}}, {"uniqueid": "w24741546:a92172252", "current_trial": 8, "dateTime": 1664375581464, "trialdata": {"rt": 1478, "stimulus": "<p id='stroop-text' class='stroop-green'>SHIP</p>", "response": "g", "stimulus-type": "unrelated", "word": "SHIP", "color": "green", "correct_response": "g", "trial_id": "stroop-trial-1-unrelated-21", "trial_type": "html-keyboard-response", "trial_index": 8, "time_elapsed": 82743, "internal_node_id": "0.0-4.0-4.0"}}, {"uniqueid": "w24741546:a92172252", "current_trial": 9, "dateTime": 1664375582552, "trialdata": {"rt": 584, "stimulus": "<p id='stroop-text' class='stroop-green'>CHAIR</p>", "response": "g", "stimulus-type": "unrelated", "word": "CHAIR", "color": "green", "correct_response": "g", "trial_id": "stroop-trial-1-unrelated-11", "trial_type": "html-keyboard-response", "trial_index": 9, "time_elapsed": 83831, "internal_node_id": "0.0-4.0-5.0"}}, {"uniqueid": "w24741546:a92172252", "current_trial": 10, "dateTime": 1664375584156, "trialdata": {"rt": 1098, "stimulus": "<p id='stroop-text' class='stroop-blue'>BLUE</p>", "response": "b", "stimulus-type": "congruent", "word": "blue", "color": "blue", "correct_response": "b", "trial_id": "stroop-trial-1-congruent-24", "trial_type": "html-keyboard-response", "trial_index": 10, "time_elapsed": 85435, "internal_node_id": "0.0-4.0-6.0"}}, {"uniqueid": "w24741546:a92172252", "current_trial": 11, "dateTime": 1664375585400, "trialdata": {"rt": 740, "stimulus": "<p id='stroop-text' class='stroop-green'>BRAIN</p>", "response": "g", "stimulus-type": "unrelated", "word": "BRAIN", "color": "green", "correct_response": "g", "trial_id": "stroop-trial-1-unrelated-4", "trial_type": "html-keyboard-response", "trial_index": 11, "time_elapsed": 86679, "internal_node_id": "0.0-4.0-7.0"}}, {"uniqueid": "w24741546:a92172252", "current_trial": 12, "dateTime": 1664375586544, "trialdata": {"rt": 639, "stimulus": "<p id='stroop-text' class='stroop-green'>WINDOW</p>", "response": "g", "stimulus-type": "unrelated", "word": "WINDOW", "color": "green", "correct_response": "g", "trial_id": "stroop-trial-1-unrelated-27", "trial_type": "html-keyboard-response", "trial_index": 12, "time_elapsed": 87823, "internal_node_id": "0.0-4.0-8.0"}}, {"uniqueid": "w24741546:a92172252", "current_trial": 13, "dateTime": 1664375588077, "trialdata": {"rt": 1029, "stimulus": "<p id='stroop-text' class='stroop-green'>RED</p>", "response": "g", "stimulus-type": "incongruent", "word": "red", "color": "green", "correct_response": "g", "trial_id": "stroop-trial-1-incongruent-15", "trial_type": "html-keyboard-response", "trial_index": 13, "time_elapsed": 89356, "internal_node_id": "0.0-4.0-9.0"}}, {"uniqueid": "w24741546:a92172252", "current_trial": 14, "dateTime": 1664375589597, "trialdata": {"rt": 1016, "stimulus": "<p id='stroop-text' class='stroop-blue'>BOAT</p>", "response": "b", "stimulus-type": "unrelated", "word": "BOAT", "color": "blue", "correct_response": "b", "trial_id": "stroop-trial-1-unrelated-7", "trial_type": "html-keyboard-response", "trial_index": 14, "time_elapsed": 90876, "internal_node_id": "0.0-4.0-10.0"}}, {"uniqueid": "w24741546:a92172252", "current_trial": 15, "dateTime": 1664375590651, "trialdata": {"rt": 551, "stimulus": "<p id='stroop-text' class='stroop-blue'>DOG</p>", "response": "b", "stimulus-type": "unrelated", "word": "DOG", "color": "blue", "correct_response": "b", "trial_id": "stroop-trial-1-unrelated-2", "trial_type": "html-keyboard-response", "trial_index": 15, "time_elapsed": 91931, "internal_node_id": "0.0-4.0-11.0"}}, {"uniqueid": "w24741546:a92172252", "current_trial": 16, "dateTime": 1664375591702, "trialdata": {"rt": 547, "stimulus": "<p id='stroop-text' class='stroop-yellow'>CHAIR</p>", "response": "y", "stimulus-type": "unrelated", "word": "CHAIR", "color": "yellow", "correct_response": "y", "trial_id": "stroop-trial-1-unrelated-26", "trial_type": "html-keyboard-response", "trial_index": 16, "time_elapsed": 92981, "internal_node_id": "0.0-4.0-12.0"}}, {"uniqueid": "w24741546:a92172252", "current_trial": 17, "dateTime": 1664375592704, "trialdata": {"rt": 499, "stimulus": "<p id='stroop-text' class='stroop-red'>SHIP</p>", "response": "r", "stimulus-type": "unrelated", "word": "SHIP", "color": "red", "correct_response": "r", "trial_id": "stroop-trial-1-unrelated-3", "trial_type": "html-keyboard-response", "trial_index": 17, "time_elapsed": 93984, "internal_node_id": "0.0-4.0-13.0"}}, {"uniqueid": "w24741546:a92172252", "current_trial": 18, "dateTime": 1664375593728, "trialdata": {"rt": 520, "stimulus": "<p id='stroop-text' class='stroop-red'>BOAT</p>", "response": "r", "stimulus-type": "unrelated", "word": "BOAT", "color": "red", "correct_response": "r", "trial_id": "stroop-trial-1-unrelated-24", "trial_type": "html-keyboard-response", "trial_index": 18, "time_elapsed": 95007, "internal_node_id": "0.0-4.0-14.0"}}, {"uniqueid": "w24741546:a92172252", "current_trial": 19, "dateTime": 1664375594628, "trialdata": {"rt": 396, "stimulus": "<p id='stroop-text' class='stroop-red'>BLUE</p>", "response": "r", "stimulus-type": "incongruent", "word": "blue", "color": "red", "correct_response": "r", "trial_id": "stroop-trial-1-incongruent-6", "trial_type": "html-keyboard-response", "trial_index": 19, "time_elapsed": 95907, "internal_node_id": "0.0-4.0-15.0"}}, {"uniqueid": "w24741546:a92172252", "current_trial": 20, "dateTime": 1664375595867, "trialdata": {"rt": 736, "stimulus": "<p id='stroop-text' class='stroop-green'>DOG</p>", "response": "g", "stimulus-type": "unrelated", "word": "DOG", "color": "green", "correct_response": "g", "trial_id": "stroop-trial-1-unrelated-29", "trial_type": "html-keyboard-response", "trial_index": 20, "time_elapsed": 97147, "internal_node_id": "0.0-4.0-16.0"}}, {"uniqueid": "w24741546:a92172252", "current_trial": 21, "dateTime": 1664375597079, "trialdata": {"rt": 705, "stimulus": "<p id='stroop-text' class='stroop-red'>YELLOW</p>", "response": "y", "stimulus-type": "incongruent", "word": "yellow", "color": "red", "correct_response": "r", "trial_id": "stroop-trial-1-incongruent-9", "trial_type": "html-keyboard-response", "trial_index": 21, "time_elapsed": 98358, "internal_node_id": "0.0-4.0-17.0"}}, {"uniqueid": "w24741546:a92172252", "current_trial": 22, "dateTime": 1664375599228, "trialdata": {"rt": 1646, "stimulus": "<p id='stroop-text' class='stroop-green'>RED</p>", "response": "g", "stimulus-type": "incongruent", "word": "red", "color": "green", "correct_response": "g", "trial_id": "stroop-trial-1-incongruent-21", "trial_type": "html-keyboard-response", "trial_index": 22, "time_elapsed": 100508, "internal_node_id": "0.0-4.0-18.0"}}, {"uniqueid": "w24741546:a92172252", "current_trial": 23, "dateTime": 1664375601274, "trialdata": {"rt": 1542, "stimulus": "<p id='stroop-text' class='stroop-red'>DOG</p>", "response": "r", "stimulus-type": "unrelated", "word": "DOG", "color": "red", "correct_response": "r", "trial_id": "stroop-trial-1-unrelated-10", "trial_type": "html-keyboard-response", "trial_index": 23, "time_elapsed": 102553, "internal_node_id": "0.0-4.0-19.0"}}, {"uniqueid": "w24741546:a92172252", "current_trial": 24, "dateTime": 1664375602819, "trialdata": {"rt": 1042, "stimulus": "<p id='stroop-text' class='stroop-yellow'>YELLOW</p>", "response": "y", "stimulus-type": "congruent", "word": "yellow", "color": "yellow", "correct_response": "y", "trial_id": "stroop-trial-1-congruent-11", "trial_type": "html-keyboard-response", "trial_index": 24, "time_elapsed": 104099, "internal_node_id": "0.0-4.0-20.0"}}, {"uniqueid": "w24741546:a92172252", "current_trial": 25, "dateTime": 1664375603776, "trialdata": {"rt": 453, "stimulus": "<p id='stroop-text' class='stroop-yellow'>YELLOW</p>", "response": "y", "stimulus-type": "congruent", "word": "yellow", "color": "yellow", "correct_response": "y", "trial_id": "stroop-trial-1-congruent-19", "trial_type": "html-keyboard-response", "trial_index": 25, "time_elapsed": 105055, "internal_node_id": "0.0-4.0-21.0"}}, {"uniqueid": "w24741546:a92172252", "current_trial": 26, "dateTime": 1664375605022, "trialdata": {"rt": 743, "stimulus": "<p id='stroop-text' class='stroop-green'>YELLOW</p>", "response": "g", "stimulus-type": "incongruent", "word": "yellow", "color": "green", "correct_response": "g", "trial_id": "stroop-trial-1-incongruent-3", "trial_type": "html-keyboard-response", "trial_index": 26, "time_elapsed": 106302, "internal_node_id": "0.0-4.0-22.0"}}, {"uniqueid": "w24741546:a92172252", "current_trial": 27, "dateTime": 1664375606091, "trialdata": {"rt": 564, "stimulus": "<p id='stroop-text' class='stroop-blue'>BLUE</p>", "response": "b", "stimulus-type": "congruent", "word": "blue", "color": "blue", "correct_response": "b", "trial_id": "stroop-trial-1-congruent-2", "trial_type": "html-keyboard-response", "trial_index": 27, "time_elapsed": 107370, "internal_node_id": "0.0-4.0-23.0"}}, {"uniqueid": "w24741546:a92172252", "current_trial": 28, "dateTime": 1664375607042, "trialdata": {"rt": 447, "stimulus": "<p id='stroop-text' class='stroop-blue'>BLUE</p>", "response": "b", "stimulus-type": "congruent", "word": "blue", "color": "blue", "correct_response": "b", "trial_id": "stroop-trial-1-congruent-21", "trial_type": "html-keyboard-response", "trial_index": 28, "time_elapsed": 108321, "internal_node_id": "0.0-4.0-24.0"}}, {"uniqueid": "w24741546:a92172252", "current_trial": 29, "dateTime": 1664375608400, "trialdata": {"rt": 853, "stimulus": "<p id='stroop-text' class='stroop-blue'>RED</p>", "response": "r", "stimulus-type": "incongruent", "word": "red", "color": "blue", "correct_response": "b", "trial_id": "stroop-trial-1-incongruent-10", "trial_type": "html-keyboard-response", "trial_index": 29, "time_elapsed": 109680, "internal_node_id": "0.0-4.0-25.0"}}, {"uniqueid": "w24741546:a92172252", "current_trial": 30, "dateTime": 1664375609634, "trialdata": {"rt": 730, "stimulus": "<p id='stroop-text' class='stroop-yellow'>YELLOW</p>", "response": "y", "stimulus-type": "congruent", "word": "yellow", "color": "yellow", "correct_response": "y", "trial_id": "stroop-trial-1-congruent-20", "trial_type": "html-keyboard-response", "trial_index": 30, "time_elapsed": 110913, "internal_node_id": "0.0-4.0-26.0"}}, {"uniqueid": "w24741546:a92172252", "current_trial": 31, "dateTime": 1664375610486, "trialdata": {"rt": 348, "stimulus": "<p id='stroop-text' class='stroop-yellow'>YELLOW</p>", "response": "y", "stimulus-type": "congruent", "word": "yellow", "color": "yellow", "correct_response": "y", "trial_id": "stroop-trial-1-congruent-23", "trial_type": "html-keyboard-response", "trial_index": 31, "time_elapsed": 111765, "internal_node_id": "0.0-4.0-27.0"}}, {"uniqueid": "w24741546:a92172252", "current_trial": 32, "dateTime": 1664375611463, "trialdata": {"rt": 474, "stimulus": "<p id='stroop-text' class='stroop-yellow'>YELLOW</p>", "response": "y", "stimulus-type": "congruent", "word": "yellow", "color": "yellow", "correct_response": "y", "trial_id": "stroop-trial-1-congruent-14", "trial_type": "html-keyboard-response", "trial_index": 32, "time_elapsed": 112742, "internal_node_id": "0.0-4.0-28.0"}}, {"uniqueid": "w24741546:a92172252", "current_trial": 33, "dateTime": 1664375612857, "trialdata": {"rt": 889, "stimulus": "<p id='stroop-text' class='stroop-red'>RED</p>", "response": "r", "stimulus-type": "congruent", "word": "red", "color": "red", "correct_response": "r", "trial_id": "stroop-trial-1-congruent-9", "trial_type": "html-keyboard-response", "trial_index": 33, "time_elapsed": 114136, "internal_node_id": "0.0-4.0-29.0"}}, {"uniqueid": "w24741546:a92172252", "current_trial": 34, "dateTime": 1664375614766, "trialdata": {"rt": 1405, "stimulus": "<p id='stroop-text' class='stroop-blue'>YELLOW</p>", "response": "b", "stimulus-type": "incongruent", "word": "yellow", "color": "blue", "correct_response": "b", "trial_id": "stroop-trial-1-incongruent-23", "trial_type": "html-keyboard-response", "trial_index": 34, "time_elapsed": 116045, "internal_node_id": "0.0-4.0-30.0"}}, {"uniqueid": "w24741546:a92172252", "current_trial": 35, "dateTime": 1664375616143, "trialdata": {"rt": 873, "stimulus": "<p id='stroop-text' class='stroop-green'>GREEN</p>", "response": "g", "stimulus-type": "congruent", "word": "green", "color": "green", "correct_response": "g", "trial_id": "stroop-trial-1-congruent-7", "trial_type": "html-keyboard-response", "trial_index": 35, "time_elapsed": 117422, "internal_node_id": "0.0-4.0-31.0"}}, {"uniqueid": "w24741546:a92172252", "current_trial": 36, "dateTime": 1664375617044, "trialdata": {"rt": 398, "stimulus": "<p id='stroop-text' class='stroop-green'>BLUE</p>", "response": "g", "stimulus-type": "incongruent", "word": "blue", "color": "green", "correct_response": "g", "trial_id": "stroop-trial-1-incongruent-14", "trial_type": "html-keyboard-response", "trial_index": 36, "time_elapsed": 118323, "internal_node_id": "0.0-4.0-32.0"}}, {"uniqueid": "w24741546:a92172252", "current_trial": 37, "dateTime": 1664375618117, "trialdata": {"rt": 569, "stimulus": "<p id='stroop-text' class='stroop-yellow'>YELLOW</p>", "response": "y", "stimulus-type": "congruent", "word": "yellow", "color": "yellow", "correct_response": "y", "trial_id": "stroop-trial-1-congruent-10", "trial_type": "html-keyboard-response", "trial_index": 37, "time_elapsed": 119396, "internal_node_id": "0.0-4.0-33.0"}}, {"uniqueid": "w24741546:a92172252", "current_trial": 38, "dateTime": 1664375619829, "trialdata": {"rt": 1207, "stimulus": "<p id='stroop-text' class='stroop-yellow'>GREEN</p>", "response": "y", "stimulus-type": "incongruent", "word": "green", "color": "yellow", "correct_response": "y", "trial_id": "stroop-trial-1-incongruent-19", "trial_type": "html-keyboard-response", "trial_index": 38, "time_elapsed": 121108, "internal_node_id": "0.0-4.0-34.0"}}, {"uniqueid": "w24741546:a92172252", "current_trial": 39, "dateTime": 1664375621397, "trialdata": {"rt": 1065, "stimulus": "<p id='stroop-text' class='stroop-green'>BLUE</p>", "response": "r", "stimulus-type": "incongruent", "word": "blue", "color": "green", "correct_response": "g", "trial_id": "stroop-trial-1-incongruent-29", "trial_type": "html-keyboard-response", "trial_index": 39, "time_elapsed": 122676, "internal_node_id": "0.0-4.0-35.0"}}, {"uniqueid": "w24741546:a92172252", "current_trial": 40, "dateTime": 1664375623543, "trialdata": {"rt": 1643, "stimulus": "<p id='stroop-text' class='stroop-green'>DOG</p>", "response": "g", "stimulus-type": "unrelated", "word": "DOG", "color": "green", "correct_response": "g", "trial_id": "stroop-trial-1-unrelated-1", "trial_type": "html-keyboard-response", "trial_index": 40, "time_elapsed": 124822, "internal_node_id": "0.0-4.0-36.0"}}, {"uniqueid": "w24741546:a92172252", "current_trial": 41, "dateTime": 1664375624476, "trialdata": {"rt": 427, "stimulus": "<p id='stroop-text' class='stroop-green'>GREEN</p>", "response": "g", "stimulus-type": "congruent", "word": "green", "color": "green", "correct_response": "g", "trial_id": "stroop-trial-1-congruent-18", "trial_type": "html-keyboard-response", "trial_index": 41, "time_elapsed": 125755, "internal_node_id": "0.0-4.0-37.0"}}, {"uniqueid": "w24741546:a92172252", "current_trial": 42, "dateTime": 1664375625891, "trialdata": {"rt": 910, "stimulus": "<p id='stroop-text' class='stroop-blue'>GREEN</p>", "response": "b", "stimulus-type": "incongruent", "word": "green", "color": "blue", "correct_response": "b", "trial_id": "stroop-trial-1-incongruent-17", "trial_type": "html-keyboard-response", "trial_index": 42, "time_elapsed": 127170, "internal_node_id": "0.0-4.0-38.0"}}, {"uniqueid": "w24741546:a92172252", "current_trial": 43, "dateTime": 1664375626960, "trialdata": {"rt": 565, "stimulus": "<p id='stroop-text' class='stroop-yellow'>YELLOW</p>", "response": "y", "stimulus-type": "congruent", "word": "yellow", "color": "yellow", "correct_response": "y", "trial_id": "stroop-trial-1-congruent-5", "trial_type": "html-keyboard-response", "trial_index": 43, "time_elapsed": 128239, "internal_node_id": "0.0-4.0-39.0"}}, {"uniqueid": "w24741546:a92172252", "current_trial": 44, "dateTime": 1664375628042, "trialdata": {"rt": 578, "stimulus": "<p id='stroop-text' class='stroop-blue'>BLUE</p>", "response": "g", "stimulus-type": "congruent", "word": "blue", "color": "blue", "correct_response": "b", "trial_id": "stroop-trial-1-congruent-1", "trial_type": "html-keyboard-response", "trial_index": 44, "time_elapsed": 129321, "internal_node_id": "0.0-4.0-40.0"}}, {"uniqueid": "w24741546:a92172252", "current_trial": 45, "dateTime": 1664375629635, "trialdata": {"rt": 1089, "stimulus": "<p id='stroop-text' class='stroop-red'>RED</p>", "response": "r", "stimulus-type": "congruent", "word": "red", "color": "red", "correct_response": "r", "trial_id": "stroop-trial-1-congruent-29", "trial_type": "html-keyboard-response", "trial_index": 45, "time_elapsed": 130914, "internal_node_id": "0.0-4.0-41.0"}}, {"uniqueid": "w24741546:a92172252", "current_trial": 46, "dateTime": 1664375630951, "trialdata": {"rt": 813, "stimulus": "<p id='stroop-text' class='stroop-green'>STONE</p>", "response": "g", "stimulus-type": "unrelated", "word": "STONE", "color": "green", "correct_response": "g", "trial_id": "stroop-trial-1-unrelated-15", "trial_type": "html-keyboard-response", "trial_index": 46, "time_elapsed": 132231, "internal_node_id": "0.0-4.0-42.0"}}, {"uniqueid": "w24741546:a92172252", "current_trial": 47, "dateTime": 1664375631965, "trialdata": {"rt": 509, "stimulus": "<p id='stroop-text' class='stroop-green'>SHIP</p>", "response": "g", "stimulus-type": "unrelated", "word": "SHIP", "color": "green", "correct_response": "g", "trial_id": "stroop-trial-1-unrelated-30", "trial_type": "html-keyboard-response", "trial_index": 47, "time_elapsed": 133244, "internal_node_id": "0.0-4.0-43.0"}}, {"uniqueid": "w24741546:a92172252", "current_trial": 48, "dateTime": 1664375633032, "trialdata": {"rt": 563, "stimulus": "<p id='stroop-text' class='stroop-green'>GREEN</p>", "response": "g", "stimulus-type": "congruent", "word": "green", "color": "green", "correct_response": "g", "trial_id": "stroop-trial-1-congruent-30", "trial_type": "html-keyboard-response", "trial_index": 48, "time_elapsed": 134312, "internal_node_id": "0.0-4.0-44.0"}}, {"uniqueid": "w24741546:a92172252", "current_trial": 49, "dateTime": 1664375634692, "trialdata": {"rt": 1156, "stimulus": "<p id='stroop-text' class='stroop-red'>GREEN</p>", "response": "r", "stimulus-type": "incongruent", "word": "green", "color": "red", "correct_response": "r", "trial_id": "stroop-trial-1-incongruent-2", "trial_type": "html-keyboard-response", "trial_index": 49, "time_elapsed": 135971, "internal_node_id": "0.0-4.0-45.0"}}, {"uniqueid": "w24741546:a92172252", "current_trial": 50, "dateTime": 1664375635825, "trialdata": {"rt": 628, "stimulus": "<p id='stroop-text' class='stroop-blue'>BLUE</p>", "response": "b", "stimulus-type": "congruent", "word": "blue", "color": "blue", "correct_response": "b", "trial_id": "stroop-trial-1-congruent-8", "trial_type": "html-keyboard-response", "trial_index": 50, "time_elapsed": 137104, "internal_node_id": "0.0-4.0-46.0"}}, {"uniqueid": "w24741546:a92172252", "current_trial": 51, "dateTime": 1664375636880, "trialdata": {"rt": 550, "stimulus": "<p id='stroop-text' class='stroop-yellow'>YELLOW</p>", "response": "y", "stimulus-type": "congruent", "word": "yellow", "color": "yellow", "correct_response": "y", "trial_id": "stroop-trial-1-congruent-22", "trial_type": "html-keyboard-response", "trial_index": 51, "time_elapsed": 138159, "internal_node_id": "0.0-4.0-47.0"}}, {"uniqueid": "w24741546:a92172252", "current_trial": 52, "dateTime": 1664375638035, "trialdata": {"rt": 651, "stimulus": "<p id='stroop-text' class='stroop-red'>RED</p>", "response": "r", "stimulus-type": "congruent", "word": "red", "color": "red", "correct_response": "r", "trial_id": "stroop-trial-1-congruent-16", "trial_type": "html-keyboard-response", "trial_index": 52, "time_elapsed": 139314, "internal_node_id": "0.0-4.0-48.0"}}, {"uniqueid": "w24741546:a92172252", "current_trial": 53, "dateTime": 1664375639221, "trialdata": {"rt": 682, "stimulus": "<p id='stroop-text' class='stroop-blue'>BRAIN</p>", "response": "b", "stimulus-type": "unrelated", "word": "BRAIN", "color": "blue", "correct_response": "b", "trial_id": "stroop-trial-1-unrelated-25", "trial_type": "html-keyboard-response", "trial_index": 53, "time_elapsed": 140500, "internal_node_id": "0.0-4.0-49.0"}}, {"uniqueid": "w24741546:a92172252", "current_trial": 54, "dateTime": 1664375640288, "trialdata": {"rt": 563, "stimulus": "<p id='stroop-text' class='stroop-yellow'>YELLOW</p>", "response": "y", "stimulus-type": "congruent", "word": "yellow", "color": "yellow", "correct_response": "y", "trial_id": "stroop-trial-1-congruent-4", "trial_type": "html-keyboard-response", "trial_index": 54, "time_elapsed": 141568, "internal_node_id": "0.0-4.0-50.0"}}, {"uniqueid": "w24741546:a92172252", "current_trial": 55, "dateTime": 1664375641728, "trialdata": {"rt": 935, "stimulus": "<p id='stroop-text' class='stroop-blue'>YELLOW</p>", "response": "g", "stimulus-type": "incongruent", "word": "yellow", "color": "blue", "correct_response": "b", "trial_id": "stroop-trial-1-incongruent-26", "trial_type": "html-keyboard-response", "trial_index": 55, "time_elapsed": 143007, "internal_node_id": "0.0-4.0-51.0"}}, {"uniqueid": "w24741546:a92172252", "current_trial": 56, "dateTime": 1664375642979, "trialdata": {"rt": 747, "stimulus": "<p id='stroop-text' class='stroop-green'>CHAIR</p>", "response": "g", "stimulus-type": "unrelated", "word": "CHAIR", "color": "green", "correct_response": "g", "trial_id": "stroop-trial-1-unrelated-5", "trial_type": "html-keyboard-response", "trial_index": 56, "time_elapsed": 144258, "internal_node_id": "0.0-4.0-52.0"}}, {"uniqueid": "w24741546:a92172252", "current_trial": 57, "dateTime": 1664375644019, "trialdata": {"rt": 536, "stimulus": "<p id='stroop-text' class='stroop-yellow'>YELLOW</p>", "response": "y", "stimulus-type": "congruent", "word": "yellow", "color": "yellow", "correct_response": "y", "trial_id": "stroop-trial-1-congruent-27", "trial_type": "html-keyboard-response", "trial_index": 57, "time_elapsed": 145298, "internal_node_id": "0.0-4.0-53.0"}}, {"uniqueid": "w24741546:a92172252", "current_trial": 58, "dateTime": 1664375645123, "trialdata": {"rt": 601, "stimulus": "<p id='stroop-text' class='stroop-green'>FORK</p>", "response": "y", "stimulus-type": "unrelated", "word": "FORK", "color": "green", "correct_response": "g", "trial_id": "stroop-trial-1-unrelated-20", "trial_type": "html-keyboard-response", "trial_index": 58, "time_elapsed": 146403, "internal_node_id": "0.0-4.0-54.0"}}, {"uniqueid": "w24741546:a92172252", "current_trial": 59, "dateTime": 1664375646303, "trialdata": {"rt": 675, "stimulus": "<p id='stroop-text' class='stroop-green'>BOAT</p>", "response": "g", "stimulus-type": "unrelated", "word": "BOAT", "color": "green", "correct_response": "g", "trial_id": "stroop-trial-1-unrelated-8", "trial_type": "html-keyboard-response", "trial_index": 59, "time_elapsed": 147582, "internal_node_id": "0.0-4.0-55.0"}}, {"uniqueid": "w24741546:a92172252", "current_trial": 60, "dateTime": 1664375648954, "trialdata": {"rt": 2147, "stimulus": "<p id='stroop-text' class='stroop-red'>BLUE</p>", "response": "r", "stimulus-type": "incongruent", "word": "blue", "color": "red", "correct_response": "r", "trial_id": "stroop-trial-1-incongruent-5", "trial_type": "html-keyboard-response", "trial_index": 60, "time_elapsed": 150233, "internal_node_id": "0.0-4.0-56.0"}}, {"uniqueid": "w24741546:a92172252", "current_trial": 61, "dateTime": 1664375649987, "trialdata": {"rt": 529, "stimulus": "<p id='stroop-text' class='stroop-yellow'>MONKEY</p>", "response": "y", "stimulus-type": "unrelated", "word": "MONKEY", "color": "yellow", "correct_response": "y", "trial_id": "stroop-trial-1-unrelated-28", "trial_type": "html-keyboard-response", "trial_index": 61, "time_elapsed": 151266, "internal_node_id": "0.0-4.0-57.0"}}, {"uniqueid": "w24741546:a92172252", "current_trial": 62, "dateTime": 1664375651177, "trialdata": {"rt": 686, "stimulus": "<p id='stroop-text' class='stroop-yellow'>GREEN</p>", "response": "g", "stimulus-type": "incongruent", "word": "green", "color": "yellow", "correct_response": "y", "trial_id": "stroop-trial-1-incongruent-30", "trial_type": "html-keyboard-response", "trial_index": 62, "time_elapsed": 152456, "internal_node_id": "0.0-4.0-58.0"}}, {"uniqueid": "w24741546:a92172252", "current_trial": 63, "dateTime": 1664375652281, "trialdata": {"rt": 600, "stimulus": "<p id='stroop-text' class='stroop-yellow'>YELLOW</p>", "response": "y", "stimulus-type": "congruent", "word": "yellow", "color": "yellow", "correct_response": "y", "trial_id": "stroop-trial-1-congruent-17", "trial_type": "html-keyboard-response", "trial_index": 63, "time_elapsed": 153560, "internal_node_id": "0.0-4.0-59.0"}}, {"uniqueid": "w24741546:a92172252", "current_trial": 64, "dateTime": 1664375653711, "trialdata": {"rt": 927, "stimulus": "<p id='stroop-text' class='stroop-red'>YELLOW</p>", "response": "r", "stimulus-type": "incongruent", "word": "yellow", "color": "red", "correct_response": "r", "trial_id": "stroop-trial-1-incongruent-20", "trial_type": "html-keyboard-response", "trial_index": 64, "time_elapsed": 154991, "internal_node_id": "0.0-4.0-60.0"}}, {"uniqueid": "w24741546:a92172252", "current_trial": 65, "dateTime": 1664375655095, "trialdata": {"rt": 878, "stimulus": "<p id='stroop-text' class='stroop-yellow'>RED</p>", "response": "y", "stimulus-type": "incongruent", "word": "red", "color": "yellow", "correct_response": "y", "trial_id": "stroop-trial-1-incongruent-28", "trial_type": "html-keyboard-response", "trial_index": 65, "time_elapsed": 156374, "internal_node_id": "0.0-4.0-61.0"}}, {"uniqueid": "w24741546:a92172252", "current_trial": 66, "dateTime": 1664375656442, "trialdata": {"rt": 843, "stimulus": "<p id='stroop-text' class='stroop-red'>YELLOW</p>", "response": "r", "stimulus-type": "incongruent", "word": "yellow", "color": "red", "correct_response": "r", "trial_id": "stroop-trial-1-incongruent-1", "trial_type": "html-keyboard-response", "trial_index": 66, "time_elapsed": 157722, "internal_node_id": "0.0-4.0-62.0"}}, {"uniqueid": "w24741546:a92172252", "current_trial": 67, "dateTime": 1664375657694, "trialdata": {"rt": 747, "stimulus": "<p id='stroop-text' class='stroop-blue'>SHIP</p>", "response": "b", "stimulus-type": "unrelated", "word": "SHIP", "color": "blue", "correct_response": "b", "trial_id": "stroop-trial-1-unrelated-17", "trial_type": "html-keyboard-response", "trial_index": 67, "time_elapsed": 158973, "internal_node_id": "0.0-4.0-63.0"}}, {"uniqueid": "w24741546:a92172252", "current_trial": 68, "dateTime": 1664375659259, "trialdata": {"rt": 1062, "stimulus": "<p id='stroop-text' class='stroop-yellow'>STONE</p>", "response": "y", "stimulus-type": "unrelated", "word": "STONE", "color": "yellow", "correct_response": "y", "trial_id": "stroop-trial-1-unrelated-12", "trial_type": "html-keyboard-response", "trial_index": 68, "time_elapsed": 160539, "internal_node_id": "0.0-4.0-64.0"}}, {"uniqueid": "w24741546:a92172252", "current_trial": 69, "dateTime": 1664375660836, "trialdata": {"rt": 1071, "stimulus": "<p id='stroop-text' class='stroop-red'>YELLOW</p>", "response": "r", "stimulus-type": "incongruent", "word": "yellow", "color": "red", "correct_response": "r", "trial_id": "stroop-trial-1-incongruent-13", "trial_type": "html-keyboard-response", "trial_index": 69, "time_elapsed": 162115, "internal_node_id": "0.0-4.0-65.0"}}, {"uniqueid": "w24741546:a92172252", "current_trial": 70, "dateTime": 1664375661993, "trialdata": {"rt": 653, "stimulus": "<p id='stroop-text' class='stroop-blue'>BLUE</p>", "response": "b", "stimulus-type": "congruent", "word": "blue", "color": "blue", "correct_response": "b", "trial_id": "stroop-trial-1-congruent-15", "trial_type": "html-keyboard-response", "trial_index": 70, "time_elapsed": 163272, "internal_node_id": "0.0-4.0-66.0"}}, {"uniqueid": "w24741546:a92172252", "current_trial": 71, "dateTime": 1664375663977, "trialdata": {"rt": 1480, "stimulus": "<p id='stroop-text' class='stroop-red'>BLUE</p>", "response": "r", "stimulus-type": "incongruent", "word": "blue", "color": "red", "correct_response": "r", "trial_id": "stroop-trial-1-incongruent-22", "trial_type": "html-keyboard-response", "trial_index": 71, "time_elapsed": 165257, "internal_node_id": "0.0-4.0-67.0"}}, {"uniqueid": "w24741546:a92172252", "current_trial": 72, "dateTime": 1664375666034, "trialdata": {"rt": 1553, "stimulus": "<p id='stroop-text' class='stroop-green'>YELLOW</p>", "response": "g", "stimulus-type": "incongruent", "word": "yellow", "color": "green", "correct_response": "g", "trial_id": "stroop-trial-1-incongruent-25", "trial_type": "html-keyboard-response", "trial_index": 72, "time_elapsed": 167313, "internal_node_id": "0.0-4.0-68.0"}}, {"uniqueid": "w24741546:a92172252", "current_trial": 73, "dateTime": 1664375667523, "trialdata": {"rt": 985, "stimulus": "<p id='stroop-text' class='stroop-red'>BLUE</p>", "response": "r", "stimulus-type": "incongruent", "word": "blue", "color": "red", "correct_response": "r", "trial_id": "stroop-trial-1-incongruent-18", "trial_type": "html-keyboard-response", "trial_index": 73, "time_elapsed": 168803, "internal_node_id": "0.0-4.0-69.0"}}, {"uniqueid": "w24741546:a92172252", "current_trial": 74, "dateTime": 1664375668906, "trialdata": {"rt": 877, "stimulus": "<p id='stroop-text' class='stroop-blue'>YELLOW</p>", "response": "b", "stimulus-type": "incongruent", "word": "yellow", "color": "blue", "correct_response": "b", "trial_id": "stroop-trial-1-incongruent-24", "trial_type": "html-keyboard-response", "trial_index": 74, "time_elapsed": 170185, "internal_node_id": "0.0-4.0-70.0"}}, {"uniqueid": "w24741546:a92172252", "current_trial": 75, "dateTime": 1664375670287, "trialdata": {"rt": 877, "stimulus": "<p id='stroop-text' class='stroop-green'>FORK</p>", "response": "g", "stimulus-type": "unrelated", "word": "FORK", "color": "green", "correct_response": "g", "trial_id": "stroop-trial-1-unrelated-9", "trial_type": "html-keyboard-response", "trial_index": 75, "time_elapsed": 171566, "internal_node_id": "0.0-4.0-71.0"}}, {"uniqueid": "w24741546:a92172252", "current_trial": 76, "dateTime": 1664375671302, "trialdata": {"rt": 509, "stimulus": "<p id='stroop-text' class='stroop-green'>YELLOW</p>", "response": "g", "stimulus-type": "incongruent", "word": "yellow", "color": "green", "correct_response": "g", "trial_id": "stroop-trial-1-incongruent-7", "trial_type": "html-keyboard-response", "trial_index": 76, "time_elapsed": 172581, "internal_node_id": "0.0-4.0-72.0"}}, {"uniqueid": "w24741546:a92172252", "current_trial": 77, "dateTime": 1664375672546, "trialdata": {"rt": 740, "stimulus": "<p id='stroop-text' class='stroop-yellow'>BOAT</p>", "response": "y", "stimulus-type": "unrelated", "word": "BOAT", "color": "yellow", "correct_response": "y", "trial_id": "stroop-trial-1-unrelated-18", "trial_type": "html-keyboard-response", "trial_index": 77, "time_elapsed": 173825, "internal_node_id": "0.0-4.0-73.0"}}, {"uniqueid": "w24741546:a92172252", "current_trial": 78, "dateTime": 1664375673511, "trialdata": {"rt": 461, "stimulus": "<p id='stroop-text' class='stroop-yellow'>BLUE</p>", "response": "y", "stimulus-type": "incongruent", "word": "blue", "color": "yellow", "correct_response": "y", "trial_id": "stroop-trial-1-incongruent-8", "trial_type": "html-keyboard-response", "trial_index": 78, "time_elapsed": 174790, "internal_node_id": "0.0-4.0-74.0"}}, {"uniqueid": "w24741546:a92172252", "current_trial": 79, "dateTime": 1664375675563, "trialdata": {"rt": 1547, "stimulus": "<p id='stroop-text' class='stroop-red'>YELLOW</p>", "response": "r", "stimulus-type": "incongruent", "word": "yellow", "color": "red", "correct_response": "r", "trial_id": "stroop-trial-1-incongruent-4", "trial_type": "html-keyboard-response", "trial_index": 79, "time_elapsed": 176842, "internal_node_id": "0.0-4.0-75.0"}}, {"uniqueid": "w24741546:a92172252", "current_trial": 80, "dateTime": 1664375676626, "trialdata": {"rt": 558, "stimulus": "<p id='stroop-text' class='stroop-red'>FORK</p>", "response": "r", "stimulus-type": "unrelated", "word": "FORK", "color": "red", "correct_response": "r", "trial_id": "stroop-trial-1-unrelated-22", "trial_type": "html-keyboard-response", "trial_index": 80, "time_elapsed": 177905, "internal_node_id": "0.0-4.0-76.0"}}, {"uniqueid": "w24741546:a92172252", "current_trial": 81, "dateTime": 1664375677715, "trialdata": {"rt": 585, "stimulus": "<p id='stroop-text' class='stroop-red'>GREEN</p>", "response": "r", "stimulus-type": "incongruent", "word": "green", "color": "red", "correct_response": "r", "trial_id": "stroop-trial-1-incongruent-11", "trial_type": "html-keyboard-response", "trial_index": 81, "time_elapsed": 178994, "internal_node_id": "0.0-4.0-77.0"}}, {"uniqueid": "w24741546:a92172252", "current_trial": 82, "dateTime": 1664375679098, "trialdata": {"rt": 878, "stimulus": "<p id='stroop-text' class='stroop-green'>BOAT</p>", "response": "g", "stimulus-type": "unrelated", "word": "BOAT", "color": "green", "correct_response": "g", "trial_id": "stroop-trial-1-unrelated-23", "trial_type": "html-keyboard-response", "trial_index": 82, "time_elapsed": 180378, "internal_node_id": "0.0-4.0-78.0"}}, {"uniqueid": "w24741546:a92172252", "current_trial": 83, "dateTime": 1664375680170, "trialdata": {"rt": 568, "stimulus": "<p id='stroop-text' class='stroop-green'>GREEN</p>", "response": "g", "stimulus-type": "congruent", "word": "green", "color": "green", "correct_response": "g", "trial_id": "stroop-trial-1-congruent-13", "trial_type": "html-keyboard-response", "trial_index": 83, "time_elapsed": 181449, "internal_node_id": "0.0-4.0-79.0"}}, {"uniqueid": "w24741546:a92172252", "current_trial": 84, "dateTime": 1664375681264, "trialdata": {"rt": 590, "stimulus": "<p id='stroop-text' class='stroop-red'>GREEN</p>", "response": "r", "stimulus-type": "incongruent", "word": "green", "color": "red", "correct_response": "r", "trial_id": "stroop-trial-1-incongruent-16", "trial_type": "html-keyboard-response", "trial_index": 84, "time_elapsed": 182543, "internal_node_id": "0.0-4.0-80.0"}}, {"uniqueid": "w24741546:a92172252", "current_trial": 85, "dateTime": 1664375682261, "trialdata": {"rt": 491, "stimulus": "<p id='stroop-text' class='stroop-green'>GREEN</p>", "response": "r", "stimulus-type": "congruent", "word": "green", "color": "green", "correct_response": "g", "trial_id": "stroop-trial-1-congruent-6", "trial_type": "html-keyboard-response", "trial_index": 85, "time_elapsed": 183540, "internal_node_id": "0.0-4.0-81.0"}}, {"uniqueid": "w24741546:a92172252", "current_trial": 86, "dateTime": 1664375683214, "trialdata": {"rt": 449, "stimulus": "<p id='stroop-text' class='stroop-green'>BOTTLE</p>", "response": "g", "stimulus-type": "unrelated", "word": "BOTTLE", "color": "green", "correct_response": "g", "trial_id": "stroop-trial-1-unrelated-19", "trial_type": "html-keyboard-response", "trial_index": 86, "time_elapsed": 184493, "internal_node_id": "0.0-4.0-82.0"}}, {"uniqueid": "w24741546:a92172252", "current_trial": 87, "dateTime": 1664375684275, "trialdata": {"rt": 557, "stimulus": "<p id='stroop-text' class='stroop-yellow'>YELLOW</p>", "response": "y", "stimulus-type": "congruent", "word": "yellow", "color": "yellow", "correct_response": "y", "trial_id": "stroop-trial-1-congruent-12", "trial_type": "html-keyboard-response", "trial_index": 87, "time_elapsed": 185554, "internal_node_id": "0.0-4.0-83.0"}}, {"uniqueid": "w24741546:a92172252", "current_trial": 88, "dateTime": 1664375685373, "trialdata": {"rt": 593, "stimulus": "<p id='stroop-text' class='stroop-blue'>BLUE</p>", "response": "b", "stimulus-type": "congruent", "word": "blue", "color": "blue", "correct_response": "b", "trial_id": "stroop-trial-1-congruent-28", "trial_type": "html-keyboard-response", "trial_index": 88, "time_elapsed": 186652, "internal_node_id": "0.0-4.0-84.0"}}, {"uniqueid": "w24741546:a92172252", "current_trial": 89, "dateTime": 1664375686396, "trialdata": {"rt": 519, "stimulus": "<p id='stroop-text' class='stroop-green'>YELLOW</p>", "response": "b", "stimulus-type": "incongruent", "word": "yellow", "color": "green", "correct_response": "g", "trial_id": "stroop-trial-1-incongruent-27", "trial_type": "html-keyboard-response", "trial_index": 89, "time_elapsed": 187675, "internal_node_id": "0.0-4.0-85.0"}}, {"uniqueid": "w24741546:a92172252", "current_trial": 90, "dateTime": 1664375687491, "trialdata": {"rt": 591, "stimulus": "<p id='stroop-text' class='stroop-green'>GREEN</p>", "response": "g", "stimulus-type": "congruent", "word": "green", "color": "green", "correct_response": "g", "trial_id": "stroop-trial-1-congruent-25", "trial_type": "html-keyboard-response", "trial_index": 90, "time_elapsed": 188770, "internal_node_id": "0.0-4.0-86.0"}}, {"uniqueid": "w24741546:a92172252", "current_trial": 91, "dateTime": 1664375688396, "trialdata": {"rt": 400, "stimulus": "<p id='stroop-text' class='stroop-green'>FORK</p>", "response": "g", "stimulus-type": "unrelated", "word": "FORK", "color": "green", "correct_response": "g", "trial_id": "stroop-trial-1-unrelated-6", "trial_type": "html-keyboard-response", "trial_index": 91, "time_elapsed": 189676, "internal_node_id": "0.0-4.0-87.0"}}, {"uniqueid": "w24741546:a92172252", "current_trial": 92, "dateTime": 1664375689473, "trialdata": {"rt": 573, "stimulus": "<p id='stroop-text' class='stroop-yellow'>MONKEY</p>", "response": "y", "stimulus-type": "unrelated", "word": "MONKEY", "color": "yellow", "correct_response": "y", "trial_id": "stroop-trial-1-unrelated-13", "trial_type": "html-keyboard-response", "trial_index": 92, "time_elapsed": 190752, "internal_node_id": "0.0-4.0-88.0"}}, {"uniqueid": "w24741546:a92172252", "current_trial": 93, "dateTime": 1664375691490, "trialdata": {"rt": 1512, "stimulus": "<p id='stroop-text' class='stroop-green'>RED</p>", "response": "g", "stimulus-type": "incongruent", "word": "red", "color": "green", "correct_response": "g", "trial_id": "stroop-trial-1-incongruent-12", "trial_type": "html-keyboard-response", "trial_index": 93, "time_elapsed": 192769, "internal_node_id": "0.0-4.0-89.0"}}, {"uniqueid": "w24741546:a92172252", "current_trial": 94, "dateTime": 1664375697368, "trialdata": {"rt": 5372, "stimulus": "  <h1> End of block! </h1>\n\n  You have reached the end of the block 1/5. If you need a short break, feel free to take one now before moving on.\n\n  <br><br>\n  In the next block, you will complete another 90 rounds of this game.\n\n  <br><br>\n  <div style='text-align: center;'>Press <code>space</code> to begin.</div>\n  <br><br>\n<div style='text-align: center;'>(If the experiment doesn't continue, try clicking on the text and then pressing <code>space</code>.)</div>", "response": " ", "trial_id": "stroop_1_ready_2", "trial_type": "html-keyboard-response", "trial_index": 94, "time_elapsed": 198648, "internal_node_id": "0.0-5.0"}}, {"uniqueid": "w24741546:a92172252", "current_trial": 95, "dateTime": 1664375697885, "trialdata": {"rt": 512, "stimulus": "<p id='stroop-text' class='stroop-yellow'>YELLOW</p>", "response": "y", "stimulus-type": "congruent", "word": "yellow", "color": "yellow", "correct_response": "y", "trial_id": "stroop-trial-1-congruent-7", "trial_type": "html-keyboard-response", "trial_index": 95, "time_elapsed": 199164, "internal_node_id": "0.0-6.0-0.0"}}, {"uniqueid": "w24741546:a92172252", "current_trial": 96, "dateTime": 1664375699307, "trialdata": {"rt": 917, "stimulus": "<p id='stroop-text' class='stroop-blue'>BLUE</p>", "response": "b", "stimulus-type": "congruent", "word": "blue", "color": "blue", "correct_response": "b", "trial_id": "stroop-trial-1-congruent-21", "trial_type": "html-keyboard-response", "trial_index": 96, "time_elapsed": 200587, "internal_node_id": "0.0-6.0-1.0"}}, {"uniqueid": "w24741546:a92172252", "current_trial": 97, "dateTime": 1664375701097, "trialdata": {"rt": 1285, "stimulus": "<p id='stroop-text' class='stroop-red'>BLUE</p>", "response": "r", "stimulus-type": "incongruent", "word": "blue", "color": "red", "correct_response": "r", "trial_id": "stroop-trial-1-incongruent-20", "trial_type": "html-keyboard-response", "trial_index": 97, "time_elapsed": 202376, "internal_node_id": "0.0-6.0-2.0"}}, {"uniqueid": "w24741546:a92172252", "current_trial": 98, "dateTime": 1664375702087, "trialdata": {"rt": 486, "stimulus": "<p id='stroop-text' class='stroop-yellow'>YELLOW</p>", "response": "y", "stimulus-type": "congruent", "word": "yellow", "color": "yellow", "correct_response": "y", "trial_id": "stroop-trial-1-congruent-18", "trial_type": "html-keyboard-response", "trial_index": 98, "time_elapsed": 203366, "internal_node_id": "0.0-6.0-3.0"}}, {"uniqueid": "w24741546:a92172252", "current_trial": 99, "dateTime": 1664375703136, "trialdata": {"rt": 544, "stimulus": "<p id='stroop-text' class='stroop-blue'>BOTTLE</p>", "response": "b", "stimulus-type": "unrelated", "word": "BOTTLE", "color": "blue", "correct_response": "b", "trial_id": "stroop-trial-1-unrelated-10", "trial_type": "html-keyboard-response", "trial_index": 99, "time_elapsed": 204415, "internal_node_id": "0.0-6.0-4.0"}}, {"uniqueid": "w24741546:a92172252", "current_trial": 100, "dateTime": 1664375704936, "trialdata": {"rt": 1295, "stimulus": "<p id='stroop-text' class='stroop-green'>RED</p>", "response": "g", "stimulus-type": "incongruent", "word": "red", "color": "green", "correct_response": "g", "trial_id": "stroop-trial-1-incongruent-29", "trial_type": "html-keyboard-response", "trial_index": 100, "time_elapsed": 206215, "internal_node_id": "0.0-6.0-5.0"}}, {"uniqueid": "w24741546:a92172252", "current_trial": 101, "dateTime": 1664375705947, "trialdata": {"rt": 508, "stimulus": "<p id='stroop-text' class='stroop-yellow'>CHAIR</p>", "response": "y", "stimulus-type": "unrelated", "word": "CHAIR", "color": "yellow", "correct_response": "y", "trial_id": "stroop-trial-1-unrelated-22", "trial_type": "html-keyboard-response", "trial_index": 101, "time_elapsed": 207226, "internal_node_id": "0.0-6.0-6.0"}}, {"uniqueid": "w24741546:a92172252", "current_trial": 102, "dateTime": 1664375706951, "trialdata": {"rt": 499, "stimulus": "<p id='stroop-text' class='stroop-yellow'>RED</p>", "response": "y", "stimulus-type": "incongruent", "word": "red", "color": "yellow", "correct_response": "y", "trial_id": "stroop-trial-1-incongruent-10", "trial_type": "html-keyboard-response", "trial_index": 102, "time_elapsed": 208230, "internal_node_id": "0.0-6.0-7.0"}}, {"uniqueid": "w24741546:a92172252", "current_trial": 103, "dateTime": 1664375708023, "trialdata": {"rt": 568, "stimulus": "<p id='stroop-text' class='stroop-blue'>BLUE</p>", "response": "b", "stimulus-type": "congruent", "word": "blue", "color": "blue", "correct_response": "b", "trial_id": "stroop-trial-1-congruent-1", "trial_type": "html-keyboard-response", "trial_index": 103, "time_elapsed": 209302, "internal_node_id": "0.0-6.0-8.0"}}, {"uniqueid": "w24741546:a92172252", "current_trial": 104, "dateTime": 1664375709209, "trialdata": {"rt": 681, "stimulus": "<p id='stroop-text' class='stroop-green'>YELLOW</p>", "response": "y", "stimulus-type": "incongruent", "word": "yellow", "color": "green", "correct_response": "g", "trial_id": "stroop-trial-1-incongruent-13", "trial_type": "html-keyboard-response", "trial_index": 104, "time_elapsed": 210488, "internal_node_id": "0.0-6.0-9.0"}}, {"uniqueid": "w24741546:a92172252", "current_trial": 105, "dateTime": 1664375710406, "trialdata": {"rt": 692, "stimulus": "<p id='stroop-text' class='stroop-red'>RED</p>", "response": "r", "stimulus-type": "congruent", "word": "red", "color": "red", "correct_response": "r", "trial_id": "stroop-trial-1-congruent-10", "trial_type": "html-keyboard-response", "trial_index": 105, "time_elapsed": 211685, "internal_node_id": "0.0-6.0-10.0"}}, {"uniqueid": "w24741546:a92172252", "current_trial": 106, "dateTime": 1664375711482, "trialdata": {"rt": 572, "stimulus": "<p id='stroop-text' class='stroop-red'>RED</p>", "response": "r", "stimulus-type": "congruent", "word": "red", "color": "red", "correct_response": "r", "trial_id": "stroop-trial-1-congruent-15", "trial_type": "html-keyboard-response", "trial_index": 106, "time_elapsed": 212762, "internal_node_id": "0.0-6.0-11.0"}}, {"uniqueid": "w24741546:a92172252", "current_trial": 107, "dateTime": 1664375712361, "trialdata": {"rt": 374, "stimulus": "<p id='stroop-text' class='stroop-red'>DOG</p>", "response": "r", "stimulus-type": "unrelated", "word": "DOG", "color": "red", "correct_response": "r", "trial_id": "stroop-trial-1-unrelated-16", "trial_type": "html-keyboard-response", "trial_index": 107, "time_elapsed": 213641, "internal_node_id": "0.0-6.0-12.0"}}, {"uniqueid": "w24741546:a92172252", "current_trial": 108, "dateTime": 1664375713342, "trialdata": {"rt": 475, "stimulus": "<p id='stroop-text' class='stroop-green'>MONKEY</p>", "response": "y", "stimulus-type": "unrelated", "word": "MONKEY", "color": "green", "correct_response": "g", "trial_id": "stroop-trial-1-unrelated-27", "trial_type": "html-keyboard-response", "trial_index": 108, "time_elapsed": 214621, "internal_node_id": "0.0-6.0-13.0"}}, {"uniqueid": "w24741546:a92172252", "current_trial": 109, "dateTime": 1664375714535, "trialdata": {"rt": 688, "stimulus": "<p id='stroop-text' class='stroop-blue'>BLUE</p>", "response": "b", "stimulus-type": "congruent", "word": "blue", "color": "blue", "correct_response": "b", "trial_id": "stroop-trial-1-congruent-30", "trial_type": "html-keyboard-response", "trial_index": 109, "time_elapsed": 215814, "internal_node_id": "0.0-6.0-14.0"}}, {"uniqueid": "w24741546:a92172252", "current_trial": 110, "dateTime": 1664375716524, "trialdata": {"rt": 1485, "stimulus": "<p id='stroop-text' class='stroop-red'>BOTTLE</p>", "response": "r", "stimulus-type": "unrelated", "word": "BOTTLE", "color": "red", "correct_response": "r", "trial_id": "stroop-trial-1-unrelated-8", "trial_type": "html-keyboard-response", "trial_index": 110, "time_elapsed": 217803, "internal_node_id": "0.0-6.0-15.0"}}, {"uniqueid": "w24741546:a92172252", "current_trial": 111, "dateTime": 1664375717858, "trialdata": {"rt": 830, "stimulus": "<p id='stroop-text' class='stroop-green'>YELLOW</p>", "response": "g", "stimulus-type": "incongruent", "word": "yellow", "color": "green", "correct_response": "g", "trial_id": "stroop-trial-1-incongruent-26", "trial_type": "html-keyboard-response", "trial_index": 111, "time_elapsed": 219137, "internal_node_id": "0.0-6.0-16.0"}}, {"uniqueid": "w24741546:a92172252", "current_trial": 112, "dateTime": 1664375718971, "trialdata": {"rt": 608, "stimulus": "<p id='stroop-text' class='stroop-red'>RED</p>", "response": "r", "stimulus-type": "congruent", "word": "red", "color": "red", "correct_response": "r", "trial_id": "stroop-trial-1-congruent-2", "trial_type": "html-keyboard-response", "trial_index": 112, "time_elapsed": 220250, "internal_node_id": "0.0-6.0-17.0"}}, {"uniqueid": "w24741546:a92172252", "current_trial": 113, "dateTime": 1664375720335, "trialdata": {"rt": 860, "stimulus": "<p id='stroop-text' class='stroop-blue'>FORK</p>", "response": "b", "stimulus-type": "unrelated", "word": "FORK", "color": "blue", "correct_response": "b", "trial_id": "stroop-trial-1-unrelated-17", "trial_type": "html-keyboard-response", "trial_index": 113, "time_elapsed": 221614, "internal_node_id": "0.0-6.0-18.0"}}, {"uniqueid": "w24741546:a92172252", "current_trial": 114, "dateTime": 1664375721403, "trialdata": {"rt": 562, "stimulus": "<p id='stroop-text' class='stroop-green'>GREEN</p>", "response": "g", "stimulus-type": "congruent", "word": "green", "color": "green", "correct_response": "g", "trial_id": "stroop-trial-1-congruent-28", "trial_type": "html-keyboard-response", "trial_index": 114, "time_elapsed": 222682, "internal_node_id": "0.0-6.0-19.0"}}, {"uniqueid": "w24741546:a92172252", "current_trial": 115, "dateTime": 1664375722419, "trialdata": {"rt": 511, "stimulus": "<p id='stroop-text' class='stroop-red'>BOTTLE</p>", "response": "r", "stimulus-type": "unrelated", "word": "BOTTLE", "color": "red", "correct_response": "r", "trial_id": "stroop-trial-1-unrelated-28", "trial_type": "html-keyboard-response", "trial_index": 115, "time_elapsed": 223698, "internal_node_id": "0.0-6.0-20.0"}}, {"uniqueid": "w24741546:a92172252", "current_trial": 116, "dateTime": 1664375723387, "trialdata": {"rt": 463, "stimulus": "<p id='stroop-text' class='stroop-green'>GREEN</p>", "response": "b", "stimulus-type": "congruent", "word": "green", "color": "green", "correct_response": "g", "trial_id": "stroop-trial-1-congruent-9", "trial_type": "html-keyboard-response", "trial_index": 116, "time_elapsed": 224666, "internal_node_id": "0.0-6.0-21.0"}}, {"uniqueid": "w24741546:a92172252", "current_trial": 117, "dateTime": 1664375724477, "trialdata": {"rt": 586, "stimulus": "<p id='stroop-text' class='stroop-yellow'>YELLOW</p>", "response": "y", "stimulus-type": "congruent", "word": "yellow", "color": "yellow", "correct_response": "y", "trial_id": "stroop-trial-1-congruent-11", "trial_type": "html-keyboard-response", "trial_index": 117, "time_elapsed": 225756, "internal_node_id": "0.0-6.0-22.0"}}, {"uniqueid": "w24741546:a92172252", "current_trial": 118, "dateTime": 1664375725897, "trialdata": {"rt": 914, "stimulus": "<p id='stroop-text' class='stroop-blue'>BLUE</p>", "response": "b", "stimulus-type": "congruent", "word": "blue", "color": "blue", "correct_response": "b", "trial_id": "stroop-trial-1-congruent-12", "trial_type": "html-keyboard-response", "trial_index": 118, "time_elapsed": 227176, "internal_node_id": "0.0-6.0-23.0"}}, {"uniqueid": "w24741546:a92172252", "current_trial": 119, "dateTime": 1664375727695, "trialdata": {"rt": 1293, "stimulus": "<p id='stroop-text' class='stroop-yellow'>GREEN</p>", "response": "y", "stimulus-type": "incongruent", "word": "green", "color": "yellow", "correct_response": "y", "trial_id": "stroop-trial-1-incongruent-27", "trial_type": "html-keyboard-response", "trial_index": 119, "time_elapsed": 228974, "internal_node_id": "0.0-6.0-24.0"}}, {"uniqueid": "w24741546:a92172252", "current_trial": 120, "dateTime": 1664375729131, "trialdata": {"rt": 931, "stimulus": "<p id='stroop-text' class='stroop-green'>BLUE</p>", "response": "g", "stimulus-type": "incongruent", "word": "blue", "color": "green", "correct_response": "g", "trial_id": "stroop-trial-1-incongruent-24", "trial_type": "html-keyboard-response", "trial_index": 120, "time_elapsed": 230409, "internal_node_id": "0.0-6.0-25.0"}}, {"uniqueid": "w24741546:a92172252", "current_trial": 121, "dateTime": 1664375730392, "trialdata": {"rt": 758, "stimulus": "<p id='stroop-text' class='stroop-blue'>BLUE</p>", "response": "b", "stimulus-type": "congruent", "word": "blue", "color": "blue", "correct_response": "b", "trial_id": "stroop-trial-1-congruent-4", "trial_type": "html-keyboard-response", "trial_index": 121, "time_elapsed": 231672, "internal_node_id": "0.0-6.0-26.0"}}, {"uniqueid": "w24741546:a92172252", "current_trial": 122, "dateTime": 1664375732750, "trialdata": {"rt": 1855, "stimulus": "<p id='stroop-text' class='stroop-green'>RED</p>", "response": "g", "stimulus-type": "incongruent", "word": "red", "color": "green", "correct_response": "g", "trial_id": "stroop-trial-1-incongruent-22", "trial_type": "html-keyboard-response", "trial_index": 122, "time_elapsed": 234030, "internal_node_id": "0.0-6.0-27.0"}}, {"uniqueid": "w24741546:a92172252", "current_trial": 123, "dateTime": 1664375733529, "trialdata": {"rt": 273, "stimulus": "<p id='stroop-text' class='stroop-green'>YELLOW</p>", "response": "r", "stimulus-type": "incongruent", "word": "yellow", "color": "green", "correct_response": "g", "trial_id": "stroop-trial-1-incongruent-5", "trial_type": "html-keyboard-response", "trial_index": 123, "time_elapsed": 234808, "internal_node_id": "0.0-6.0-28.0"}}, {"uniqueid": "w24741546:a92172252", "current_trial": 124, "dateTime": 1664375734521, "trialdata": {"rt": 488, "stimulus": "<p id='stroop-text' class='stroop-green'>GREEN</p>", "response": "g", "stimulus-type": "congruent", "word": "green", "color": "green", "correct_response": "g", "trial_id": "stroop-trial-1-congruent-8", "trial_type": "html-keyboard-response", "trial_index": 124, "time_elapsed": 235800, "internal_node_id": "0.0-6.0-29.0"}}, {"uniqueid": "w24741546:a92172252", "current_trial": 125, "dateTime": 1664375735566, "trialdata": {"rt": 540, "stimulus": "<p id='stroop-text' class='stroop-blue'>BLUE</p>", "response": "b", "stimulus-type": "congruent", "word": "blue", "color": "blue", "correct_response": "b", "trial_id": "stroop-trial-1-congruent-13", "trial_type": "html-keyboard-response", "trial_index": 125, "time_elapsed": 236845, "internal_node_id": "0.0-6.0-30.0"}}, {"uniqueid": "w24741546:a92172252", "current_trial": 126, "dateTime": 1664375736554, "trialdata": {"rt": 483, "stimulus": "<p id='stroop-text' class='stroop-yellow'>YELLOW</p>", "response": "y", "stimulus-type": "congruent", "word": "yellow", "color": "yellow", "correct_response": "y", "trial_id": "stroop-trial-1-congruent-23", "trial_type": "html-keyboard-response", "trial_index": 126, "time_elapsed": 237833, "internal_node_id": "0.0-6.0-31.0"}}, {"uniqueid": "w24741546:a92172252", "current_trial": 127, "dateTime": 1664375737782, "trialdata": {"rt": 723, "stimulus": "<p id='stroop-text' class='stroop-red'>YELLOW</p>", "response": "g", "stimulus-type": "incongruent", "word": "yellow", "color": "red", "correct_response": "r", "trial_id": "stroop-trial-1-incongruent-18", "trial_type": "html-keyboard-response", "trial_index": 127, "time_elapsed": 239061, "internal_node_id": "0.0-6.0-32.0"}}, {"uniqueid": "w24741546:a92172252", "current_trial": 128, "dateTime": 1664375739054, "trialdata": {"rt": 768, "stimulus": "<p id='stroop-text' class='stroop-yellow'>FORK</p>", "response": "y", "stimulus-type": "unrelated", "word": "FORK", "color": "yellow", "correct_response": "y", "trial_id": "stroop-trial-1-unrelated-30", "trial_type": "html-keyboard-response", "trial_index": 128, "time_elapsed": 240333, "internal_node_id": "0.0-6.0-33.0"}}, {"uniqueid": "w24741546:a92172252", "current_trial": 129, "dateTime": 1664375740275, "trialdata": {"rt": 716, "stimulus": "<p id='stroop-text' class='stroop-green'>BRIDGE</p>", "response": "g", "stimulus-type": "unrelated", "word": "BRIDGE", "color": "green", "correct_response": "g", "trial_id": "stroop-trial-1-unrelated-26", "trial_type": "html-keyboard-response", "trial_index": 129, "time_elapsed": 241555, "internal_node_id": "0.0-6.0-34.0"}}, {"uniqueid": "w24741546:a92172252", "current_trial": 130, "dateTime": 1664375741311, "trialdata": {"rt": 531, "stimulus": "<p id='stroop-text' class='stroop-blue'>BRIDGE</p>", "response": "b", "stimulus-type": "unrelated", "word": "BRIDGE", "color": "blue", "correct_response": "b", "trial_id": "stroop-trial-1-unrelated-11", "trial_type": "html-keyboard-response", "trial_index": 130, "time_elapsed": 242590, "internal_node_id": "0.0-6.0-35.0"}}, {"uniqueid": "w24741546:a92172252", "current_trial": 131, "dateTime": 1664375742427, "trialdata": {"rt": 611, "stimulus": "<p id='stroop-text' class='stroop-blue'>RED</p>", "response": "r", "stimulus-type": "incongruent", "word": "red", "color": "blue", "correct_response": "b", "trial_id": "stroop-trial-1-incongruent-12", "trial_type": "html-keyboard-response", "trial_index": 131, "time_elapsed": 243706, "internal_node_id": "0.0-6.0-36.0"}}, {"uniqueid": "w24741546:a92172252", "current_trial": 132, "dateTime": 1664375744644, "trialdata": {"rt": 1713, "stimulus": "<p id='stroop-text' class='stroop-blue'>BLUE</p>", "response": "b", "stimulus-type": "congruent", "word": "blue", "color": "blue", "correct_response": "b", "trial_id": "stroop-trial-1-congruent-6", "trial_type": "html-keyboard-response", "trial_index": 132, "time_elapsed": 245923, "internal_node_id": "0.0-6.0-37.0"}}, {"uniqueid": "w24741546:a92172252", "current_trial": 133, "dateTime": 1664375746921, "trialdata": {"rt": 1772, "stimulus": "<p id='stroop-text' class='stroop-green'>FORK</p>", "response": "g", "stimulus-type": "unrelated", "word": "FORK", "color": "green", "correct_response": "g", "trial_id": "stroop-trial-1-unrelated-6", "trial_type": "html-keyboard-response", "trial_index": 133, "time_elapsed": 248200, "internal_node_id": "0.0-6.0-38.0"}}, {"uniqueid": "w24741546:a92172252", "current_trial": 134, "dateTime": 1664375748727, "trialdata": {"rt": 1300, "stimulus": "<p id='stroop-text' class='stroop-blue'>GREEN</p>", "response": "g", "stimulus-type": "incongruent", "word": "green", "color": "blue", "correct_response": "b", "trial_id": "stroop-trial-1-incongruent-14", "trial_type": "html-keyboard-response", "trial_index": 134, "time_elapsed": 250006, "internal_node_id": "0.0-6.0-39.0"}}, {"uniqueid": "w24741546:a92172252", "current_trial": 135, "dateTime": 1664375750077, "trialdata": {"rt": 842, "stimulus": "<p id='stroop-text' class='stroop-green'>YELLOW</p>", "response": "b", "stimulus-type": "incongruent", "word": "yellow", "color": "green", "correct_response": "g", "trial_id": "stroop-trial-1-incongruent-30", "trial_type": "html-keyboard-response", "trial_index": 135, "time_elapsed": 251356, "internal_node_id": "0.0-6.0-40.0"}}, {"uniqueid": "w24741546:a92172252", "current_trial": 136, "dateTime": 1664375751715, "trialdata": {"rt": 1132, "stimulus": "<p id='stroop-text' class='stroop-blue'>CHAIR</p>", "response": "b", "stimulus-type": "unrelated", "word": "CHAIR", "color": "blue", "correct_response": "b", "trial_id": "stroop-trial-1-unrelated-19", "trial_type": "html-keyboard-response", "trial_index": 136, "time_elapsed": 252994, "internal_node_id": "0.0-6.0-41.0"}}, {"uniqueid": "w24741546:a92172252", "current_trial": 137, "dateTime": 1664375752787, "trialdata": {"rt": 567, "stimulus": "<p id='stroop-text' class='stroop-green'>GREEN</p>", "response": "g", "stimulus-type": "congruent", "word": "green", "color": "green", "correct_response": "g", "trial_id": "stroop-trial-1-congruent-3", "trial_type": "html-keyboard-response", "trial_index": 137, "time_elapsed": 254067, "internal_node_id": "0.0-6.0-42.0"}}, {"uniqueid": "w24741546:a92172252", "current_trial": 138, "dateTime": 1664375754675, "trialdata": {"rt": 1386, "stimulus": "<p id='stroop-text' class='stroop-green'>RED</p>", "response": "g", "stimulus-type": "incongruent", "word": "red", "color": "green", "correct_response": "g", "trial_id": "stroop-trial-1-incongruent-9", "trial_type": "html-keyboard-response", "trial_index": 138, "time_elapsed": 255954, "internal_node_id": "0.0-6.0-43.0"}}, {"uniqueid": "w24741546:a92172252", "current_trial": 139, "dateTime": 1664375755970, "trialdata": {"rt": 791, "stimulus": "<p id='stroop-text' class='stroop-green'>BOAT</p>", "response": "g", "stimulus-type": "unrelated", "word": "BOAT", "color": "green", "correct_response": "g", "trial_id": "stroop-trial-1-unrelated-4", "trial_type": "html-keyboard-response", "trial_index": 139, "time_elapsed": 257249, "internal_node_id": "0.0-6.0-44.0"}}, {"uniqueid": "w24741546:a92172252", "current_trial": 140, "dateTime": 1664375756868, "trialdata": {"rt": 393, "stimulus": "<p id='stroop-text' class='stroop-yellow'>BLUE</p>", "response": "y", "stimulus-type": "incongruent", "word": "blue", "color": "yellow", "correct_response": "y", "trial_id": "stroop-trial-1-incongruent-23", "trial_type": "html-keyboard-response", "trial_index": 140, "time_elapsed": 258147, "internal_node_id": "0.0-6.0-45.0"}}, {"uniqueid": "w24741546:a92172252", "current_trial": 141, "dateTime": 1664375757819, "trialdata": {"rt": 446, "stimulus": "<p id='stroop-text' class='stroop-blue'>BLUE</p>", "response": "b", "stimulus-type": "congruent", "word": "blue", "color": "blue", "correct_response": "b", "trial_id": "stroop-trial-1-congruent-17", "trial_type": "html-keyboard-response", "trial_index": 141, "time_elapsed": 259098, "internal_node_id": "0.0-6.0-46.0"}}, {"uniqueid": "w24741546:a92172252", "current_trial": 142, "dateTime": 1664375758868, "trialdata": {"rt": 545, "stimulus": "<p id='stroop-text' class='stroop-red'>RED</p>", "response": "r", "stimulus-type": "congruent", "word": "red", "color": "red", "correct_response": "r", "trial_id": "stroop-trial-1-congruent-24", "trial_type": "html-keyboard-response", "trial_index": 142, "time_elapsed": 260147, "internal_node_id": "0.0-6.0-47.0"}}, {"uniqueid": "w24741546:a92172252", "current_trial": 143, "dateTime": 1664375760201, "trialdata": {"rt": 827, "stimulus": "<p id='stroop-text' class='stroop-green'>GREEN</p>", "response": "g", "stimulus-type": "congruent", "word": "green", "color": "green", "correct_response": "g", "trial_id": "stroop-trial-1-congruent-5", "trial_type": "html-keyboard-response", "trial_index": 143, "time_elapsed": 261480, "internal_node_id": "0.0-6.0-48.0"}}, {"uniqueid": "w24741546:a92172252", "current_trial": 144, "dateTime": 1664375761311, "trialdata": {"rt": 606, "stimulus": "<p id='stroop-text' class='stroop-green'>FORK</p>", "response": "g", "stimulus-type": "unrelated", "word": "FORK", "color": "green", "correct_response": "g", "trial_id": "stroop-trial-1-unrelated-1", "trial_type": "html-keyboard-response", "trial_index": 144, "time_elapsed": 262591, "internal_node_id": "0.0-6.0-49.0"}}, {"uniqueid": "w24741546:a92172252", "current_trial": 145, "dateTime": 1664375762715, "trialdata": {"rt": 899, "stimulus": "<p id='stroop-text' class='stroop-red'>BOAT</p>", "response": "r", "stimulus-type": "unrelated", "word": "BOAT", "color": "red", "correct_response": "r", "trial_id": "stroop-trial-1-unrelated-12", "trial_type": "html-keyboard-response", "trial_index": 145, "time_elapsed": 263994, "internal_node_id": "0.0-6.0-50.0"}}, {"uniqueid": "w24741546:a92172252", "current_trial": 146, "dateTime": 1664375763601, "trialdata": {"rt": 383, "stimulus": "<p id='stroop-text' class='stroop-red'>RED</p>", "response": "r", "stimulus-type": "congruent", "word": "red", "color": "red", "correct_response": "r", "trial_id": "stroop-trial-1-congruent-29", "trial_type": "html-keyboard-response", "trial_index": 146, "time_elapsed": 264880, "internal_node_id": "0.0-6.0-51.0"}}, {"uniqueid": "w24741546:a92172252", "current_trial": 147, "dateTime": 1664375764670, "trialdata": {"rt": 565, "stimulus": "<p id='stroop-text' class='stroop-yellow'>MONKEY</p>", "response": "y", "stimulus-type": "unrelated", "word": "MONKEY", "color": "yellow", "correct_response": "y", "trial_id": "stroop-trial-1-unrelated-13", "trial_type": "html-keyboard-response", "trial_index": 147, "time_elapsed": 265950, "internal_node_id": "0.0-6.0-52.0"}}, {"uniqueid": "w24741546:a92172252", "current_trial": 148, "dateTime": 1664375765703, "trialdata": {"rt": 527, "stimulus": "<p id='stroop-text' class='stroop-yellow'>YELLOW</p>", "response": "y", "stimulus-type": "congruent", "word": "yellow", "color": "yellow", "correct_response": "y", "trial_id": "stroop-trial-1-congruent-25", "trial_type": "html-keyboard-response", "trial_index": 148, "time_elapsed": 266982, "internal_node_id": "0.0-6.0-53.0"}}, {"uniqueid": "w24741546:a92172252", "current_trial": 149, "dateTime": 1664375767090, "trialdata": {"rt": 883, "stimulus": "<p id='stroop-text' class='stroop-blue'>BOAT</p>", "response": "b", "stimulus-type": "unrelated", "word": "BOAT", "color": "blue", "correct_response": "b", "trial_id": "stroop-trial-1-unrelated-3", "trial_type": "html-keyboard-response", "trial_index": 149, "time_elapsed": 268370, "internal_node_id": "0.0-6.0-54.0"}}, {"uniqueid": "w24741546:a92172252", "current_trial": 150, "dateTime": 1664375768121, "trialdata": {"rt": 526, "stimulus": "<p id='stroop-text' class='stroop-red'>YELLOW</p>", "response": "r", "stimulus-type": "incongruent", "word": "yellow", "color": "red", "correct_response": "r", "trial_id": "stroop-trial-1-incongruent-19", "trial_type": "html-keyboard-response", "trial_index": 150, "time_elapsed": 269400, "internal_node_id": "0.0-6.0-55.0"}}, {"uniqueid": "w24741546:a92172252", "current_trial": 151, "dateTime": 1664375768967, "trialdata": {"rt": 341, "stimulus": "<p id='stroop-text' class='stroop-red'>GREEN</p>", "response": "r", "stimulus-type": "incongruent", "word": "green", "color": "red", "correct_response": "r", "trial_id": "stroop-trial-1-incongruent-11", "trial_type": "html-keyboard-response", "trial_index": 151, "time_elapsed": 270247, "internal_node_id": "0.0-6.0-56.0"}}, {"uniqueid": "w24741546:a92172252", "current_trial": 152, "dateTime": 1664375770628, "trialdata": {"rt": 1158, "stimulus": "<p id='stroop-text' class='stroop-yellow'>RED</p>", "response": "y", "stimulus-type": "incongruent", "word": "red", "color": "yellow", "correct_response": "y", "trial_id": "stroop-trial-1-incongruent-28", "trial_type": "html-keyboard-response", "trial_index": 152, "time_elapsed": 271907, "internal_node_id": "0.0-6.0-57.0"}}, {"uniqueid": "w24741546:a92172252", "current_trial": 153, "dateTime": 1664375771755, "trialdata": {"rt": 622, "stimulus": "<p id='stroop-text' class='stroop-green'>GREEN</p>", "response": "g", "stimulus-type": "congruent", "word": "green", "color": "green", "correct_response": "g", "trial_id": "stroop-trial-1-congruent-20", "trial_type": "html-keyboard-response", "trial_index": 153, "time_elapsed": 273035, "internal_node_id": "0.0-6.0-58.0"}}, {"uniqueid": "w24741546:a92172252", "current_trial": 154, "dateTime": 1664375772811, "trialdata": {"rt": 552, "stimulus": "<p id='stroop-text' class='stroop-green'>GREEN</p>", "response": "g", "stimulus-type": "congruent", "word": "green", "color": "green", "correct_response": "g", "trial_id": "stroop-trial-1-congruent-27", "trial_type": "html-keyboard-response", "trial_index": 154, "time_elapsed": 274091, "internal_node_id": "0.0-6.0-59.0"}}, {"uniqueid": "w24741546:a92172252", "current_trial": 155, "dateTime": 1664375774247, "trialdata": {"rt": 931, "stimulus": "<p id='stroop-text' class='stroop-yellow'>RED</p>", "response": "y", "stimulus-type": "incongruent", "word": "red", "color": "yellow", "correct_response": "y", "trial_id": "stroop-trial-1-incongruent-16", "trial_type": "html-keyboard-response", "trial_index": 155, "time_elapsed": 275526, "internal_node_id": "0.0-6.0-60.0"}}, {"uniqueid": "w24741546:a92172252", "current_trial": 156, "dateTime": 1664375775421, "trialdata": {"rt": 670, "stimulus": "<p id='stroop-text' class='stroop-yellow'>FORK</p>", "response": "y", "stimulus-type": "unrelated", "word": "FORK", "color": "yellow", "correct_response": "y", "trial_id": "stroop-trial-1-unrelated-21", "trial_type": "html-keyboard-response", "trial_index": 156, "time_elapsed": 276700, "internal_node_id": "0.0-6.0-61.0"}}, {"uniqueid": "w24741546:a92172252", "current_trial": 157, "dateTime": 1664375776517, "trialdata": {"rt": 591, "stimulus": "<p id='stroop-text' class='stroop-blue'>BLUE</p>", "response": "g", "stimulus-type": "congruent", "word": "blue", "color": "blue", "correct_response": "b", "trial_id": "stroop-trial-1-congruent-26", "trial_type": "html-keyboard-response", "trial_index": 157, "time_elapsed": 277796, "internal_node_id": "0.0-6.0-62.0"}}, {"uniqueid": "w24741546:a92172252", "current_trial": 158, "dateTime": 1664375777888, "trialdata": {"rt": 867, "stimulus": "<p id='stroop-text' class='stroop-yellow'>DOG</p>", "response": "y", "stimulus-type": "unrelated", "word": "DOG", "color": "yellow", "correct_response": "y", "trial_id": "stroop-trial-1-unrelated-9", "trial_type": "html-keyboard-response", "trial_index": 158, "time_elapsed": 279168, "internal_node_id": "0.0-6.0-63.0"}}, {"uniqueid": "w24741546:a92172252", "current_trial": 159, "dateTime": 1664375778950, "trialdata": {"rt": 556, "stimulus": "<p id='stroop-text' class='stroop-red'>RED</p>", "response": "r", "stimulus-type": "congruent", "word": "red", "color": "red", "correct_response": "r", "trial_id": "stroop-trial-1-congruent-19", "trial_type": "html-keyboard-response", "trial_index": 159, "time_elapsed": 280229, "internal_node_id": "0.0-6.0-64.0"}}, {"uniqueid": "w24741546:a92172252", "current_trial": 160, "dateTime": 1664375779888, "trialdata": {"rt": 433, "stimulus": "<p id='stroop-text' class='stroop-red'>YELLOW</p>", "response": "r", "stimulus-type": "incongruent", "word": "yellow", "color": "red", "correct_response": "r", "trial_id": "stroop-trial-1-incongruent-8", "trial_type": "html-keyboard-response", "trial_index": 160, "time_elapsed": 281168, "internal_node_id": "0.0-6.0-65.0"}}, {"uniqueid": "w24741546:a92172252", "current_trial": 161, "dateTime": 1664375781225, "trialdata": {"rt": 831, "stimulus": "<p id='stroop-text' class='stroop-green'>BRAIN</p>", "response": "g", "stimulus-type": "unrelated", "word": "BRAIN", "color": "green", "correct_response": "g", "trial_id": "stroop-trial-1-unrelated-7", "trial_type": "html-keyboard-response", "trial_index": 161, "time_elapsed": 282504, "internal_node_id": "0.0-6.0-66.0"}}, {"uniqueid": "w24741546:a92172252", "current_trial": 162, "dateTime": 1664375782416, "trialdata": {"rt": 686, "stimulus": "<p id='stroop-text' class='stroop-blue'>BLUE</p>", "response": "b", "stimulus-type": "congruent", "word": "blue", "color": "blue", "correct_response": "b", "trial_id": "stroop-trial-1-congruent-16", "trial_type": "html-keyboard-response", "trial_index": 162, "time_elapsed": 283695, "internal_node_id": "0.0-6.0-67.0"}}, {"uniqueid": "w24741546:a92172252", "current_trial": 163, "dateTime": 1664375784004, "trialdata": {"rt": 1084, "stimulus": "<p id='stroop-text' class='stroop-red'>YELLOW</p>", "response": "r", "stimulus-type": "incongruent", "word": "yellow", "color": "red", "correct_response": "r", "trial_id": "stroop-trial-1-incongruent-3", "trial_type": "html-keyboard-response", "trial_index": 163, "time_elapsed": 285284, "internal_node_id": "0.0-6.0-68.0"}}, {"uniqueid": "w24741546:a92172252", "current_trial": 164, "dateTime": 1664375785520, "trialdata": {"rt": 1012, "stimulus": "<p id='stroop-text' class='stroop-blue'>BOAT</p>", "response": "b", "stimulus-type": "unrelated", "word": "BOAT", "color": "blue", "correct_response": "b", "trial_id": "stroop-trial-1-unrelated-23", "trial_type": "html-keyboard-response", "trial_index": 164, "time_elapsed": 286800, "internal_node_id": "0.0-6.0-69.0"}}, {"uniqueid": "w24741546:a92172252", "current_trial": 165, "dateTime": 1664375787931, "trialdata": {"rt": 1906, "stimulus": "<p id='stroop-text' class='stroop-yellow'>GREEN</p>", "response": "y", "stimulus-type": "incongruent", "word": "green", "color": "yellow", "correct_response": "y", "trial_id": "stroop-trial-1-incongruent-1", "trial_type": "html-keyboard-response", "trial_index": 165, "time_elapsed": 289210, "internal_node_id": "0.0-6.0-70.0"}}, {"uniqueid": "w24741546:a92172252", "current_trial": 166, "dateTime": 1664375788481, "trialdata": {"rt": 45, "stimulus": "<p id='stroop-text' class='stroop-green'>BLUE</p>", "response": "y", "stimulus-type": "incongruent", "word": "blue", "color": "green", "correct_response": "g", "trial_id": "stroop-trial-1-incongruent-15", "trial_type": "html-keyboard-response", "trial_index": 166, "time_elapsed": 289760, "internal_node_id": "0.0-6.0-71.0"}}, {"uniqueid": "w24741546:a92172252", "current_trial": 167, "dateTime": 1664375791237, "trialdata": {"rt": 2252, "stimulus": "<p id='stroop-text' class='stroop-green'>BRAIN</p>", "response": "g", "stimulus-type": "unrelated", "word": "BRAIN", "color": "green", "correct_response": "g", "trial_id": "stroop-trial-1-unrelated-5", "trial_type": "html-keyboard-response", "trial_index": 167, "time_elapsed": 292517, "internal_node_id": "0.0-6.0-72.0"}}, {"uniqueid": "w24741546:a92172252", "current_trial": 168, "dateTime": 1664375793227, "trialdata": {"rt": 1486, "stimulus": "<p id='stroop-text' class='stroop-red'>RED</p>", "response": "r", "stimulus-type": "congruent", "word": "red", "color": "red", "correct_response": "r", "trial_id": "stroop-trial-1-congruent-22", "trial_type": "html-keyboard-response", "trial_index": 168, "time_elapsed": 294506, "internal_node_id": "0.0-6.0-73.0"}}, {"uniqueid": "w24741546:a92172252", "current_trial": 169, "dateTime": 1664375795234, "trialdata": {"rt": 1501, "stimulus": "<p id='stroop-text' class='stroop-yellow'>STONE</p>", "response": "y", "stimulus-type": "unrelated", "word": "STONE", "color": "yellow", "correct_response": "y", "trial_id": "stroop-trial-1-unrelated-14", "trial_type": "html-keyboard-response", "trial_index": 169, "time_elapsed": 296513, "internal_node_id": "0.0-6.0-74.0"}}, {"uniqueid": "w24741546:a92172252", "current_trial": 170, "dateTime": 1664375796086, "trialdata": {"rt": 347, "stimulus": "<p id='stroop-text' class='stroop-yellow'>DOG</p>", "response": "y", "stimulus-type": "unrelated", "word": "DOG", "color": "yellow", "correct_response": "y", "trial_id": "stroop-trial-1-unrelated-15", "trial_type": "html-keyboard-response", "trial_index": 170, "time_elapsed": 297366, "internal_node_id": "0.0-6.0-75.0"}}, {"uniqueid": "w24741546:a92172252", "current_trial": 171, "dateTime": 1664375796974, "trialdata": {"rt": 382, "stimulus": "<p id='stroop-text' class='stroop-yellow'>BLUE</p>", "response": "y", "stimulus-type": "incongruent", "word": "blue", "color": "yellow", "correct_response": "y", "trial_id": "stroop-trial-1-incongruent-21", "trial_type": "html-keyboard-response", "trial_index": 171, "time_elapsed": 298253, "internal_node_id": "0.0-6.0-76.0"}}, {"uniqueid": "w24741546:a92172252", "current_trial": 172, "dateTime": 1664375798106, "trialdata": {"rt": 626, "stimulus": "<p id='stroop-text' class='stroop-blue'>BOTTLE</p>", "response": "b", "stimulus-type": "unrelated", "word": "BOTTLE", "color": "blue", "correct_response": "b", "trial_id": "stroop-trial-1-unrelated-18", "trial_type": "html-keyboard-response", "trial_index": 172, "time_elapsed": 299385, "internal_node_id": "0.0-6.0-77.0"}}, {"uniqueid": "w24741546:a92172252", "current_trial": 173, "dateTime": 1664375799719, "trialdata": {"rt": 1109, "stimulus": "<p id='stroop-text' class='stroop-green'>BLUE</p>", "response": "g", "stimulus-type": "incongruent", "word": "blue", "color": "green", "correct_response": "g", "trial_id": "stroop-trial-1-incongruent-2", "trial_type": "html-keyboard-response", "trial_index": 173, "time_elapsed": 300998, "internal_node_id": "0.0-6.0-78.0"}}, {"uniqueid": "w24741546:a92172252", "current_trial": 174, "dateTime": 1664375801111, "trialdata": {"rt": 888, "stimulus": "<p id='stroop-text' class='stroop-red'>CHAIR</p>", "response": "r", "stimulus-type": "unrelated", "word": "CHAIR", "color": "red", "correct_response": "r", "trial_id": "stroop-trial-1-unrelated-24", "trial_type": "html-keyboard-response", "trial_index": 174, "time_elapsed": 302391, "internal_node_id": "0.0-6.0-79.0"}}, {"uniqueid": "w24741546:a92172252", "current_trial": 175, "dateTime": 1664375802259, "trialdata": {"rt": 642, "stimulus": "<p id='stroop-text' class='stroop-yellow'>DOG</p>", "response": "y", "stimulus-type": "unrelated", "word": "DOG", "color": "yellow", "correct_response": "y", "trial_id": "stroop-trial-1-unrelated-2", "trial_type": "html-keyboard-response", "trial_index": 175, "time_elapsed": 303539, "internal_node_id": "0.0-6.0-80.0"}}, {"uniqueid": "w24741546:a92172252", "current_trial": 176, "dateTime": 1664375803550, "trialdata": {"rt": 786, "stimulus": "<p id='stroop-text' class='stroop-blue'>RED</p>", "response": "b", "stimulus-type": "incongruent", "word": "red", "color": "blue", "correct_response": "b", "trial_id": "stroop-trial-1-incongruent-25", "trial_type": "html-keyboard-response", "trial_index": 176, "time_elapsed": 304830, "internal_node_id": "0.0-6.0-81.0"}}, {"uniqueid": "w24741546:a92172252", "current_trial": 177, "dateTime": 1664375805492, "trialdata": {"rt": 1437, "stimulus": "<p id='stroop-text' class='stroop-green'>RED</p>", "response": "g", "stimulus-type": "incongruent", "word": "red", "color": "green", "correct_response": "g", "trial_id": "stroop-trial-1-incongruent-6", "trial_type": "html-keyboard-response", "trial_index": 177, "time_elapsed": 306772, "internal_node_id": "0.0-6.0-82.0"}}, {"uniqueid": "w24741546:a92172252", "current_trial": 178, "dateTime": 1664375806841, "trialdata": {"rt": 843, "stimulus": "<p id='stroop-text' class='stroop-yellow'>BOTTLE</p>", "response": "y", "stimulus-type": "unrelated", "word": "BOTTLE", "color": "yellow", "correct_response": "y", "trial_id": "stroop-trial-1-unrelated-29", "trial_type": "html-keyboard-response", "trial_index": 178, "time_elapsed": 308120, "internal_node_id": "0.0-6.0-83.0"}}, {"uniqueid": "w24741546:a92172252", "current_trial": 179, "dateTime": 1664375807777, "trialdata": {"rt": 432, "stimulus": "<p id='stroop-text' class='stroop-yellow'>BRAIN</p>", "response": "y", "stimulus-type": "unrelated", "word": "BRAIN", "color": "yellow", "correct_response": "y", "trial_id": "stroop-trial-1-unrelated-25", "trial_type": "html-keyboard-response", "trial_index": 179, "time_elapsed": 309057, "internal_node_id": "0.0-6.0-84.0"}}, {"uniqueid": "w24741546:a92172252", "current_trial": 180, "dateTime": 1664375809285, "trialdata": {"rt": 1001, "stimulus": "<p id='stroop-text' class='stroop-blue'>CHAIR</p>", "response": "b", "stimulus-type": "unrelated", "word": "CHAIR", "color": "blue", "correct_response": "b", "trial_id": "stroop-trial-1-unrelated-20", "trial_type": "html-keyboard-response", "trial_index": 180, "time_elapsed": 310564, "internal_node_id": "0.0-6.0-85.0"}}, {"uniqueid": "w24741546:a92172252", "current_trial": 181, "dateTime": 1664375811441, "trialdata": {"rt": 1652, "stimulus": "<p id='stroop-text' class='stroop-green'>BLUE</p>", "response": "g", "stimulus-type": "incongruent", "word": "blue", "color": "green", "correct_response": "g", "trial_id": "stroop-trial-1-incongruent-17", "trial_type": "html-keyboard-response", "trial_index": 181, "time_elapsed": 312720, "internal_node_id": "0.0-6.0-86.0"}}, {"uniqueid": "w24741546:a92172252", "current_trial": 182, "dateTime": 1664375812476, "trialdata": {"rt": 529, "stimulus": "<p id='stroop-text' class='stroop-green'>BLUE</p>", "response": "g", "stimulus-type": "incongruent", "word": "blue", "color": "green", "correct_response": "g", "trial_id": "stroop-trial-1-incongruent-7", "trial_type": "html-keyboard-response", "trial_index": 182, "time_elapsed": 313755, "internal_node_id": "0.0-6.0-87.0"}}, {"uniqueid": "w24741546:a92172252", "current_trial": 183, "dateTime": 1664375813521, "trialdata": {"rt": 540, "stimulus": "<p id='stroop-text' class='stroop-blue'>YELLOW</p>", "response": "y", "stimulus-type": "incongruent", "word": "yellow", "color": "blue", "correct_response": "b", "trial_id": "stroop-trial-1-incongruent-4", "trial_type": "html-keyboard-response", "trial_index": 183, "time_elapsed": 314800, "internal_node_id": "0.0-6.0-88.0"}}, {"uniqueid": "w24741546:a92172252", "current_trial": 184, "dateTime": 1664375814711, "trialdata": {"rt": 685, "stimulus": "<p id='stroop-text' class='stroop-blue'>BLUE</p>", "response": "b", "stimulus-type": "congruent", "word": "blue", "color": "blue", "correct_response": "b", "trial_id": "stroop-trial-1-congruent-14", "trial_type": "html-keyboard-response", "trial_index": 184, "time_elapsed": 315991, "internal_node_id": "0.0-6.0-89.0"}}, {"uniqueid": "w24741546:a92172252", "current_trial": 185, "dateTime": 1664375816381, "trialdata": {"rt": 1163, "stimulus": "  <h1> End of block! </h1>\n\n  You have reached the end of the block 2/5. If you need a short break, feel free to take one now before moving on.\n\n  <br><br>\n  In the next block, you will complete another 90 rounds of this game.\n\n  <br><br>\n  <div style='text-align: center;'>Press <code>space</code> to begin.</div>\n  <br><br>\n<div style='text-align: center;'>(If the experiment doesn't continue, try clicking on the text and then pressing <code>space</code>.)</div>", "response": " ", "trial_id": "stroop_1_ready_3", "trial_type": "html-keyboard-response", "trial_index": 185, "time_elapsed": 317661, "internal_node_id": "0.0-7.0"}}, {"uniqueid": "w24741546:a92172252", "current_trial": 186, "dateTime": 1664375817337, "trialdata": {"rt": 950, "stimulus": "<p id='stroop-text' class='stroop-blue'>RED</p>", "response": "b", "stimulus-type": "incongruent", "word": "red", "color": "blue", "correct_response": "b", "trial_id": "stroop-trial-1-incongruent-5", "trial_type": "html-keyboard-response", "trial_index": 186, "time_elapsed": 318616, "internal_node_id": "0.0-8.0-0.0"}}, {"uniqueid": "w24741546:a92172252", "current_trial": 187, "dateTime": 1664375818751, "trialdata": {"rt": 910, "stimulus": "<p id='stroop-text' class='stroop-green'>STONE</p>", "response": "g", "stimulus-type": "unrelated", "word": "STONE", "color": "green", "correct_response": "g", "trial_id": "stroop-trial-1-unrelated-7", "trial_type": "html-keyboard-response", "trial_index": 187, "time_elapsed": 320030, "internal_node_id": "0.0-8.0-1.0"}}, {"uniqueid": "w24741546:a92172252", "current_trial": 188, "dateTime": 1664375820094, "trialdata": {"rt": 838, "stimulus": "<p id='stroop-text' class='stroop-red'>RED</p>", "response": "r", "stimulus-type": "congruent", "word": "red", "color": "red", "correct_response": "r", "trial_id": "stroop-trial-1-congruent-30", "trial_type": "html-keyboard-response", "trial_index": 188, "time_elapsed": 321373, "internal_node_id": "0.0-8.0-2.0"}}, {"uniqueid": "w24741546:a92172252", "current_trial": 189, "dateTime": 1664375821224, "trialdata": {"rt": 626, "stimulus": "<p id='stroop-text' class='stroop-yellow'>FORK</p>", "response": "y", "stimulus-type": "unrelated", "word": "FORK", "color": "yellow", "correct_response": "y", "trial_id": "stroop-trial-1-unrelated-27", "trial_type": "html-keyboard-response", "trial_index": 189, "time_elapsed": 322504, "internal_node_id": "0.0-8.0-3.0"}}, {"uniqueid": "w24741546:a92172252", "current_trial": 190, "dateTime": 1664375822200, "trialdata": {"rt": 471, "stimulus": "<p id='stroop-text' class='stroop-green'>GREEN</p>", "response": "g", "stimulus-type": "congruent", "word": "green", "color": "green", "correct_response": "g", "trial_id": "stroop-trial-1-congruent-3", "trial_type": "html-keyboard-response", "trial_index": 190, "time_elapsed": 323480, "internal_node_id": "0.0-8.0-4.0"}}, {"uniqueid": "w24741546:a92172252", "current_trial": 191, "dateTime": 1664375824082, "trialdata": {"rt": 1377, "stimulus": "<p id='stroop-text' class='stroop-red'>YELLOW</p>", "response": "r", "stimulus-type": "incongruent", "word": "yellow", "color": "red", "correct_response": "r", "trial_id": "stroop-trial-1-incongruent-21", "trial_type": "html-keyboard-response", "trial_index": 191, "time_elapsed": 325362, "internal_node_id": "0.0-8.0-5.0"}}, {"uniqueid": "w24741546:a92172252", "current_trial": 192, "dateTime": 1664375825730, "trialdata": {"rt": 1143, "stimulus": "<p id='stroop-text' class='stroop-green'>BLUE</p>", "response": "g", "stimulus-type": "incongruent", "word": "blue", "color": "green", "correct_response": "g", "trial_id": "stroop-trial-1-incongruent-19", "trial_type": "html-keyboard-response", "trial_index": 192, "time_elapsed": 327010, "internal_node_id": "0.0-8.0-6.0"}}, {"uniqueid": "w24741546:a92172252", "current_trial": 193, "dateTime": 1664375828032, "trialdata": {"rt": 1797, "stimulus": "<p id='stroop-text' class='stroop-green'>RED</p>", "response": "g", "stimulus-type": "incongruent", "word": "red", "color": "green", "correct_response": "g", "trial_id": "stroop-trial-1-incongruent-3", "trial_type": "html-keyboard-response", "trial_index": 193, "time_elapsed": 329312, "internal_node_id": "0.0-8.0-7.0"}}, {"uniqueid": "w24741546:a92172252", "current_trial": 194, "dateTime": 1664375829194, "trialdata": {"rt": 655, "stimulus": "<p id='stroop-text' class='stroop-green'>GREEN</p>", "response": "g", "stimulus-type": "congruent", "word": "green", "color": "green", "correct_response": "g", "trial_id": "stroop-trial-1-congruent-26", "trial_type": "html-keyboard-response", "trial_index": 194, "time_elapsed": 330473, "internal_node_id": "0.0-8.0-8.0"}}, {"uniqueid": "w24741546:a92172252", "current_trial": 195, "dateTime": 1664375830557, "trialdata": {"rt": 857, "stimulus": "<p id='stroop-text' class='stroop-blue'>GREEN</p>", "response": "b", "stimulus-type": "incongruent", "word": "green", "color": "blue", "correct_response": "b", "trial_id": "stroop-trial-1-incongruent-25", "trial_type": "html-keyboard-response", "trial_index": 195, "time_elapsed": 331836, "internal_node_id": "0.0-8.0-9.0"}}, {"uniqueid": "w24741546:a92172252", "current_trial": 196, "dateTime": 1664375831718, "trialdata": {"rt": 656, "stimulus": "<p id='stroop-text' class='stroop-red'>GREEN</p>", "response": "y", "stimulus-type": "incongruent", "word": "green", "color": "red", "correct_response": "r", "trial_id": "stroop-trial-1-incongruent-17", "trial_type": "html-keyboard-response", "trial_index": 196, "time_elapsed": 332998, "internal_node_id": "0.0-8.0-10.0"}}, {"uniqueid": "w24741546:a92172252", "current_trial": 197, "dateTime": 1664375832876, "trialdata": {"rt": 651, "stimulus": "<p id='stroop-text' class='stroop-yellow'>YELLOW</p>", "response": "y", "stimulus-type": "congruent", "word": "yellow", "color": "yellow", "correct_response": "y", "trial_id": "stroop-trial-1-congruent-10", "trial_type": "html-keyboard-response", "trial_index": 197, "time_elapsed": 334155, "internal_node_id": "0.0-8.0-11.0"}}, {"uniqueid": "w24741546:a92172252", "current_trial": 198, "dateTime": 1664375833970, "trialdata": {"rt": 588, "stimulus": "<p id='stroop-text' class='stroop-yellow'>YELLOW</p>", "response": "y", "stimulus-type": "congruent", "word": "yellow", "color": "yellow", "correct_response": "y", "trial_id": "stroop-trial-1-congruent-5", "trial_type": "html-keyboard-response", "trial_index": 198, "time_elapsed": 335249, "internal_node_id": "0.0-8.0-12.0"}}, {"uniqueid": "w24741546:a92172252", "current_trial": 199, "dateTime": 1664375835153, "trialdata": {"rt": 678, "stimulus": "<p id='stroop-text' class='stroop-green'>STONE</p>", "response": "g", "stimulus-type": "unrelated", "word": "STONE", "color": "green", "correct_response": "g", "trial_id": "stroop-trial-1-unrelated-14", "trial_type": "html-keyboard-response", "trial_index": 199, "time_elapsed": 336433, "internal_node_id": "0.0-8.0-13.0"}}, {"uniqueid": "w24741546:a92172252", "current_trial": 200, "dateTime": 1664375837415, "trialdata": {"rt": 1757, "stimulus": "<p id='stroop-text' class='stroop-red'>RED</p>", "response": "r", "stimulus-type": "congruent", "word": "red", "color": "red", "correct_response": "r", "trial_id": "stroop-trial-1-congruent-17", "trial_type": "html-keyboard-response", "trial_index": 200, "time_elapsed": 338695, "internal_node_id": "0.0-8.0-14.0"}}, {"uniqueid": "w24741546:a92172252", "current_trial": 201, "dateTime": 1664375838536, "trialdata": {"rt": 615, "stimulus": "<p id='stroop-text' class='stroop-red'>RED</p>", "response": "r", "stimulus-type": "congruent", "word": "red", "color": "red", "correct_response": "r", "trial_id": "stroop-trial-1-congruent-20", "trial_type": "html-keyboard-response", "trial_index": 201, "time_elapsed": 339815, "internal_node_id": "0.0-8.0-15.0"}}, {"uniqueid": "w24741546:a92172252", "current_trial": 202, "dateTime": 1664375839491, "trialdata": {"rt": 450, "stimulus": "<p id='stroop-text' class='stroop-red'>BLUE</p>", "response": "r", "stimulus-type": "incongruent", "word": "blue", "color": "red", "correct_response": "r", "trial_id": "stroop-trial-1-incongruent-15", "trial_type": "html-keyboard-response", "trial_index": 202, "time_elapsed": 340771, "internal_node_id": "0.0-8.0-16.0"}}, {"uniqueid": "w24741546:a92172252", "current_trial": 203, "dateTime": 1664375840572, "trialdata": {"rt": 575, "stimulus": "<p id='stroop-text' class='stroop-green'>GREEN</p>", "response": "g", "stimulus-type": "congruent", "word": "green", "color": "green", "correct_response": "g", "trial_id": "stroop-trial-1-congruent-16", "trial_type": "html-keyboard-response", "trial_index": 203, "time_elapsed": 341851, "internal_node_id": "0.0-8.0-17.0"}}, {"uniqueid": "w24741546:a92172252", "current_trial": 204, "dateTime": 1664375841880, "trialdata": {"rt": 803, "stimulus": "<p id='stroop-text' class='stroop-yellow'>CHAIR</p>", "response": "y", "stimulus-type": "unrelated", "word": "CHAIR", "color": "yellow", "correct_response": "y", "trial_id": "stroop-trial-1-unrelated-20", "trial_type": "html-keyboard-response", "trial_index": 204, "time_elapsed": 343160, "internal_node_id": "0.0-8.0-18.0"}}, {"uniqueid": "w24741546:a92172252", "current_trial": 205, "dateTime": 1664375843846, "trialdata": {"rt": 1461, "stimulus": "<p id='stroop-text' class='stroop-green'>BLUE</p>", "response": "g", "stimulus-type": "incongruent", "word": "blue", "color": "green", "correct_response": "g", "trial_id": "stroop-trial-1-incongruent-6", "trial_type": "html-keyboard-response", "trial_index": 205, "time_elapsed": 345126, "internal_node_id": "0.0-8.0-19.0"}}, {"uniqueid": "w24741546:a92172252", "current_trial": 206, "dateTime": 1664375845481, "trialdata": {"rt": 1129, "stimulus": "<p id='stroop-text' class='stroop-red'>CHAIR</p>", "response": "r", "stimulus-type": "unrelated", "word": "CHAIR", "color": "red", "correct_response": "r", "trial_id": "stroop-trial-1-unrelated-16", "trial_type": "html-keyboard-response", "trial_index": 206, "time_elapsed": 346761, "internal_node_id": "0.0-8.0-20.0"}}, {"uniqueid": "w24741546:a92172252", "current_trial": 207, "dateTime": 1664375846585, "trialdata": {"rt": 598, "stimulus": "<p id='stroop-text' class='stroop-red'>YELLOW</p>", "response": "r", "stimulus-type": "incongruent", "word": "yellow", "color": "red", "correct_response": "r", "trial_id": "stroop-trial-1-incongruent-14", "trial_type": "html-keyboard-response", "trial_index": 207, "time_elapsed": 347864, "internal_node_id": "0.0-8.0-21.0"}}, {"uniqueid": "w24741546:a92172252", "current_trial": 208, "dateTime": 1664375848026, "trialdata": {"rt": 936, "stimulus": "<p id='stroop-text' class='stroop-blue'>GREEN</p>", "response": "b", "stimulus-type": "incongruent", "word": "green", "color": "blue", "correct_response": "b", "trial_id": "stroop-trial-1-incongruent-4", "trial_type": "html-keyboard-response", "trial_index": 208, "time_elapsed": 349305, "internal_node_id": "0.0-8.0-22.0"}}, {"uniqueid": "w24741546:a92172252", "current_trial": 209, "dateTime": 1664375849268, "trialdata": {"rt": 737, "stimulus": "<p id='stroop-text' class='stroop-yellow'>RED</p>", "response": "y", "stimulus-type": "incongruent", "word": "red", "color": "yellow", "correct_response": "y", "trial_id": "stroop-trial-1-incongruent-2", "trial_type": "html-keyboard-response", "trial_index": 209, "time_elapsed": 350547, "internal_node_id": "0.0-8.0-23.0"}}, {"uniqueid": "w24741546:a92172252", "current_trial": 210, "dateTime": 1664375850676, "trialdata": {"rt": 902, "stimulus": "<p id='stroop-text' class='stroop-green'>BLUE</p>", "response": "g", "stimulus-type": "incongruent", "word": "blue", "color": "green", "correct_response": "g", "trial_id": "stroop-trial-1-incongruent-13", "trial_type": "html-keyboard-response", "trial_index": 210, "time_elapsed": 351955, "internal_node_id": "0.0-8.0-24.0"}}, {"uniqueid": "w24741546:a92172252", "current_trial": 211, "dateTime": 1664375851764, "trialdata": {"rt": 583, "stimulus": "<p id='stroop-text' class='stroop-yellow'>STONE</p>", "response": "y", "stimulus-type": "unrelated", "word": "STONE", "color": "yellow", "correct_response": "y", "trial_id": "stroop-trial-1-unrelated-15", "trial_type": "html-keyboard-response", "trial_index": 211, "time_elapsed": 353043, "internal_node_id": "0.0-8.0-25.0"}}, {"uniqueid": "w24741546:a92172252", "current_trial": 212, "dateTime": 1664375852746, "trialdata": {"rt": 477, "stimulus": "<p id='stroop-text' class='stroop-yellow'>STONE</p>", "response": "y", "stimulus-type": "unrelated", "word": "STONE", "color": "yellow", "correct_response": "y", "trial_id": "stroop-trial-1-unrelated-13", "trial_type": "html-keyboard-response", "trial_index": 212, "time_elapsed": 354025, "internal_node_id": "0.0-8.0-26.0"}}, {"uniqueid": "w24741546:a92172252", "current_trial": 213, "dateTime": 1664375854274, "trialdata": {"rt": 1023, "stimulus": "<p id='stroop-text' class='stroop-red'>BLUE</p>", "response": "r", "stimulus-type": "incongruent", "word": "blue", "color": "red", "correct_response": "r", "trial_id": "stroop-trial-1-incongruent-28", "trial_type": "html-keyboard-response", "trial_index": 213, "time_elapsed": 355554, "internal_node_id": "0.0-8.0-27.0"}}, {"uniqueid": "w24741546:a92172252", "current_trial": 214, "dateTime": 1664375855442, "trialdata": {"rt": 663, "stimulus": "<p id='stroop-text' class='stroop-green'>BOAT</p>", "response": "g", "stimulus-type": "unrelated", "word": "BOAT", "color": "green", "correct_response": "g", "trial_id": "stroop-trial-1-unrelated-4", "trial_type": "html-keyboard-response", "trial_index": 214, "time_elapsed": 356722, "internal_node_id": "0.0-8.0-28.0"}}, {"uniqueid": "w24741546:a92172252", "current_trial": 215, "dateTime": 1664375856468, "trialdata": {"rt": 521, "stimulus": "<p id='stroop-text' class='stroop-yellow'>YELLOW</p>", "response": "y", "stimulus-type": "congruent", "word": "yellow", "color": "yellow", "correct_response": "y", "trial_id": "stroop-trial-1-congruent-14", "trial_type": "html-keyboard-response", "trial_index": 215, "time_elapsed": 357748, "internal_node_id": "0.0-8.0-29.0"}}, {"uniqueid": "w24741546:a92172252", "current_trial": 216, "dateTime": 1664375857364, "trialdata": {"rt": 391, "stimulus": "<p id='stroop-text' class='stroop-blue'>BRAIN</p>", "response": "b", "stimulus-type": "unrelated", "word": "BRAIN", "color": "blue", "correct_response": "b", "trial_id": "stroop-trial-1-unrelated-3", "trial_type": "html-keyboard-response", "trial_index": 216, "time_elapsed": 358644, "internal_node_id": "0.0-8.0-30.0"}}, {"uniqueid": "w24741546:a92172252", "current_trial": 217, "dateTime": 1664375858742, "trialdata": {"rt": 872, "stimulus": "<p id='stroop-text' class='stroop-yellow'>BOAT</p>", "response": "y", "stimulus-type": "unrelated", "word": "BOAT", "color": "yellow", "correct_response": "y", "trial_id": "stroop-trial-1-unrelated-22", "trial_type": "html-keyboard-response", "trial_index": 217, "time_elapsed": 360022, "internal_node_id": "0.0-8.0-31.0"}}, {"uniqueid": "w24741546:a92172252", "current_trial": 218, "dateTime": 1664375859729, "trialdata": {"rt": 482, "stimulus": "<p id='stroop-text' class='stroop-yellow'>YELLOW</p>", "response": "y", "stimulus-type": "congruent", "word": "yellow", "color": "yellow", "correct_response": "y", "trial_id": "stroop-trial-1-congruent-19", "trial_type": "html-keyboard-response", "trial_index": 218, "time_elapsed": 361009, "internal_node_id": "0.0-8.0-32.0"}}, {"uniqueid": "w24741546:a92172252", "current_trial": 219, "dateTime": 1664375861002, "trialdata": {"rt": 767, "stimulus": "<p id='stroop-text' class='stroop-green'>STONE</p>", "response": "g", "stimulus-type": "unrelated", "word": "STONE", "color": "green", "correct_response": "g", "trial_id": "stroop-trial-1-unrelated-10", "trial_type": "html-keyboard-response", "trial_index": 219, "time_elapsed": 362281, "internal_node_id": "0.0-8.0-33.0"}}, {"uniqueid": "w24741546:a92172252", "current_trial": 220, "dateTime": 1664375861863, "trialdata": {"rt": 356, "stimulus": "<p id='stroop-text' class='stroop-green'>YELLOW</p>", "response": "g", "stimulus-type": "incongruent", "word": "yellow", "color": "green", "correct_response": "g", "trial_id": "stroop-trial-1-incongruent-22", "trial_type": "html-keyboard-response", "trial_index": 220, "time_elapsed": 363143, "internal_node_id": "0.0-8.0-34.0"}}, {"uniqueid": "w24741546:a92172252", "current_trial": 221, "dateTime": 1664375863040, "trialdata": {"rt": 671, "stimulus": "<p id='stroop-text' class='stroop-red'>YELLOW</p>", "response": "r", "stimulus-type": "incongruent", "word": "yellow", "color": "red", "correct_response": "r", "trial_id": "stroop-trial-1-incongruent-12", "trial_type": "html-keyboard-response", "trial_index": 221, "time_elapsed": 364319, "internal_node_id": "0.0-8.0-35.0"}}, {"uniqueid": "w24741546:a92172252", "current_trial": 222, "dateTime": 1664375864022, "trialdata": {"rt": 477, "stimulus": "<p id='stroop-text' class='stroop-yellow'>YELLOW</p>", "response": "y", "stimulus-type": "congruent", "word": "yellow", "color": "yellow", "correct_response": "y", "trial_id": "stroop-tr