{"condition": 1, "counterbalance": 0, "assignmentId": "a22444840", "workerId": "w83432636", "hitId": "h94070082", "currenttrial": 137, "bonus": 0, "data": [{"uniqueid": "w83432636:a22444840", "current_trial": 0, "dateTime": 1664555047234, "trialdata": {"success": true, "trial_type": "fullscreen", "trial_index": 0, "time_elapsed": 5020, "internal_node_id": "0.0-0.0"}}, {"uniqueid": "w83432636:a22444840", "current_trial": 1, "dateTime": 1664555058527, "trialdata": {"view_history": [{"page_index": 0, "viewing_time": 11288}], "rt": 11288, "trial_id": "exp_instructions_no_distractor", "trial_type": "instructions", "trial_index": 1, "time_elapsed": 16313, "internal_node_id": "0.0-1.0"}}, {"uniqueid": "w83432636:a22444840", "current_trial": 2, "dateTime": 1664555061245, "trialdata": {"success": true, "trial_type": "fullscreen", "trial_index": 2, "time_elapsed": 19030, "internal_node_id": "0.0-2.0-0.0"}}, {"uniqueid": "w83432636:a22444840", "current_trial": 3, "dateTime": 1664555119777, "trialdata": {"view_history": [{"page_index": 0, "viewing_time": 28288}, {"page_index": 1, "viewing_time": 14175}, {"page_index": 2, "viewing_time": 4275}, {"page_index": 3, "viewing_time": 1924}, {"page_index": 4, "viewing_time": 9868}], "rt": 58530, "trial_id": "mouselab_instructions_1", "trial_type": "instructions", "trial_index": 3, "time_elapsed": 77563, "internal_node_id": "0.0-2.0-1.0"}}, {"uniqueid": "w83432636:a22444840", "current_trial": 4, "dateTime": 1664555136294, "trialdata": {"revealed_states": [], "num_clicks_accrued": [0, 0, 0, 0, 0, 0, 0, 0, 0, 0, 0, 0, 0], "stateRewards": ["", -10, -10, -10, 10, 10, 10, -10, -10, 10, 10, -10, 10], "withholdReward": false, "trial_id": "practice_1", "block": "test", "trialIndex": 0, "score": 30.5, "costs": -1.5, "simulationMode": [null, null, null], "rewards": [10, 10, 10], "path": ["0", "0", "9", "10", "12"], "rt": [10537, 344, 224], "actions": ["left", "left", "down"], "actionTimes": [11913, 12770, 13501], "queries": {"click": {"state": {"target": ["9", "5", "1", "10", "11", "12"], "time": [3682, 4978, 5679, 7249, 7661, 8251]}, "edge": {"target": [], "time": []}}, "mouseover": {"state": {"target": ["9", "0", "5", "1", "10", "11", "12"], "time": [3276, 4059, 4376, 5444, 7026, 7543, 8243]}, "edge": {"target": [], "time": []}}, "mouseout": {"state": {"target": ["1", "9", "0", "5", "1", "9", "10", "11", "10", "12", "5", "5"], "time": [677, 4011, 4160, 5360, 5943, 6911, 7460, 7843, 8010, 8710, 9092, 9727]}, "edge": {"target": [], "time": []}}}, "displayed_time": "14.01", "trialTime": 16311, "trial_type": "mouselab-mdp", "trial_index": 4, "time_elapsed": 94080, "internal_node_id": "0.0-2.0-2.0-0.0"}}, {"uniqueid": "w83432636:a22444840", "current_trial": 5, "dateTime": 1664555144724, "trialdata": {"revealed_states": [], "num_clicks_accrued": [0, 0, 0, 0, 0, 0, 0, 0, 0, 0, 0, 0, 0], "stateRewards": ["", 10, 10, 10, 10, -10, -10, 10, -10, -10, -10, -10, 10], "withholdReward": false, "trial_id": "practice_2", "block": "test", "trialIndex": 1, "score": 31, "costs": -1, "simulationMode": [null, null, null], "rewards": [10, 10, 10], "path": ["0", "0", "1", "2", "4"], "rt": [4710, 215, 152], "actions": ["up", "up", "left"], "actionTimes": [5925, 6644, 7314], "queries": {"click": {"state": {"target": ["9", "1", "2", "4"], "time": [1891, 2959, 3694, 4264]}, "edge": {"target": [], "time": []}}, "mouseover": {"state": {"target": ["9", "10", "1", "5", "2", "4"], "time": [1762, 2178, 2612, 3312, 3645, 4128]}, "edge": {"target": [], "time": []}}, "mouseout": {"state": {"target": ["0", "9", "10", "9", "1", "5", "2", "4"], "time": [1713, 2112, 2545, 2578, 3178, 3427, 4044, 4512]}, "edge": {"target": [], "time": []}}}, "displayed_time": "7.83", "trialTime": 8376, "trial_type": "mouselab-mdp", "trial_index": 5, "time_elapsed": 102510, "internal_node_id": "0.0-2.0-2.0-1.0"}}, {"uniqueid": "w83432636:a22444840", "current_trial": 6, "dateTime": 1664555192474, "trialdata": {"view_history": [{"page_index": 0, "viewing_time": 17076}, {"page_index": 1, "viewing_time": 2601}, {"page_index": 2, "viewing_time": 7730}, {"page_index": 1, "viewing_time": 2138}, {"page_index": 0, "viewing_time": 9805}, {"page_index": 1, "viewing_time": 6955}, {"page_index": 2, "viewing_time": 1443}], "rt": 47748, "trial_id": "mouselab_instructions_2_scarce", "trial_type": "instructions", "trial_index": 6, "time_elapsed": 150260, "internal_node_id": "0.0-2.0-3.0"}}, {"uniqueid": "w83432636:a22444840", "current_trial": 7, "dateTime": 1664555211131, "trialdata": {"rt": 18653, "response": {"Q0": "$-48 to $48", "Q1": "The cost is always $0.25.", "Q2": "The better I perform the higher my bonus will be.", "Q3": "No, the amount of cash at each node of the web may be different each time.", "Q4": "The values of the nodes walked through from start to finish.", "Q5": "No, the spider might forget to count the money on some rounds."}, "question_order": [0, 1, 2, 3, 4, 5], "correct": {"Q0": "$-48 to $48", "Q1": "The cost is always $0.25.", "Q2": "The better I perform the higher my bonus will be.", "Q3": "No, the amount of cash at each node of the web may be different each time.", "Q4": "The values of the nodes walked through from start to finish.", "Q5": "No, the spider might forget to count the money on some rounds."}, "trial_id": "mouselab_quiz_scarce", "trial_type": "survey-multi-choice", "trial_index": 7, "time_elapsed": 168917, "internal_node_id": "0.0-2.0-4.0"}}, {"uniqueid": "w83432636:a22444840", "current_trial": 8, "dateTime": 1664555218302, "trialdata": {"rt": 7168, "stimulus": "\n<h1> Get ready to start the game! </h1>\n\nThank you for reading the instructions. Get ready start with the first of 4 block(s) of this game.\n<br><br>\nIn this first block, you will complete 30 rounds of this game before moving on.\n<br><br>\nRemember, the more money the spider gets, the bigger your bonus will be!\n<br><br>\n<div style='text-align: center;'>Press <code>space</code> to begin.</div>\n\n<br><br>\n(If, at any point, the <code>space</code> key does not take you to the next page, click once on the text and try again.)", "response": " ", "trial_id": "mdp_ready_1", "trial_type": "html-keyboard-response", "trial_index": 8, "time_elapsed": 176088, "internal_node_id": "0.0-4.0-0.0"}}, {"uniqueid": "w83432636:a22444840", "current_trial": 9, "dateTime": 1664555231346, "trialdata": {"revealed_states": [], "num_clicks_accrued": [0, 0, 0, 0, 0, 0, 0, 0, 0, 0, 0, 0, 0], "stateRewards": ["", 2, -4, 48, -24, 4, -8, -24, 48, -2, -4, 24, -48], "withholdReward": true, "trial_id": "mdp_357328205509", "block": "test1", "trialIndex": 2, "score": 49.25, "costs": -1.75, "simulationMode": [null, null, null], "rewards": [2, -4, 48], "path": ["0", "0", "1", "2", "3"], "rt": [9090, 136, 208], "actions": ["up", "up", "right"], "actionTimes": [10207, 10856, 11577], "queries": {"click": {"state": {"target": ["9", "5", "6", "1", "2", "4", "3"], "time": [1828, 2710, 3383, 4311, 4738, 5293, 6149]}, "edge": {"target": [], "time": []}}, "mouseover": {"state": {"target": ["0", "9", "0", "5", "6", "7", "1", "2", "4", "3", "7", "7"], "time": [1438, 1654, 2404, 2637, 3237, 3687, 4237, 4653, 5171, 5953, 6437, 7720]}, "edge": {"target": [], "time": []}}, "mouseout": {"state": {"target": ["9", "0", "9", "0", "5", "5", "6", "7", "1", "2", "4", "2", "3", "7", "6", "7"], "time": [571, 1521, 2087, 2504, 2921, 3187, 3636, 4021, 4571, 4970, 5537, 5654, 6287, 6853, 7603, 7887]}, "edge": {"target": [], "time": []}}}, "displayed_time": "12.09", "trialTime": 12990, "trial_type": "mouselab-mdp", "trial_index": 9, "time_elapsed": 189132, "internal_node_id": "0.0-4.0-1.0-0.0"}}, {"uniqueid": "w83432636:a22444840", "current_trial": 10, "dateTime": 1664555243247, "trialdata": {"revealed_states": [], "num_clicks_accrued": [0, 0, 0, 0, 0, 0, 0, 0, 0, 0, 0, 0, 0], "stateRewards": ["", -4, -4, 48, 24, -4, -4, -24, -48, -4, 4, 48, -24], "withholdReward": true, "trial_id": "mdp_896503755738", "block": "test1", "trialIndex": 3, "score": 50.5, "costs": -2.5, "simulationMode": [null, null, null], "rewards": [-4, 4, 48], "path": ["0", "0", "9", "10", "11"], "rt": [8767, 143, 203], "actions": ["left", "left", "up"], "actionTimes": [9764, 10424, 11134], "queries": {"click": {"state": {"target": ["9", "1", "5", "6", "7", "2", "4", "3", "10", "11"], "time": [1655, 2591, 3088, 3651, 4180, 5362, 6189, 6754, 7919, 8309]}, "edge": {"target": [], "time": []}}, "mouseover": {"state": {"target": ["9", "1", "5", "6", "7", "8", "0", "2", "4", "3", "10", "11", "12"], "time": [1614, 2164, 2913, 3480, 3947, 4480, 4963, 5330, 5997, 6580, 7863, 8213, 8647]}, "edge": {"target": [], "time": []}}, "mouseout": {"state": {"target": ["1", "0", "9", "1", "5", "6", "7", "6", "8", "0", "1", "2", "4", "2", "3", "1", "9", "9", "10", "11", "10", "12"], "time": [430, 913, 2114, 2747, 3246, 3864, 4380, 4447, 4864, 5030, 5130, 5713, 6363, 6463, 6913, 7014, 7380, 7797, 8130, 8513, 8597, 8896]}, "edge": {"target": [], "time": []}}}, "displayed_time": "11.65", "trialTime": 11852, "trial_type": "mouselab-mdp", "trial_index": 10, "time_elapsed": 201033, "internal_node_id": "0.0-4.0-1.0-1.0"}}, {"uniqueid": "w83432636:a22444840", "current_trial": 11, "dateTime": 1664555254055, "trialdata": {"revealed_states": [], "num_clicks_accrued": [0, 0, 0, 0, 0, 0, 0, 0, 0, 0, 0, 0, 0], "stateRewards": ["", -2, -4, -24, 48, -2, -8, -48, -24, 4, 8, 48, 24], "withholdReward": false, "trial_id": "mdp_625355871626", "block": "test1", "trialIndex": 4, "score": 64.25, "costs": -0.75, "simulationMode": [null, null, null], "rewards": [4, 8, 48], "path": ["0", "0", "9", "10", "11"], "rt": [5116, 180, 207], "actions": ["left", "left", "up"], "actionTimes": [6021, 6710, 7421], "queries": {"click": {"state": {"target": ["9", "10", "11"], "time": [3352, 3952, 4485]}, "edge": {"target": [], "time": []}}, "mouseover": {"state": {"target": ["9", "10", "11", "12"], "time": [1646, 3862, 4362, 4929]}, "edge": {"target": [], "time": []}}, "mouseout": {"state": {"target": ["0", "9", "10", "11", "10", "12", "12"], "time": [1396, 3612, 4313, 4696, 4830, 5246, 9479]}, "edge": {"target": [], "time": []}}}, "displayed_time": "9.93", "trialTime": 10759, "trial_type": "mouselab-mdp", "trial_index": 11, "time_elapsed": 211841, "internal_node_id": "0.0-4.0-1.0-2.0"}}, {"uniqueid": "w83432636:a22444840", "current_trial": 12, "dateTime": 1664555265597, "trialdata": {"revealed_states": [], "num_clicks_accrued": [0, 0, 0, 0, 0, 0, 0, 0, 0, 0, 0, 0, 0], "stateRewards": ["", -4, -4, -48, -24, 2, 8, 24, -48, 4, 4, 48, 48], "withholdReward": true, "trial_id": "mdp_693501840209", "block": "test1", "trialIndex": 5, "score": 60, "costs": -1, "simulationMode": [null, null, null], "rewards": [4, 4, 48], "path": ["0", "0", "9", "10", "11"], "rt": [4932, 203, 154], "actions": ["left", "left", "up"], "actionTimes": [5760, 6470, 7139], "queries": {"click": {"state": {"target": ["9", "10", "11", "12"], "time": [2585, 3111, 3586, 4696]}, "edge": {"target": [], "time": []}}, "mouseover": {"state": {"target": ["9", "10", "11", "12"], "time": [2210, 2967, 3518, 3967]}, "edge": {"target": [], "time": []}}, "mouseout": {"state": {"target": ["12", "0", "9", "10", "11", "10", "12"], "time": [366, 783, 2800, 3484, 3784, 3901, 4900]}, "edge": {"target": [], "time": []}}}, "displayed_time": "9.87", "trialTime": 11489, "trial_type": "mouselab-mdp", "trial_index": 12, "time_elapsed": 223383, "internal_node_id": "0.0-4.0-1.0-3.0"}}, {"uniqueid": "w83432636:a22444840", "current_trial": 13, "dateTime": 1664555277635, "trialdata": {"revealed_states": [], "num_clicks_accrued": [0, 0, 0, 0, 0, 0, 0, 0, 0, 0, 0, 0, 0], "stateRewards": ["", -2, -8, 48, 24, 4, -8, 24, 48, 4, -4, 24, -48], "withholdReward": true, "trial_id": "mdp_871576155740", "block": "test1", "trialIndex": 6, "score": 26.5, "costs": -2.5, "simulationMode": [null, null, null], "rewards": [4, -4, 24], "path": ["0", "0", "9", "10", "11"], "rt": [9308, 49, 178], "actions": ["left", "left", "up"], "actionTimes": [10118, 10678, 11357], "queries": {"click": {"state": {"target": ["9", "10", "1", "5", "6", "11", "12", "2", "4", "3"], "time": [1463, 1969, 3131, 4040, 4623, 5711, 6287, 7403, 7834, 8332]}, "edge": {"target": [], "time": []}}, "mouseover": {"state": {"target": ["9", "10", "11", "1", "5", "1", "2", "5", "6", "11", "12", "2", "4", "3", "7"], "time": [1363, 1928, 2412, 2745, 2828, 3079, 3495, 3878, 4545, 5612, 6179, 7380, 7762, 8212, 8812]}, "edge": {"target": [], "time": []}}, "mouseout": {"state": {"target": ["0", "9", "10", "11", "1", "5", "1", "2", "1", "5", "5", "6", "5", "9", "10", "11", "10", "12", "9", "1", "2", "4", "2", "3", "7"], "time": [1196, 1779, 2379, 2695, 2762, 2995, 3413, 3795, 3829, 4312, 4528, 5096, 5146, 5346, 5496, 5896, 6045, 6512, 6879, 7312, 7663, 8029, 8145, 8512, 9395]}, "edge": {"target": [], "time": []}}}, "displayed_time": "11.86", "trialTime": 11989, "trial_type": "mouselab-mdp", "trial_index": 13, "time_elapsed": 235421, "internal_node_id": "0.0-4.0-1.0-4.0"}}, {"uniqueid": "w83432636:a22444840", "current_trial": 14, "dateTime": 1664555292207, "trialdata": {"revealed_states": [], "num_clicks_accrued": [0, 0, 0, 0, 0, 0, 0, 0, 0, 0, 0, 0, 0], "stateRewards": ["", 4, 4, 24, 24, 4, -4, 48, 48, 4, 4, 24, -48], "withholdReward": true, "trial_id": "mdp_454251689008", "block": "test1", "trialIndex": 7, "score": 35, "costs": -2, "simulationMode": [null, null, null], "rewards": [4, 4, 24], "path": ["0", "0", "9", "10", "11"], "rt": [10930, 133, 203], "actions": ["left", "left", "up"], "actionTimes": [12118, 12759, 13479], "queries": {"click": {"state": {"target": ["9", "10", "11", "12", "1", "2", "4", "3"], "time": [1577, 2920, 4601, 5206, 8350, 8842, 9352, 9918]}, "edge": {"target": [], "time": []}}, "mouseover": {"state": {"target": ["9", "1", "10", "11", "12", "0", "1", "2", "4", "3", "5"], "time": [1442, 1975, 2607, 4475, 5191, 5958, 6708, 8759, 9342, 9842, 10792]}, "edge": {"target": [], "time": []}}, "mouseout": {"state": {"target": ["9", "1", "10", "11", "10", "12", "0", "1", "2", "4", "2", "3"], "time": [1759, 2309, 4391, 4825, 4975, 5703, 6008, 8725, 9276, 9587, 9825, 10142]}, "edge": {"target": [], "time": []}}}, "displayed_time": "14.01", "trialTime": 14523, "trial_type": "mouselab-mdp", "trial_index": 14, "time_elapsed": 249992, "internal_node_id": "0.0-4.0-1.0-5.0"}}, {"uniqueid": "w83432636:a22444840", "current_trial": 15, "dateTime": 1664555303123, "trialdata": {"revealed_states": [], "num_clicks_accrued": [0, 0, 0, 0, 0, 0, 0, 0, 0, 0, 0, 0, 0], "stateRewards": ["", -4, -8, 48, 24, 4, -8, 24, -48, -2, -8, 24, -48], "withholdReward": true, "trial_id": "mdp_952038635544", "block": "test1", "trialIndex": 8, "score": 22.75, "costs": -2.25, "simulationMode": [null, null, null], "rewards": [4, -8, 24], "path": ["0", "0", "5", "6", "7"], "rt": [7992, 183, 224], "actions": ["right", "right", "up"], "actionTimes": [8617, 9307, 10047], "queries": {"click": {"state": {"target": ["1", "9", "5", "7", "6", "8", "10", "11", "2"], "time": [1076, 1691, 2297, 3048, 3551, 4078, 5777, 6212, 7330]}, "edge": {"target": [], "time": []}}, "mouseover": {"state": {"target": ["1", "9", "5", "6", "7", "6", "8", "8", "10", "11", "2", "3"], "time": [974, 1573, 2156, 2791, 2956, 3324, 3724, 3990, 5740, 6106, 6740, 7623]}, "edge": {"target": [], "time": []}}, "mouseout": {"state": {"target": ["5", "0", "1", "9", "5", "6", "7", "6", "8", "8", "6", "1", "9", "10", "11", "10", "9", "2", "3", "7"], "time": [473, 890, 1307, 1874, 2507, 2857, 3207, 3674, 3790, 4241, 5273, 5474, 5690, 6057, 6340, 6423, 6640, 7506, 7973, 8057]}, "edge": {"target": [], "time": []}}}, "displayed_time": "10.56", "trialTime": 10872, "trial_type": "mouselab-mdp", "trial_index": 15, "time_elapsed": 260909, "internal_node_id": "0.0-4.0-1.0-6.0"}}, {"uniqueid": "w83432636:a22444840", "current_trial": 16, "dateTime": 1664555315118, "trialdata": {"revealed_states": [], "num_clicks_accrued": [0, 0, 0, 0, 0, 0, 0, 0, 0, 0, 0, 0, 0], "stateRewards": ["", 4, 4, -24, -48, 2, 4, 24, -48, 2, 4, 24, 24], "withholdReward": true, "trial_id": "mdp_223558518218", "block": "test1", "trialIndex": 9, "score": 32, "costs": -3, "simulationMode": [null, null, null], "rewards": [2, 4, 24], "path": ["0", "0", "9", "10", "11"], "rt": [8521, 272, 278], "actions": ["left", "left", "up"], "actionTimes": [9487, 10277, 11067], "queries": {"click": {"state": {"target": ["9", "10", "11", "12", "1", "2", "4", "3", "5", "6", "7", "8"], "time": [1636, 2703, 3162, 3700, 4558, 5171, 5608, 6124, 6759, 7380, 7919, 8399]}, "edge": {"target": [], "time": []}}, "mouseover": {"state": {"target": ["9", "10", "10", "11", "12", "0", "1", "2", "4", "3", "5", "6", "7", "8"], "time": [1554, 2354, 2621, 3104, 3505, 4321, 4438, 5138, 5572, 6088, 6555, 7138, 7821, 8321]}, "edge": {"target": [], "time": []}}, "mouseout": {"state": {"target": ["7", "1", "9", "0", "9", "10", "10", "11", "10", "12", "0", "1", "2", "4", "1", "3", "5", "6", "6", "7", "6", "8"], "time": [454, 504, 771, 1488, 1921, 2437, 3071, 3338, 3455, 3888, 4355, 4705, 5354, 5738, 6021, 6238, 6888, 7571, 7788, 8188, 8272, 8787]}, "edge": {"target": [], "time": []}}}, "displayed_time": "11.57", "trialTime": 11947, "trial_type": "mouselab-mdp", "trial_index": 16, "time_elapsed": 272904, "internal_node_id": "0.0-4.0-1.0-7.0"}}, {"uniqueid": "w83432636:a22444840", "current_trial": 17, "dateTime": 1664555325539, "trialdata": {"revealed_states": [], "num_clicks_accrued": [0, 0, 0, 0, 0, 0, 0, 0, 0, 0, 0, 0, 0], "stateRewards": ["", -2, 4, 48, -24, 2, 8, 24, 48, 2, 4, -24, -48], "withholdReward": false, "trial_id": "mdp_892412058587", "block": "test1", "trialIndex": 10, "score": 60.75, "costs": -2.25, "simulationMode": [null, null, null], "rewards": [2, 8, 48], "path": ["0", "0", "5", "6", "8"], "rt": [7283, 54, 298], "actions": ["right", "right", "down"], "actionTimes": [8024, 8584, 9394], "queries": {"click": {"state": {"target": ["9", "10", "11", "12", "1", "5", "6", "7", "8"], "time": [1781, 2321, 2750, 3803, 4832, 5233, 6080, 6437, 6893]}, "edge": {"target": [], "time": []}}, "mouseover": {"state": {"target": ["9", "10", "11", "12", "1", "5", "6", "7", "8"], "time": [1503, 2146, 2679, 3512, 4413, 5162, 5888, 6312, 6679]}, "edge": {"target": [], "time": []}}, "mouseout": {"state": {"target": ["0", "9", "10", "11", "10", "9", "12", "9", "1", "5", "6", "7", "6", "8"], "time": [1280, 2096, 2629, 2929, 2995, 3269, 4045, 4145, 5063, 5429, 6279, 6579, 6645, 7346]}, "edge": {"target": [], "time": []}}}, "displayed_time": "9.90", "trialTime": 10377, "trial_type": "mouselab-mdp", "trial_index": 17, "time_elapsed": 283325, "internal_node_id": "0.0-4.0-1.0-8.0"}}, {"uniqueid": "w83432636:a22444840", "current_trial": 18, "dateTime": 1664555341484, "trialdata": {"revealed_states": [], "num_clicks_accrued": [0, 0, 0, 0, 0, 0, 0, 0, 0, 0, 0, 0, 0], "stateRewards": ["", -4, -4, 24, -48, 2, 4, -24, -48, -2, -8, -24, 24], "withholdReward": false, "trial_id": "mdp_565569130486", "block": "test1", "trialIndex": 11, "score": 18, "costs": -3, "simulationMode": [null, null, null], "rewards": [-4, -4, 24], "path": ["0", "0", "1", "2", "3"], "rt": [12596, 163, 177], "actions": ["up", "up", "right"], "actionTimes": [13889, 14569, 15249], "queries": {"click": {"state": {"target": ["9", "5", "1", "6", "7", "8", "10", "11", "12", "2", "4", "3"], "time": [2483, 3179, 3675, 4366, 4912, 5356, 6429, 6817, 7245, 7876, 8234, 8989]}, "edge": {"target": [], "time": []}}, "mouseover": {"state": {"target": ["0", "9", "0", "5", "1", "6", "7", "8", "10", "11", "12", "2", "4", "3", "3"], "time": [1989, 2389, 3055, 3140, 3556, 4189, 4839, 5206, 6372, 6722, 7139, 7740, 8106, 8523, 8856]}, "edge": {"target": [], "time": []}}, "mouseout": {"state": {"target": ["8", "5", "0", "0", "9", "0", "5", "1", "5", "6", "7", "6", "8", "8", "10", "11", "10", "12", "9", "2", "4", "2", "3", "3", "7"], "time": [922, 1072, 1822, 2339, 2789, 3090, 3473, 3856, 4139, 4806, 5073, 5173, 5839, 6056, 6689, 7005, 7106, 7406, 7505, 8055, 8422, 8489, 8606, 9173, 9323]}, "edge": {"target": [], "time": []}}}, "displayed_time": "15.76", "trialTime": 15899, "trial_type": "mouselab-mdp", "trial_index": 18, "time_elapsed": 299270, "internal_node_id": "0.0-4.0-1.0-9.0"}}, {"uniqueid": "w83432636:a22444840", "current_trial": 19, "dateTime": 1664555352632, "trialdata": {"revealed_states": [], "num_clicks_accrued": [0, 0, 0, 0, 0, 0, 0, 0, 0, 0, 0, 0, 0], "stateRewards": ["", 2, 4, 48, -24, 2, -8, -24, -24, 2, -8, -24, -48], "withholdReward": true, "trial_id": "mdp_274832552938", "block": "test1", "trialIndex": 12, "score": 57, "costs": -2, "simulationMode": [null, null, null], "rewards": [2, 4, 48], "path": ["0", "0", "1", "2", "3"], "rt": [7195, 46, 216], "actions": ["up", "up", "right"], "actionTimes": [8765, 9325, 10045], "queries": {"click": {"state": {"target": ["9", "10", "1", "2", "4", "3", "5", "6"], "time": [2150, 3700, 4382, 4894, 5420, 5766, 6752, 7162]}, "edge": {"target": [], "time": []}}, "mouseover": {"state": {"target": ["9", "1", "10", "11", "1", "2", "4", "3", "5", "5", "6", "8"], "time": [2062, 2703, 3562, 4028, 4312, 4845, 5362, 5745, 6112, 6662, 7028, 7395]}, "edge": {"target": [], "time": []}}, "mouseout": {"state": {"target": ["7", "0", "9", "1", "10", "11", "1", "2", "1", "4", "2", "3", "5", "5", "6", "8", "6"], "time": [1228, 2012, 2445, 3445, 3945, 4212, 4595, 5095, 5239, 5612, 5695, 5928, 6412, 6912, 7312, 7728, 7762]}, "edge": {"target": [], "time": []}}}, "displayed_time": "10.56", "trialTime": 11102, "trial_type": "mouselab-mdp", "trial_index": 19, "time_elapsed": 310418, "internal_node_id": "0.0-4.0-1.0-10.0"}}, {"uniqueid": "w83432636:a22444840", "current_trial": 20, "dateTime": 1664555363732, "trialdata": {"revealed_states": [], "num_clicks_accrued": [0, 0, 0, 0, 0, 0, 0, 0, 0, 0, 0, 0, 0], "stateRewards": ["", 2, 8, 48, 24, 2, 8, 48, 48, -2, -4, -24, -48], "withholdReward": false, "trial_id": "mdp_717636349175", "block": "test1", "trialIndex": 13, "score": 60.5, "costs": -2.5, "simulationMode": [null, null, null], "rewards": [2, 8, 48], "path": ["0", "0", "5", "6", "8"], "rt": [7238, 171, 309], "actions": ["right", "right", "down"], "actionTimes": [8793, 9483, 10303], "queries": {"click": {"state": {"target": ["9", "10", "11", "1", "2", "3", "4", "5", "6", "8"], "time": [2258, 2664, 3058, 3634, 4091, 4693, 5243, 5926, 6330, 7006]}, "edge": {"target": [], "time": []}}, "mouseover": {"state": {"target": ["9", "10", "11", "1", "2", "5", "3", "4", "5", "6", "8"], "time": [2228, 2544, 2944, 3561, 3860, 4394, 4627, 5177, 5594, 6244, 6861]}, "edge": {"target": [], "time": []}}, "mouseout": {"state": {"target": ["3", "7", "6", "5", "0", "9", "10", "11", "10", "9", "1", "2", "5", "3", "2", "4", "1", "5", "6", "6", "8", "8", "6"], "time": [844, 910, 960, 1094, 2044, 2510, 2894, 3211, 3311, 3427, 3810, 4278, 4544, 4927, 5110, 5461, 5561, 6144, 6511, 6799, 7244, 7460, 7694]}, "edge": {"target": [], "time": []}}}, "displayed_time": "10.81", "trialTime": 11051, "trial_type": "mouselab-mdp", "trial_index": 20, "time_elapsed": 321518, "internal_node_id": "0.0-4.0-1.0-11.0"}}, {"uniqueid": "w83432636:a22444840", "current_trial": 21, "dateTime": 1664555377277, "trialdata": {"revealed_states": [], "num_clicks_accrued": [0, 0, 0, 0, 0, 0, 0, 0, 0, 0, 0, 0, 0], "stateRewards": ["", 2, 4, -48, 24, -4, 4, -24, 48, -2, -8, -48, 48], "withholdReward": true, "trial_id": "mdp_424193661731", "block": "test1", "trialIndex": 14, "score": 50.25, "costs": -2.75, "simulationMode": [null, null, null], "rewards": [-4, 4, 48], "path": ["0", "0", "5", "6", "8"], "rt": [8599, 207, 360], "actions": ["right", "right", "down"], "actionTimes": [10722, 11441, 12311], "queries": {"click": {"state": {"target": ["1", "9", "5", "2", "3", "4", "10", "11", "6", "7", "8"], "time": [2697, 3245, 3768, 4447, 4903, 5303, 6160, 6534, 7281, 7741, 8650]}, "edge": {"target": [], "time": []}}, "mouseover": {"state": {"target": ["1", "9", "0", "5", "2", "3", "4", "10", "11", "12", "6", "7", "8"], "time": [2651, 3234, 3634, 3734, 4434, 4850, 5267, 5933, 6467, 6801, 7101, 7534, 8324]}, "edge": {"target": [], "time": []}}, "mouseout": {"state": {"target": ["5", "0", "1", "9", "0", "5", "5", "2", "3", "2", "4", "10", "11", "10", "12", "5", "6", "7", "6", "8"], "time": [1701, 2552, 3067, 3401, 3700, 3967, 4234, 4784, 5084, 5201, 5450, 6434, 6701, 6768, 7000, 7101, 7484, 7934, 8018, 8833]}, "edge": {"target": [], "time": []}}}, "displayed_time": "12.82", "trialTime": 13486, "trial_type": "mouselab-mdp", "trial_index": 21, "time_elapsed": 335063, "internal_node_id": "0.0-4.0-1.0-12.0"}}, {"uniqueid": "w83432636:a22444840", "current_trial": 22, "dateTime": 1664555387976, "trialdata": {"revealed_states": [], "num_clicks_accrued": [0, 0, 0, 0, 0, 0, 0, 0, 0, 0, 0, 0, 0], "stateRewards": ["", -4, 8, -24, -48, 2, 8, -48, -24, -2, -4, 48, -48], "withholdReward": true, "trial_id": "mdp_599927291428", "block": "test1", "trialIndex": 15, "score": 44, "costs": -3, "simulationMode": [null, null, null], "rewards": [-2, -4, 48], "path": ["0", "0", "9", "10", "11"], "rt": [7225, 93, 222], "actions": ["left", "left", "up"], "actionTimes": [8467, 9077, 9808], "queries": {"click": {"state": {"target": ["1", "9", "5", "6", "7", "8", "2", "3", "4", "10", "11", "12"], "time": [1732, 2118, 2488, 2916, 3270, 3638, 4445, 5321, 6005, 6729, 7069, 7474]}, "edge": {"target": [], "time": []}}, "mouseover": {"state": {"target": ["1", "9", "0", "5", "6", "7", "8", "2", "3", "4", "10", "11", "12"], "time": [1669, 2035, 2302, 2352, 2802, 3186, 3551, 4418, 5135, 5935, 6718, 7002, 7368]}, "edge": {"target": [], "time": []}}, "mouseout": {"state": {"target": ["8", "0", "1", "9", "0", "5", "6", "7", "6", "8", "8", "5", "1", "2", "2", "3", "2", "4", "10", "11", "10", "12"], "time": [934, 1568, 1918, 2269, 2335, 2685, 3135, 3385, 3485, 3951, 4118, 4169, 4352, 4602, 5102, 5518, 5601, 6335, 6952, 7235, 7335, 7718]}, "edge": {"target": [], "time": []}}}, "displayed_time": "10.32", "trialTime": 10654, "trial_type": "mouselab-mdp", "trial_index": 22, "time_elapsed": 345762, "internal_node_id": "0.0-4.0-1.0-13.0"}}, {"uniqueid": "w83432636:a22444840", "current_trial": 23, "dateTime": 1664555398280, "trialdata": {"revealed_states": [], "num_clicks_accrued": [0, 0, 0, 0, 0, 0, 0, 0, 0, 0, 0, 0, 0], "stateRewards": ["", 4, -4, 48, 24, 2, 4, 24, -24, 2, 4, 24, 48], "withholdReward": true, "trial_id": "mdp_736351885282", "block": "test1", "trialIndex": 16, "score": 56.75, "costs": -2.25, "simulationMode": [null, null, null], "rewards": [2, 4, 48], "path": ["0", "0", "9", "10", "12"], "rt": [5682, 256, 229], "actions": ["left", "left", "down"], "actionTimes": [6835, 7605, 8346], "queries": {"click": {"state": {"target": ["9", "10", "11", "12", "1", "5", "2", "3", "4"], "time": [1513, 1844, 2199, 2749, 3719, 4177, 4830, 5291, 5645]}, "edge": {"target": [], "time": []}}, "mouseover": {"state": {"target": ["9", "10", "11", "12", "0", "1", "5", "2", "3", "4"], "time": [1466, 1750, 2166, 2617, 3216, 3650, 4149, 4783, 5216, 5583]}, "edge": {"target": [], "time": []}}, "mouseout": {"state": {"target": ["0", "9", "10", "11", "10", "12", "0", "1", "1", "5", "1", "2", "3", "2", "4", "1"], "time": [1033, 1699, 2133, 2400, 2567, 2950, 3317, 3966, 4049, 4700, 4750, 5016, 5433, 5549, 5833, 10134]}, "edge": {"target": [], "time": []}}}, "displayed_time": "9.19", "trialTime": 10256, "trial_type": "mouselab-mdp", "trial_index": 23, "time_elapsed": 356066, "internal_node_id": "0.0-4.0-1.0-14.0"}}, {"uniqueid": "w83432636:a22444840", "current_trial": 24, "dateTime": 1664555408588, "trialdata": {"revealed_states": [], "num_clicks_accrued": [0, 0, 0, 0, 0, 0, 0, 0, 0, 0, 0, 0, 0], "stateRewards": ["", -2, 8, 48, 24, 2, -4, 48, -48, 2, 8, 24, -24], "withholdReward": true, "trial_id": "mdp_176207245985", "block": "test1", "trialIndex": 17, "score": 48.75, "costs": -2.25, "simulationMode": [null, null, null], "rewards": [2, -4, 48], "path": ["0", "0", "5", "6", "7"], "rt": [5811, 208, 290], "actions": ["right", "right", "up"], "actionTimes": [6594, 7314, 8114], "queries": {"click": {"state": {"target": ["9", "10", "11", "12", "1", "5", "6", "7", "8"], "time": [1652, 2107, 2510, 3029, 3619, 4341, 4748, 5132, 5503]}, "edge": {"target": [], "time": []}}, "mouseover": {"state": {"target": ["0", "9", "9", "10", "11", "12", "1", "5", "6", "7", "8"], "time": [972, 1155, 1639, 2055, 2506, 2822, 3505, 4272, 4689, 5072, 5388]}, "edge": {"target": [], "time": []}}, "mouseout": {"state": {"target": ["0", "0", "9", "9", "10", "11", "10", "12", "9", "1", "5", "6", "7", "6"], "time": [689, 1055, 1222, 2023, 2455, 2607, 2756, 3306, 3405, 4155, 4605, 5022, 5272, 5339]}, "edge": {"target": [], "time": []}}}, "displayed_time": "9.81", "trialTime": 10253, "trial_type": "mouselab-mdp", "trial_index": 24, "time_elapsed": 366374, "internal_node_id": "0.0-4.0-1.0-15.0"}}, {"uniqueid": "w83432636:a22444840", "current_trial": 25, "dateTime": 1664555422955, "trialdata": {"revealed_states": [], "num_clicks_accrued": [0, 0, 0, 0, 0, 0, 0, 0, 0, 0, 0, 0, 0], "stateRewards": ["", 4, 4, 48, -48, 4, 4, -48, 24, 2, 8, 24, -48], "withholdReward": true, "trial_id": "mdp_291674656283", "block": "test1", "trialIndex": 18, "score": 58, "costs": -3, "simulationMode": [null, null, null], "rewards": [4, 4, 48], "path": ["0", "0", "1", "2", "3"], "rt": [10187, 245, 305], "actions": ["up", "up", "right"], "actionTimes": [11089, 11849, 12660], "queries": {"click": {"state": {"target": ["9", "5", "6", "7", "8", "1", "2", "3", "4", "10", "11", "12"], "time": [1662, 2106, 3402, 4570, 4968, 5718, 6148, 6570, 7170, 9184, 9546, 10001]}, "edge": {"target": [], "time": []}}, "mouseover": {"state": {"target": ["9", "0", "5", "1", "6", "6", "7", "7", "7", "8", "1", "2", "3", "4", "11", "10", "11", "12", "0"], "time": [1352, 1902, 1986, 2485, 2702, 3202, 3652, 3836, 4536, 4852, 5653, 6118, 6519, 7102, 8935, 9069, 9436, 9919, 10486]}, "edge": {"target": [], "time": []}}, "mouseout": {"state": {"target": ["8", "5", "0", "9", "0", "5", "1", "6", "6", "7", "7", "6", "7", "6", "8", "5", "1", "2", "3", "2", "4", "11", "10", "11", "10", "12", "0"], "time": [335, 569, 1302, 1886, 1952, 2318, 2619, 2752, 3619, 3719, 3969, 4169, 4736, 4819, 5370, 5403, 6069, 6319, 6902, 6969, 8902, 9002, 9386, 9703, 9802, 10268, 10519]}, "edge": {"target": [], "time": []}}}, "displayed_time": "13.17", "trialTime": 14317, "trial_type": "mouselab-mdp", "trial_index": 25, "time_elapsed": 380741, "internal_node_id": "0.0-4.0-1.0-16.0"}}, {"uniqueid": "w83432636:a22444840", "current_trial": 26, "dateTime": 1664555433413, "trialdata": {"revealed_states": [], "num_clicks_accrued": [0, 0, 0, 0, 0, 0, 0, 0, 0, 0, 0, 0, 0], "stateRewards": ["", 2, 8, 48, -48, -2, -4, -24, 24, 4, -4, 48, -48], "withholdReward": true, "trial_id": "mdp_105734044587", "block": "test1", "trialIndex": 19, "score": 61, "costs": -2, "simulationMode": [null, null, null], "rewards": [2, 8, 48], "path": ["0", "0", "1", "2", "3"], "rt": [5532, 228, 244], "actions": ["up", "up", "right"], "actionTimes": [6627, 7368, 8118], "queries": {"click": {"state": {"target": ["9", "10", "11", "12", "1", "2", "3", "5"], "time": [1843, 2413, 2798, 3164, 3696, 4039, 4488, 5594]}, "edge": {"target": [], "time": []}}, "mouseover": {"state": {"target": ["9", "1", "10", "11", "12", "1", "2", "3", "5", "6"], "time": [1706, 2140, 2323, 2723, 3057, 3674, 3974, 4423, 5523, 5857]}, "edge": {"target": [], "time": []}}, "mouseout": {"state": {"target": ["0", "0", "9", "1", "10", "11", "10", "12", "9", "1", "2", "3", "5"], "time": [540, 1506, 2041, 2257, 2690, 2940, 3040, 3424, 3557, 3924, 4223, 4673, 5824]}, "edge": {"target": [], "time": []}}}, "displayed_time": "10.14", "trialTime": 10413, "trial_type": "mouselab-mdp", "trial_index": 26, "time_elapsed": 391199, "internal_node_id": "0.0-4.0-1.0-17.0"}}, {"uniqueid": "w83432636:a22444840", "current_trial": 27, "dateTime": 1664555445803, "trialdata": {"revealed_states": [], "num_clicks_accrued": [0, 0, 0, 0, 0, 0, 0, 0, 0, 0, 0, 0, 0], "stateRewards": ["", 2, -4, 24, 48, -2, 4, -48, -48, -4, 4, 24, -24], "withholdReward": false, "trial_id": "mdp_900363662757", "block": "test1", "trialIndex": 20, "score": 48, "costs": -3, "simulationMode": [null, null, null], "rewards": [2, -4, 48], "path": ["0", "0", "1", "2", "4"], "rt": [8815, 263, 256], "actions": ["up", "up", "left"], "actionTimes": [9495, 10276, 11036], "queries": {"click": {"state": {"target": ["9", "1", "5", "2", "3", "4", "10", "11", "12", "6", "7", "8"], "time": [1020, 2086, 2574, 3375, 3916, 4374, 5978, 6350, 6786, 7537, 7931, 8347]}, "edge": {"target": [], "time": []}}, "mouseover": {"state": {"target": ["9", "10", "1", "1", "5", "2", "3", "4", "10", "10", "11", "12", "6", "7", "8"], "time": [996, 1296, 1662, 1996, 2413, 3329, 3846, 4196, 4830, 5570, 6212, 6696, 7530, 7796, 8246]}, "edge": {"target": [], "time": []}}, "mouseout": {"state": {"target": ["6", "5", "9", "0", "9", "10", "1", "1", "5", "5", "1", "2", "3", "2", "4", "10", "10", "11", "10", "12", "5", "6", "7", "6", "8"], "time": [229, 263, 545, 896, 1262, 1596, 1729, 2312, 2846, 3145, 3262, 3812, 4113, 4178, 4612, 5313, 6162, 6495, 6579, 6996, 7445, 7730, 8112, 8212, 8662]}, "edge": {"target": [], "time": []}}}, "displayed_time": "11.55", "trialTime": 12342, "trial_type": "mouselab-mdp", "trial_index": 27, "time_elapsed": 403589, "internal_node_id": "0.0-4.0-1.0-18.0"}}, {"uniqueid": "w83432636:a22444840", "current_trial": 28, "dateTime": 1664555458614, "trialdata": {"revealed_states": [], "num_clicks_accrued": [0, 0, 0, 0, 0, 0, 0, 0, 0, 0, 0, 0, 0], "stateRewards": ["", -2, -4, -24, -48, -2, 8, -48, 24, 4, -4, -24, -24], "withholdReward": false, "trial_id": "mdp_915304165774", "block": "test1", "trialIndex": 21, "score": 32, "costs": -3, "simulationMode": [null, null, null], "rewards": [-2, 8, 24], "path": ["0", "0", "5", "6", "8"], "rt": [9293, 246, 246], "actions": ["right", "right", "down"], "actionTimes": [10334, 11085, 11834], "queries": {"click": {"state": {"target": ["9", "10", "11", "12", "1", "5", "6", "2", "7", "8", "3", "4"], "time": [2091, 2758, 3239, 3635, 4481, 4812, 5400, 6376, 6910, 7291, 8525, 9213]}, "edge": {"target": [], "time": []}}, "mouseover": {"state": {"target": ["9", "10", "11", "12", "1", "1", "5", "6", "2", "7", "8", "3", "4"], "time": [1588, 2605, 3188, 3555, 4121, 4388, 4704, 5238, 6321, 6772, 7271, 8205, 9055]}, "edge": {"target": [], "time": []}}, "mouseout": {"state": {"target": ["5", "9", "10", "10", "11", "10", "12", "1", "1", "5", "6", "2", "7", "6", "8", "5", "3", "2", "4"], "time": [921, 2422, 2937, 3155, 3388, 3488, 3837, 4155, 4622, 5022, 5721, 6571, 7105, 7189, 7689, 7888, 8658, 8821, 9355]}, "edge": {"target": [], "time": []}}}, "displayed_time": "12.34", "trialTime": 12762, "trial_type": "mouselab-mdp", "trial_index": 28, "time_elapsed": 416400, "internal_node_id": "0.0-4.0-1.0-19.0"}}, {"uniqueid": "w83432636:a22444840", "current_trial": 29, "dateTime": 1664555468530, "trialdata": {"revealed_states": [], "num_clicks_accrued": [0, 0, 0, 0, 0, 0, 0, 0, 0, 0, 0, 0, 0], "stateRewards": ["", 4, 8, -24, 48, -2, -4, 24, -24, -2, 4, 24, 24], "withholdReward": true, "trial_id": "mdp_948713805479", "block": "test1", "trialIndex": 22, "score": 63, "costs": -2, "simulationMode": [null, null, null], "rewards": [4, 8, 48], "path": ["0", "0", "1", "2", "4"], "rt": [4688, 275, 202], "actions": ["up", "up", "left"], "actionTimes": [5814, 6605, 7314], "queries": {"click": {"state": {"target": ["9", "10", "5", "6", "1", "2", "4", "3"], "time": [1744, 2175, 2703, 3120, 3518, 3922, 4410, 4915]}, "edge": {"target": [], "time": []}}, "mouseover": {"state": {"target": ["9", "10", "0", "5", "6", "1", "2", "4", "3"], "time": [1678, 2011, 2461, 2545, 3027, 3411, 3878, 4362, 4711]}, "edge": {"target": [], "time": []}}, "mouseout": {"state": {"target": ["7", "9", "10", "9", "0", "5", "6", "1", "2", "4", "2", "3"], "time": [828, 1978, 2395, 2444, 2511, 2979, 3328, 3828, 4312, 4594, 4677, 5228]}, "edge": {"target": [], "time": []}}}, "displayed_time": "9.15", "trialTime": 9868, "trial_type": "mouselab-mdp", "trial_index": 29, "time_elapsed": 426316, "internal_node_id": "0.0-4.0-1.0-20.0"}}, {"uniqueid": "w83432636:a22444840", "current_trial": 30, "dateTime": 1664555480385, "trialdata": {"revealed_states": [], "num_clicks_accrued": [0, 0, 0, 0, 0, 0, 0, 0, 0, 0, 0, 0, 0], "stateRewards": ["", 2, 8, -48, -24, 2, -4, -48, 24, 2, -4, -24, -24], "withholdReward": false, "trial_id": "mdp_954659099093", "block": "test1", "trialIndex": 23, "score": 24, "costs": -3, "simulationMode": [null, null, null], "rewards": [2, -4, 24], "path": ["0", "0", "5", "6", "8"], "rt": [8055, 232, 282], "actions": ["right", "right", "down"], "actionTimes": [9430, 10180, 10980], "queries": {"click": {"state": {"target": ["1", "9", "10", "5", "2", "6", "7", "3", "4", "11", "12", "8"], "time": [1974, 2450, 2852, 3569, 4127, 4616, 5339, 6005, 6329, 7098, 7455, 7915]}, "edge": {"target": [], "time": []}}, "mouseover": {"state": {"target": ["1", "9", "10", "11", "5", "5", "2", "6", "7", "3", "4", "11", "12", "8"], "time": [1797, 2297, 2731, 3097, 3314, 3563, 4080, 4497, 5297, 5964, 6280, 7064, 7381, 7797]}, "edge": {"target": [], "time": []}}, "mouseout": {"state": {"target": ["3", "3", "1", "1", "9", "10", "11", "5", "5", "2", "6", "6", "7", "2", "3", "2", "4", "10", "11", "10", "12", "8"], "time": [848, 913, 1063, 2247, 2681, 3064, 3197, 3347, 3781, 4314, 4880, 5263, 5613, 5888, 6147, 6247, 6564, 7013, 7247, 7331, 7613, 8197]}, "edge": {"target": [], "time": []}}}, "displayed_time": "11.52", "trialTime": 11809, "trial_type": "mouselab-mdp", "trial_index": 30, "time_elapsed": 438171, "internal_node_id": "0.0-4.0-1.0-21.0"}}, {"uniqueid": "w83432636:a22444840", "current_trial": 31, "dateTime": 1664555493938, "trialdata": {"revealed_states": [], "num_clicks_accrued": [0, 0, 0, 0, 0, 0, 0, 0, 0, 0, 0, 0, 0], "stateRewards": ["", -2, -4, 48, 48, 2, 4, -48, 24, 4, -8, 24, -24], "withholdReward": true, "trial_id": "mdp_628613319495", "block": "test1", "trialIndex": 24, "score": 44, "costs": -3, "simulationMode": [null, null, null], "rewards": [-2, -4, 48], "path": ["0", "0", "1", "2", "3"], "rt": [9967, 90, 292], "actions": ["up", "up", "right"], "actionTimes": [11079, 11679, 12479], "queries": {"click": {"state": {"target": ["9", "10", "5", "1", "11", "12", "2", "4", "3", "7", "6", "8"], "time": [1707, 3905, 4635, 5606, 6052, 6495, 7159, 7531, 8231, 8672, 9094, 9512]}, "edge": {"target": [], "time": []}}, "mouseover": {"state": {"target": ["9", "1", "5", "0", "10", "0", "5", "1", "11", "12", "0", "2", "4", "3", "3", "3", "7", "6", "8"], "time": [1622, 2445, 2838, 3588, 3688, 4371, 4471, 5521, 5905, 6421, 6855, 7054, 7472, 7739, 7988, 8188, 8587, 9005, 9421]}, "edge": {"target": [], "time": []}}, "mouseout": {"state": {"target": ["8", "0", "9", "1", "5", "0", "9", "10", "9", "0", "5", "1", "11", "10", "12", "0", "2", "4", "2", "3", "3", "3", "7", "6", "8"], "time": [587, 1521, 2088, 2721, 3555, 3622, 3654, 4222, 4338, 4405, 4955, 5771, 6238, 6371, 6754, 6888, 7371, 7655, 7721, 7788, 8021, 8488, 8939, 9355, 9771]}, "edge": {"target": [], "time": []}}}, "displayed_time": "12.99", "trialTime": 13503, "trial_type": "mouselab-mdp", "trial_index": 31, "time_elapsed": 451724, "internal_node_id": "0.0-4.0-1.0-22.0"}}, {"uniqueid": "w83432636:a22444840", "current_trial": 32, "dateTime": 1664555504958, "trialdata": {"revealed_states": [], "num_clicks_accrued": [0, 0, 0, 0, 0, 0, 0, 0, 0, 0, 0, 0, 0], "stateRewards": ["", -2, -4, -24, -48, 2, -8, -24, -24, 4, -8, 48, 48], "withholdReward": true, "trial_id": "mdp_950599994674", "block": "test1", "trialIndex": 25, "score": 46.25, "costs": -2.75, "simulationMode": [null, null, null], "rewards": [4, -8, 48], "path": ["0", "0", "9", "10", "11"], "rt": [7394, 88, 208], "actions": ["left", "left", "up"], "actionTimes": [8811, 9411, 10131], "queries": {"click": {"state": {"target": ["9", "10", "11", "1", "2", "4", "3", "5", "6", "7", "8"], "time": [2259, 2700, 3077, 4289, 4710, 5039, 5672, 6143, 6687, 7285, 8051]}, "edge": {"target": [], "time": []}}, "mouseover": {"state": {"target": ["9", "10", "11", "12", "12", "1", "2", "4", "3", "3", "5", "6", "7", "8"], "time": [2045, 2639, 2988, 3338, 3588, 4205, 4505, 4922, 5255, 5522, 5939, 6438, 7072, 7989]}, "edge": {"target": [], "time": []}}, "mouseout": {"state": {"target": ["5", "9", "10", "11", "10", "12", "12", "9", "1", "2", "4", "2", "3", "3", "5", "6", "7", "6"], "time": [738, 2559, 2955, 3221, 3305, 3438, 3655, 3872, 4438, 4872, 5188, 5239, 5288, 5855, 6338, 7022, 7489, 7556]}, "edge": {"target": [], "time": []}}}, "displayed_time": "10.64", "trialTime": 10957, "trial_type": "mouselab-mdp", "trial_index": 32, "time_elapsed": 462744, "internal_node_id": "0.0-4.0-1.0-23.0"}}, {"uniqueid": "w83432636:a22444840", "current_trial": 33, "dateTime": 1664555515722, "trialdata": {"revealed_states": [], "num_clicks_accrued": [0, 0, 0, 0, 0, 0, 0, 0, 0, 0, 0, 0, 0], "stateRewards": ["", -4, -4, -24, 24, 4, 4, -24, -24, -4, 4, 24, 24], "withholdReward": true, "trial_id": "mdp_787781487383", "block": "test1", "trialIndex": 26, "score": 26, "costs": -3, "simulationMode": [null, null, null], "rewards": [-4, 4, 24], "path": ["0", "0", "9", "10", "11"], "rt": [7634, 70, 286], "actions": ["left", "left", "up"], "actionTimes": [8503, 9083, 9884], "queries": {"click": {"state": {"target": ["1", "5", "9", "6", "7", "8", "10", "11", "12", "2", "3", "4"], "time": [2001, 2334, 2712, 3253, 3750, 4144, 5432, 5709, 6127, 6815, 7114, 7420]}, "edge": {"target": [], "time": []}}, "mouseover": {"state": {"target": ["0", "1", "5", "0", "9", "6", "7", "8", "0", "10", "10", "11", "12", "2", "3", "4"], "time": [1026, 1914, 2297, 2531, 2697, 3080, 3648, 4080, 4580, 5030, 5347, 5631, 6047, 6680, 7064, 7347]}, "edge": {"target": [], "time": []}}, "mouseout": {"state": {"target": ["8", "5", "0", "0", "1", "5", "0", "9", "5", "6", "7", "6", "8", "0", "9", "10", "10", "11", "10", "12", "9", "1", "2", "3", "2", "4"], "time": [663, 764, 830, 1297, 2214, 2480, 2547, 2930, 3047, 3597, 3930, 4030, 4514, 4598, 4747, 5147, 5581, 5847, 5931, 6314, 6497, 6630, 6997, 7247, 7313, 7631]}, "edge": {"target": [], "time": []}}}, "displayed_time": "10.40", "trialTime": 10713, "trial_type": "mouselab-mdp", "trial_index": 33, "time_elapsed": 473508, "internal_node_id": "0.0-4.0-1.0-24.0"}}, {"uniqueid": "w83432636:a22444840", "current_trial": 34, "dateTime": 1664555524873, "trialdata": {"revealed_states": [], "num_clicks_accrued": [0, 0, 0, 0, 0, 0, 0, 0, 0, 0, 0, 0, 0], "stateRewards": ["", 4, 4, 48, -24, -4, -8, 24, -24, 2, -8, -24, 24], "withholdReward": true, "trial_id": "mdp_933201675789", "block": "test1", "trialIndex": 27, "score": 59.5, "costs": -1.5, "simulationMode": [null, null, null], "rewards": [4, 4, 48], "path": ["0", "0", "1", "2", "3"], "rt": [4777, 45, 215], "actions": ["up", "up", "right"], "actionTimes": [5430, 5979, 6699], "queries": {"click": {"state": {"target": ["9", "5", "1", "2", "4", "3"], "time": [1105, 2096, 2651, 3771, 4096, 4474]}, "edge": {"target": [], "time": []}}, "mouseover": {"state": {"target": ["0", "9", "0", "5", "0", "1", "10", "2", "4", "3"], "time": [867, 1050, 1584, 1684, 2251, 2584, 3117, 3667, 3967, 4367]}, "edge": {"target": [], "time": []}}, "mouseout": {"state": {"target": ["1", "0", "9", "0", "5", "0", "1", "9", "10", "2", "4", "2", "3", "1"], "time": [501, 1017, 1551, 1634, 2217, 2268, 2818, 2901, 3217, 3917, 4268, 4350, 4701, 8401]}, "edge": {"target": [], "time": []}}}, "displayed_time": "8.70", "trialTime": 9101, "trial_type": "mouselab-mdp", "trial_index": 34, "time_elapsed": 482659, "internal_node_id": "0.0-4.0-1.0-25.0"}}, {"uniqueid": "w83432636:a22444840", "current_trial": 35, "dateTime": 1664555539580, "trialdata": {"revealed_states": [], "num_clicks_accrued": [0, 0, 0, 0, 0, 0, 0, 0, 0, 0, 0, 0, 0], "stateRewards": ["", 2, -4, 24, 24, 2, 4, 24, 24, -4, 8, 24, 48], "withholdReward": true, "trial_id": "mdp_268430387178", "block": "test1", "trialIndex": 28, "score": 54, "costs": -3, "simulationMode": [null, null, null], "rewards": [-4, 8, 48], "path": ["0", "0", "9", "10", "12"], "rt": [11444, 74, 381], "actions": ["left", "left", "down"], "actionTimes": [12216, 12807, 13697], "queries": {"click": {"state": {"target": ["1", "2", "4", "9", "5", "6", "7", "8", "3", "11", "12", "10"], "time": [1330, 1895, 2266, 3197, 4262, 4785, 5155, 5556, 6301, 7122, 7698, 11357]}, "edge": {"target": [], "time": []}}, "mouseover": {"state": {"target": ["1", "9", "2", "4", "3", "3", "9", "10", "0", "5", "5", "6", "7", "8", "3", "10", "11", "10", "12", "10"], "time": [1249, 1682, 1832, 2182, 2532, 2749, 2965, 3465, 3782, 3815, 4175, 4516, 5065, 5482, 6199, 6815, 7031, 7465, 7682, 11015]}, "edge": {"target": [], "time": []}}, "mouseout": {"state": {"target": ["0", "0", "1", "9", "2", "4", "2", "3", "3", "1", "9", "10", "9", "0", "5", "5", "6", "7", "6", "8", "6", "3", "1", "10", "11", "10", "12", "10", "9"], "time": [498, 715, 1565, 1766, 2149, 2449, 2515, 2598, 2815, 2916, 3398, 3732, 3765, 3799, 3848, 4465, 5032, 5315, 5432, 5882, 6065, 6499, 6732, 6982, 7365, 7582, 7982, 11515, 11566]}, "edge": {"target": [], "time": []}}}, "displayed_time": "14.20", "trialTime": 14655, "trial_type": "mouselab-mdp", "trial_index": 35, "time_elapsed": 497366, "internal_node_id": "0.0-4.0-1.0-26.0"}}, {"uniqueid": "w83432636:a22444840", "current_trial": 36, "dateTime": 1664555551055, "trialdata": {"revealed_states": [], "num_clicks_accrued": [0, 0, 0, 0, 0, 0, 0, 0, 0, 0, 0, 0, 0], "stateRewards": ["", 4, -8, -24, 48, -4, 8, -24, -48, -4, -4, 24, 48], "withholdReward": true, "trial_id": "mdp_282352776624", "block": "test1", "trialIndex": 29, "score": 47, "costs": -2, "simulationMode": [null, null, null], "rewards": [4, -8, 48], "path": ["0", "0", "1", "2", "4"], "rt": [8129, 42, 182], "actions": ["up", "up", "left"], "actionTimes": [9205, 9755, 10445], "queries": {"click": {"state": {"target": ["11", "12", "9", "8", "7", "3", "4", "1"], "time": [2102, 2835, 4179, 5504, 6282, 6623, 6991, 7763]}, "edge": {"target": [], "time": []}}, "mouseover": {"state": {"target": ["9", "10", "11", "10", "12", "12", "9", "4", "1", "9", "0", "9", "0", "5", "6", "7", "6", "8", "6", "7", "3", "2", "4", "1", "1", "0"], "time": [1345, 1912, 2063, 2295, 2345, 2645, 3028, 3212, 3462, 3745, 3862, 4112, 4696, 4778, 4912, 5229, 5329, 5362, 5745, 5845, 6512, 6829, 6896, 7329, 7679, 7929]}, "edge": {"target": [], "time": []}}, "mouseout": {"state": {"target": ["0", "9", "10", "11", "10", "12", "12", "9", "4", "1", "9", "0", "9", "0", "5", "6", "7", "6", "8", "6", "7", "3", "2", "4", "1", "1", "0", "1"], "time": [1329, 1429, 2029, 2279, 2329, 2362, 2978, 3046, 3412, 3496, 3795, 3996, 4345, 4729, 4846, 5046, 5312, 5345, 5712, 5796, 6462, 6796, 6863, 7196, 7345, 7879, 7946, 8279]}, "edge": {"target": [], "time": []}}}, "displayed_time": "10.96", "trialTime": 11428, "trial_type": "mouselab-mdp", "trial_index": 36, "time_elapsed": 508841, "internal_node_id": "0.0-4.0-1.0-27.0"}}, {"uniqueid": "w83432636:a22444840", "current_trial": 37, "dateTime": 1664555564224, "trialdata": {"revealed_states": [], "num_clicks_accrued": [0, 0, 0, 0, 0, 0, 0, 0, 0, 0, 0, 0, 0], "stateRewards": ["", -2, 4, -48, -48, 4, 4, 48, -48, 2, 8, 24, 48], "withholdReward": true, "trial_id": "mdp_686771069745", "block": "test1", "trialIndex": 30, "score": 60.75, "costs": -2.25, "simulationMode": [null, null, null], "rewards": [2, 8, 48], "path": ["0", "0", "9", "10", "12"], "rt": [9650, 103, 246], "actions": ["left", "left", "down"], "actionTimes": [10920, 11540, 12300], "queries": {"click": {"state": {"target": ["11", "12", "9", "10", "4", "3", "7", "6", "5"], "time": [2384, 2906, 3673, 3929, 5508, 5973, 6767, 7586, 9504]}, "edge": {"target": [], "time": []}}, "mouseover": {"state": {"target": ["9", "11", "10", "12", "9", "10", "4", "2", "3", "7", "6", "8", "6", "5"], "time": [1904, 2337, 2587, 2754, 3504, 3870, 5071, 5687, 5904, 6637, 6937, 7054, 7471, 8137]}, "edge": {"target": [], "time": []}}, "mouseout": {"state": {"target": ["1", "0", "0", "9", "11", "10", "12", "9", "10", "9", "4", "2", "3", "7", "6", "8", "6", "5"], "time": [470, 503, 1803, 2187, 2520, 2670, 3120, 3837, 4188, 4587, 5637, 5720, 6103, 6904, 6987, 7437, 7737, 9787]}, "edge": {"target": [], "time": []}}}, "displayed_time": "12.80", "trialTime": 13122, "trial_type": "mouselab-mdp", "trial_index": 37, "time_elapsed": 522010, "internal_node_id": "0.0-4.0-1.0-28.0"}}, {"uniqueid": "w83432636:a22444840", "current_trial": 38, "dateTime": 1664555578831, "trialdata": {"revealed_states": [], "num_clicks_accrued": [0, 0, 0, 0, 0, 0, 0, 0, 0, 0, 0, 0, 0], "stateRewards": ["", -4, -8, -48, 48, -2, -8, -48, -24, 4, 8, 24, -48], "withholdReward": false, "trial_id": "mdp_509977295685", "block": "test1", "trialIndex": 31, "score": 38.5, "costs": -2.5, "simulationMode": [null, null, null], "rewards": [4, 8, 24], "path": ["0", "0", "9", "10", "11"], "rt": [11155, 38, 658], "actions": ["left", "left", "up"], "actionTimes": [11940, 12489, 13660], "queries": {"click": {"state": {"target": ["12", "11", "4", "3", "2", "1", "7", "8", "10", "9"], "time": [1317, 1807, 2658, 3126, 3505, 3889, 4633, 5061, 10649, 11049]}, "edge": {"target": [], "time": []}}, "mouseover": {"state": {"target": ["0", "9", "10", "12", "10", "11", "4", "2", "3", "2", "1", "5", "7", "6", "8", "5", "0", "9", "10", "10", "10", "9"], "time": [984, 1035, 1102, 1251, 1651, 1720, 2519, 2834, 2918, 3452, 3668, 4151, 4451, 4785, 4884, 5785, 6168, 6268, 6551, 10335, 10648, 11001]}, "edge": {"target": [], "time": []}}, "mouseout": {"state": {"target": ["5", "0", "9", "10", "12", "10", "11", "11", "4", "2", "3", "2", "1", "5", "7", "6", "8", "5", "0", "9", "10", "1", "10", "10", "9"], "time": [667, 1001, 1068, 1151, 1618, 1684, 2069, 2185, 2801, 2885, 3318, 3618, 4117, 4218, 4752, 4851, 5501, 6118, 6235, 6451, 6818, 6968, 10434, 10901, 11285]}, "edge": {"target": [], "time": []}}}, "displayed_time": "14.17", "trialTime": 14559, "trial_type": "mouselab-mdp", "trial_index": 38, "time_elapsed": 536617, "internal_node_id": "0.0-4.0-1.0-29.0"}}, {"uniqueid": "w83432636:a22444840", "current_trial": 39, "dateTime": 1664555583215, "trialdata": {"rt": 4383, "stimulus": "<h1> End of block! </h1>\n\nYou have reached the end of the block 1/4. If you need a short break, feel free to take one now before moving on.\n\n<br><br>\nIn the next block, you will complete another 30 rounds of this game.\n\n<br><br>\n<div style='text-align: center;'>Press <code>space</code> to begin.</div>\n<br><br>\n<div style='text-align: center;'>(If the experiment doesn't continue, try clicking on the text and then pressing <code>space</code>.)</div>", "response": " ", "trial_id": "mdp_ready_2", "trial_type": "html-keyboard-response", "trial_index": 39, "time_elapsed": 541001, "internal_node_id": "0.0-4.0-2.0"}}, {"uniqueid": "w83432636:a22444840", "current_trial": 40, "dateTime": 1664555597400, "trialdata": {"revealed_states": [], "num_clicks_accrued": [0, 0, 0, 0, 0, 0, 0, 0, 0, 0, 0, 0, 0], "stateRewards": ["", -2, 8, -48, 48, -4, -8, 24, 24, -2, -4, 48, -48], "withholdReward": true, "trial_id": "mdp_867247318592", "block": "test2", "trialIndex": 32, "score": 56.25, "costs": -2.75, "simulationMode": [null, null, null], "rewards": [-2, 8, 48], "path": ["0", "0", "1", "2", "4"], "rt": [11208, 26, 123], "actions": ["up", "up", "left"], "actionTimes": [12267, 12797, 13426], "queries": {"click": {"state": {"target": ["9", "11", "12", "4", "1", "7", "8", "5", "3", "10", "2"], "time": [1957, 3012, 3391, 4853, 5698, 6485, 7043, 8118, 8888, 10304, 11156]}, "edge": {"target": [], "time": []}}, "mouseover": {"state": {"target": ["9", "0", "9", "10", "10", "0", "10", "11", "10", "12", "10", "2", "4", "2", "3", "1", "5", "7", "6", "8", "5", "3", "5", "6", "3", "2", "10", "10", "2", "0"], "time": [1452, 1752, 1902, 2202, 2486, 2569, 2869, 2952, 3185, 3252, 3802, 4353, 4819, 5052, 5119, 5619, 5935, 6435, 6635, 6753, 7586, 7852, 8036, 8536, 8802, 9335, 9835, 10202, 11119, 11352]}, "edge": {"target": [], "time": []}}, "mouseout": {"state": {"target": ["9", "0", "9", "10", "10", "9", "0", "9", "10", "11", "10", "12", "10", "2", "4", "2", "3", "1", "5", "7", "6", "8", "8", "5", "3", "5", "8", "6", "7", "3", "2", "10", "10", "1", "2", "1", "0"], "time": [1685, 1853, 2169, 2302, 2519, 2553, 2586, 2852, 2886, 3152, 3219, 3686, 4235, 4486, 5019, 5102, 5519, 5886, 6135, 6602, 6702, 7219, 7402, 7702, 7935, 8236, 8452, 8618, 8652, 9069, 9618, 9952, 10419, 11036, 11268, 11319, 11370]}, "edge": {"target": [], "time": []}}}, "displayed_time": "13.94", "trialTime": 14129, "trial_type": "mouselab-mdp", "trial_index": 40, "time_elapsed": 555186, "internal_node_id": "0.0-4.0-3.0-0.0"}}, {"uniqueid": "w83432636:a22444840", "current_trial": 41, "dateTime": 1664555608066, "trialdata": {"revealed_states": [], "num_clicks_accrued": [0, 0, 0, 0, 0, 0, 0, 0, 0, 0, 0, 0, 0], "stateRewards": ["", 4, -8, 48, -24, -4, 4, 24, 24, -2, -4, 24, 24], "withholdReward": false, "trial_id": "mdp_542168715839", "block": "test2", "trialIndex": 33, "score": 46.5, "costs": -2.5, "simulationMode": [null, null, null], "rewards": [4, -8, 48], "path": ["0", "0", "1", "2", "3"], "rt": [7835, 163, 164], "actions": ["up", "up", "right"], "actionTimes": [8466, 9136, 9805], "queries": {"click": {"state": {"target": ["4", "3", "2", "7", "8", "11", "12", "10", "9", "1"], "time": [1321, 1844, 2971, 3725, 4195, 5287, 5715, 6171, 6608, 7418]}, "edge": {"target": [], "time": []}}, "mouseover": {"state": {"target": ["1", "2", "4", "1", "3", "2", "2", "1", "2", "1", "0", "7", "6", "8", "9", "0", "11", "10", "12", "10", "9", "1", "1"], "time": [1090, 1190, 1290, 1674, 1773, 2440, 2640, 2756, 2940, 3123, 3357, 3506, 3873, 3923, 4856, 4923, 5223, 5441, 5507, 6090, 6523, 6957, 7356]}, "edge": {"target": [], "time": []}}, "mouseout": {"state": {"target": ["0", "1", "2", "4", "1", "3", "2", "2", "1", "2", "1", "0", "7", "6", "8", "9", "0", "11", "10", "12", "10", "9", "1", "2", "1", "7"], "time": [634, 1123, 1223, 1506, 1706, 1990, 2506, 2690, 2906, 3090, 3139, 3373, 3857, 3907, 4439, 4889, 5039, 5407, 5474, 6039, 6323, 6857, 6990, 7323, 7623, 7762]}, "edge": {"target": [], "time": []}}}, "displayed_time": "10.31", "trialTime": 10617, "trial_type": "mouselab-mdp", "trial_index": 41, "time_elapsed": 565852, "internal_node_id": "0.0-4.0-3.0-1.0"}}, {"uniqueid": "w83432636:a22444840", "current_trial": 42, "dateTime": 1664555617599, "trialdata": {"revealed_states": [], "num_clicks_accrued": [0, 0, 0, 0, 0, 0, 0, 0, 0, 0, 0, 0, 0], "stateRewards": ["", -4, 8, -24, 48, 2, -8, 24, 48, 2, -8, -24, -48], "withholdReward": true, "trial_id": "mdp_493778446445", "block": "test2", "trialIndex": 34, "score": 56, "costs": -1, "simulationMode": [null, null, null], "rewards": [-4, 8, 48], "path": ["0", "0", "1", "2", "4"], "rt": [3468, 148, 66], "actions": ["up", "up", "left"], "actionTimes": [4677, 5337, 5906], "queries": {"click": {"state": {"target": ["1", "4", "3", "2"], "time": [1751, 2754, 3270, 3607]}, "edge": {"target": [], "time": []}}, "mouseover": {"state": {"target": ["1", "2", "4", "2", "3", "2"], "time": [1622, 2423, 2690, 3006, 3090, 3489]}, "edge": {"target": [], "time": []}}, "mouseout": {"state": {"target": ["1", "0", "0", "1", "2", "4", "2", "3", "2"], "time": [622, 855, 1172, 2073, 2623, 2973, 3055, 3390, 3823]}, "edge": {"target": [], "time": []}}}, "displayed_time": "9.23", "trialTime": 9482, "trial_type": "mouselab-mdp", "trial_index": 42, "time_elapsed": 575384, "internal_node_id": "0.0-4.0-3.0-2.0"}}, {"uniqueid": "w83432636:a22444840", "current_trial": 43, "dateTime": 1664555627843, "trialdata": {"revealed_states": [], "num_clicks_accrued": [0, 0, 0, 0, 0, 0, 0, 0, 0, 0, 0, 0, 0], "stateRewards": ["", 2, 8, 24, -48, 4, 8, 24, 48, 2, -8, -24, 24], "withholdReward": true, "trial_id": "mdp_939899431582", "block": "test2", "trialIndex": 35, "score": 63.5, "costs": -1.5, "simulationMode": [null, null, null], "rewards": [4, 8, 48], "path": ["0", "0", "5", "6", "8"], "rt": [3611, 21, 167], "actions": ["right", "right", "down"], "actionTimes": [4385, 4915, 5595], "queries": {"click": {"state": {"target": ["9", "5", "1", "6", "7", "8"], "time": [1071, 1387, 1713, 2455, 2771, 3245]}, "edge": {"target": [], "time": []}}, "mouseover": {"state": {"target": ["9", "0", "5", "1", "6", "7", "8", "8"], "time": [1059, 1276, 1326, 1692, 2343, 2675, 2943, 3242]}, "edge": {"target": [], "time": []}}, "mouseout": {"state": {"target": ["0", "9", "0", "5", "1", "5", "6", "7", "6", "8", "8"], "time": [943, 1243, 1309, 1576, 1909, 2293, 2627, 2892, 2926, 3026, 3726]}, "edge": {"target": [], "time": []}}}, "displayed_time": "9.82", "trialTime": 10197, "trial_type": "mouselab-mdp", "trial_index": 43, "time_elapsed": 585629, "internal_node_id": "0.0-4.0-3.0-3.0"}}, {"uniqueid": "w83432636:a22444840", "current_trial": 44, "dateTime": 1664555638864, "trialdata": {"revealed_states": [], "num_clicks_accrued": [0, 0, 0, 0, 0, 0, 0, 0, 0, 0, 0, 0, 0], "stateRewards": ["", -4, 8, 24, -48, -4, -8, -24, 24, 2, -4, -48, 24], "withholdReward": true, "trial_id": "mdp_898449441629", "block": "test2", "trialIndex": 36, "score": 30.25, "costs": -2.75, "simulationMode": [null, null, null], "rewards": [-4, 8, 24], "path": ["0", "0", "1", "2", "3"], "rt": [7878, 53, 87], "actions": ["up", "up", "right"], "actionTimes": [9047, 9617, 10216], "queries": {"click": {"state": {"target": ["9", "11", "10", "12", "4", "3", "7", "8", "2", "6", "1"], "time": [1694, 2781, 3133, 3454, 4305, 4649, 5343, 5687, 6724, 7431, 8193]}, "edge": {"target": [], "time": []}}, "mouseover": {"state": {"target": ["9", "10", "10", "11", "10", "12", "0", "1", "2", "4", "2", "3", "5", "7", "6", "8", "5", "2", "1", "0", "5", "6", "5", "1"], "time": [1662, 1929, 2364, 2597, 3013, 3298, 3829, 3963, 4030, 4214, 4513, 4596, 5013, 5246, 5529, 5646, 6346, 6723, 6929, 7080, 7163, 7329, 7596, 8147]}, "edge": {"target": [], "time": []}}, "mouseout": {"state": {"target": ["6", "0", "9", "10", "10", "11", "10", "12", "0", "1", "2", "4", "2", "3", "5", "7", "6", "8", "5", "2", "1", "0", "5", "6", "5", "1"], "time": [697, 1587, 1896, 2047, 2546, 2930, 3246, 3680, 3896, 3996, 4097, 4480, 4563, 4847, 5097, 5496, 5596, 6196, 6447, 6863, 6998, 7096, 7230, 7547, 7714, 8463]}, "edge": {"target": [], "time": []}}}, "displayed_time": "10.73", "trialTime": 10972, "trial_type": "mouselab-mdp", "trial_index": 44, "time_elapsed": 596650, "internal_node_id": "0.0-4.0-3.0-4.0"}}, {"uniqueid": "w83432636:a22444840", "current_trial": 45, "dateTime": 1664555648919, "trialdata": {"revealed_states": [], "num_clicks_accrued": [0, 0, 0, 0, 0, 0, 0, 0, 0, 0, 0, 0, 0], "stateRewards": ["", 2, 8, 48, 24, 2, 8, 48, 48, -2, -4, -24, -48], "withholdReward": true, "trial_id": "mdp_717636349175", "block": "test2", "trialIndex": 37, "score": 62, "costs": -1, "simulationMode": [null, null, null], "rewards": [2, 8, 48], "path": ["0", "0", "1", "2", "3"], "rt": [5722, 142, 82], "actions": ["up", "up", "right"], "actionTimes": [6483, 7133, 7724], "queries": {"click": {"state": {"target": ["4", "3", "2", "1"], "time": [2906, 3590, 4586, 5059]}, "edge": {"target": [], "time": []}}, "mouseover": {"state": {"target": ["4", "2", "3", "7", "2", "1"], "time": [2874, 3158, 3541, 4075, 4541, 4791]}, "edge": {"target": [], "time": []}}, "mouseout": {"state": {"target": ["1", "0", "4", "2", "3", "7", "2", "1"], "time": [557, 2574, 3124, 3241, 3758, 4191, 4741, 5241]}, "edge": {"target": [], "time": []}}}, "displayed_time": "9.80", "trialTime": 10005, "trial_type": "mouselab-mdp", "trial_index": 45, "time_elapsed": 606705, "internal_node_id": "0.0-4.0-3.0-5.0"}}, {"uniqueid": "w83432636:a22444840", "current_trial": 46, "dateTime": 1664555659155, "trialdata": {"revealed_states": [], "num_clicks_accrued": [0, 0, 0, 0, 0, 0, 0, 0, 0, 0, 0, 0, 0], "stateRewards": ["", 2, 4, -48, 48, -4, 8, -48, -24, -4, -4, 48, 48], "withholdReward": true, "trial_id": "mdp_613582696541", "block": "test2", "trialIndex": 38, "score": 58, "costs": -1, "simulationMode": [null, null, null], "rewards": [2, 4, 48], "path": ["0", "0", "1", "2", "4"], "rt": [2996, 37, 128], "actions": ["up", "up", "left"], "actionTimes": [3867, 4407, 5047], "queries": {"click": {"state": {"target": ["4", "3", "2", "1"], "time": [1329, 1667, 2122, 2478]}, "edge": {"target": [], "time": []}}, "mouseover": {"state": {"target": ["1", "4", "2", "3", "2", "1", "9"], "time": [1136, 1269, 1570, 1665, 2070, 2303, 2953]}, "edge": {"target": [], "time": []}}, "mouseout": {"state": {"target": ["0", "1", "4", "2", "3", "2", "1", "9"], "time": [1053, 1153, 1536, 1620, 1936, 2252, 2836, 3002]}, "edge": {"target": [], "time": []}}}, "displayed_time": "9.92", "trialTime": 10185, "trial_type": "mouselab-mdp", "trial_index": 46, "time_elapsed": 616940, "internal_node_id": "0.0-4.0-3.0-6.0"}}, {"uniqueid": "w83432636:a22444840", "current_trial": 47, "dateTime": 1664555669315, "trialdata": {"revealed_states": [], "num_clicks_accrued": [0, 0, 0, 0, 0, 0, 0, 0, 0, 0, 0, 0, 0], "stateRewards": ["", -2, 8, 48, 24, 2, -8, -24, -48, -4, 8, -48, 24], "withholdReward": true, "trial_id": "mdp_224053025943", "block": "test2", "trialIndex": 39, "score": 57, "costs": -2, "simulationMode": [null, null, null], "rewards": [-2, 8, 48], "path": ["0", "0", "1", "2", "3"], "rt": [5840, 85, 206], "actions": ["up", "up", "right"], "actionTimes": [6431, 7019, 7740], "queries": {"click": {"state": {"target": ["4", "3", "2", "1", "7", "8", "11", "12"], "time": [1010, 1557, 2496, 2875, 3612, 4018, 4633, 5016]}, "edge": {"target": [], "time": []}}, "mouseover": {"state": {"target": ["4", "2", "3", "5", "2", "1", "7", "6", "8", "9", "11", "10", "12", "9"], "time": [900, 1234, 1300, 1833, 2309, 2700, 3566, 3783, 3900, 4433, 4550, 4816, 4949, 5350]}, "edge": {"target": [], "time": []}}, "mouseout": {"state": {"target": ["4", "2", "3", "5", "2", "1", "7", "6", "8", "9", "11", "10", "12", "9", "2", "3"], "time": [1200, 1267, 1734, 1850, 2650, 3050, 3734, 3849, 4250, 4483, 4784, 4899, 5283, 5433, 9717, 9983]}, "edge": {"target": [], "time": []}}}, "displayed_time": "8.63", "trialTime": 10110, "trial_type": "mouselab-mdp", "trial_index": 47, "time_elapsed": 627101, "internal_node_id": "0.0-4.0-3.0-7.0"}}, {"uniqueid": "w83432636:a22444840", "current_trial": 48, "dateTime": 1664555678718, "trialdata": {"revealed_states": [], "num_clicks_accrued": [0, 0, 0, 0, 0, 0, 0, 0, 0, 0, 0, 0, 0], "stateRewards": ["", 2, 8, -48, -24, 4, 4, 24, 48, 4, -4, -48, 48], "withholdReward": true, "trial_id": "mdp_665096999232", "block": "test2", "trialIndex": 40, "score": 58.5, "costs": -2.5, "simulationMode": [null, null, null], "rewards": [4, 4, 48], "path": ["0", "0", "5", "6", "8"], "rt": [6113, 41, 91], "actions": ["right", "right", "down"], "actionTimes": [7044, 7592, 8192], "queries": {"click": {"state": {"target": ["4", "3", "7", "8", "6", "5", "11", "12", "10", "9"], "time": [1272, 2006, 2470, 2912, 3727, 4195, 4807, 5188, 5759, 6051]}, "edge": {"target": [], "time": []}}, "mouseover": {"state": {"target": ["4", "2", "3", "7", "6", "8", "5", "6", "5", "0", "9", "11", "10", "12", "10", "9"], "time": [1168, 1534, 2004, 2401, 2668, 2735, 3518, 3618, 4118, 4434, 4535, 4718, 5018, 5084, 5718, 6001]}, "edge": {"target": [], "time": []}}, "mouseout": {"state": {"target": ["1", "0", "0", "4", "2", "3", "7", "6", "8", "5", "6", "5", "0", "9", "11", "10", "12", "10", "9"], "time": [434, 597, 1068, 1501, 1584, 2301, 2635, 2701, 3201, 3552, 4068, 4401, 4468, 4602, 4985, 5051, 5452, 5951, 6268]}, "edge": {"target": [], "time": []}}}, "displayed_time": "8.98", "trialTime": 9348, "trial_type": "mouselab-mdp", "trial_index": 48, "time_elapsed": 636504, "internal_node_id": "0.0-4.0-3.0-8.0"}}, {"uniqueid": "w83432636:a22444840", "current_trial": 49, "dateTime": 1664555688864, "trialdata": {"revealed_states": [], "num_clicks_accrued": [0, 0, 0, 0, 0, 0, 0, 0, 0, 0, 0, 0, 0], "stateRewards": ["", 2, 8, -48, 24, -4, 8, 48, -24, 2, 8, 24, 24], "withholdReward": true, "trial_id": "mdp_175372499314", "block": "test2", "trialIndex": 41, "score": 55, "costs": -2, "simulationMode": [null, null, null], "rewards": [-4, 8, 48], "path": ["0", "0", "5", "6", "7"], "rt": [5840, 122, 150], "actions": ["right", "right", "up"], "actionTimes": [6811, 7442, 8101], "queries": {"click": {"state": {"target": ["4", "3", "7", "8", "6", "5", "11", "12"], "time": [1578, 1913, 2556, 2914, 3372, 4358, 5041, 5598]}, "edge": {"target": [], "time": []}}, "mouseover": {"state": {"target": ["1", "2", "4", "2", "3", "5", "6", "7", "6", "8", "6", "5", "0", "9", "9", "5", "0", "9", "11", "12", "10", "9", "0"], "time": [1334, 1402, 1535, 1801, 1851, 2318, 2402, 2501, 2735, 2818, 3319, 3568, 3768, 3918, 4151, 4285, 4768, 4818, 4968, 5335, 5985, 6101, 6151]}, "edge": {"target": [], "time": []}}, "mouseout": {"state": {"target": ["5", "0", "1", "2", "4", "2", "3", "5", "6", "7", "6", "8", "6", "5", "0", "9", "9", "5", "0", "9", "11", "12", "10", "9", "0"], "time": [834, 1268, 1368, 1469, 1768, 1834, 2185, 2335, 2468, 2701, 2768, 3285, 3534, 3618, 3868, 4002, 4184, 4552, 4785, 4868, 5218, 5768, 6085, 6135, 6285]}, "edge": {"target": [], "time": []}}}, "displayed_time": "9.00", "trialTime": 10094, "trial_type": "mouselab-mdp", "trial_index": 49, "time_elapsed": 646650, "internal_node_id": "0.0-4.0-3.0-9.0"}}, {"uniqueid": "w83432636:a22444840", "current_trial": 50, "dateTime": 1664555699172, "trialdata": {"revealed_states": [], "num_clicks_accrued": [0, 0, 0, 0, 0, 0, 0, 0, 0, 0, 0, 0, 0], "stateRewards": ["", 4, -4, 48, 24, 2, -8, 24, -48, -2, -4, -48, -48], "withholdReward": true, "trial_id": "mdp_655302318695", "block": "test2", "trialIndex": 42, "score": 51, "costs": -2, "simulationMode": [null, null, null], "rewards": [4, -4, 48], "path": ["0", "0", "1", "2", "3"], "rt": [5383, 37, 196], "actions": ["up", "up", "right"], "actionTimes": [6208, 6747, 7457], "queries": {"click": {"state": {"target": ["11", "12", "4", "3", "2", "1", "7", "8"], "time": [1425, 1879, 2423, 2732, 3408, 3812, 4365, 4757]}, "edge": {"target": [], "time": []}}, "mouseover": {"state": {"target": ["11", "10", "12", "9", "1", "4", "2", "3", "2", "1", "5", "6", "7", "6", "8", "5"], "time": [1343, 1677, 1743, 2110, 2177, 2327, 2594, 2726, 3360, 3627, 4027, 4060, 4243, 4594, 4660, 5226]}, "edge": {"target": [], "time": []}}, "mouseout": {"state": {"target": ["0", "0", "0", "11", "10", "12", "9", "1", "4", "2", "3", "2", "1", "5", "6", "7", "6", "8", "5"], "time": [310, 394, 760, 1643, 1710, 2077, 2127, 2227, 2560, 2676, 3077, 3577, 3977, 4043, 4193, 4560, 4627, 5176, 5293]}, "edge": {"target": [], "time": []}}}, "displayed_time": "9.87", "trialTime": 10261, "trial_type": "mouselab-mdp", "trial_index": 50, "time_elapsed": 656958, "internal_node_id": "0.0-4.0-3.0-10.0"}}, {"uniqueid": "w83432636:a22444840", "current_trial": 51, "dateTime": 1664555710167, "trialdata": {"revealed_states": [], "num_clicks_accrued": [0, 0, 0, 0, 0, 0, 0, 0, 0, 0, 0, 0, 0], "stateRewards": ["", -4, -4, 24, -48, -2, 8, -24, -48, -4, 4, 24, -48], "withholdReward": true, "trial_id": "mdp_934626330092", "block": "test2", "trialIndex": 43, "score": 27, "costs": -2, "simulationMode": [null, null, null], "rewards": [-4, 4, 24], "path": ["0", "0", "9", "10", "11"], "rt": [6867, 538, 327], "actions": ["left", "left", "up"], "actionTimes": [7466, 8505, 9345], "queries": {"click": {"state": {"target": ["4", "3", "7", "8", "12", "11", "10", "2"], "time": [1065, 1689, 2215, 2632, 3204, 3836, 5293, 5795]}, "edge": {"target": [], "time": []}}, "mouseover": {"state": {"target": ["4", "2", "3", "7", "6", "8", "12", "11", "10", "9", "10", "10", "10", "2", "1"], "time": [1017, 1283, 1667, 2000, 2416, 2517, 3033, 3602, 4117, 4467, 4616, 4917, 5233, 5733, 6084]}, "edge": {"target": [], "time": []}}, "mouseout": {"state": {"target": ["1", "0", "4", "2", "3", "7", "6", "8", "12", "11", "10", "9", "10", "10", "10", "2", "1"], "time": [150, 801, 1250, 1367, 1917, 2366, 2484, 2817, 3400, 4050, 4350, 4517, 4733, 5000, 5450, 6016, 6850]}, "edge": {"target": [], "time": []}}}, "displayed_time": "10.65", "trialTime": 10945, "trial_type": "mouselab-mdp", "trial_index": 51, "time_elapsed": 667952, "internal_node_id": "0.0-4.0-3.0-11.0"}}, {"uniqueid": "w83432636:a22444840", "current_trial": 52, "dateTime": 1664555722069, "trialdata": {"revealed_states": [], "num_clicks_accrued": [0, 0, 0, 0, 0, 0, 0, 0, 0, 0, 0, 0, 0], "stateRewards": ["", 2, -8, 48, -24, 2, -4, 24, 48, 4, -4, 48, -24], "withholdReward": true, "trial_id": "mdp_656500928756", "block": "test2", "trialIndex": 44, "score": 50.5, "costs": -2.5, "simulationMode": [null, null, null], "rewards": [4, -4, 48], "path": ["0", "0", "9", "10", "11"], "rt": [9037, 142, 132], "actions": ["left", "left", "up"], "actionTimes": [9733, 10391, 11032], "queries": {"click": {"state": {"target": ["11", "10", "9", "4", "3", "2", "7", "8", "6", "5"], "time": [1216, 2250, 2538, 3097, 3528, 5334, 6624, 7114, 7726, 8274]}, "edge": {"target": [], "time": []}}, "mouseover": {"state": {"target": ["11", "10", "12", "10", "9", "4", "2", "3", "1", "2", "2", "1", "2", "2", "1", "1", "7", "6", "8", "6", "5", "0"], "time": [1149, 1566, 1649, 2032, 2449, 3049, 3366, 3449, 3816, 4149, 4333, 4483, 4749, 5216, 5532, 5832, 6367, 6882, 7082, 7682, 8183, 9249]}, "edge": {"target": [], "time": []}}, "mouseout": {"state": {"target": ["9", "0", "11", "10", "12", "10", "9", "4", "2", "3", "1", "9", "2", "2", "1", "2", "10", "2", "1", "1", "7", "6", "8", "8", "6", "5", "8", "8", "10", "9", "0"], "time": [516, 582, 1515, 1599, 1983, 2400, 2800, 3300, 3416, 3749, 3849, 4066, 4216, 4450, 4715, 4899, 5066, 5483, 5633, 6233, 6832, 6949, 7399, 7633, 7899, 8433, 8599, 8882, 9183, 9233, 9266]}, "edge": {"target": [], "time": []}}}, "displayed_time": "11.55", "trialTime": 11846, "trial_type": "mouselab-mdp", "trial_index": 52, "time_elapsed": 679855, "internal_node_id": "0.0-4.0-3.0-12.0"}}, {"uniqueid": "w83432636:a22444840", "current_trial": 53, "dateTime": 1664555735559, "trialdata": {"revealed_states": [], "num_clicks_accrued": [0, 0, 0, 0, 0, 0, 0, 0, 0, 0, 0, 0, 0], "stateRewards": ["", -2, 8, -48, -24, -2, 8, 48, -48, -4, 8, 24, 48], "withholdReward": true, "trial_id": "mdp_160707003673", "block": "test2", "trialIndex": 45, "score": 56.5, "costs": -2.5, "simulationMode": [null, null, null], "rewards": [-2, 8, 48], "path": ["0", "0", "5", "6", "7"], "rt": [6919, 10, 3545], "actions": ["right", "right", "up"], "actionTimes": [7933, 8451, 12520], "queries": {"click": {"state": {"target": ["4", "3", "7", "8", "5", "6", "11", "12", "10", "9"], "time": [1841, 2187, 2695, 3122, 4018, 4289, 4926, 5821, 6311, 6666]}, "edge": {"target": [], "time": []}}, "mouseover": {"state": {"target": ["1", "4", "2", "3", "7", "6", "8", "10", "9", "0", "5", "6", "11", "10", "12", "10", "10", "12", "10", "9"], "time": [1507, 1741, 2041, 2108, 2607, 2874, 2941, 3691, 3774, 3824, 3858, 4207, 4891, 5157, 5416, 5574, 5707, 5775, 6225, 6525]}, "edge": {"target": [], "time": []}}, "mouseout": {"state": {"target": ["0", "1", "4", "2", "3", "7", "6", "8", "10", "9", "0", "5", "6", "5", "11", "10", "12", "10", "10", "12", "10", "9", "10", "0", "5"], "time": [1441, 1591, 1991, 2074, 2391, 2841, 2924, 3341, 3740, 3792, 3841, 4125, 4525, 4625, 5107, 5224, 5499, 5608, 5725, 5991, 6474, 6875, 11225, 11825, 11891]}, "edge": {"target": [], "time": []}}}, "displayed_time": "13.03", "trialTime": 13428, "trial_type": "mouselab-mdp", "trial_index": 53, "time_elapsed": 693345, "internal_node_id": "0.0-4.0-3.0-13.0"}}, {"uniqueid": "w83432636:a22444840", "current_trial": 54, "dateTime": 1664555745319, "trialdata": {"revealed_states": [], "num_clicks_accrued": [0, 0, 0, 0, 0, 0, 0, 0, 0, 0, 0, 0, 0], "stateRewards": ["", -4, 4, -24, 48, 2, 4, -48, 24, 4, -8, -24, 24], "withholdReward": true, "trial_id": "mdp_740130150937", "block": "test2", "trialIndex": 46, "score": 50.75, "costs": -2.25, "simulationMode": [null, null, null], "rewards": [-4, 4, 48], "path": ["0", "0", "1", "2", "4"], "rt": [5906, 47, 86], "actions": ["up", "up", "left"], "actionTimes": [7160, 7709, 8299], "queries": {"click": {"state": {"target": ["4", "3", "2", "1", "11", "12", "7", "8", "6"], "time": [1897, 2290, 2847, 3171, 3760, 4157, 4777, 5133, 5709]}, "edge": {"target": [], "time": []}}, "mouseover": {"state": {"target": ["1", "4", "2", "3", "1", "2", "1", "9", "11", "10", "12", "7", "6", "8", "6", "5", "0"], "time": [1579, 1812, 2078, 2162, 2729, 2796, 3062, 3512, 3629, 3962, 4079, 4729, 4928, 5028, 5512, 6196, 6278]}, "edge": {"target": [], "time": []}}, "mouseout": {"state": {"target": ["5", "1", "4", "2", "3", "1", "2", "1", "9", "11", "10", "12", "7", "6", "8", "6", "5", "0", "1"], "time": [912, 1696, 2062, 2112, 2512, 2762, 3012, 3346, 3545, 3929, 4029, 4362, 4878, 4962, 5428, 6162, 6246, 6346, 6678]}, "edge": {"target": [], "time": []}}}, "displayed_time": "9.28", "trialTime": 9709, "trial_type": "mouselab-mdp", "trial_index": 54, "time_elapsed": 703104, "internal_node_id": "0.0-4.0-3.0-14.0"}}, {"uniqueid": "w83432636:a22444840", "current_trial": 55, "dateTime": 1664555756274, "trialdata": {"revealed_states": [], "num_clicks_accrued": [0, 0, 0, 0, 0, 0, 0, 0, 0, 0, 0, 0, 0], "stateRewards": ["", -2, 8, 48, 48, 4, -8, -48, 48, 2, -4, -48, 48], "withholdReward": true, "trial_id": "mdp_132958048709", "block": "test2", "trialIndex": 47, "score": 56.5, "costs": -2.5, "simulationMode": [null, null, null], "rewards": [-2, 8, 48], "path": ["0", "0", "1", "2", "4"], "rt": [7779, 144, 135], "actions": ["up", "up", "left"], "actionTimes": [8499, 9147, 9787], "queries": {"click": {"state": {"target": ["4", "3", "2", "1", "11", "12", "10", "7", "8", "6"], "time": [1162, 1501, 2173, 2476, 3250, 3649, 5260, 6525, 6929, 7507]}, "edge": {"target": [], "time": []}}, "mouseover": {"state": {"target": ["4", "2", "3", "1", "2", "1", "0", "11", "10", "12", "5", "9", "10", "9", "9", "0", "6", "7", "6", "8", "6"], "time": [1085, 1401, 1452, 2086, 2135, 2335, 2935, 3185, 3419, 3535, 4136, 4552, 4902, 5418, 5686, 5768, 6152, 6486, 6668, 6868, 7468]}, "edge": {"target": [], "time": []}}, "mouseout": {"state": {"target": ["9", "4", "2", "3", "1", "2", "1", "0", "11", "10", "12", "5", "9", "10", "9", "9", "0", "6", "7", "6", "8", "6"], "time": [518, 1368, 1435, 1752, 2101, 2302, 2635, 2952, 3385, 3485, 3836, 4235, 4618, 5339, 5435, 5752, 5786, 6435, 6635, 6769, 7201, 7652]}, "edge": {"target": [], "time": []}}}, "displayed_time": "10.30", "trialTime": 10904, "trial_type": "mouselab-mdp", "trial_index": 55, "time_elapsed": 714060, "internal_node_id": "0.0-4.0-3.0-15.0"}}, {"uniqueid": "w83432636:a22444840", "current_trial": 56, "dateTime": 1664555766882, "trialdata": {"revealed_states": [], "num_clicks_accrued": [0, 0, 0, 0, 0, 0, 0, 0, 0, 0, 0, 0, 0], "stateRewards": ["", -2, -4, -24, 24, -2, 4, -24, -24, -4, 4, 24, -24], "withholdReward": false, "trial_id": "mdp_999419261719", "block": "test2", "trialIndex": 48, "score": 26.5, "costs": -2.5, "simulationMode": [null, null, null], "rewards": [-4, 4, 24], "path": ["0", "0", "9", "10", "11"], "rt": [7654, 57, 119], "actions": ["left", "left", "up"], "actionTimes": [8357, 8915, 9545], "queries": {"click": {"state": {"target": ["11", "12", "4", "3", "7", "8", "2", "10", "9", "1"], "time": [1851, 2240, 3117, 3527, 4132, 4646, 5964, 6417, 6936, 7616]}, "edge": {"target": [], "time": []}}, "mouseover": {"state": {"target": ["11", "11", "10", "12", "4", "4", "2", "3", "7", "6", "8", "5", "0", "9", "2", "10", "9", "0", "1"], "time": [1361, 1775, 1992, 2108, 2708, 2975, 3325, 3392, 4125, 4441, 4608, 5142, 5192, 5259, 5875, 6325, 6675, 7242, 7341]}, "edge": {"target": [], "time": []}}, "mouseout": {"state": {"target": ["6", "0", "11", "11", "10", "12", "4", "4", "2", "3", "7", "6", "8", "5", "0", "9", "2", "10", "9", "0", "1"], "time": [425, 959, 1375, 1959, 2042, 2559, 2791, 3258, 3358, 3725, 4392, 4509, 5076, 5175, 5225, 5342, 6208, 6608, 7109, 7259, 7775]}, "edge": {"target": [], "time": []}}}, "displayed_time": "10.06", "trialTime": 10553, "trial_type": "mouselab-mdp", "trial_index": 56, "time_elapsed": 724668, "internal_node_id": "0.0-4.0-3.0-16.0"}}, {"uniqueid": "w83432636:a22444840", "current_trial": 57, "dateTime": 1664555776922, "trialdata": {"revealed_states": [], "num_clicks_accrued": [0, 0, 0, 0, 0, 0, 0, 0, 0, 0, 0, 0, 0], "stateRewards": ["", 2, -4, 24, 24, 4, -4, -24, 24, -4, -4, 48, 48], "withholdReward": true, "trial_id": "mdp_566306223773", "block": "test2", "trialIndex": 49, "score": 43.25, "costs": -1.75, "simulationMode": [null, null, null], "rewards": [-4, -4, 48], "path": ["0", "0", "9", "10", "11"], "rt": [6257, 45, 215], "actions": ["left", "left", "up"], "actionTimes": [6940, 7500, 8220], "queries": {"click": {"state": {"target": ["11", "10", "9", "4", "3", "7", "8"], "time": [1401, 2418, 2728, 3314, 3751, 4326, 4795]}, "edge": {"target": [], "time": []}}, "mouseover": {"state": {"target": ["11", "10", "12", "12", "10", "9", "4", "2", "3", "7", "6", "8", "6", "5", "0", "12"], "time": [1288, 1705, 1754, 2104, 2337, 2688, 3221, 3554, 3637, 4221, 4621, 4721, 5320, 5505, 5538, 5721]}, "edge": {"target": [], "time": []}}, "mouseout": {"state": {"target": ["11", "9", "0", "11", "10", "12", "12", "10", "9", "9", "4", "2", "3", "7", "6", "8", "8", "6", "5", "0", "12"], "time": [421, 471, 855, 1688, 1737, 1804, 2287, 2621, 2905, 3121, 3488, 3604, 3904, 4554, 4671, 5071, 5254, 5488, 5521, 5571, 6038]}, "edge": {"target": [], "time": []}}}, "displayed_time": "9.70", "trialTime": 9988, "trial_type": "mouselab-mdp", "trial_index": 57, "time_elapsed": 734708, "internal_node_id": "0.0-4.0-3.0-17.0"}}, {"uniqueid": "w83432636:a22444840", "current_trial": 58, "dateTime": 1664555790275, "trialdata": {"revealed_states": [], "num_clicks_accrued": [0, 0, 0, 0, 0, 0, 0, 0, 0, 0, 0, 0, 0], "stateRewards": ["", 2, 4, -48, 24, -4, -4, -24, 24, 2, -4, 24, -24], "withholdReward": false, "trial_id": "mdp_163600331068", "block": "test2", "trialIndex": 50, "score": 32.5, "costs": -2.5, "simulationMode": [null, null, null], "rewards": [2, 4, 24], "path": ["0", "0", "1", "2", "4"], "rt": [10186, 45, 85], "actions": ["up", "up", "left"], "actionTimes": [10929, 11479, 12068], "queries": {"click": {"state": {"target": ["11", "12", "4", "3", "7", "8", "2", "10", "6", "1"], "time": [1428, 2128, 2875, 3555, 4326, 4832, 7117, 7787, 8327, 9982]}, "edge": {"target": [], "time": []}}, "mouseover": {"state": {"target": ["11", "10", "12", "9", "4", "4", "3", "7", "6", "8", "0", "1", "2", "1", "9", "10", "9", "6", "5", "1"], "time": [1333, 1666, 1766, 2333, 2516, 2783, 3150, 4167, 4517, 4633, 6483, 6600, 7016, 7266, 7383, 7583, 7950, 8216, 8816, 9083]}, "edge": {"target": [], "time": []}}, "mouseout": {"state": {"target": ["11", "10", "12", "9", "4", "4", "3", "7", "6", "8", "0", "1", "2", "1", "9", "10", "9", "6", "8", "5", "1"], "time": [1617, 1716, 2299, 2383, 2566, 3033, 3782, 4467, 4583, 5116, 6516, 6733, 7250, 7299, 7483, 7916, 7983, 8482, 8733, 8933, 10149]}, "edge": {"target": [], "time": []}}}, "displayed_time": "12.58", "trialTime": 13303, "trial_type": "mouselab-mdp", "trial_index": 58, "time_elapsed": 748060, "internal_node_id": "0.0-4.0-3.0-18.0"}}, {"uniqueid": "w83432636:a22444840", "current_trial": 59, "dateTime": 1664555802215, "trialdata": {"revealed_states": [], "num_clicks_accrued": [0, 0, 0, 0, 0, 0, 0, 0, 0, 0, 0, 0, 0], "stateRewards": ["", -2, 8, -24, 48, -4, 4, -48, 24, 4, -8, 48, -24], "withholdReward": true, "trial_id": "mdp_425320427962", "block": "test2", "trialIndex": 51, "score": 57.25, "costs": -1.75, "simulationMode": [null, null, null], "rewards": [-2, 8, 48], "path": ["0", "0", "1", "2", "4"], "rt": [8778, 130, 57], "actions": ["up", "up", "left"], "actionTimes": [9652, 10291, 10851], "queries": {"click": {"state": {"target": ["4", "2", "1", "11", "10", "7", "8"], "time": [1393, 2107, 2615, 3188, 3933, 5367, 5739]}, "edge": {"target": [], "time": []}}, "mouseover": {"state": {"target": ["4", "2", "1", "1", "9", "11", "10", "12", "10", "9", "5", "7", "6", "7", "6", "8", "6", "6", "5", "0", "9", "0", "3"], "time": [1360, 2010, 2310, 2544, 2927, 3161, 3443, 3543, 3893, 4310, 4743, 5044, 5177, 5343, 5510, 5610, 6144, 6744, 7127, 7193, 7244, 7577, 7710]}, "edge": {"target": [], "time": []}}, "mouseout": {"state": {"target": ["4", "2", "1", "1", "9", "11", "10", "12", "10", "9", "5", "7", "6", "7", "6", "8", "6", "6", "5", "0", "9", "0", "3", "2", "1"], "time": [1660, 2261, 2360, 2777, 2994, 3410, 3510, 3843, 4094, 4527, 4828, 5093, 5277, 5476, 5560, 6077, 6343, 7110, 7160, 7227, 7543, 7610, 7777, 8026, 8460]}, "edge": {"target": [], "time": []}}}, "displayed_time": "11.36", "trialTime": 11888, "trial_type": "mouselab-mdp", "trial_index": 59, "time_elapsed": 760001, "internal_node_id": "0.0-4.0-3.0-19.0"}}, {"uniqueid": "w83432636:a22444840", "current_trial": 60, "dateTime": 1664555814010, "trialdata": {"revealed_states": [], "num_clicks_accrued": [0, 0, 0, 0, 0, 0, 0, 0, 0, 0, 0, 0, 0], "stateRewards": ["", 4, 4, -24, -48, 2, 4, 24, -48, 2, 4, 24, 24], "withholdReward": true, "trial_id": "mdp_223558518218", "block": "test2", "trialIndex": 52, "score": 32.5, "costs": -2.5, "simulationMode": [null, null, null], "rewards": [2, 4, 24], "path": ["0", "0", "9", "10", "11"], "rt": [8128, 58, 263], "actions": ["left", "left", "up"], "actionTimes": [9407, 9977, 10747], "queries": {"click": {"state": {"target": ["4", "3", "7", "8", "11", "12", "10", "6", "9", "5"], "time": [2025, 2882, 3368, 3800, 4605, 5055, 6114, 6739, 8069, 8468]}, "edge": {"target": [], "time": []}}, "mouseover": {"state": {"target": ["4", "3", "6", "7", "6", "8", "10", "11", "10", "12", "10", "9", "6", "0", "9", "0", "9", "0", "5"], "time": [1934, 2518, 3102, 3318, 3552, 3634, 4202, 4551, 4834, 4985, 5534, 6302, 6584, 7185, 7502, 7751, 8051, 8318, 8401]}, "edge": {"target": [], "time": []}}, "mouseout": {"state": {"target": ["2", "1", "0", "4", "3", "6", "7", "6", "8", "10", "11", "10", "12", "10", "9", "6", "0", "9", "0", "9", "0"], "time": [584, 835, 1401, 2185, 3018, 3268, 3535, 3601, 4118, 4235, 4785, 4901, 5418, 6285, 6318, 6885, 7285, 7718, 7918, 8268, 8367]}, "edge": {"target": [], "time": []}}}, "displayed_time": "11.25", "trialTime": 11741, "trial_type": "mouselab-mdp", "trial_index": 60, "time_elapsed": 771796, "internal_node_id": "0.0-4.0-3.0-20.0"}}, {"uniqueid": "w83432636:a22444840", "current_trial": 61, "dateTime": 1664555825070, "trialdata": {"revealed_states": [], "num_clicks_accrued": [0, 0, 0, 0, 0, 0, 0, 0, 0, 0, 0, 0, 0], "stateRewards": ["", -2, -4, -48, -48, 4, 8, 24, -48, 4, -8, 24, 24], "withholdReward": false, "trial_id": "mdp_749799219195", "block": "test2", "trialIndex": 53, "score": 38.75, "costs": -2.25, "simulationMode": [null, null, null], "rewards": [4, 8, 24], "path": ["0", "0", "5", "6", "7"], "rt": [7964, 15, 60], "actions": ["right", "right", "up"], "actionTimes": [8891, 9420, 9999], "queries": {"click": {"state": {"target": ["10", "11", "12", "4", "3", "7", "8", "6", "5"], "time": [3105, 3374, 3881, 4727, 4994, 5584, 6201, 7470, 8021]}, "edge": {"target": [], "time": []}}, "mouseover": {"state": {"target": ["11", "10", "10", "11", "11", "11", "10", "11", "12", "4", "4", "2", "3", "7", "6", "8", "6", "5", "6", "5"], "time": [1922, 2056, 2255, 2306, 2489, 2788, 3022, 3239, 3639, 4272, 4639, 4889, 4955, 5539, 5756, 5923, 6756, 7022, 7455, 7922]}, "edge": {"target": [], "time": []}}, "mouseout": {"state": {"target": ["5", "11", "10", "10", "11", "11", "11", "10", "11", "10", "12", "4", "4", "2", "3", "7", "6", "8", "6", "5", "6", "5", "6"], "time": [739, 2005, 2106, 2288, 2339, 2573, 2972, 3222, 3539, 3606, 4122, 4339, 4855, 4922, 5206, 5705, 5822, 6622, 6922, 7339, 7589, 8172, 8289]}, "edge": {"target": [], "time": []}}}, "displayed_time": "10.51", "trialTime": 11004, "trial_type": "mouselab-mdp", "trial_index": 61, "time_elapsed": 782856, "internal_node_id": "0.0-4.0-3.0-21.0"}}, {"uniqueid": "w83432636:a22444840", "current_trial": 62, "dateTime": 1664555834261, "trialdata": {"revealed_states": [], "num_clicks_accrued": [0, 0, 0, 0, 0, 0, 0, 0, 0, 0, 0, 0, 0], "stateRewards": ["", -4, -8, -48, -48, 4, -8, 48, 48, 2, 8, 48, 24], "withholdReward": true, "trial_id": "mdp_880437222492", "block": "test2", "trialIndex": 54, "score": 62.25, "costs": -0.75, "simulationMode": [null, null, null], "rewards": [2, 8, 48], "path": ["0", "0", "9", "10", "11"], "rt": [4468, 155, 178], "actions": ["left", "left", "up"], "actionTimes": [5260, 5919, 6609], "queries": {"click": {"state": {"target": ["11", "10", "9"], "time": [1988, 2686, 3058]}, "edge": {"target": [], "time": []}}, "mouseover": {"state": {"target": ["9", "11", "10", "12", "10", "9", "4"], "time": [1263, 1413, 2147, 2313, 2580, 2946, 3980]}, "edge": {"target": [], "time": []}}, "mouseout": {"state": {"target": ["6", "5", "9", "11", "10", "12", "10", "9", "9", "4"], "time": [530, 663, 1279, 2129, 2213, 2546, 2880, 3213, 3463, 4512]}, "edge": {"target": [], "time": []}}}, "displayed_time": "8.83", "trialTime": 9137, "trial_type": "mouselab-mdp", "trial_index": 62, "time_elapsed": 792047, "internal_node_id": "0.0-4.0-3.0-22.0"}}, {"uniqueid": "w83432636:a22444840", "current_trial": 63, "dateTime": 1664555843574, "trialdata": {"revealed_states": [], "num_clicks_accrued": [0, 0, 0, 0, 0, 0, 0, 0, 0, 0, 0, 0, 0], "stateRewards": ["", 2, -8, 24, 24, 2, 4, -48, -48, 4, 4, -24, 48], "withholdReward": false, "trial_id": "mdp_985707010949", "block": "test2", "trialIndex": 55, "score": 60, "costs": -1, "simulationMode": [null, null, null], "rewards": [4, 4, 48], "path": ["0", "0", "9", "10", "12"], "rt": [4151, 52, 168], "actions": ["left", "left", "down"], "actionTimes": [4867, 5428, 6108], "queries": {"click": {"state": {"target": ["11", "12", "10", "9"], "time": [1720, 2434, 3380, 3789]}, "edge": {"target": [], "time": []}}, "mouseover": {"state": {"target": ["11", "10", "12", "12", "4", "9", "10", "9"], "time": [1456, 1889, 1956, 2306, 3023, 3190, 3339, 3656]}, "edge": {"target": [], "time": []}}, "mouseout": {"state": {"target": ["11", "10", "12", "12", "4", "9", "10", "9", "9"], "time": [1873, 1922, 2040, 2607, 3056, 3273, 3589, 3973, 4190]}, "edge": {"target": [], "time": []}}}, "displayed_time": "8.75", "trialTime": 9259, "trial_type": "mouselab-mdp", "trial_index": 63, "time_elapsed": 801359, "internal_node_id": "0.0-4.0-3.0-23.0"}}, {"uniqueid": "w83432636:a22444840", "current_trial": 64, "dateTime": 1664555853596, "trialdata": {"revealed_states": [], "num_clicks_accrued": [0, 0, 0, 0, 0, 0, 0, 0, 0, 0, 0, 0, 0], "stateRewards": ["", 2, 8, 48, -48, -2, -4, -24, 24, 4, -4, 48, -48], "withholdReward": true, "trial_id": "mdp_105734044587", "block": "test2", "trialIndex": 56, "score": 61.25, "costs": -1.75, "simulationMode": [null, null, null], "rewards": [2, 8, 48], "path": ["0", "0", "1", "2", "3"], "rt": [4988, 135, 46], "actions": ["up", "up", "right"], "actionTimes": [5674, 6313, 6874], "queries": {"click": {"state": {"target": ["11", "10", "9", "4", "3", "2", "1"], "time": [1268, 1862, 2192, 3109, 3624, 4238, 4620]}, "edge": {"target": [], "time": []}}, "mouseover": {"state": {"target": ["11", "10", "12", "10", "9", "4", "2", "3", "5", "2", "1"], "time": [1260, 1478, 1544, 1811, 2128, 2810, 3344, 3527, 3878, 4195, 4411]}, "edge": {"target": [], "time": []}}, "mouseout": {"state": {"target": ["11", "10", "12", "10", "9", "4", "2", "3", "5", "2", "1"], "time": [1445, 1511, 1760, 2061, 2344, 3261, 3461, 3761, 3894, 4361, 4760]}, "edge": {"target": [], "time": []}}}, "displayed_time": "9.72", "trialTime": 9970, "trial_type": "mouselab-mdp", "trial_index": 64, "time_elapsed": 811382, "internal_node_id": "0.0-4.0-3.0-24.0"}}, {"uniqueid": "w83432636:a22444840", "current_trial": 65, "dateTime": 1664555863084, "trialdata": {"revealed_states": [], "num_clicks_accrued": [0, 0, 0, 0, 0, 0, 0, 0, 0, 0, 0, 0, 0], "stateRewards": ["", 2, 4, -48, -48, 4, 4, -48, -48, -2, -8, 48, -24], "withholdReward": false, "trial_id": "mdp_175327338412", "block": "test2", "trialIndex": 57, "score": 41.25, "costs": -1.75, "simulationMode": [null, null, null], "rewards": [-2, -8, 48], "path": ["0", "0", "9", "10", "11"], "rt": [5290, 41, 168], "actions": ["left", "left", "up"], "actionTimes": [6428, 6978, 7658], "queries": {"click": {"state": {"target": ["11", "10", "9", "4", "3", "7", "8"], "time": [1477, 2035, 2456, 2923, 3479, 4435, 4845]}, "edge": {"target": [], "time": []}}, "mouseover": {"state": {"target": ["11", "10", "12", "10", "9", "4", "2", "3", "5", "7", "6", "8"], "time": [1320, 1704, 1836, 1988, 2387, 2770, 3203, 3303, 3836, 4153, 4637, 4720]}, "edge": {"target": [], "time": []}}, "mouseout": {"state": {"target": ["0", "0", "0", "11", "10", "12", "10", "9", "4", "2", "3", "5", "7", "6", "8", "9"], "time": [536, 753, 1237, 1670, 1770, 1954, 2269, 2720, 3120, 3253, 3636, 3937, 4586, 4686, 5086, 5553]}, "edge": {"target": [], "time": []}}}, "displayed_time": "9.18", "trialTime": 9434, "trial_type": "mouselab-mdp", "trial_index": 65, "time_elapsed": 820870, "internal_node_id": "0.0-4.0-3.0-25.0"}}, {"uniqueid": "w83432636:a22444840", "current_trial": 66, "dateTime": 1664555873278, "trialdata": {"revealed_states": [], "num_clicks_accrued": [0, 0, 0, 0, 0, 0, 0, 0, 0, 0, 0, 0, 0], "stateRewards": ["", -2, -8, 24, -24, 4, -8, 48, 48, -4, -8, -24, -48], "withholdReward": false, "trial_id": "mdp_286767261523", "block": "test2", "trialIndex": 58, "score": 47, "costs": -2, "simulationMode": [null, null, null], "rewards": [4, -8, 48], "path": ["0", "0", "5", "6", "7"], "rt": [5430, 34, 65], "actions": ["right", "right", "up"], "actionTimes": [6278, 6820, 7399], "queries": {"click": {"state": {"target": ["11", "12", "4", "3", "7", "6", "5", "8"], "time": [1911, 2451, 2986, 3419, 3883, 4654, 5001, 5466]}, "edge": {"target": [], "time": []}}, "mouseover": {"state": {"target": ["11", "10", "12", "9", "4", "2", "3", "7", "6", "8", "6", "5", "8"], "time": [1635, 2184, 2284, 2700, 2884, 3251, 3367, 3751, 4100, 4217, 4567, 4950, 5351]}, "edge": {"target": [], "time": []}}, "mouseout": {"state": {"target": ["9", "0", "0", "11", "10", "12", "9", "4", "2", "3", "7", "6", "8", "6", "5", "8", "8", "8"], "time": [667, 751, 1184, 2151, 2234, 2651, 2750, 3200, 3317, 3684, 4051, 4151, 4501, 4867, 5184, 5667, 8700, 9233]}, "edge": {"target": [], "time": []}}}, "displayed_time": "9.88", "trialTime": 10141, "trial_type": "mouselab-mdp", "trial_index": 66, "time_elapsed": 831063, "internal_node_id": "0.0-4.0-3.0-26.0"}}, {"uniqueid": "w83432636:a22444840", "current_trial": 67, "dateTime": 1664555883385, "trialdata": {"revealed_states": [], "num_clicks_accrued": [0, 0, 0, 0, 0, 0, 0, 0, 0, 0, 0, 0, 0], "stateRewards": ["", -2, 8, 48, 24, 2, -4, 48, -48, 2, 8, 24, -24], "withholdReward": true, "trial_id": "mdp_176207245985", "block": "test2", "trialIndex": 59, "score": 57.5, "costs": -1.5, "simulationMode": [null, null, null], "rewards": [-2, 8, 48], "path": ["0", "0", "1", "2", "3"], "rt": [4859, 166, 142], "actions": ["up", "up", "right"], "actionTimes": [5579, 6259, 6919], "queries": {"click": {"state": {"target": ["11", "12", "4", "3", "2", "1"], "time": [1270, 1816, 2714, 3438, 4623, 4962]}, "edge": {"target": [], "time": []}}, "mouseover": {"state": {"target": ["11", "10", "12", "4", "4", "2", "3", "3", "7", "2", "1"], "time": [1226, 1493, 1576, 2293, 2560, 2926, 2992, 3376, 3726, 4292, 4843]}, "edge": {"target": [], "time": []}}, "mouseout": {"state": {"target": ["10", "9", "0", "11", "10", "12", "4", "4", "2", "3", "3", "7", "2", "1"], "time": [511, 577, 1010, 1459, 1526, 2026, 2343, 2876, 2959, 3042, 3642, 4076, 4776, 5093]}, "edge": {"target": [], "time": []}}}, "displayed_time": "9.76", "trialTime": 10040, "trial_type": "mouselab-mdp", "trial_index": 67, "time_elapsed": 841170, "internal_node_id": "0.0-4.0-3.0-27.0"}}, {"uniqueid": "w83432636:a22444840", "current_trial": 68, "dateTime": 1664555895081, "trialdata": {"revealed_states": [], "num_clicks_accrued": [0, 0, 0, 0, 0, 0, 0, 0, 0, 0, 0, 0, 0], "stateRewards": ["", 4, -8, 24, 48, 2, -4, 48, 48, 4, -8, 48, 48], "withholdReward": false, "trial_id": "mdp_962498334245", "block": "test2", "trialIndex": 60, "score": 48.75, "costs": -2.25, "simulationMode": [null, null, null], "rewards": [2, -4, 48], "path": ["0", "0", "5", "6", "7"], "rt": [8026, 766, 2], "actions": ["right", "right", "up"], "actionTimes": [8650, 9929, 10450], "queries": {"click": {"state": {"target": ["11", "10", "9", "4", "2", "1", "7", "6", "5"], "time": [1233, 1945, 2428, 4746, 5463, 5897, 6691, 7247, 7721]}, "edge": {"target": [], "time": []}}, "mouseover": {"state": {"target": ["11", "10", "12", "10", "9", "4", "2", "1", "3", "7", "6", "5"], "time": [1180, 1430, 1513, 1813, 2246, 4630, 5063, 5713, 6413, 6563, 6929, 7646]}, "edge": {"target": [], "time": []}}, "mouseout": {"state": {"target": ["1", "11", "10", "12", "10", "9", "4", "2", "1", "3", "7", "6", "5", "6"], "time": [464, 1414, 1480, 1763, 2163, 2580, 5030, 5647, 6063, 6496, 6863, 7447, 7829, 7913]}, "edge": {"target": [], "time": []}}}, "displayed_time": "10.98", "trialTime": 11640, "trial_type": "mouselab-mdp", "trial_index": 68, "time_elapsed": 852867, "internal_node_id": "0.0-4.0-3.0-28.0"}}, {"uniqueid": "w83432636:a22444840", "current_trial": 69, "dateTime": 1664555904505, "trialdata": {"revealed_states": [], "num_clicks_accrued": [0, 0, 0, 0, 0, 0, 0, 0, 0, 0, 0, 0, 0], "stateRewards": ["", -4, 8, 24, -24, -2, 4, -24, 48, -2, 8, -48, -24], "withholdReward": true, "trial_id": "mdp_799359103169", "block": "test2", "trialIndex": 61, "score": 53, "costs": -2, "simulationMode": [null, null, null], "rewards": [-2, 4, 48], "path": ["0", "0", "5", "6", "8"], "rt": [5079, 113, 197], "actions": ["right", "right", "down"], "actionTimes": [6116, 6735, 7435], "queries": {"click": {"state": {"target": ["11", "12", "4", "3", "7", "8", "6", "5"], "time": [1980, 2381, 2874, 3311, 3915, 4397, 5223, 5531]}, "edge": {"target": [], "time": []}}, "mouseover": {"state": {"target": ["11", "10", "12", "4", "2", "3", "7", "6", "8", "6", "5"], "time": [1766, 2171, 2254, 2721, 3138, 3221, 3821, 4122, 4304, 5171, 5504]}, "edge": {"target": [], "time": []}}, "mouseout": {"state": {"target": ["5", "0", "11", "10", "12", "4", "2", "3", "7", "6", "8", "8", "6"], "time": [879, 1272, 2137, 2221, 2604, 3038, 3188, 3588, 4088, 4205, 4637, 5121, 5454]}, "edge": {"target": [], "time": []}}}, "displayed_time": "9.07", "trialTime": 9372, "trial_type": "mouselab-mdp", "trial_index": 69, "time_elapsed": 862291, "internal_node_id": "0.0-4.0-3.0-29.0"}}, {"uniqueid": "w83432636:a22444840", "current_trial": 70, "dateTime": 1664555913685, "trialdata": {"rt": 9179, "stimulus": "<h1> End of block! </h1>\n\nYou have reached the end of the block 2/4. If you need a short break, feel free to take one now before moving on.\n\n<br><br>\nIn the next block, you will complete another 30 rounds of this game.\n\n<br><br>\n<div style='text-align: center;'>Press <code>space</code> to begin.</div>\n<br><br>\n<div style='text-align: center;'>(If the experiment doesn't continue, try clicking on the text and then pressing <code>space</code>.)</div>", "response": " ", "trial_id": "mdp_ready_3", "trial_type": "html-keyboard-response", "trial_index": 70, "time_elapsed": 871471, "internal_node_id": "0.0-4.0-4.0"}}, {"uniqueid": "w83432636:a22444840", "current_trial": 71, "dateTime": 1664555923579, "trialdata": {"revealed_states": [], "num_clicks_accrued": [0, 0, 0, 0, 0, 0, 0, 0, 0, 0, 0, 0, 0], "stateRewards": ["", 2, -4, 24, -24, 2, -8, 48, 48, 4, -4, 24, 48], "withholdReward": true, "trial_id": "mdp_947836623875", "block": "test3", "trialIndex": 62, "score": 52, "costs": -1, "simulationMode": [null, null, null], "rewards": [4, -4, 48], "path": ["0", "0", "9", "10", "12"], "rt": [5240, 156, 99], "actions": ["left", "left", "down"], "actionTimes": [6798, 7458, 8067], "queries": {"click": {"state": {"target": ["11", "12", "10", "9"], "time": [2148, 2796, 3476, 4716]}, "edge": {"target": [], "time": []}}, "mouseover": {"state": {"target": ["11", "10", "12", "10", "9", "9"], "time": [2100, 2583, 2650, 3450, 4002, 4600]}, "edge": {"target": [], "time": []}}, "mouseout": {"state": {"target": ["9", "0", "11", "10", "12", "10", "9", "9"], "time": [1250, 1801, 2551, 2617, 3084, 3750, 4267, 6083]}, "edge": {"target": [], "time": []}}}, "displayed_time": "9.59", "trialTime": 9843, "trial_type": "mouselab-mdp", "trial_index": 71, "time_elapsed": 881365, "internal_node_id": "0.0-4.0-5.0-0.0"}}, {"uniqueid": "w83432636:a22444840", "current_trial": 72, "dateTime": 1664555934127, "trialdata": {"revealed_states": [], "num_clicks_accrued": [0, 0, 0, 0, 0, 0, 0, 0, 0, 0, 0, 0, 0], "stateRewards": ["", -2, -8, 48, 24, -2, 8, -48, -24, -2, 4, -48, 48], "withholdReward": true, "trial_id": "mdp_295220852217", "block": "test3", "trialIndex": 63, "score": 54, "costs": -1, "simulationMode": [null, null, null], "rewards": [-2, 4, 48], "path": ["0", "0", "9", "10", "12"], "rt": [4122, 57, 40], "actions": ["left", "left", "down"], "actionTimes": [6470, 7030, 7580], "queries": {"click": {"state": {"target": ["11", "12", "10", "9"], "time": [3105, 3665, 4792, 5372]}, "edge": {"target": [], "time": []}}, "mouseover": {"state": {"target": ["9", "11", "10", "12", "10", "9"], "time": [2838, 3005, 3372, 3572, 4688, 5205]}, "edge": {"target": [], "time": []}}, "mouseout": {"state": {"target": ["9", "0", "9", "11", "10", "12", "10"], "time": [1672, 2771, 2938, 3338, 3455, 3922, 4955]}, "edge": {"target": [], "time": []}}}, "displayed_time": "10.39", "trialTime": 10496, "trial_type": "mouselab-mdp", "trial_index": 72, "time_elapsed": 891913, "internal_node_id": "0.0-4.0-5.0-1.0"}}, {"uniqueid": "w83432636:a22444840", "current_trial": 73, "dateTime": 1664555943867, "trialdata": {"revealed_states": [], "num_clicks_accrued": [0, 0, 0, 0, 0, 0, 0, 0, 0, 0, 0, 0, 0], "stateRewards": ["", -4, -8, -48, -48, 4, -8, 48, 48, 2, 8, 48, 24], "withholdReward": true, "trial_id": "mdp_880437222492", "block": "test3", "trialIndex": 64, "score": 62, "costs": -1, "simulationMode": [null, null, null], "rewards": [2, 8, 48], "path": ["0", "0", "9", "10", "11"], "rt": [4170, 18, 223], "actions": ["left", "left", "up"], "actionTimes": [5431, 5960, 6700], "queries": {"click": {"state": {"target": ["12", "11", "10", "9"], "time": [2883, 3471, 4321, 4595]}, "edge": {"target": [], "time": []}}, "mouseover": {"state": {"target": ["9", "12", "10", "11", "10", "9"], "time": [1708, 2342, 3058, 3108, 4191, 4524]}, "edge": {"target": [], "time": []}}, "mouseout": {"state": {"target": ["9", "0", "9", "12", "10", "11", "10"], "time": [1107, 1675, 1841, 3025, 3074, 3675, 4491]}, "edge": {"target": [], "time": []}}}, "displayed_time": "9.28", "trialTime": 9688, "trial_type": "mouselab-mdp", "trial_index": 73, "time_elapsed": 901653, "internal_node_id": "0.0-4.0-5.0-2.0"}}, {"uniqueid": "w83432636:a22444840", "current_trial": 74, "dateTime": 1664555955888, "trialdata": {"revealed_states": [], "num_clicks_accrued": [0, 0, 0, 0, 0, 0, 0, 0, 0, 0, 0, 0, 0], "stateRewards": ["", 2, 4, 48, 24, -2, -8, 24, 24, -2, 4, -48, 24], "withholdReward": false, "trial_id": "mdp_130849500124", "block": "test3", "trialIndex": 65, "score": 57.5, "costs": -1.5, "simulationMode": [null, null, null], "rewards": [2, 4, 48], "path": ["0", "0", "1", "2", "3"], "rt": [4706, 56, 159], "actions": ["up", "up", "right"], "actionTimes": [7337, 7906, 8577], "queries": {"click": {"state": {"target": ["11", "12", "4", "3", "2", "1"], "time": [3487, 4013, 4553, 5036, 5716, 6096]}, "edge": {"target": [], "time": []}}, "mouseover": {"state": {"target": ["9", "10", "11", "10", "12", "9", "4", "2", "3", "2", "1"], "time": [3167, 3334, 3400, 3800, 3851, 4233, 4467, 4851, 4934, 5700, 5984]}, "edge": {"target": [], "time": []}}, "mouseout": {"state": {"target": ["9", "9", "0", "9", "10", "11", "10", "12", "9", "4", 