{"condition": 1, "counterbalance": 0, "assignmentId": "a90954666", "workerId": "w69812618", "hitId": "h68400443", "currenttrial": 20, "bonus": 0, "data": [{"uniqueid": "w69812618:a90954666", "current_trial": 0, "dateTime": 1664368063041, "trialdata": {"success": true, "trial_type": "fullscreen", "trial_index": 0, "time_elapsed": 7751, "internal_node_id": "0.0-0.0"}}, {"uniqueid": "w69812618:a90954666", "current_trial": 1, "dateTime": 1664368084728, "trialdata": {"view_history": [{"page_index": 0, "viewing_time": 21680}], "rt": 21682, "trial_id": "exp_instructions_no_distractor", "trial_type": "instructions", "trial_index": 1, "time_elapsed": 29438, "internal_node_id": "0.0-1.0"}}, {"uniqueid": "w69812618:a90954666", "current_trial": 2, "dateTime": 1664368090047, "trialdata": {"success": true, "trial_type": "fullscreen", "trial_index": 2, "time_elapsed": 34757, "internal_node_id": "0.0-2.0-0.0"}}, {"uniqueid": "w69812618:a90954666", "current_trial": 3, "dateTime": 1664368214426, "trialdata": {"view_history": [{"page_index": 0, "viewing_time": 46027}, {"page_index": 1, "viewing_time": 39471}, {"page_index": 2, "viewing_time": 11360}, {"page_index": 3, "viewing_time": 6661}, {"page_index": 4, "viewing_time": 20855}], "rt": 124374, "trial_id": "mouselab_instructions_1", "trial_type": "instructions", "trial_index": 3, "time_elapsed": 159136, "internal_node_id": "0.0-2.0-1.0"}}, {"uniqueid": "w69812618:a90954666", "current_trial": 4, "dateTime": 1664368275314, "trialdata": {"revealed_states": [], "num_clicks_accrued": [0, 0, 0, 0, 0, 0, 0, 0, 0, 0, 0, 0, 0], "stateRewards": ["", -10, -10, -10, -10, -10, 10, -10, -10, 10, -10, -10, -10], "withholdReward": false, "trial_id": "practice_1", "block": "test", "trialIndex": 0, "score": -31, "costs": -3, "simulationMode": [null, null, null], "rewards": [-10, -10, -10], "path": ["0", "0", "1", "2", "3"], "rt": [46127, 1511, 1236], "actions": ["up", "up", "right"], "actionTimes": [48726, 50757, 52497], "queries": {"click": {"state": {"target": ["5", "1", "10", "9", "4", "2", "3", "6", "8", "7", "12", "11"], "time": [5395, 7458, 9464, 11140, 17972, 19154, 20367, 22496, 26743, 28106, 29743, 31027]}, "edge": {"target": [], "time": []}}, "mouseover": {"state": {"target": ["1", "5", "5", "1", "10", "9", "0", "12", "11", "4", "2", "4", "2", "3", "6", "6", "6", "0", "8", "8", "0", "0", "8", "7", "12", "12", "11", "0", "0", "0", "0"], "time": [3603, 4253, 4603, 6920, 8621, 10488, 13072, 14626, 15688, 15786, 16052, 16839, 18638, 19724, 21121, 21738, 22076, 23221, 23485, 23805, 24490, 24840, 25970, 27419, 28988, 29288, 30305, 31872, 34639, 37923, 39256]}, "edge": {"target": [], "time": []}}, "mouseout": {"state": {"target": ["0", "0", "1", "5", "5", "1", "10", "9", "0", "5", "5", "1", "10", "12", "10", "11", "4", "2", "4", "2", "3", "6", "6", "6", "5", "0", "5", "8", "8", "5", "0", "0", "8", "6", "7", "9", "12", "12", "10", "11", "9", "0", "0", "0", "5", "6", "8", "0", "1", "5", "5", "6", "8"], "time": [586, 3537, 4221, 4302, 6554, 8321, 10438, 13053, 13123, 13451, 13770, 14205, 14455, 15406, 15661, 15724, 15887, 16771, 18554, 19605, 20943, 21239, 21926, 22894, 22989, 23388, 23406, 23585, 24256, 24340, 24606, 25871, 27292, 27370, 28589, 28740, 29088, 30190, 30256, 31605, 31739, 33589, 37506, 38006, 38556, 38639, 38739, 39306, 41509, 41558, 42090, 43375, 44937]}, "edge": {"target": [], "time": []}}}, "displayed_time": "53.01", "trialTime": 59544, "trial_type": "mouselab-mdp", "trial_index": 4, "time_elapsed": 220022, "internal_node_id": "0.0-2.0-2.0-0.0"}}, {"uniqueid": "w69812618:a90954666", "current_trial": 5, "dateTime": 1664368297067, "trialdata": {"revealed_states": [], "num_clicks_accrued": [0, 0, 0, 0, 0, 0, 0, 0, 0, 0, 0, 0, 0], "stateRewards": ["", -10, -10, -10, 10, 10, 10, 10, -10, 10, -10, -10, 10], "withholdReward": false, "trial_id": "practice_2", "block": "test", "trialIndex": 1, "score": -8.25, "costs": -0.25, "simulationMode": [null, null, null], "rewards": [10, -10, -10], "path": ["0", "0", "9", "10", "11"], "rt": [8406, 1419, 583], "actions": ["left", "left", "up"], "actionTimes": [12272, 14193, 15292], "queries": {"click": {"state": {"target": ["1"], "time": [10398]}, "edge": {"target": [], "time": []}}, "mouseover": {"state": {"target": ["1"], "time": [9625]}, "edge": {"target": [], "time": []}}, "mouseout": {"state": {"target": ["0", "1", "0"], "time": [7726, 11125, 18775]}, "edge": {"target": [], "time": []}}}, "displayed_time": "15.79", "trialTime": 21683, "trial_type": "mouselab-mdp", "trial_index": 5, "time_elapsed": 241776, "internal_node_id": "0.0-2.0-2.0-1.0"}}, {"uniqueid": "w69812618:a90954666", "current_trial": 6, "dateTime": 1664368372545, "trialdata": {"view_history": [{"page_index": 0, "viewing_time": 45767}, {"page_index": 1, "viewing_time": 16817}, {"page_index": 2, "viewing_time": 12884}], "rt": 75468, "trial_id": "mouselab_instructions_2_scarce", "trial_type": "instructions", "trial_index": 6, "time_elapsed": 317254, "internal_node_id": "0.0-2.0-3.0"}}, {"uniqueid": "w69812618:a90954666", "current_trial": 7, "dateTime": 1664368411774, "trialdata": {"rt": 39220, "response": {"Q0": "$-48 to $48", "Q1": "The cost is always $0.25.", "Q2": "The better I perform the higher my bonus will be.", "Q3": "No, the structure of the web will be different each time.", "Q4": "The score for a round is random.", "Q5": "Yes."}, "question_order": [0, 1, 2, 3, 4, 5], "correct": {"Q0": "$-48 to $48", "Q1": "The cost is always $0.25.", "Q2": "The better I perform the higher my bonus will be.", "Q3": "No, the amount of cash at each node of the web may be different each time.", "Q4": "The values of the nodes walked through from start to finish.", "Q5": "No, the spider might forget to count the money on some rounds."}, "trial_id": "mouselab_quiz_scarce", "trial_type": "survey-multi-choice", "trial_index": 7, "time_elapsed": 356484, "internal_node_id": "0.0-2.0-4.0"}}, {"uniqueid": "w69812618:a90954666", "current_trial": 8, "dateTime": 1664368421418, "trialdata": {"success": true, "trial_type": "fullscreen", "trial_index": 8, "time_elapsed": 366128, "internal_node_id": "0.0-2.1-0.1"}}, {"uniqueid": "w69812618:a90954666", "current_trial": 9, "dateTime": 1664368465673, "trialdata": {"view_history": [{"page_index": 0, "viewing_time": 4689}, {"page_index": 1, "viewing_time": 3237}, {"page_index": 2, "viewing_time": 2407}, {"page_index": 1, "viewing_time": 8636}, {"page_index": 2, "viewing_time": 8549}, {"page_index": 3, "viewing_time": 4321}, {"page_index": 4, "viewing_time": 12412}], "rt": 44250, "trial_id": "mouselab_instructions_1", "trial_type": "instructions", "trial_index": 9, "time_elapsed": 410383, "internal_node_id": "0.0-2.1-1.1"}}, {"uniqueid": "w69812618:a90954666", "current_trial": 10, "dateTime": 1664368478466, "trialdata": {"revealed_states": [], "num_clicks_accrued": [0, 0, 0, 0, 0, 0, 0, 0, 0, 0, 0, 0, 0], "stateRewards": ["", -10, -10, -10, -10, -10, 10, -10, -10, 10, -10, -10, -10], "withholdReward": false, "trial_id": "practice_1", "block": "test", "trialIndex": 2, "score": -8.25, "costs": -0.25, "simulationMode": [null, null, null], "rewards": [-10, 10, -10], "path": ["0", "0", "5", "6", "7"], "rt": [4800, 451, 1804], "actions": ["right", "right", "up"], "actionTimes": [6519, 7490, 9810], "queries": {"click": {"state": {"target": ["5"], "time": [5037]}, "edge": {"target": [], "time": []}}, "mouseover": {"state": {"target": ["1", "5"], "time": [2589, 4409]}, "edge": {"target": [], "time": []}}, "mouseout": {"state": {"target": ["5", "0", "1"], "time": [1005, 2307, 4376]}, "edge": {"target": [], "time": []}}}, "displayed_time": "10.32", "trialTime": 12727, "trial_type": "mouselab-mdp", "trial_index": 10, "time_elapsed": 423176, "internal_node_id": "0.0-2.1-2.1-0.1"}}, {"uniqueid": "w69812618:a90954666", "current_trial": 11, "dateTime": 1664368490763, "trialdata": {"revealed_states": [], "num_clicks_accrued": [0, 0, 0, 0, 0, 0, 0, 0, 0, 0, 0, 0, 0], "stateRewards": ["", -10, -10, -10, 10, 10, 10, 10, -10, 10, -10, -10, 10], "withholdReward": false, "trial_id": "practice_2", "block": "test", "trialIndex": 3, "score": 12, "costs": 0, "simulationMode": [null, null, null], "rewards": [10, -10, 10], "path": ["0", "0", "9", "10", "12"], "rt": [3294, 845, 647], "actions": ["left", "left", "down"], "actionTimes": [6593, 7958, 9125], "queries": {"click": {"state": {"target": [], "time": []}, "edge": {"target": [], "time": []}}, "mouseover": {"state": {"target": [], "time": []}, "edge": {"target": [], "time": []}}, "mouseout": {"state": {"target": ["5"], "time": [2676]}, "edge": {"target": [], "time": []}}}, "displayed_time": "9.65", "trialTime": 12211, "trial_type": "mouselab-mdp", "trial_index": 11, "time_elapsed": 435472, "internal_node_id": "0.0-2.1-2.1-1.1"}}, {"uniqueid": "w69812618:a90954666", "current_trial": 12, "dateTime": 1664368505928, "trialdata": {"view_history": [{"page_index": 0, "viewing_time": 8329}, {"page_index": 1, "viewing_time": 4626}, {"page_index": 2, "viewing_time": 2204}], "rt": 15159, "trial_id": "mouselab_instructions_2_scarce", "trial_type": "instructions", "trial_index": 12, "time_elapsed": 450638, "internal_node_id": "0.0-2.1-3.1"}}, {"uniqueid": "w69812618:a90954666", "current_trial": 13, "dateTime": 1664368538889, "trialdata": {"rt": 32957, "response": {"Q0": "$-48 to $48", "Q1": "The cost is always $0.25.", "Q2": "The better I perform the higher my bonus will be.", "Q3": "No, the structure of the web will be different each time.", "Q4": "The score for a round is random.", "Q5": "No, the spider might forget to count the money on some rounds."}, "question_order": [0, 1, 2, 3, 4, 5], "correct": {"Q0": "$-48 to $48", "Q1": "The cost is always $0.25.", "Q2": "The better I perform the higher my bonus will be.", "Q3": "No, the amount of cash at each node of the web may be different each time.", "Q4": "The values of the nodes walked through from start to finish.", "Q5": "No, the spider might forget to count the money on some rounds."}, "trial_id": "mouselab_quiz_scarce", "trial_type": "survey-multi-choice", "trial_index": 13, "time_elapsed": 483598, "internal_node_id": "0.0-2.1-4.1"}}, {"uniqueid": "w69812618:a90954666", "current_trial": 14, "dateTime": 1664368551799, "trialdata": {"success": true, "trial_type": "fullscreen", "trial_index": 14, "time_elapsed": 496509, "internal_node_id": "0.0-2.2-0.2"}}, {"uniqueid": "w69812618:a90954666", "current_trial": 15, "dateTime": 1664368570196, "trialdata": {"view_history": [{"page_index": 0, "viewing_time": 6622}, {"page_index": 1, "viewing_time": 4089}, {"page_index": 2, "viewing_time": 3933}, {"page_index": 3, "viewing_time": 2480}, {"page_index": 4, "viewing_time": 1270}], "rt": 18395, "trial_id": "mouselab_instructions_1", "trial_type": "instructions", "trial_index": 15, "time_elapsed": 514905, "internal_node_id": "0.0-2.2-1.2"}}, {"uniqueid": "w69812618:a90954666", "current_trial": 16, "dateTime": 1664368582676, "trialdata": {"revealed_states": [], "num_clicks_accrued": [0, 0, 0, 0, 0, 0, 0, 0, 0, 0, 0, 0, 0], "stateRewards": ["", -10, -10, -10, -10, -10, 10, -10, -10, 10, -10, -10, -10], "withholdReward": false, "trial_id": "practice_1", "block": "test", "trialIndex": 4, "score": -8.5, "costs": -0.5, "simulationMode": [null, null, null], "rewards": [10, -10, -10], "path": ["0", "0", "9", "10", "12"], "rt": [3796, 671, 1179], "actions": ["left", "left", "down"], "actionTimes": [5584, 6773, 8447], "queries": {"click": {"state": {"target": ["9", "12"], "time": [2899, 4060]}, "edge": {"target": [], "time": []}}, "mouseover": {"state": {"target": ["9", "9", "12"], "time": [2234, 2531, 3333]}, "edge": {"target": [], "time": []}}, "mouseout": {"state": {"target": ["5", "0", "9", "9", "12", "12"], "time": [732, 2181, 2437, 3266, 11052, 11099]}, "edge": {"target": [], "time": []}}}, "displayed_time": "8.97", "trialTime": 12420, "trial_type": "mouselab-mdp", "trial_index": 16, "time_elapsed": 527386, "internal_node_id": "0.0-2.2-2.2-0.2"}}, {"uniqueid": "w69812618:a90954666", "current_trial": 17, "dateTime": 1664368592536, "trialdata": {"revealed_states": [], "num_clicks_accrued": [0, 0, 0, 0, 0, 0, 0, 0, 0, 0, 0, 0, 0], "stateRewards": ["", -10, -10, -10, 10, 10, 10, 10, -10, 10, -10, -10, 10], "withholdReward": false, "trial_id": "practice_2", "block": "test", "trialIndex": 5, "score": -8.25, "costs": -0.25, "simulationMode": [null, null, null], "rewards": [10, -10, -10], "path": ["0", "0", "9", "10", "11"], "rt": [2684, 662, 988], "actions": ["left", "left", "up"], "actionTimes": [4971, 6152, 7646], "queries": {"click": {"state": {"target": ["9"], "time": [3136]}, "edge": {"target": [], "time": []}}, "mouseover": {"state": {"target": ["9"], "time": [2820]}, "edge": {"target": [], "time": []}}, "mouseout": {"state": {"target": ["0", "9"], "time": [2705, 3722]}, "edge": {"target": [], "time": []}}}, "displayed_time": "8.15", "trialTime": 9769, "trial_type": "mouselab-mdp", "trial_index": 17, "time_elapsed": 537246, "internal_node_id": "0.0-2.2-2.2-1.2"}}, {"uniqueid": "w69812618:a90954666", "current_trial": 18, "dateTime": 1664368606957, "trialdata": {"view_history": [{"page_index": 0, "viewing_time": 8659}, {"page_index": 1, "viewing_time": 3803}, {"page_index": 2, "viewing_time": 1953}], "rt": 14415, "trial_id": "mouselab_instructions_2_scarce", "trial_type": "instructions", "trial_index": 18, "time_elapsed": 551667, "internal_node_id": "0.0-2.2-3.2"}}, {"uniqueid": "w69812618:a90954666", "current_trial": 19, "dateTime": 1664368643260, "trialdata": {"rt": 36300, "response": {"Q0": "$-48 to $48", "Q1": "The cost is always $0.25.", "Q2": "The better I perform the higher my bonus will be.", "Q3": "No, the structure of the web will be different each time.", "Q4": "The score for a round is random.", "Q5": "No, the spider might forget to count the money on some rounds."}, "question_order": [0, 1, 2, 3, 4, 5], "correct": {"Q0": "$-48 to $48", "Q1": "The cost is always $0.25.", "Q2": "The better I perform the higher my bonus will be.", "Q3": "No, the amount of cash at each node of the web may be different each time.", "Q4": "The values of the nodes walked through from start to finish.", "Q5": "No, the spider might forget to count the money on some rounds."}, "trial_id": "mouselab_quiz_scarce", "trial_type": "survey-multi-choice", "trial_index": 19, "time_elapsed": 587970, "internal_node_id": "0.0-2.2-4.2"}}], "questiondata": {"params": {"CODE": "C6DMOQA6", "MIN_TIME": 7, "inspectCost": 0.25, "startTime": "Wed Sep 28 2022 14:27:33 GMT+0200 (South Africa Standard Time)", "bonusRate": 0.002, "variance": "2_4_24", "branching": "312"}}, "eventdata": [{"eventtype": "initialized", "value": null, "timestamp": 1664368052840, "interval": 0}, {"eventtype": "window_resize", "value": [1024, 660], "timestamp": 1664368052840, "interval": 0}, {"eventtype": "window_resize", "value": [1024, 660], "timestamp": 1664368053460, "interval": 620}, {"eventtype": "window_resize", "value": [1366, 768], "timestamp": 1664368062255, "interval": 8795}, {"eventtype": "focus", "value": "off", "timestamp": 1664368418429, "interval": 356174}, {"eventtype": "focus", "value": "on", "timestamp": 1664368418430, "interval": 1}, {"eventtype": "window_resize", "value": [1024, 660], "timestamp": 1664368418646, "interval": 216}, {"eventtype": "window_resize", "value": [1366, 768], "timestamp": 1664368420639, "interval": 1993}, {"eventtype": "focus", "value": "off", "timestamp": 1664368548852, "interval": 128213}, {"eventtype": "focus", "value": "on", "timestamp": 1664368548853, "interval": 1}, {"eventtype": "window_resize", "value": [1024, 660], "timestamp": 1664368549069, "interval": 216}, {"eventtype": "window_resize", "value": [1366, 768], "timestamp": 1664368551021, "interval": 1952}, {"eventtype": "focus", "value": "off", "timestamp": 1664368646233, "interval": 95212}, {"eventtype": "focus", "value": "on", "timestamp": 1664368646233, "interval": 0}, {"eventtype": "window_resize", "value": [1024, 660], "timestamp": 1664368646450, "interval": 217}], "useragent": "Mozilla/5.0 (Windows NT 10.0; Win64; x64) AppleWebKit/537.36 (KHTML, like Gecko) Chrome/105.0.0.0 Safari/537.36", "mode": "live", "id": "w69812618:a90954666", "status": "user data saved", "Beginhit": "2022-09-28 12:27:28.75363", "Beginexp": "2022-09-28 12:27:42.97316", "Endhit": null, "psiturkStatus": 6, "browser": "<redacted>", "platform": "windows", "language": "en-ZA"}