{"condition": 1, "counterbalance": 0, "assignmentId": "a64562342", "workerId": "w96843049", "hitId": "h16884047", "currenttrial": 149, "bonus": 0, "data": [{"uniqueid": "w96843049:a64562342", "current_trial": 0, "dateTime": 1664555129794, "trialdata": {"success": true, "trial_type": "fullscreen", "trial_index": 0, "time_elapsed": 5579, "internal_node_id": "0.0-0.0"}}, {"uniqueid": "w96843049:a64562342", "current_trial": 1, "dateTime": 1664555141831, "trialdata": {"view_history": [{"page_index": 0, "viewing_time": 12033}], "rt": 12034, "trial_id": "exp_instructions_no_distractor", "trial_type": "instructions", "trial_index": 1, "time_elapsed": 17616, "internal_node_id": "0.0-1.0"}}, {"uniqueid": "w96843049:a64562342", "current_trial": 2, "dateTime": 1664555144812, "trialdata": {"success": true, "trial_type": "fullscreen", "trial_index": 2, "time_elapsed": 20597, "internal_node_id": "0.0-2.0-0.0"}}, {"uniqueid": "w96843049:a64562342", "current_trial": 3, "dateTime": 1664555213118, "trialdata": {"view_history": [{"page_index": 0, "viewing_time": 9558}, {"page_index": 1, "viewing_time": 2035}, {"page_index": 0, "viewing_time": 24907}, {"page_index": 1, "viewing_time": 20420}, {"page_index": 2, "viewing_time": 4437}, {"page_index": 3, "viewing_time": 2446}, {"page_index": 4, "viewing_time": 4500}], "rt": 68304, "trial_id": "mouselab_instructions_1", "trial_type": "instructions", "trial_index": 3, "time_elapsed": 88903, "internal_node_id": "0.0-2.0-1.0"}}, {"uniqueid": "w96843049:a64562342", "current_trial": 4, "dateTime": 1664555247549, "trialdata": {"revealed_states": [], "num_clicks_accrued": [0, 0, 0, 0, 0, 0, 0, 0, 0, 0, 0, 0, 0], "stateRewards": ["", 10, 10, 10, 10, 10, 10, -10, 10, 10, 10, 10, -10], "withholdReward": false, "trial_id": "practice_1", "block": "test", "trialIndex": 0, "score": 31.25, "costs": -0.75, "simulationMode": [null, null, null], "rewards": [10, 10, 10], "path": ["0", "0", "5", "6", "8"], "rt": [22727, 662, 3886], "actions": ["right", "right", "down"], "actionTimes": [24431, 25598, 29990], "queries": {"click": {"state": {"target": ["6", "1", "10"], "time": [10064, 17519, 20293]}, "edge": {"target": [], "time": []}}, "mouseover": {"state": {"target": ["0", "0", "5", "1", "2", "1", "5", "6", "8", "1", "9", "10", "9", "0", "5", "5"], "time": [2156, 4464, 4762, 5604, 6264, 6611, 7098, 7300, 10400, 14738, 19520, 19660, 22843, 22864, 22892, 23225]}, "edge": {"target": [], "time": []}}, "mouseout": {"state": {"target": ["0", "0", "0", "5", "1", "2", "1", "5", "6", "8", "1", "9", "10", "10", "9", "0", "5", "5", "7", "6", "8", "8", "6", "7", "7"], "time": [1196, 2177, 4637, 5416, 6216, 6556, 6855, 7147, 10379, 10421, 17741, 19583, 20480, 22836, 22857, 22878, 23142, 27243, 27584, 27626, 27674, 27834, 27862, 29885, 31873]}, "edge": {"target": [], "time": []}}}, "displayed_time": "30.50", "trialTime": 34326, "trial_type": "mouselab-mdp", "trial_index": 4, "time_elapsed": 123334, "internal_node_id": "0.0-2.0-2.0-0.0"}}, {"uniqueid": "w96843049:a64562342", "current_trial": 5, "dateTime": 1664555262276, "trialdata": {"revealed_states": [], "num_clicks_accrued": [0, 0, 0, 0, 0, 0, 0, 0, 0, 0, 0, 0, 0], "stateRewards": ["", 10, 10, -10, 10, 10, -10, -10, -10, 10, 10, 10, -10], "withholdReward": false, "trial_id": "practice_2", "block": "test", "trialIndex": 1, "score": 31.75, "costs": -0.25, "simulationMode": [null, null, null], "rewards": [10, 10, 10], "path": ["0", "0", "1", "2", "4"], "rt": [9685, 48, 83], "actions": ["up", "up", "left"], "actionTimes": [11090, 11642, 12226], "queries": {"click": {"state": {"target": ["2"], "time": [7106]}, "edge": {"target": [], "time": []}}, "mouseover": {"state": {"target": ["5", "3", "2", "1", "0"], "time": [5817, 5866, 6081, 7360, 7416]}, "edge": {"target": [], "time": []}}, "mouseout": {"state": {"target": ["7", "5", "0", "5", "3", "2", "1", "0"], "time": [847, 895, 1695, 5831, 5893, 7346, 7388, 7444]}, "edge": {"target": [], "time": []}}}, "displayed_time": "12.73", "trialTime": 14698, "trial_type": "mouselab-mdp", "trial_index": 5, "time_elapsed": 138061, "internal_node_id": "0.0-2.0-2.0-1.0"}}, {"uniqueid": "w96843049:a64562342", "current_trial": 6, "dateTime": 1664555302702, "trialdata": {"view_history": [{"page_index": 0, "viewing_time": 25007}, {"page_index": 1, "viewing_time": 7349}, {"page_index": 2, "viewing_time": 8069}], "rt": 40425, "trial_id": "mouselab_instructions_2_scarce", "trial_type": "instructions", "trial_index": 6, "time_elapsed": 178487, "internal_node_id": "0.0-2.0-3.0"}}, {"uniqueid": "w96843049:a64562342", "current_trial": 7, "dateTime": 1664555347637, "trialdata": {"rt": 44932, "response": {"Q0": "$-48 to $48", "Q1": "The cost is always $0.25.", "Q2": "The better I perform the higher my bonus will be.", "Q3": "Yes.", "Q4": "The values of the nodes walked through from start to finish.", "Q5": "No, the spider might forget to count the money on some rounds."}, "question_order": [0, 1, 2, 3, 4, 5], "correct": {"Q0": "$-48 to $48", "Q1": "The cost is always $0.25.", "Q2": "The better I perform the higher my bonus will be.", "Q3": "No, the amount of cash at each node of the web may be different each time.", "Q4": "The values of the nodes walked through from start to finish.", "Q5": "No, the spider might forget to count the money on some rounds."}, "trial_id": "mouselab_quiz_scarce", "trial_type": "survey-multi-choice", "trial_index": 7, "time_elapsed": 223422, "internal_node_id": "0.0-2.0-4.0"}}, {"uniqueid": "w96843049:a64562342", "current_trial": 8, "dateTime": 1664555353709, "trialdata": {"success": true, "trial_type": "fullscreen", "trial_index": 8, "time_elapsed": 229494, "internal_node_id": "0.0-2.1-0.1"}}, {"uniqueid": "w96843049:a64562342", "current_trial": 9, "dateTime": 1664555398720, "trialdata": {"view_history": [{"page_index": 0, "viewing_time": 1424}, {"page_index": 1, "viewing_time": 6886}, {"page_index": 2, "viewing_time": 4217}, {"page_index": 3, "viewing_time": 3291}, {"page_index": 2, "viewing_time": 2646}, {"page_index": 3, "viewing_time": 800}, {"page_index": 4, "viewing_time": 25747}], "rt": 45010, "trial_id": "mouselab_instructions_1", "trial_type": "instructions", "trial_index": 9, "time_elapsed": 274505, "internal_node_id": "0.0-2.1-1.1"}}, {"uniqueid": "w96843049:a64562342", "current_trial": 10, "dateTime": 1664555403812, "trialdata": {"revealed_states": [], "num_clicks_accrued": [0, 0, 0, 0, 0, 0, 0, 0, 0, 0, 0, 0, 0], "stateRewards": ["", 10, 10, 10, 10, 10, 10, -10, 10, 10, 10, 10, -10], "withholdReward": false, "trial_id": "practice_1", "block": "test", "trialIndex": 2, "score": 31.75, "costs": -0.25, "simulationMode": [null, null, null], "rewards": [10, 10, 10], "path": ["0", "0", "5", "6", "8"], "rt": [1506, 22, 14], "actions": ["right", "right", "down"], "actionTimes": [2578, 3106, 3626], "queries": {"click": {"state": {"target": ["6"], "time": [1554]}, "edge": {"target": [], "time": []}}, "mouseover": {"state": {"target": ["5", "6", "7"], "time": [1331, 1408, 1888]}, "edge": {"target": [], "time": []}}, "mouseout": {"state": {"target": ["1", "0", "0", "5", "6", "7", "6"], "time": [727, 789, 1304, 1366, 1860, 2312, 4050]}, "edge": {"target": [], "time": []}}}, "displayed_time": "4.13", "trialTime": 5066, "trial_type": "mouselab-mdp", "trial_index": 10, "time_elapsed": 279597, "internal_node_id": "0.0-2.1-2.1-0.1"}}, {"uniqueid": "w96843049:a64562342", "current_trial": 11, "dateTime": 1664555410260, "trialdata": {"revealed_states": [], "num_clicks_accrued": [0, 0, 0, 0, 0, 0, 0, 0, 0, 0, 0, 0, 0], "stateRewards": ["", 10, 10, -10, 10, 10, -10, -10, -10, 10, 10, 10, -10], "withholdReward": false, "trial_id": "practice_2", "block": "test", "trialIndex": 3, "score": 31.75, "costs": -0.25, "simulationMode": [null, null, null], "rewards": [10, 10, 10], "path": ["0", "0", "1", "2", "4"], "rt": [2301, 1, 814], "actions": ["up", "up", "left"], "actionTimes": [3247, 3751, 5071], "queries": {"click": {"state": {"target": ["2"], "time": [2973]}, "edge": {"target": [], "time": []}}, "mouseover": {"state": {"target": ["1", "2", "1", "10", "1", "2", "2", "1"], "time": [1400, 1768, 2157, 2491, 2727, 2748, 2866, 3123]}, "edge": {"target": [], "time": []}}, "mouseout": {"state": {"target": ["0", "1", "2", "1", "10", "1", "2", "2", "1", "0", "1", "0"], "time": [1163, 1733, 2123, 2213, 2665, 2734, 2755, 3103, 3137, 5278, 5702, 5939]}, "edge": {"target": [], "time": []}}}, "displayed_time": "5.58", "trialTime": 6431, "trial_type": "mouselab-mdp", "trial_index": 11, "time_elapsed": 286045, "internal_node_id": "0.0-2.1-2.1-1.1"}}, {"uniqueid": "w96843049:a64562342", "current_trial": 12, "dateTime": 1664555434357, "trialdata": {"view_history": [{"page_index": 0, "viewing_time": 21275}, {"page_index": 1, "viewing_time": 1744}, {"page_index": 2, "viewing_time": 1077}], "rt": 24096, "trial_id": "mouselab_instructions_2_scarce", "trial_type": "instructions", "trial_index": 12, "time_elapsed": 310142, "internal_node_id": "0.0-2.1-3.1"}}, {"uniqueid": "w96843049:a64562342", "current_trial": 13, "dateTime": 1664555486356, "trialdata": {"rt": 51995, "response": {"Q0": "$-10 to $10", "Q1": "The cost is always $0.25.", "Q2": "The better I perform the higher my bonus will be.", "Q3": "No, the amount of cash at each node of the web may be different each time.", "Q4": "The values of the nodes walked through from start to finish.", "Q5": "No, the spider might forget to count the money on some rounds."}, "question_order": [0, 1, 2, 3, 4, 5], "correct": {"Q0": "$-48 to $48", "Q1": "The cost is always $0.25.", "Q2": "The better I perform the higher my bonus will be.", "Q3": "No, the amount of cash at each node of the web may be different each time.", "Q4": "The values of the nodes walked through from start to finish.", "Q5": "No, the spider might forget to count the money on some rounds."}, "trial_id": "mouselab_quiz_scarce", "trial_type": "survey-multi-choice", "trial_index": 13, "time_elapsed": 362141, "internal_node_id": "0.0-2.1-4.1"}}, {"uniqueid": "w96843049:a64562342", "current_trial": 14, "dateTime": 1664555491215, "trialdata": {"success": true, "trial_type": "fullscreen", "trial_index": 14, "time_elapsed": 367000, "internal_node_id": "0.0-2.2-0.2"}}, {"uniqueid": "w96843049:a64562342", "current_trial": 15, "dateTime": 1664555525719, "trialdata": {"view_history": [{"page_index": 0, "viewing_time": 1630}, {"page_index": 1, "viewing_time": 1158}, {"page_index": 2, "viewing_time": 4349}, {"page_index": 1, "viewing_time": 7761}, {"page_index": 2, "viewing_time": 1012}, {"page_index": 3, "viewing_time": 2633}, {"page_index": 4, "viewing_time": 15959}], "rt": 34503, "trial_id": "mouselab_instructions_1", "trial_type": "instructions", "trial_index": 15, "time_elapsed": 401503, "internal_node_id": "0.0-2.2-1.2"}}, {"uniqueid": "w96843049:a64562342", "current_trial": 16, "dateTime": 1664555532588, "trialdata": {"revealed_states": [], "num_clicks_accrued": [0, 0, 0, 0, 0, 0, 0, 0, 0, 0, 0, 0, 0], "stateRewards": ["", 10, 10, 10, 10, 10, 10, -10, 10, 10, 10, 10, -10], "withholdReward": false, "trial_id": "practice_1", "block": "test", "trialIndex": 4, "score": 11.75, "costs": -0.25, "simulationMode": [null, null, null], "rewards": [10, 10, -10], "path": ["0", "0", "5", "6", "7"], "rt": [1717, 407, 520], "actions": ["right", "right", "up"], "actionTimes": [2498, 3410, 4434], "queries": {"click": {"state": {"target": ["6"], "time": [1319]}, "edge": {"target": [], "time": []}}, "mouseover": {"state": {"target": ["5", "6", "6", "7"], "time": [980, 1029, 1175, 1599]}, "edge": {"target": [], "time": []}}, "mouseout": {"state": {"target": ["5", "6", "6", "7", "6"], "time": [1015, 1057, 1557, 4734, 5235]}, "edge": {"target": [], "time": []}}}, "displayed_time": "4.94", "trialTime": 6842, "trial_type": "mouselab-mdp", "trial_index": 16, "time_elapsed": 408373, "internal_node_id": "0.0-2.2-2.2-0.2"}}, {"uniqueid": "w96843049:a64562342", "current_trial": 17, "dateTime": 1664555536492, "trialdata": {"revealed_states": [], "num_clicks_accrued": [0, 0, 0, 0, 0, 0, 0, 0, 0, 0, 0, 0, 0], "stateRewards": ["", 10, 10, -10, 10, 10, -10, -10, -10, 10, 10, 10, -10], "withholdReward": false, "trial_id": "practice_2", "block": "test", "trialIndex": 5, "score": 12, "costs": 0, "simulationMode": [null, null, null], "rewards": [10, 10, -10], "path": ["0", "0", "1", "2", "3"], "rt": [267, 103, 354], "actions": ["up", "up", "right"], "actionTimes": [889, 1497, 2353], "queries": {"click": {"state": {"target": [], "time": []}, "edge": {"target": [], "time": []}}, "mouseover": {"state": {"target": [], "time": []}, "edge": {"target": [], "time": []}}, "mouseout": {"state": {"target": ["0", "0"], "time": [990, 3187]}, "edge": {"target": [], "time": []}}}, "displayed_time": "2.86", "trialTime": 3881, "trial_type": "mouselab-mdp", "trial_index": 17, "time_elapsed": 412277, "internal_node_id": "0.0-2.2-2.2-1.2"}}, {"uniqueid": "w96843049:a64562342", "current_trial": 18, "dateTime": 1664555561510, "trialdata": {"view_history": [{"page_index": 0, "viewing_time": 11214}, {"page_index": 1, "viewing_time": 12685}, {"page_index": 2, "viewing_time": 1118}], "rt": 25017, "trial_id": "mouselab_instructions_2_scarce", "trial_type": "instructions", "trial_index": 18, "time_elapsed": 437295, "internal_node_id": "0.0-2.2-3.2"}}, {"uniqueid": "w96843049:a64562342", "current_trial": 19, "dateTime": 1664555578605, "trialdata": {"rt": 17093, "response": {"Q0": "$-48 to $48", "Q1": "The cost is always $0.25.", "Q2": "The better I perform the higher my bonus will be.", "Q3": "No, the amount of cash at each node of the web may be different each time.", "Q4": "The values of the nodes walked through from start to finish.", "Q5": "No, the spider might forget to count the money on some rounds."}, "question_order": [0, 1, 2, 3, 4, 5], "correct": {"Q0": "$-48 to $48", "Q1": "The cost is always $0.25.", "Q2": "The better I perform the higher my bonus will be.", "Q3": "No, the amount of cash at each node of the web may be different each time.", "Q4": "The values of the nodes walked through from start to finish.", "Q5": "No, the spider might forget to count the money on some rounds."}, "trial_id": "mouselab_quiz_scarce", "trial_type": "survey-multi-choice", "trial_index": 19, "time_elapsed": 454390, "internal_node_id": "0.0-2.2-4.2"}}, {"uniqueid": "w96843049:a64562342", "current_trial": 20, "dateTime": 1664555583157, "trialdata": {"rt": 4547, "stimulus": "\n<h1> Get ready to start the game! </h1>\n\nThank you for reading the instructions. Get ready start with the first of 4 block(s) of this game.\n<br><br>\nIn this first block, you will complete 30 rounds of this game before moving on.\n<br><br>\nRemember, the more money the spider gets, the bigger your bonus will be!\n<br><br>\n<div style='text-align: center;'>Press <code>space</code> to begin.</div>\n\n<br><br>\n(If, at any point, the <code>space</code> key does not take you to the next page, click once on the text and try again.)", "response": " ", "trial_id": "mdp_ready_1", "trial_type": "html-keyboard-response", "trial_index": 20, "time_elapsed": 458942, "internal_node_id": "0.0-4.0-0.0"}}, {"uniqueid": "w96843049:a64562342", "current_trial": 21, "dateTime": 1664555605837, "trialdata": {"revealed_states": [], "num_clicks_accrued": [0, 0, 0, 0, 0, 0, 0, 0, 0, 0, 0, 0, 0], "stateRewards": ["", -2, -8, 48, 24, 2, 8, -48, 24, -4, 8, 48, 48], "withholdReward": true, "trial_id": "mdp_875436109858", "block": "test1", "trialIndex": 6, "score": 56.5, "costs": -0.5, "simulationMode": [null, null, null], "rewards": [-4, 8, 48], "path": ["0", "0", "9", "10", "11"], "rt": [16331, 267, 648], "actions": ["left", "left", "up"], "actionTimes": [17540, 18315, 19467], "queries": {"click": {"state": {"target": ["10", "2"], "time": [6160, 14697]}, "edge": {"target": [], "time": []}}, "mouseover": {"state": {"target": ["9", "10", "12", "5", "5", "0", "1", "2", "1", "0", "9"], "time": [4791, 5117, 6445, 11492, 11722, 13779, 13821, 13904, 14940, 15010, 16643]}, "edge": {"target": [], "time": []}}, "mouseout": {"state": {"target": ["0", "9", "10", "12", "5", "5", "0", "1", "2", "1", "0", "9", "10"], "time": [1350, 4797, 6424, 6452, 11527, 11770, 13793, 13862, 14919, 14968, 15024, 19145, 21064]}, "edge": {"target": [], "time": []}}}, "displayed_time": "19.97", "trialTime": 22651, "trial_type": "mouselab-mdp", "trial_index": 21, "time_elapsed": 481622, "internal_node_id": "0.0-4.0-1.0-0.0"}}, {"uniqueid": "w96843049:a64562342", "current_trial": 22, "dateTime": 1664555621389, "trialdata": {"revealed_states": [], "num_clicks_accrued": [0, 0, 0, 0, 0, 0, 0, 0, 0, 0, 0, 0, 0], "stateRewards": ["", 4, -8, 24, 48, 2, -4, 48, 48, 4, -8, 48, 48], "withholdReward": true, "trial_id": "mdp_962498334245", "block": "test1", "trialIndex": 7, "score": 48.5, "costs": -0.5, "simulationMode": [null, null, null], "rewards": [4, -8, 48], "path": ["0", "0", "9", "10", "12"], "rt": [11267, 102, 185], "actions": ["left", "left", "down"], "actionTimes": [12218, 12826, 13514], "queries": {"click": {"state": {"target": ["6", "2"], "time": [4423, 7201]}, "edge": {"target": [], "time": []}}, "mouseover": {"state": {"target": ["0", "6", "5", "0", "9", "10", "10", "9", "5", "6", "6", "2", "1", "0", "10"], "time": [1150, 2714, 2992, 3020, 3040, 3061, 3200, 3249, 3311, 3339, 3583, 7086, 7385, 9137, 9978]}, "edge": {"target": [], "time": []}}, "mouseout": {"state": {"target": ["12", "9", "0", "6", "5", "0", "9", "10", "10", "9", "5", "6", "6", "6", "2", "1", "0", "10"], "time": [586, 691, 1157, 2978, 3013, 3034, 3054, 3089, 3235, 3277, 3325, 3367, 4744, 6843, 7350, 7392, 9179, 11612]}, "edge": {"target": [], "time": []}}}, "displayed_time": "14.02", "trialTime": 15522, "trial_type": "mouselab-mdp", "trial_index": 22, "time_elapsed": 497174, "internal_node_id": "0.0-4.0-1.0-1.0"}}, {"uniqueid": "w96843049:a64562342", "current_trial": 23, "dateTime": 1664555632804, "trialdata": {"revealed_states": [], "num_clicks_accrued": [0, 0, 0, 0, 0, 0, 0, 0, 0, 0, 0, 0, 0], "stateRewards": ["", 4, 8, -48, -48, 2, 4, -24, -48, 2, 8, 48, -48], "withholdReward": true, "trial_id": "mdp_902172716465", "block": "test1", "trialIndex": 8, "score": 62.75, "costs": -0.25, "simulationMode": [null, null, null], "rewards": [2, 8, 48], "path": ["0", "0", "9", "10", "11"], "rt": [2692, 77, 125], "actions": ["left", "left", "up"], "actionTimes": [3557, 4141, 4773], "queries": {"click": {"state": {"target": ["10"], "time": [1855]}, "edge": {"target": [], "time": []}}, "mouseover": {"state": {"target": ["10"], "time": [1672]}, "edge": {"target": [], "time": []}}, "mouseout": {"state": {"target": ["0", "10"], "time": [1040, 1985]}, "edge": {"target": [], "time": []}}}, "displayed_time": "9.87", "trialTime": 11389, "trial_type": "mouselab-mdp", "trial_index": 23, "time_elapsed": 508589, "internal_node_id": "0.0-4.0-1.0-2.0"}}, {"uniqueid": "w96843049:a64562342", "current_trial": 24, "dateTime": 1664555655565, "trialdata": {"revealed_states": [], "num_clicks_accrued": [0, 0, 0, 0, 0, 0, 0, 0, 0, 0, 0, 0, 0], "stateRewards": ["", 2, 4, -48, 48, -4, 8, -48, -24, -4, -4, 48, 48], "withholdReward": true, "trial_id": "mdp_613582696541", "block": "test1", "trialIndex": 9, "score": 57.25, "costs": -1.75, "simulationMode": [null, null, null], "rewards": [2, 4, 48], "path": ["0", "0", "1", "2", "4"], "rt": [19010, 32, 129], "actions": ["up", "up", "left"], "actionTimes": [19742, 20278, 20910], "queries": {"click": {"state": {"target": ["10", "6", "5", "1", "2", "7", "3"], "time": [3357, 4786, 6231, 10099, 11359, 13455, 17954]}, "edge": {"target": [], "time": []}}, "mouseover": {"state": {"target": ["10", "5", "6", "5", "0", "1", "0", "2", "2", "0", "7", "7", "3", "4"], "time": [3152, 4549, 4598, 5912, 8178, 8213, 10298, 11021, 11174, 11536, 12717, 12905, 17667, 18869]}, "edge": {"target": [], "time": []}}, "mouseout": {"state": {"target": ["0", "10", "5", "6", "5", "0", "1", "0", "2", "2", "1", "0", "5", "7", "7", "7", "3", "4"], "time": [921, 3569, 4556, 5022, 6413, 8185, 10284, 10312, 11077, 11494, 11522, 11543, 12690, 12759, 13621, 17590, 18146, 19738]}, "edge": {"target": [], "time": []}}}, "displayed_time": "21.41", "trialTime": 22734, "trial_type": "mouselab-mdp", "trial_index": 24, "time_elapsed": 531350, "internal_node_id": "0.0-4.0-1.0-3.0"}}, {"uniqueid": "w96843049:a64562342", "current_trial": 25, "dateTime": 1664555668836, "trialdata": {"revealed_states": [], "num_clicks_accrued": [0, 0, 0, 0, 0, 0, 0, 0, 0, 0, 0, 0, 0], "stateRewards": ["", 2, -8, -48, 24, 4, 8, 48, -48, 2, -4, 24, 24], "withholdReward": true, "trial_id": "mdp_130475327289", "block": "test1", "trialIndex": 10, "score": 26.25, "costs": -0.75, "simulationMode": [null, null, null], "rewards": [2, -4, 24], "path": ["0", "0", "9", "10", "11"], "rt": [6593, 578, 133], "actions": ["left", "left", "up"], "actionTimes": [9724, 10804, 11444], "queries": {"click": {"state": {"target": ["11", "9", "10"], "time": [5693, 7891, 9172]}, "edge": {"target": [], "time": []}}, "mouseover": {"state": {"target": ["0", "9", "11", "9", "10"], "time": [3726, 4164, 4449, 7737, 9058]}, "edge": {"target": [], "time": []}}, "mouseout": {"state": {"target": ["0", "0", "9", "11", "9", "10"], "time": [3532, 4109, 4324, 5951, 8085, 9392]}, "edge": {"target": [], "time": []}}}, "displayed_time": "12.13", "trialTime": 13244, "trial_type": "mouselab-mdp", "trial_index": 25, "time_elapsed": 544621, "internal_node_id": "0.0-4.0-1.0-4.0"}}, {"uniqueid": "w96843049:a64562342", "current_trial": 26, "dateTime": 1664555680540, "trialdata": {"revealed_states": [], "num_clicks_accrued": [0, 0, 0, 0, 0, 0, 0, 0, 0, 0, 0, 0, 0], "stateRewards": ["", 4, 8, 48, -48, -4, 8, -24, -24, -4, 8, 48, 48], "withholdReward": false, "trial_id": "mdp_377640328420", "block": "test1", "trialIndex": 11, "score": 64.5, "costs": -0.5, "simulationMode": [null, null, null], "rewards": [4, 8, 48], "path": ["0", "0", "1", "2", "3"], "rt": [5780, 149, 111], "actions": ["up", "up", "right"], "actionTimes": [7022, 7678, 8294], "queries": {"click": {"state": {"target": ["3", "2"], "time": [2205, 6491]}, "edge": {"target": [], "time": []}}, "mouseover": {"state": {"target": ["0", "3", "1", "1", "2", "1"], "time": [1731, 1905, 2406, 3080, 3421, 6709]}, "edge": {"target": [], "time": []}}, "mouseout": {"state": {"target": ["0", "0", "3", "1", "1", "2", "1"], "time": [1453, 1787, 2371, 2440, 3358, 6681, 6730]}, "edge": {"target": [], "time": []}}}, "displayed_time": "9.24", "trialTime": 11678, "trial_type": "mouselab-mdp", "trial_index": 26, "time_elapsed": 556325, "internal_node_id": "0.0-4.0-1.0-5.0"}}, {"uniqueid": "w96843049:a64562342", "current_trial": 27, "dateTime": 1664555691453, "trialdata": {"revealed_states": [], "num_clicks_accrued": [0, 0, 0, 0, 0, 0, 0, 0, 0, 0, 0, 0, 0], "stateRewards": ["", -2, 8, 48, 24, 2, -4, 48, -48, 2, 8, 24, -24], "withholdReward": true, "trial_id": "mdp_176207245985", "block": "test1", "trialIndex": 12, "score": 58.5, "costs": -0.5, "simulationMode": [null, null, null], "rewards": [-2, 8, 48], "path": ["0", "0", "1", "2", "3"], "rt": [4166, 71, 62], "actions": ["up", "up", "right"], "actionTimes": [6046, 6622, 7190], "queries": {"click": {"state": {"target": ["8", "3"], "time": [3205, 4830]}, "edge": {"target": [], "time": []}}, "mouseover": {"state": {"target": ["5", "8", "5", "3", "3"], "time": [2985, 3096, 4174, 4424, 4758]}, "edge": {"target": [], "time": []}}, "mouseout": {"state": {"target": ["5", "5", "8", "5", "3", "3"], "time": [1623, 2999, 3444, 4202, 4431, 5008]}, "edge": {"target": [], "time": []}}}, "displayed_time": "9.88", "trialTime": 10886, "trial_type": "mouselab-mdp", "trial_index": 27, "time_elapsed": 567237, "internal_node_id": "0.0-4.0-1.0-6.0"}}, {"uniqueid": "w96843049:a64562342", "current_trial": 28, "dateTime": 1664555701573, "trialdata": {"revealed_states": [], "num_clicks_accrued": [0, 0, 0, 0, 0, 0, 0, 0, 0, 0, 0, 0, 0], "stateRewards": ["", -4, 8, 48, -48, 2, -4, 24, -24, -2, 4, -24, -24], "withholdReward": true, "trial_id": "mdp_804988042722", "block": "test1", "trialIndex": 13, "score": 26.25, "costs": -0.75, "simulationMode": [null, null, null], "rewards": [2, -4, 24], "path": ["0", "0", "5", "6", "7"], "rt": [6227, 70, 93], "actions": ["right", "right", "up"], "actionTimes": [6902, 7478, 8078], "queries": {"click": {"state": {"target": ["12", "4", "7"], "time": [1358, 2727, 5222]}, "edge": {"target": [], "time": []}}, "mouseover": {"state": {"target": ["9", "10", "12", "4", "5", "6", "3", "7", "6", "6"], "time": [1006, 1138, 1256, 2653, 3765, 4030, 4329, 5051, 5858, 6185]}, "edge": {"target": [], "time": []}}, "mouseout": {"state": {"target": ["1", "0", "9", "10", "12", "12", "4", "5", "6", "3", "7", "6", "6", "7", "8"], "time": [505, 978, 1054, 1180, 1499, 2347, 2848, 3774, 4106, 4655, 5476, 6046, 6331, 6657, 9069]}, "edge": {"target": [], "time": []}}}, "displayed_time": "8.68", "trialTime": 10094, "trial_type": "mouselab-mdp", "trial_index": 28, "time_elapsed": 577358, "internal_node_id": "0.0-4.0-1.0-7.0"}}, {"uniqueid": "w96843049:a64562342", "current_trial": 29, "dateTime": 1664555714197, "trialdata": {"revealed_states": [], "num_clicks_accrued": [0, 0, 0, 0, 0, 0, 0, 0, 0, 0, 0, 0, 0], "stateRewards": ["", 2, -4, 48, -48, -2, 8, -48, 24, -2, -8, 48, 48], "withholdReward": true, "trial_id": "mdp_949326095747", "block": "test1", "trialIndex": 14, "score": 42.75, "costs": -0.25, "simulationMode": [null, null, null], "rewards": [-2, -8, 48], "path": ["0", "0", "9", "10", "11"], "rt": [2214, 77, 93], "actions": ["left", "left", "up"], "actionTimes": [3243, 3827, 4427], "queries": {"click": {"state": {"target": ["11"], "time": [2352]}, "edge": {"target": [], "time": []}}, "mouseover": {"state": {"target": ["9", "11", "10"], "time": [1922, 2234, 2554]}, "edge": {"target": [], "time": []}}, "mouseout": {"state": {"target": ["0", "9", "11", "10"], "time": [1234, 1970, 2513, 2582]}, "edge": {"target": [], "time": []}}}, "displayed_time": "9.03", "trialTime": 12595, "trial_type": "mouselab-mdp", "trial_index": 29, "time_elapsed": 589982, "internal_node_id": "0.0-4.0-1.0-8.0"}}, {"uniqueid": "w96843049:a64562342", "current_trial": 30, "dateTime": 1664555730204, "trialdata": {"revealed_states": [], "num_clicks_accrued": [0, 0, 0, 0, 0, 0, 0, 0, 0, 0, 0, 0, 0], "stateRewards": ["", 2, -4, -48, 24, -4, 4, 24, 24, 2, -8, -24, -48], "withholdReward": true, "trial_id": "mdp_807654778305", "block": "test1", "trialIndex": 15, "score": 28.25, "costs": -0.75, "simulationMode": [null, null, null], "rewards": [-4, 4, 24], "path": ["0", "0", "5", "6", "8"], "rt": [4690, 37, 191], "actions": ["right", "right", "down"], "actionTimes": [10510, 11054, 11750], "queries": {"click": {"state": {"target": ["11", "3", "8"], "time": [6958, 8060, 9016]}, "edge": {"target": [], "time": []}}, "mouseover": {"state": {"target": ["9", "11", "10", "9", "3", "5", "8", "5"], "time": [6074, 6659, 7124, 7569, 7945, 8598, 8876, 9780]}, "edge": {"target": [], "time": []}}, "mouseout": {"state": {"target": ["12", "12", "0", "9", "11", "10", "9", "3", "5", "8", "5"], "time": [4469, 5400, 6005, 6116, 7096, 7166, 7597, 8195, 8640, 9126, 9926]}, "edge": {"target": [], "time": []}}}, "displayed_time": "14.82", "trialTime": 15982, "trial_type": "mouselab-mdp", "trial_index": 30, "time_elapsed": 605989, "internal_node_id": "0.0-4.0-1.0-9.0"}}, {"uniqueid": "w96843049:a64562342", "current_trial": 31, "dateTime": 1664555741812, "trialdata": {"revealed_states": [], "num_clicks_accrued": [0, 0, 0, 0, 0, 0, 0, 0, 0, 0, 0, 0, 0], "stateRewards": ["", 2, 4, 48, 48, 4, -8, 24, -48, -4, -8, -24, -48], "withholdReward": true, "trial_id": "mdp_343818007251", "block": "test1", "trialIndex": 16, "score": 58.75, "costs": -0.25, "simulationMode": [null, null, null], "rewards": [2, 4, 48], "path": ["0", "0", "1", "2", "3"], "rt": [1214, 106, 135], "actions": ["up", "up", "right"], "actionTimes": [4303, 4911, 5551], "queries": {"click": {"state": {"target": ["3"], "time": [3740]}, "edge": {"target": [], "time": []}}, "mouseover": {"state": {"target": ["1", "2", "3", "1"], "time": [3442, 3533, 3630, 3901]}, "edge": {"target": [], "time": []}}, "mouseout": {"state": {"target": ["6", "5", "0", "0", "1", "2", "3", "1"], "time": [2761, 2802, 2935, 3387, 3484, 3539, 3873, 3950]}, "edge": {"target": [], "time": []}}}, "displayed_time": "11.09", "trialTime": 11583, "trial_type": "mouselab-mdp", "trial_index": 31, "time_elapsed": 617597, "internal_node_id": "0.0-4.0-1.0-10.0"}}, {"uniqueid": "w96843049:a64562342", "current_trial": 32, "dateTime": 1664555751869, "trialdata": {"revealed_states": [], "num_clicks_accrued": [0, 0, 0, 0, 0, 0, 0, 0, 0, 0, 0, 0, 0], "stateRewards": ["", -2, 8, 48, -48, 4, -8, 24, 24, 4, 4, -48, -24], "withholdReward": false, "trial_id": "mdp_746937869927", "block": "test1", "trialIndex": 17, "score": 24.5, "costs": -0.5, "simulationMode": [null, null, null], "rewards": [4, -8, 24], "path": ["0", "0", "5", "6", "8"], "rt": [2336, 502, 198], "actions": ["right", "right", "down"], "actionTimes": [2951, 3959, 4663], "queries": {"click": {"state": {"target": ["4", "8"], "time": [1246, 2437]}, "edge": {"target": [], "time": []}}, "mouseover": {"state": {"target": ["0", "5", "2", "4", "0", "5", "8"], "time": [815, 947, 1121, 1218, 2094, 2129, 2372]}, "edge": {"target": [], "time": []}}, "mouseout": {"state": {"target": ["1", "0", "5", "2", "4", "0", "5", "8", "8", "6", "7", "6", "8"], "time": [349, 891, 1024, 1142, 1385, 2101, 2143, 2609, 6328, 6613, 8406, 8455, 8510]}, "edge": {"target": [], "time": []}}}, "displayed_time": "7.62", "trialTime": 10031, "trial_type": "mouselab-mdp", "trial_index": 32, "time_elapsed": 627654, "internal_node_id": "0.0-4.0-1.0-11.0"}}, {"uniqueid": "w96843049:a64562342", "current_trial": 33, "dateTime": 1664555763020, "trialdata": {"revealed_states": [], "num_clicks_accrued": [0, 0, 0, 0, 0, 0, 0, 0, 0, 0, 0, 0, 0], "stateRewards": ["", -4, -8, 48, -48, 2, -4, 48, -24, 2, -8, -48, -48], "withholdReward": false, "trial_id": "mdp_624553692913", "block": "test1", "trialIndex": 18, "score": 40.25, "costs": -0.75, "simulationMode": [null, null, null], "rewards": [-4, -8, 48], "path": ["0", "0", "1", "2", "3"], "rt": [3269, 357, 143], "actions": ["up", "up", "right"], "actionTimes": [4019, 4883, 5531], "queries": {"click": {"state": {"target": ["11", "8", "3"], "time": [1424, 2442, 3413]}, "edge": {"target": [], "time": []}}, "mouseover": {"state": {"target": ["0", "9", "11", "9", "8", "8", "3", "3", "0"], "time": [960, 1134, 1328, 1669, 2128, 2392, 3184, 3303, 3740]}, "edge": {"target": [], "time": []}}, "mouseout": {"state": {"target": ["7", "0", "9", "11", "9", "8", "8", "8", "3", "3", "0"], "time": [348, 1099, 1168, 1578, 1690, 2183, 2621, 3087, 3226, 3602, 10073]}, "edge": {"target": [], "time": []}}}, "displayed_time": "8.75", "trialTime": 11123, "trial_type": "mouselab-mdp", "trial_index": 33, "time_elapsed": 638805, "internal_node_id": "0.0-4.0-1.0-12.0"}}, {"uniqueid": "w96843049:a64562342", "current_trial": 34, "dateTime": 1664555774860, "trialdata": {"revealed_states": [], "num_clicks_accrued": [0, 0, 0, 0, 0, 0, 0, 0, 0, 0, 0, 0, 0], "stateRewards": ["", 2, 8, 48, 24, 2, 8, 48, 48, -2, -4, -24, -48], "withholdReward": false, "trial_id": "mdp_717636349175", "block": "test1", "trialIndex": 19, "score": 62.75, "costs": -0.25, "simulationMode": [null, null, null], "rewards": [2, 8, 48], "path": ["0", "0", "5", "6", "8"], "rt": [1313, 82, 234], "actions": ["right", "right", "down"], "actionTimes": [1921, 2505, 3241], "queries": {"click": {"state": {"target": ["8"], "time": [1420]}, "edge": {"target": [], "time": []}}, "mouseover": {"state": {"target": ["0", "8"], "time": [991, 1311]}, "edge": {"target": [], "time": []}}, "mouseout": {"state": {"target": ["0", "0", "8"], "time": [302, 1117, 1582]}, "edge": {"target": [], "time": []}}}, "displayed_time": "9.61", "trialTime": 11809, "trial_type": "mouselab-mdp", "trial_index": 34, "time_elapsed": 650645, "internal_node_id": "0.0-4.0-1.0-13.0"}}, {"uniqueid": "w96843049:a64562342", "current_trial": 35, "dateTime": 1664555784476, "trialdata": {"revealed_states": [], "num_clicks_accrued": [0, 0, 0, 0, 0, 0, 0, 0, 0, 0, 0, 0, 0], "stateRewards": ["", -4, 4, 24, 24, -2, 8, 24, -48, 4, -8, -24, -48], "withholdReward": true, "trial_id": "mdp_651542905861", "block": "test1", "trialIndex": 20, "score": 28.75, "costs": -0.25, "simulationMode": [null, null, null], "rewards": [-4, 4, 24], "path": ["0", "0", "1", "2", "3"], "rt": [1390, 453, 118], "actions": ["up", "up", "right"], "actionTimes": [2196, 3156, 3780], "queries": {"click": {"state": {"target": ["3"], "time": [1126]}, "edge": {"target": [], "time": []}}, "mouseover": {"state": {"target": ["3"], "time": [1006]}, "edge": {"target": [], "time": []}}, "mouseout": {"state": {"target": ["5", "0", "0", "3"], "time": [213, 450, 895, 1292]}, "edge": {"target": [], "time": []}}}, "displayed_time": "8.81", "trialTime": 9588, "trial_type": "mouselab-mdp", "trial_index": 35, "time_elapsed": 660261, "internal_node_id": "0.0-4.0-1.0-14.0"}}, {"uniqueid": "w96843049:a64562342", "current_trial": 36, "dateTime": 1664555793876, "trialdata": {"revealed_states": [], "num_clicks_accrued": [0, 0, 0, 0, 0, 0, 0, 0, 0, 0, 0, 0, 0], "stateRewards": ["", 2, -4, 24, 24, 4, -4, -24, 24, -4, -4, 48, 48], "withholdReward": true, "trial_id": "mdp_566306223773", "block": "test1", "trialIndex": 21, "score": 28.75, "costs": -0.25, "simulationMode": [null, null, null], "rewards": [4, -4, 24], "path": ["0", "0", "5", "6", "8"], "rt": [1258, 53, 98], "actions": ["right", "right", "down"], "actionTimes": [2077, 2637, 3237], "queries": {"click": {"state": {"target": ["8"], "time": [1523]}, "edge": {"target": [], "time": []}}, "mouseover": {"state": {"target": ["8"], "time": [1276]}, "edge": {"target": [], "time": []}}, "mouseout": {"state": {"target": ["0", "8", "5"], "time": [991, 1637, 8207]}, "edge": {"target": [], "time": []}}}, "displayed_time": "8.82", "trialTime": 9373, "trial_type": "mouselab-mdp", "trial_index": 36, "time_elapsed": 669661, "internal_node_id": "0.0-4.0-1.0-15.0"}}, {"uniqueid": "w96843049:a64562342", "current_trial": 37, "dateTime": 1664555806428, "trialdata": {"revealed_states": [], "num_clicks_accrued": [0, 0, 0, 0, 0, 0, 0, 0, 0, 0, 0, 0, 0], "stateRewards": ["", 4, 8, 48, 48, 4, 4, -24, -48, 4, 8, -48, -48], "withholdReward": false, "trial_id": "mdp_984548726931", "block": "test1", "trialIndex": 22, "score": 64.75, "costs": -0.25, "simulationMode": [null, null, null], "rewards": [4, 8, 48], "path": ["0", "0", "1", "2", "3"], "rt": [1779, 408, 314], "actions": ["up", "up", "right"], "actionTimes": [2349, 3260, 4076], "queries": {"click": {"state": {"target": ["3"], "time": [1068]}, "edge": {"target": [], "time": []}}, "mouseover": {"state": {"target": ["3", "2", "2", "2"], "time": [1023, 1586, 1711, 1857]}, "edge": {"target": [], "time": []}}, "mouseout": {"state": {"target": ["0", "3", "2", "2", "2", "2"], "time": [808, 1190, 1649, 1767, 2386, 4422]}, "edge": {"target": [], "time": []}}}, "displayed_time": "10.57", "trialTime": 12524, "trial_type": "mouselab-mdp", "trial_index": 37, "time_elapsed": 682213, "internal_node_id": "0.0-4.0-1.0-16.0"}}, {"uniqueid": "w96843049:a64562342", "current_trial": 38, "dateTime": 1664555817052, "trialdata": {"revealed_states": [], "num_clicks_accrued": [0, 0, 0, 0, 0, 0, 0, 0, 0, 0, 0, 0, 0], "stateRewards": ["", 2, 4, 48, -48, 2, 8, -24, 48, 4, 8, 48, -48], "withholdReward": true, "trial_id": "mdp_110142964375", "block": "test1", "trialIndex": 23, "score": 64.75, "costs": -0.25, "simulationMode": [null, null, null], "rewards": [4, 8, 48], "path": ["0", "0", "9", "10", "11"], "rt": [920, 66, 143], "actions": ["left", "left", "up"], "actionTimes": [1901, 2469, 3117], "queries": {"click": {"state": {"target": ["11"], "time": [1506]}, "edge": {"target": [], "time": []}}, "mouseover": {"state": {"target": ["9", "11", "11", "10"], "time": [1096, 1151, 1443, 1721]}, "edge": {"target": [], "time": []}}, "mouseout": {"state": {"target": ["4", "11", "9", "9", "11", "11", "10"], "time": [129, 407, 873, 1103, 1242, 1666, 2827]}, "edge": {"target": [], "time": []}}}, "displayed_time": "8.98", "trialTime": 10597, "trial_type": "mouselab-mdp", "trial_index": 38, "time_elapsed": 692837, "internal_node_id": "0.0-4.0-1.0-17.0"}}, {"uniqueid": "w96843049:a64562342", "current_trial": 39, "dateTime": 1664555827829, "trialdata": {"revealed_states": [], "num_clicks_accrued": [0, 0, 0, 0, 0, 0, 0, 0, 0, 0, 0, 0, 0], "stateRewards": ["", 2, -8, -24, 48, 4, -8, -24, -24, 2, 8, -24, 24], "withholdReward": false, "trial_id": "mdp_480787552818", "block": "test1", "trialIndex": 24, "score": 45.75, "costs": -1.25, "simulationMode": [null, null, null], "rewards": [2, -8, 48], "path": ["0", "0", "1", "2", "4"], "rt": [4046, 63, 166], "actions": ["up", "up", "left"], "actionTimes": [4833, 5401, 6073], "queries": {"click": {"state": {"target": ["3", "7", "8", "11", "4"], "time": [1112, 1698, 2437, 3630, 4498]}, "edge": {"target": [], "time": []}}, "mouseover": {"state": {"target": ["1", "3", "6", "7", "6", "8", "10", "11", "10", "4"], "time": [929, 1020, 1597, 1646, 1847, 2362, 3140, 3363, 3946, 4350]}, "edge": {"target": [], "time": []}}, "mouseout": {"state": {"target": ["0", "0", "1", "3", "6", "7", "6", "8", "10", "11", "10", "4", "12"], "time": [95, 318, 943, 1277, 1618, 1819, 1854, 2440, 3168, 3800, 4113, 4593, 8507]}, "edge": {"target": [], "time": []}}}, "displayed_time": "8.79", "trialTime": 10745, "trial_type": "mouselab-mdp", "trial_index": 39, "time_elapsed": 703614, "internal_node_id": "0.0-4.0-1.0-18.0"}}, {"uniqueid": "w96843049:a64562342", "current_trial": 40, "dateTime": 1664555838477, "trialdata": {"revealed_states": [], "num_clicks_accrued": [0, 0, 0, 0, 0, 0, 0, 0, 0, 0, 0, 0, 0], "stateRewards": ["", -2, -4, -24, -48, -4, -8, -48, 24, -4, -8, -24, -48], "withholdReward": true, "trial_id": "mdp_475782454549", "block": "test1", "trialIndex": 25, "score": 15.5, "costs": -1.5, "simulationMode": [null, null, null], "rewards": [-4, -8, 24], "path": ["0", "0", "5", "6", "8"], "rt": [7224, 69, 84], "actions": ["right", "right", "down"], "actionTimes": [7883, 8459, 9051], "queries": {"click": {"state": {"target": ["12", "11", "3", "4", "7", "8"], "time": [1309, 2826, 4351, 6074, 6900, 7427]}, "edge": {"target": [], "time": []}}, "mouseover": {"state": {"target": ["12", "12", "10", "11", "10", "10", "9", "1", "2", "3", "1", "4", "1", "7", "6", "8"], "time": [951, 1201, 2536, 2731, 3016, 3523, 3551, 3593, 3752, 4281, 5845, 5984, 6589, 6825, 7075, 7207]}, "edge": {"target": [], "time": []}}, "mouseout": {"state": {"target": ["0", "12", "12", "12", "10", "11", "10", "10", "9", "1", "2", "3", "1", "4", "1", "7", "6", "8"], "time": [861, 1000, 1417, 2494, 2640, 2974, 3113, 3537, 3558, 3627, 3766, 5045, 5894, 6227, 6651, 7027, 7145, 7541]}, "edge": {"target": [], "time": []}}}, "displayed_time": "9.56", "trialTime": 10619, "trial_type": "mouselab-mdp", "trial_index": 40, "time_elapsed": 714261, "internal_node_id": "0.0-4.0-1.0-19.0"}}, {"uniqueid": "w96843049:a64562342", "current_trial": 41, "dateTime": 1664555849524, "trialdata": {"revealed_states": [], "num_clicks_accrued": [0, 0, 0, 0, 0, 0, 0, 0, 0, 0, 0, 0, 0], "stateRewards": ["", 4, -8, 48, 24, 4, -4, 48, 48, -4, 8, -48, 24], "withholdReward": true, "trial_id": "mdp_303828806348", "block": "test1", "trialIndex": 26, "score": 52.75, "costs": -0.25, "simulationMode": [null, null, null], "rewards": [4, -4, 48], "path": ["0", "0", "5", "6", "7"], "rt": [1364, 397, 91], "actions": ["right", "right", "up"], "actionTimes": [3547, 4451, 5051], "queries": {"click": {"state": {"target": ["7"], "time": [2630]}, "edge": {"target": [], "time": []}}, "mouseover": {"state": {"target": ["5", "7", "5"], "time": [2468, 2565, 2802]}, "edge": {"target": [], "time": []}}, "mouseout": {"state": {"target": ["0", "5", "7", "5"], "time": [2371, 2503, 2711, 2809]}, "edge": {"target": [], "time": []}}}, "displayed_time": "10.18", "trialTime": 11019, "trial_type": "mouselab-mdp", "trial_index": 41, "time_elapsed": 725309, "internal_node_id": "0.0-4.0-1.0-20.0"}}, {"uniqueid": "w96843049:a64562342", "current_trial": 42, "dateTime": 1664555859468, "trialdata": {"revealed_states": [], "num_clicks_accrued": [0, 0, 0, 0, 0, 0, 0, 0, 0, 0, 0, 0, 0], "stateRewards": ["", -4, 8, 24, -24, -2, 4, -24, 48, -2, 8, -48, -24], "withholdReward": true, "trial_id": "mdp_799359103169", "block": "test1", "trialIndex": 27, "score": 32.75, "costs": -0.25, "simulationMode": [null, null, null], "rewards": [-4, 8, 24], "path": ["0", "0", "1", "2", "3"], "rt": [1618, 33, 82], "actions": ["up", "up", "right"], "actionTimes": [2292, 2828, 3412], "queries": {"click": {"state": {"target": ["3"], "time": [1394]}, "edge": {"target": [], "time": []}}, "mouseover": {"state": {"target": ["3", "2"], "time": [1320, 1890]}, "edge": {"target": [], "time": []}}, "mouseout": {"state": {"target": ["0", "3", "2", "3", "5"], "time": [959, 1612, 2453, 7326, 7396]}, "edge": {"target": [], "time": []}}}, "displayed_time": "9.68", "trialTime": 9916, "trial_type": "mouselab-mdp", "trial_index": 42, "time_elapsed": 735253, "internal_node_id": "0.0-4.0-1.0-21.0"}}, {"uniqueid": "w96843049:a64562342", "current_trial": 43, "dateTime": 1664555870148, "trialdata": {"revealed_states": [], "num_clicks_accrued": [0, 0, 0, 0, 0, 0, 0, 0, 0, 0, 0, 0, 0], "stateRewards": ["", 4, -4, 48, -48, 4, -4, 24, -24, 4, 8, -24, -48], "withholdReward": true, "trial_id": "mdp_433630527224", "block": "test1", "trialIndex": 28, "score": 28.75, "costs": -0.25, "simulationMode": [null, null, null], "rewards": [4, -4, 24], "path": ["0", "0", "5", "6", "7"], "rt": [1247, 39, 392], "actions": ["right", "right", "up"], "actionTimes": [2510, 3054, 3950], "queries": {"click": {"state": {"target": ["7"], "time": [1974]}, "edge": {"target": [], "time": []}}, "mouseover": {"state": {"target": ["7", "7"], "time": [1409, 1896]}, "edge": {"target": [], "time": []}}, "mouseout": {"state": {"target": ["5", "7", "7", "7", "7", "6"], "time": [874, 923, 1062, 1430, 2397, 9258]}, "edge": {"target": [], "time": []}}}, "displayed_time": "10.27", "trialTime": 10654, "trial_type": "mouselab-mdp", "trial_index": 43, "time_elapsed": 745933, "internal_node_id": "0.0-4.0-1.0-22.0"}}, {"uniqueid": "w96843049:a64562342", "current_trial": 44, "dateTime": 1664555881021, "trialdata": {"revealed_states": [], "num_clicks_accrued": [0, 0, 0, 0, 0, 0, 0, 0, 0, 0, 0, 0, 0], "stateRewards": ["", -4, -4, -24, 48, -4, -8, -24, 48, 2, 4, 48, 48], "withholdReward": true, "trial_id": "mdp_810954007398", "block": "test1", "trialIndex": 29, "score": 40.25, "costs": -0.75, "simulationMode": [null, null, null], "rewards": [-4, -8, 48], "path": ["0", "0", "5", "6", "8"], "rt": [2273, 122, 137], "actions": ["right", "right", "down"], "actionTimes": [3675, 4299, 4939], "queries": {"click": {"state": {"target": ["3", "7", "8"], "time": [1964, 2775, 3237]}, "edge": {"target": [], "time": []}}, "mouseover": {"state": {"target": ["3", "7", "5", "8"], "time": [1910, 2689, 2918, 3092]}, "edge": {"target": [], "time": []}}, "mouseout": {"state": {"target": ["3", "7", "5", "8", "5", "7", "7", "6", "8"], "time": [2119, 2884, 2988, 3377, 5525, 5608, 6922, 6964, 9022]}, "edge": {"target": [], "time": []}}}, "displayed_time": "10.40", "trialTime": 10835, "trial_type": "mouselab-mdp", "trial_index": 44, "time_elapsed": 756806, "internal_node_id": "0.0-4.0-1.0-23.0"}}, {"uniqueid": "w96843049:a64562342", "current_trial": 45, "dateTime": 1664555892300, "trialdata": {"revealed_states": [], "num_clicks_accrued": [0, 0, 0, 0, 0, 0, 0, 0, 0, 0, 0, 0, 0], "stateRewards": ["", -2, 4, -48, -48, 4, 4, 48, -48, 2, 8, 24, 48], "withholdReward": true, "trial_id": "mdp_686771069745", "block": "test1", "trialIndex": 30, "score": 38.75, "costs": -0.25, "simulationMode": [null, null, null], "rewards": [2, 8, 24], "path": ["0", "0", "9", "10", "11"], "rt": [2042, 90, 53], "actions": ["left", "left", "up"], "actionTimes": [3420, 4012, 4572], "queries": {"click": {"state": {"target": ["11"], "time": [1744]}, "edge": {"target": [], "time": []}}, "mouseover": {"state": {"target": ["9", "11", "10"], "time": [1586, 1641, 2260]}, "edge": {"target": [], "time": []}}, "mouseout": {"state": {"target": ["8", "0", "9", "11", "10", "11", "9"], "time": [425, 1565, 1593, 2191, 6132, 10630, 10713]}, "edge": {"target": [], "time": []}}}, "displayed_time": "9.38", "trialTime": 11252, "trial_type": "mouselab-mdp", "trial_index": 45, "time_elapsed": 768085, "internal_node_id": "0.0-4.0-1.0-24.0"}}, {"uniqueid": "w96843049:a64562342", "current_trial": 46, "dateTime": 1664555903028, "trialdata": {"revealed_states": [], "num_clicks_accrued": [0, 0, 0, 0, 0, 0, 0, 0, 0, 0, 0, 0, 0], "stateRewards": ["", -2, 8, -24, 24, -4, -8, -24, 48, -2, -8, -48, 48], "withholdReward": false, "trial_id": "mdp_238332601315", "block": "test1", "trialIndex": 31, "score": 40.25, "costs": -0.75, "simulationMode": [null, null, null], "rewards": [-4, -8, 48], "path": ["0", "0", "5", "6", "8"], "rt": [2147, 493, 156], "actions": ["right", "right", "down"], "actionTimes": [3028, 4028, 4692], "queries": {"click": {"state": {"target": ["3", "7", "8"], "time": [1515, 1987, 2580]}, "edge": {"target": [], "time": []}}, "mouseover": {"state": {"target": ["3", "7", "6", "8"], "time": [1442, 1838, 2220, 2499]}, "edge": {"target": [], "time": []}}, "mouseout": {"state": {"target": ["5", "0", "3", "7", "6", "8"], "time": [323, 816, 1671, 2116, 2248, 2707]}, "edge": {"target": [], "time": []}}}, "displayed_time": "8.88", "trialTime": 10700, "trial_type": "mouselab-mdp", "trial_index": 46, "time_elapsed": 778813, "internal_node_id": "0.0-4.0-1.0-25.0"}}, {"uniqueid": "w96843049:a64562342", "current_trial": 47, "dateTime": 1664555913341, "trialdata": {"revealed_states": [], "num_clicks_accrued": [0, 0, 0, 0, 0, 0, 0, 0, 0, 0, 0, 0, 0], "stateRewards": ["", -4, 4, 48, 24, -4, 4, -24, 48, -2, -8, 24, -48], "withholdReward": false, "trial_id": "mdp_261501605436", "block": "test1", "trialIndex": 32, "score": 52.75, "costs": -0.25, "simulationMode": [null, null, null], "rewards": [-4, 4, 48], "path": ["0", "0", "5", "6", "8"], "rt": [1089, 42, 20], "actions": ["right", "right", "down"], "actionTimes": [1979, 2524, 3051], "queries": {"click": {"state": {"target": ["8"], "time": [1575]}, "edge": {"target": [], "time": []}}, "mouseover": {"state": {"target": ["5", "6", "8"], "time": [1092, 1265, 1446]}, "edge": {"target": [], "time": []}}, "mouseout": {"state": {"target": ["8", "0", "5", "6", "8", "8", "6"], "time": [542, 1057, 1161, 1418, 1794, 2350, 2475]}, "edge": {"target": [], "time": []}}}, "displayed_time": "8.89", "trialTime": 10283, "trial_type": "mouselab-mdp", "trial_index": 47, "time_elapsed": 789126, "internal_node_id": "0.0-4.0-1.0-26.0"}}, {"uniqueid": "w96843049:a64562342", "current_trial": 48, "dateTime": 1664555922829, "trialdata": {"revealed_states": [], "num_clicks_accrued": [0, 0, 0, 0, 0, 0, 0, 0, 0, 0, 0, 0, 0], "stateRewards": ["", -2, 8, 48, 24, 2, -8, -24, -48, -4, 8, -48, 24], "withholdReward": true, "trial_id": "mdp_224053025943", "block": "test1", "trialIndex": 33, "score": 32.75, "costs": -0.25, "simulationMode": [null, null, null], "rewards": [-4, 8, 24], "path": ["0", "0", "9", "10", "12"], "rt": [1035, 74, 121], "actions": ["left", "left", "down"], "actionTimes": [1538, 2114, 2738], "queries": {"click": {"state": {"target": ["12"], "time": [912]}, "edge": {"target": [], "time": []}}, "mouseover": {"state": {"target": ["9", "12"], "time": [719, 844]}, "edge": {"target": [], "time": []}}, "mouseout": {"state": {"target": ["6", "5", "0", "9", "12", "6"], "time": [205, 239, 691, 775, 1060, 3201]}, "edge": {"target": [], "time": []}}}, "displayed_time": "8.50", "trialTime": 9458, "trial_type": "mouselab-mdp", "trial_index": 48, "time_elapsed": 798614, "internal_node_id": "0.0-4.0-1.0-27.0"}}, {"uniqueid": "w96843049:a64562342", "current_trial": 49, "dateTime": 1664555932045, "trialdata": {"revealed_states": [], "num_clicks_accrued": [0, 0, 0, 0, 0, 0, 0, 0, 0, 0, 0, 0, 0], "stateRewards": ["", 4, -8, -24, 48, -4, 8, -24, -48, -4, -4, 24, 48], "withholdReward": true, "trial_id": "mdp_282352776624", "block": "test1", "trialIndex": 34, "score": 48.5, "costs": -0.5, "simulationMode": [null, null, null], "rewards": [4, -8, 48], "path": ["0", "0", "1", "2", "4"], "rt": [1797, 49, 389], "actions": ["up", "up", "left"], "actionTimes": [2282, 2834, 3730], "queries": {"click": {"state": {"target": ["3", "4"], "time": [1202, 1770]}, "edge": {"target": [], "time": []}}, "mouseover": {"state": {"target": ["1", "2", "3", "4", "1"], "time": [657, 741, 1075, 1714, 2096]}, "edge": {"target": [], "time": []}}, "mouseout": {"state": {"target": ["7", "5", "0", "1", "2", "3", "4", "1", "1", "2"], "time": [206, 240, 421, 699, 789, 1394, 1944, 3250, 3466, 3542]}, "edge": {"target": [], "time": []}}}, "displayed_time": "8.49", "trialTime": 9187, "trial_type": "mouselab-mdp", "trial_index": 49, "time_elapsed": 807830, "internal_node_id": "0.0-4.0-1.0-28.0"}}, {"uniqueid": "w96843049:a64562342", "current_trial": 50, "dateTime": 1664555943157, "trialdata": {"revealed_states": [], "num_clicks_accrued": [0, 0, 0, 0, 0, 0, 0, 0, 0, 0, 0, 0, 0], "stateRewards": ["", -2, -8, 48, 24, 2, 4, 24, -24, -2, -4, 48, -48], "withholdReward": true, "trial_id": "mdp_411152402386", "block": "test1", "trialIndex": 35, "score": 46.25, "costs": -0.75, "simulationMode": [null, null, null], "rewards": [-2, -4, 48], "path": ["0", "0", "9", "10", "11"], "rt": [2701, 33, 41], "actions": ["left", "left", "up"], "actionTimes": [3825, 4361, 4905], "queries": {"click": {"state": {"target": ["7", "8", "11"], "time": [1456, 1994, 3358]}, "edge": {"target": [], "time": []}}, "mouseover": {"state": {"target": ["0", "5", "7", "6", "8", "10", "11", "10", "11", "11", "11", "10", "9"], "time": [1173, 1277, 1381, 1666, 1868, 2493, 2862, 2910, 2994, 3168, 3293, 3529, 3765]}, "edge": {"target": [], "time": []}}, "mouseout": {"state": {"target": ["2", "1", "0", "5", "7", "6", "8", "10", "11", "10", "11", "11", "11", "10", "9"], "time": [748, 783, 1235, 1332, 1597, 1812, 2125, 2528, 2869, 2966, 3001, 3195, 3473, 3703, 5323]}, "edge": {"target": [], "time": []}}}, "displayed_time": "10.13", "trialTime": 11081, "trial_type": "mouselab-mdp", "trial_index": 50, "time_elapsed": 818942, "internal_node_id": "0.0-4.0-1.0-29.0"}}, {"uniqueid": "w96843049:a64562342", "current_trial": 51, "dateTime": 1664555948110, "trialdata": {"rt": 4950, "stimulus": "<h1> End of block! </h1>\n\nYou have reached the end of the block 1/4. If you need a short break, feel free to take one now before moving on.\n\n<br><br>\nIn the next block, you will complete another 30 rounds of this game.\n\n<br><br>\n<div style='text-align: center;'>Press <code>space</code> to begin.</div>\n<br><br>\n<div style='text-align: center;'>(If the experiment doesn't continue, try clicking on the text and then pressing <code>space</code>.)</div>", "response": " ", "trial_id": "mdp_ready_2", "trial_type": "html-keyboard-response", "trial_index": 51, "time_elapsed": 823894, "internal_node_id": "0.0-4.0-2.0"}}, {"uniqueid": "w96843049:a64562342", "current_trial": 52, "dateTime": 1664555960406, "trialdata": {"revealed_states": [], "num_clicks_accrued": [0, 0, 0, 0, 0, 0, 0, 0, 0, 0, 0, 0, 0], "stateRewards": ["", 4, 4, 48, -24, 2, -4, 48, 24, -4, -4, -48, 24], "withholdReward": false, "trial_id": "mdp_496003763005", "block": "test2", "trialIndex": 36, "score": 50.75, "costs": -0.25, "simulationMode": [null, null, null], "rewards": [2, -4, 48], "path": ["0", "0", "5", "6", "7"], "rt": [5818, 366, 329], "actions": ["right", "right", "up"], "actionTimes": [6728, 7599, 8431], "queries": {"click": {"state": {"target": ["7"], "time": [6184]}, "edge": {"target": [], "time": []}}, "mouseover": {"state": {"target": ["5", "6", "7", "6"], "time": [1429, 1547, 1720, 6420]}, "edge": {"target": [], "time": []}}, "mouseout": {"state": {"target": ["5", "5", "5", "6", "7", "6", "6", "8", "1", "9", "5", "5", "6"], "time": [664, 803, 1470, 1554, 6385, 6927, 10486, 10500, 10743, 10771, 10924, 11181, 11418]}, "edge": {"target": [], "time": []}}}, "displayed_time": "10.91", "trialTime": 12264, "trial_type": "mouselab-mdp", "trial_index": 52, "time_elapsed": 836190, "internal_node_id": "0.0-4.0-3.0-0.0"}}, {"uniqueid": "w96843049:a64562342", "current_trial": 53, "dateTime": 1664555969429, "trialdata": {"revealed_states": [], "num_clicks_accrued": [0, 0, 0, 0, 0, 0, 0, 0, 0, 0, 0, 0, 0], "stateRewards": ["", -4, -4, -48, -24, 2, 8, 24, -48, 4, 4, 48, 48], "withholdReward": true, "trial_id": "mdp_693501840209", "block": "test2", "trialIndex": 37, "score": 59.75, "costs": -1.25, "simulationMode": [null, null, null], "rewards": [4, 4, 48], "path": ["0", "0", "9", "10", "11"], "rt": [3204, 82, 34], "actions": ["left", "left", "up"], "actionTimes": [3644, 4228, 4764], "queries": {"click": {"state": {"target": ["3", "4", "7", "8", "11"], "time": [958, 1566, 2149, 2655, 3300]}, "edge": {"target": [], "time": []}}, "mouseover": {"state": {"target": ["2", "3", "1", "2", "4", "0", "6", "7", "6", "8", "8", "10", "11"], "time": [753, 912, 1281, 1309, 1510, 1795, 2018, 2087, 2309, 2372, 2581, 3123, 3234]}, "edge": {"target": [], "time": []}}, "mouseout": {"state": {"target": ["5", "0", "2", "3", "1", "2", "4", "0", "6", "7", "6", "8", "8", "10", "11", "10"], "time": [329, 572, 885, 1107, 1288, 1420, 1684, 1844, 2066, 2282, 2337, 2379, 2762, 3171, 3415, 5528]}, "edge": {"target": [], "time": []}}}, "displayed_time": "8.44", "trialTime": 8996, "trial_type": "mouselab-mdp", "trial_index": 53, "time_elapsed": 845214, "internal_node_id": "0.0-4.0-3.0-1.0"}}, {"uniqueid": "w96843049:a64562342", "current_trial": 54, "dateTime": 1664555979757, "trialdata": {"revealed_states": [], "num_clicks_accrued": [0, 0, 0, 0, 0, 0, 0, 0, 0, 0, 0, 0, 0], "stateRewards": ["", -4, -8, 48, -24, 4, -8, 48, 48, -2, 4, -48, -24], "withholdReward": true, "trial_id": "mdp_925905402462", "block": "test2", "trialIndex": 38, "score": 40.5, "costs": -0.5, "simulationMode": [null, null, null], "rewards": [-4, -8, 48], "path": ["0", "0", "1", "2", "3"], "rt": [2521, 279, 766], "actions": ["up", "up", "right"], "actionTimes": [3510, 4294, 5566], "queries": {"click": {"state": {"target": ["4", "3"], "time": [1360, 2073]}, "edge": {"target": [], "time": []}}, "mouseover": {"state": {"target": ["1", "4", "1", "3", "7"], "time": [1184, 1282, 1567, 1907, 2512]}, "edge": {"target": [], "time": []}}, "mouseout": {"state": {"target": ["10", "9", "0", "1", "4", "1", "3", "7", "3", "3", "7", "6"], "time": [204, 274, 1122, 1198, 1476, 1629, 2171, 2547, 2616, 2839, 7198, 7295]}, "edge": {"target": [], "time": []}}}, "displayed_time": "9.99", "trialTime": 10301, "trial_type": "mouselab-mdp", "trial_index": 54, "time_elapsed": 855542, "internal_node_id": "0.0-4.0-3.0-2.0"}}, {"uniqueid": "w96843049:a64562342", "current_trial": 55, "dateTime": 1664555989525, "trialdata": {"revealed_states": [], "num_clicks_accrued": [0, 0, 0, 0, 0, 0, 0, 0, 0, 0, 0, 0, 0], "stateRewards": ["", 2, -4, -24, -48, -2, 8, -24, 48, -2, 8, 24, -48], "withholdReward": false, "trial_id": "mdp_566582551557", "block": "test2", "trialIndex": 39, "score": 58.5, "costs": -0.5, "simulationMode": [null, null, null], "rewards": [-2, 8, 48], "path": ["0", "0", "5", "6", "8"], "rt": [1366, 2, 116], "actions": ["right", "right", "down"], "actionTimes": [1866, 2374, 2994], "queries": {"click": {"state": {"target": ["7", "8"], "time": [844, 1266]}, "edge": {"target": [], "time": []}}, "mouseover": {"state": {"target": ["5", "6", "7", "8"], "time": [640, 688, 793, 1189]}, "edge": {"target": [], "time": []}}, "mouseout": {"state": {"target": ["6", "5", "0", "5", "6", "7", "8"], "time": [223, 403, 452, 668, 702, 1015, 1398]}, "edge": {"target": [], "time": []}}}, "displayed_time": "8.50", "trialTime": 9730, "trial_type": "mouselab-mdp", "trial_index": 55, "time_elapsed": 865309, "internal_node_id": "0.0-4.0-3.0-3.0"}}, {"uniqueid": "w96843049:a64562342", "current_trial": 56, "dateTime": 1664556000461, "trialdata": {"revealed_states": [], "num_clicks_accrued": [0, 0, 0, 0, 0, 0, 0, 0, 0, 0, 0, 0, 0], "stateRewards": ["", 4, 4, -48, -48, 4, 4, -24, -24, -4, 8, -48, 24], "withholdReward": false, "trial_id": "mdp_669785455541", "block": "test2", "trialIndex": 40, "score": 31.5, "costs": -1.5, "simulationMode": [null, null, null], "rewards": [-4, 8, 24], "path": ["0", "0", "9", "10", "12"], "rt": [4630, 29, 62], "actions": ["left", "left", "down"], "actionTimes": [5562, 6098, 6667], "queries": {"click": {"state": {"target": ["8", "7", "11", "12", "3", "4"], "time": [1455, 2032, 2594, 2973, 3804, 4232]}, "edge": {"target": [], "time": []}}, "mouseover": {"state": {"target": ["8", "7", "6", "0", "9", "11", "10", "12", "0", "1", "2", "3", "2", "4", "9"], "time": [1363, 1905, 2176, 2377, 2405, 2482, 2739, 2843, 3455, 3483, 3525, 3754, 4094, 4136, 4393]}, "edge": {"target": [], "time": []}}, "mouseout": {"state": {"target": ["0", "8", "7", "6", "0", "9", "11", "10", "12", "0", "1", "2", "3", "2", "4", "9"], "time": [1133, 1564, 2148, 2197, 2391, 2433, 2704, 2802, 3045, 3462, 3504, 3643, 3983, 4101, 4324, 4442]}, "edge": {"target": [], "time": []}}}, "displayed_time": "9.93", "trialTime": 10906, "trial_type": "mouselab-mdp", "trial_index": 56, "time_elapsed": 876246, "internal_node_id": "0.0-4.0-3.0-4.0"}}, {"uniqueid": "w96843049:a64562342", "current_trial": 57, "dateTime": 1664556012197, "trialdata": {"revealed_states": [], "num_clicks_accrued": [0, 0, 0, 0, 0, 0, 0, 0, 0, 0, 0, 0, 0], "stateRewards": ["", 2, -4, 48, -24, 4, -8, -24, 48, -2, -4, 24, -48], "withholdReward": true, "trial_id": "mdp_357328205509", "block": "test2", "trialIndex": 41, "score": -23.25, "costs": -0.25, "simulationMode": [null, null, null], "rewards": [4, -8, -24], "path": ["0", "0", "5", "6", "7"], "rt": [831, 3485, 1399], "actions": ["right", "right", "up"], "actionTimes": [1305, 5297, 7201], "queries": {"click": {"state": {"target": ["3"], "time": [928]}, "edge": {"target": [], "time": []}}, "mouseover": {"state": {"target": ["1", "3"], "time": [728, 867]}, "edge": {"target": [], "time": []}}, "mouseout": {"state": {"target": ["0", "1", "3", "0", "0", "7", "6", "8", "6", "7", "5"], "time": [644, 769, 1034, 2396, 2639, 3480, 3543, 4641, 10223, 11176, 11224]}, "edge": {"target": [], "time": []}}}, "displayed_time": "10.47", "trialTime": 11706, "trial_type": "mouselab-mdp", "trial_index": 57, "time_elapsed": 887982, "internal_node_id": "0.0-4.0-3.0-5.0"}}, {"uniqueid": "w96843049:a64562342", "current_trial": 58, "dateTime": 1664556021701, "trialdata": {"revealed_states": [], "num_clicks_accrued": [0, 0, 0, 0, 0, 0, 0, 0, 0, 0, 0, 0, 0], "stateRewards": ["", 2, -8, -48, 24, 4, 8, 48, -48, 2, -4, 24, 24], "withholdReward": true, "trial_id": "mdp_130475327289", "block": "test2", "trialIndex": 42, "score": 64.5, "costs": -0.5, "simulationMode": [null, null, null], "rewards": [4, 8, 48], "path": ["0", "0", "5", "6", "7"], "rt": [1412, 6, 44], "actions": ["right", "right", "up"], "actionTimes": [1883, 2396, 2947], "queries": {"click": {"state": {"target": ["3", "7"], "time": [760, 1357]}, "edge": {"target": [], "time": []}}, "mouseover": {"state": {"target": ["3", "6", "7", "6", "8"], "time": [650, 1234, 1297, 1540, 1616]}, "edge": {"target": [], "time": []}}, "mouseout": {"state": {"target": ["0", "3", "6", "7", "6", "8", "8"], "time": [191, 921, 1248, 1498, 1589, 2221, 8825]}, "edge": {"target": [], "time": []}}}, "displayed_time": "8.47", "trialTime": 9468, "trial_type": "mouselab-mdp", "trial_index": 58, "time_elapsed": 897486, "internal_node_id": "0.0-4.0-3.0-6.0"}}, {"uniqueid": "w96843049:a64562342", "current_trial": 59, "dateTime": 1664556034165, "trialdata": {"revealed_states": [], "num_clicks_accrued": [0, 0, 0, 0, 0, 0, 0, 0, 0, 0, 0, 0, 0], "stateRewards": ["", -2, -4, -24, -48, -2, 8, -48, 24, 4, -4, -24, -24], "withholdReward": false, "trial_id": "mdp_915304165774", "block": "test2", "trialIndex": 43, "score": 33.5, "costs": -1.5, "simulationMode": [null, null, null], "rewards": [-2, 8, 24], "path": ["0", "0", "5", "6", "8"], "rt": [4458, 386, 48], "actions": ["right", "right", "down"], "actionTimes": [5721, 6608, 7160], "queries": {"click": {"state": {"target": ["7", "8", "11", "12", "3", "4"], "time": [1931, 2368, 3434, 3804, 4749, 5376]}, "edge": {"target": [], "time": []}}, "mouseover": {"state": {"target": ["7", "7", "6", "8", "10", "11", "10", "12", "5", "3", "3", "2", "4", "0"], "time": [1551, 1752, 2051, 2267, 3024, 3080, 3587, 3705, 4331, 4505, 4630, 4860, 5290, 5603]}, "edge": {"target": [], "time": []}}, "mouseout": {"state": {"target": ["0", "0", "3", "7", "7", "6", "8", "10", "11", "10", "12", "5", "3", "3", "2", "4", "0"], "time": [459, 862, 1064, 1585, 2023, 2072, 2476, 3045, 3560, 3643, 3935, 4352, 4547, 4846, 4901, 5457, 5673]}, "edge": {"target": [], "time": []}}}, "displayed_time": "9.26", "trialTime": 12432, "trial_type": "mouselab-mdp", "trial_index": 59, "time_elapsed": 909950, "internal_node_id": "0.0-4.0-3.0-7.0"}}, {"uniqueid": "w96843049:a64562342", "current_trial": 60, "dateTime": 1664556042997, "trialdata": {"revealed_states": [], "num_clicks_accrued": [0, 0, 0, 0, 0, 0, 0, 0, 0, 0, 0, 0, 0], "stateRewards": ["", -4, 8, 24, -24, 4, -8, -24, -24, -2, 8, -48, 24], "withholdReward": true, "trial_id": "mdp_240302100183", "block": "test2", "trialIndex": 44, "score": 31.75, "costs": -1.25, "simulationMode": [null, null, null], "rewards": [-4, 8, 24], "path": ["0", "0", "1", "2", "3"], "rt": [3585, 23, 531], "actions": ["up", "up", "right"], "actionTimes": [3897, 4425, 5464], "queries": {"click": {"state": {"target": ["8", "7", "11", "12", "3"], "time": [717, 1343, 2200, 2599, 3300]}, "edge": {"target": [], "time": []}}, "mouseover": {"state": {"target": ["0", "5", "8", "7", "9", "11", "10", "12", "5", "3"], "time": [466, 549, 647, 1238, 1516, 2148, 2322, 2426, 3038, 3135]}, "edge": {"target": [], "time": []}}, "mouseout": {"state": {"target": ["0", "0", "5", "8", "7", "9", "11", "10", "12", "5", "3", "1", "1", "4"], "time": [139, 494, 584, 869, 1439, 1550, 2294, 2385, 2691, 3059, 3518, 4908, 4992, 5875]}, "edge": {"target": [], "time": []}}}, "displayed_time": "8.31", "trialTime": 8801, "trial_type": "mouselab-mdp", "trial_index": 60, "time_elapsed": 918782, "internal_node_id": "0.0-4.0-3.0-8.0"}}, {"uniqueid": "w96843049:a64562342", "current_trial": 61, "dateTime": 1664556052717, "trialdata": {"revealed_states": [], "num_clicks_accrued": [0, 0, 0, 0, 0, 0, 0, 0, 0, 0, 0, 0, 0], "stateRewards": ["", 4, -8, 48, -24, 4, -4, -48, -48, 4, -4, 24, 24], "withholdReward": true, "trial_id": "mdp_221562928904", "block": "test2", "trialIndex": 45, "score": 28, "costs": -1, "simulationMode": [null, null, null], "rewards": [4, -4, 24], "path": ["0", "0", "9", "10", "11"], "rt": [3505, 57, 14], "actions": ["left", "left", "up"], "actionTimes": [3938, 4499, 5019], "queries": {"click": {"state": {"target": ["4", "8", "7", "11"], "time": [875, 1773, 2535, 3279]}, "edge": {"target": [], "time": []}}, "mouseover": {"state": {"target": ["1", "2", "4", "5", "8", "7", "11", "10", "12"], "time": [652, 729, 847, 1417, 1549, 2314, 3217, 3426, 3565]}, "edge": {"target": [], "time": []}}, "mouseout": {"state": {"target": ["1", "1", "2", "4", "5", "8", "7", "11", "10", "12", "10"], "time": [346, 701, 743, 979, 1445, 2008, 2772, 3384, 3488, 5069, 7499]}, "edge": {"target": [], "time": []}}}, "displayed_time": "9.43", "trialTime": 9690, "trial_type": "mouselab-mdp", "trial_index": 61, "time_elapsed": 928502, "internal_node_id": "0.0-4.0-3.0-9.0"}}, {"uniqueid": "w96843049:a64562342", "current_trial": 62, "dateTime": 1664556061525, "trialdata": {"revealed_states": [], "num_clicks_accrued": [0, 0, 0, 0, 0, 0, 0, 0, 0, 0, 0, 0, 0], "stateRewards": ["", -2, -4, 48, 48, 2, 4, -48, 24, 4, -8, 24, -24], "withholdReward": true, "trial_id": "mdp_628613319495", "block": "test2", "trialIndex": 46, "score": 46.75, "costs": -0.25, "simulationMode": [null, null, null], "rewards": [-2, -4, 48], "path": ["0", "0", "1", "2", "3"], "rt": [751, 128, 417], "actions": ["up", "up", "right"], "actionTimes": [1217, 1849, 2769], "queries": {"click": {"state": {"target": ["3"], "time": [876]}, "edge": {"target": [], "time": []}}, "mouseover": {"state": {"target": ["3", "5"], "time": [768, 1080]}, "edge": {"target": [], "time": []}}, "mouseout": {"state": {"target": ["9", "0", "3"], "time": [204, 441, 976]}, "edge": {"target": [], "time": []}}}, "displayed_time": "8.47", "trialTime": 8778, "trial_type": "mouselab-mdp", "trial_index": 62, "time_elapsed": 937310, "internal_node_id": "0.0-4.0-3.0-10.0"}}, {"uniqueid": "w96843049:a64562342", "current_trial": 63, "dateTime": 1664556075389, "trialdata": {"revealed_states": [], "num_clicks_accrued": [0, 0, 0, 0, 0, 0, 0, 0, 0, 0, 0, 0, 0], "stateRewards": ["", -4, -8, 24, -48, 2, 4, -48, -48, 2, -8, 24, 48], "withholdReward": true, "trial_id": "mdp_111262146724", "block": "test2", "trialIndex": 47, "score": 46.75, "costs": -0.25, "simulationMode": [null, null, null], "rewards": [2, -8, 48], "path": ["0", "0", "9", "10", "12"], "rt": [756, 304, 10], "actions": ["left", "left", "down"], "actionTimes": [1152, 1958, 2471], "queries": {"click": {"state": {"target": ["12"], "time": [825]}, "edge": {"target": [], "time": []}}, "mouseover": {"state": {"target": ["9", "12"], "time": [639, 771]}, "edge": {"target": [], "time": []}}, "mouseout": {"state": {"target": ["5", "9", "12"], "time": [229, 695, 1007]}, "edge": {"target": [], "time": []}}}, "displayed_time": "9.40", "trialTime": 13831, "trial_type": "mouselab-mdp", "trial_index": 63, "time_elapsed": 951174, "internal_node_id": "0.0-4.0-3.0-11.0"}}, {"uniqueid": "w96843049:a64562342", "current_trial": 64, "dateTime": 1664556086646, "trialdata": {"revealed_states": [], "num_clicks_accrued": [0, 0, 0, 0, 0, 0, 0, 0, 0, 0, 0, 0, 0], "stateRewards": ["", 2, 8, 48, -48, -2, -4, -24, 24, 4, -4, 48, -48], "withholdReward": false, "trial_id": "mdp_105734044587", "block": "test2", "trialIndex": 48, "score": 62.75, "costs": -0.25, "simulationMode": [null, null, null], "rewards": [2, 8, 48], "path": ["0", "0", "1", "2", "3"], "rt": [983, 113, 55], "actions": ["up", "up", "right"], "actionTimes": [2359, 2976, 3536], "queries": {"click": {"state": {"target": ["3"], "time": [2014]}, "edge": {"target": [], "time": []}}, "mouseover": {"state": {"target": ["3", "3"], "time": [1701, 1895]}, "edge": {"target": [], "time": []}}, "mouseout": {"state": {"target": ["0", "3", "3"], "time": [1534, 1715, 2166]}, "edge": {"target": [], "time": []}}}, "displayed_time": "10.38", "trialTime": 11225, "trial_type": "mouselab-mdp", "trial_index": 64, "time_elapsed": 962431, "internal_node_id": "0.0-4.0-3.0-12.0"}}, {"uniqueid": "w96843049:a64562342", "current_trial": 65, "dateTime": 1664556095845, "trialdata": {"revealed_states": [], "num_clicks_accrued": [0, 0, 0, 0, 0, 0, 0, 0, 0, 0, 0, 0, 0], "stateRewards": ["", 2, -8, -24, 48, 4, -8, -24, -24, 2, 8, -24, 24], "withholdReward": true, "trial_id": "mdp_480787552818", "block": "test2", "trialIndex": 49, "score": 46, "costs": -1, "simulationMode": [null, null, null], "rewards": [2, -8, 48], "path": ["0", "0", "1", "2", "4"], "rt": [2848, 128, 104], "actions": ["up", "up", "left"], "actionTimes": [3661, 4293, 4902], "queries": {"click": {"state": {"target": ["7", "8", "3", "4"], "time": [1430, 1838, 2836, 3210]}, "edge": {"target": [], "time": []}}, "mouseover": {"state": {"target": ["5", "7", "6", "8", "1", "2", "3", "2", "4"], "time": [932, 1163, 1621, 1801, 2260, 2323, 2559, 3025, 3094]}, "edge": {"target": [], "time": []}}, "mouseout": {"state": {"target": ["3", "1", "0", "0", "5", "7", "6", "8", "1", "2", "3", "2", "4", "4", "5"], "time": [244, 328, 376, 905, 967, 1544, 1711, 1982, 2267, 2378, 2990, 3067, 3296, 4575, 9066]}, "edge": {"target": [], "time": []}}}, "displayed_time": "8.81", "trialTime": 9165, "trial_type": "mouselab-mdp", "trial_index": 65, "time_elapsed": 971630, "internal_node_id": "0.0-4.0-3.0-13.0"}}, {"uniqueid": "w96843049:a64562342", "current_trial": 66, "dateTime": 1664556104749, "trialdata": {"revealed_states": [], "num_clicks_accrued": [0, 0, 0, 0, 0, 0, 0, 0, 0, 0, 0, 0, 0], "stateRewards": ["", -4, 8, 24, -24, -2, 4, -24, 48, -2, 8, -48, -24], "withholdReward": true, "trial_id": "mdp_799359103169", "block": "test2", "trialIndex": 50, "score": 53.75, "costs": -1.25, "simulationMode": [null, null, null], "rewards": [-2, 4, 48], "path": ["0", "0", "5", "6", "8"], "rt": [4860, 96, 58], "actions": ["right", "right", "down"], "actionTimes": [5338, 5938, 6498], "queries": {"click": {"state": {"target": ["7", "11", "12", "4", "8"], "time": [871, 1984, 2578, 3802, 5012]}, "edge": {"target": [], "time": []}}, "mouseover": {"state": {"target": ["5", "7", "6", "8", "8", "0", "9", "11", "11", "12", "5", "3", "2", "4", "1", "1", "4", "1", "3", "6", "8", "8"], "time": [642, 781, 1052, 1184, 1490, 1713, 1727, 1755, 1880, 2533, 2964, 3131, 3242, 3403, 3583, 3673, 3735, 3951, 4368, 4597, 4625, 4869]}, "edge": {"target": [], "time": []}}, "mouseout": {"state": {"target": ["0", "5", "7", "6", "8", "8", "0", "9", "11", "11", "12", "5", "3", "2", "4", "1", "1", "4", "1", "3", "6", "8", "8", "8", "6", "8"], "time": [427, 698, 1018, 1115, 1247, 1664, 1720, 1734, 1782, 2060, 2672, 2992, 3221, 3284, 3485, 3610, 3694, 3902, 4007, 4556, 4611, 4681, 5161, 7628, 7899, 7962]}, "edge": {"target": [], "time": []}}}, "displayed_time": "8.48", "trialTime": 8874, "trial_type": "mouselab-mdp", "trial_index": 66, "time_elapsed": 980534, "internal_node_id": "0.0-4.0-3.0-14.0"}}, {"uniqueid": "w96843049:a64562342", "current_trial": 67, "dateTime": 1664556115093, "trialdata": {"revealed_states": [], "num_clicks_accrued": [0, 0, 0, 0, 0, 0, 0, 0, 0, 0, 0, 0, 0], "stateRewards": ["", -2, -8, -48, 24, 2, -4, -48, 48, 2, 4, 24, -24], "withholdReward": true, "trial_id": "mdp_849341543762", "block": "test2", "trialIndex": 51, "score": 18.5, "costs": -0.5, "simulationMode": [null, null, null], "rewards": [-2, -8, 24], "path": ["0", "0", "1", "2", "4"], "rt": [1473, 1727, 207], "actions": ["up", "up", "left"], "actionTimes": [1776, 4009, 4720], "queries": {"click": {"state": {"target": ["3", "8"], "time": [684, 1361]}, "edge": {"target": [], "time": []}}, "mouseover": {"state": {"target": ["5", "3", "5", "8"], "time": [467, 627, 940, 1253]}, "edge": {"target": [], "time": []}}, "mouseout": {"state": {"target": ["0", "5", "3", "5", "8", "8", "0", "0", "5"], "time": [446, 481, 815, 1072, 1524, 2768, 2844, 9066, 9149]}, "edge": {"target": [], "time": []}}}, "displayed_time": "8.30", "trialTime": 10312, "trial_type": "mouselab-mdp", "trial_index": 67, "time_elapsed": 990878, "internal_node_id": "0.0-4.0-3.0-15.0"}}, {"uniqueid": "w96843049:a64562342", "current_trial": 68, "dateTime": 1664556123981, "trialdata": {"revealed_states": [], "num_clicks_accrued": [0, 0, 0, 0, 0, 0, 0, 0, 0, 0, 0, 0, 0], "stateRewards": ["", 2, 4, 48, 24, -2, -8, 24, 24, -2, 4, -48, 24], "withholdReward": true, "trial_id": "mdp_130849500124", "block": "test2", "trialIndex": 52, "score": 58.75, "costs": -0.25, "simulationMode": [null, null, null], "rewards": [2, 4, 48], "path": ["0", "0", "1", "2", "3"], "rt": [800, 149, 160], "actions": ["up", "up", "right"], "actionTimes": [1288, 1944, 2608], "queries": {"click": {"state": {"target": ["3"], "time": [894]}, "edge": {"target": [], "time": []}}, "mouseover": {"state": {"target": ["3"], "time": [814]}, "edge": {"target": [], "time": []}}, "mouseout": {"state": {"target": ["8", "5", "3"], "time": [272, 349, 1009]}, "edge": {"target": [], "time": []}}}, "displayed_time": "8.49", "trialTime": 8856, "trial_type": "mouselab-mdp", "trial_index": 68, "time_elapsed": 999766, "internal_node_id": "0.0-4.0-3.0-16.0"}}, {"uniqueid": "w96843049:a64562342", "current_trial": 69, "dateTime": 1664556132741, "trialdata": {"revealed_states": [], "num_clicks_accrued": [0, 0, 0, 0, 0, 0, 0, 0, 0, 0, 0, 0, 0], "stateRewards": ["", 2, 8, 24, -48, 4, 8, 24, 48, 2, -8, -24, 24], "withholdReward": false, "trial_id": "mdp_939899431582", "block": "test2", "trialIndex": 53, "score": 64.75, "costs": -0.25, "simulationMode": [null, null, null], "rewards": [4, 8, 48], "path": ["0", "0", "5", "6", "8"], "rt": [855, 90, 116], "actions": ["right", "right", "down"], "actionTimes": [1240, 1832, 2456], "queries": {"click": {"state": {"target": ["8"], "time": [894]}, "edge": {"target": [], "time": []}}, "mouseover": {"state": {"target": ["8", "8"], "time": [588, 824]}, "edge": {"target": [], "time": []}}, "mouseout": {"state": {"target": ["5", "0", "8", "8", "8", "8"], "time": [261, 477, 623, 1019, 3598, 5733]}, "edge": {"target": [], "time": []}}}, "displayed_time": "8.39", "trialTime": 8728, "trial_type": "mouselab-mdp", "trial_index": 69, "time_elapsed": 1008525, "internal_node_id": "0.0-4.0-3.0-17.0"}}, {"uniqueid": "w96843049:a64562342", "current_trial": 70, "dateTime": 1664556141444, "trialdata": {"revealed_states": [], "num_clicks_accrued": [0, 0, 0, 0, 0, 0, 0, 0, 0, 0, 0, 0, 0], "stateRewards": ["", 2, 8, 24, -48, 4, 8, 24, 24, 4, -8, 48, 48], "withholdReward": true, "trial_id": "mdp_646103824875", "block": "test2", "trialIndex": 54, "score": 48.75, "costs": -0.25, "simulationMode": [null, null, null], "rewards": [4, -8, 48], "path": ["0", "0", "9", "10", "11"], "rt": [1212, 22, 158], "actions": ["left", "left", "up"], "actionTimes": [1624, 2151, 2815], "queries": {"click": {"state": {"target": ["11"], "time": [1112]}, "edge": {"target": [], "time": []}}, "mouseover": {"state": {"target": ["11"], "time": [1017]}, "edge": {"target": [], "time": []}}, "mouseout": {"state": {"target": ["0", "11"], "time": [600, 1211]}, "edge": {"target": [], "time": []}}}, "displayed_time": "8.41", "trialTime": 8671, "trial_type": "mouselab-mdp", "trial_index": 70, "time_elapsed": 1017229, "internal_node_id": "0.0-4.0-3.0-18.0"}}, {"uniqueid": "w96843049:a64562342", "current_trial": 71, "dateTime": 1664556150309, "trialdata": {"revealed_states": [], "num_clicks_accrued": [0, 0, 0, 0, 0, 0, 0, 0, 0, 0, 0, 0, 0], "stateRewards": ["", -2, 4, 24, 48, 2, 4, -48, -48, 2, 8, 48, -48], "withholdReward": true, "trial_id": "mdp_409609775558", "block": "test2", "trialIndex": 55, "score": 30.75, "costs": -0.25, "simulationMode": [null, null, null], "rewards": [-2, 4, 24], "path": ["0", "0", "1", "2", "3"], "rt": [4048, 37, 31], "actions": ["up", "up", "right"], "actionTimes": [4527, 5071, 5607], "queries": {"click": {"state": {"target": ["3"], "time": [3933]}, "edge": {"target": [], "time": []}}, "mouseover": {"state": {"target": ["0", "1", "2", "3", "3", "3", "5"], "time": [2629, 2698, 2969, 3268, 3491, 3831, 4130]}, "edge": {"target": [], "time": []}}, "mouseout": {"state": {"target": ["0", "0", "1", "2", "3", "3", "3", "5"], "time": [1642, 2657, 2775, 3247, 3303, 3692, 4040, 4165]}, "edge": {"target": [], "time": []}}}, "displayed_time": "8.48", "trialTime": 8831, "trial_type": "mouselab-mdp", "trial_index": 71, "time_elapsed": 1026094, "internal_node_id": "0.0-4.0-3.0-19.0"}}, {"uniqueid": "w96843049:a64562342", "current_trial": 72, "dateTime": 1664556161477, "trialdata": {"revealed_states": [], "num_clicks_accrued": [0, 0, 0, 0, 0, 0, 0, 0, 0, 0, 0, 0, 0], "stateRewards": ["", -4, -4, 24, -48, -2, 8, -24, -48, -4, 4, 24, -48], "withholdReward": true, "trial_id": "mdp_934626330092", "block": "test2", "trialIndex": 56, "score": 20.75, "costs": -0.25, "simulationMode": [null, null, null], "rewards": [-4, -4, 24], "path": ["0", "0", "1", "2", "3"], "rt": [987, 438, 326], "actions": ["up", "up", "right"], "actionTimes": [1406, 2350, 3182], "queries": {"click": {"state": {"target": ["3"], "time": [1041]}, "edge": {"target": [], "time": []}}, "mouseover": {"state": {"target": ["3"], "time": [952]}, "edge": {"target": [], "time": []}}, "mouseout": {"state": {"target": ["0", "3", "5"], "time": [597, 1209, 10468]}, "edge": {"target": [], "time": []}}}, "displayed_time": "10.42", "trialTime": 11135, "trial_type": "mouselab-mdp", "trial_index": 72, "time_elapsed": 1037262, "internal_node_id": "0.0-4.0-3.0-20.0"}}, {"uniqueid": "w96843049:a64562342", "current_trial": 73, "dateTime": 1664556171133, "trialdata": {"revealed_states": [], "num_clicks_accrued": [0, 0, 0, 0, 0, 0, 0, 0, 0, 0, 0, 0, 0], "stateRewards": ["", -4, 8, -24, -48, 2, 8, -48, -24, -2, -4, 48, -48], "withholdReward": true, "trial_id": "mdp_599927291428", "block": "test2", "trialIndex": 57, "score": 46.75, "costs": -0.25, "simulationMode": [null, null, null], "rewards": [-2, -4, 48], "path": ["0", "0", "9", "10", "11"], "rt": [1031, 388, 130], "actions": ["left", "left", "up"], "actionTimes": [1512, 2408, 3040], "queries": {"click": {"state": {"target": ["11"], "time": [1001]}, "edge": {"target": [], "time": []}}, "mouseover": {"state": {"target": ["11", "11", "10"], "time": [678, 879, 1199]}, "edge": {"target": [], "time": []}}, "mouseout": {"state": {"target": ["11", "11", "10", "12"], "time": [726, 1157, 1275, 7490]}, "edge": {"target": [], "time": []}}}, "displayed_time": "9.48", "trialTime": 9623, "trial_type": "mouselab-mdp", "trial_index": 73, "time_elapsed": 1046918, "internal_node_id": "0.0-4.0-3.0-21.0"}}, {"uniqueid": "w96843049:a64562342", "current_trial": 74, "dateTime": 1664556181157, "trialdata": {"revealed_states": [], "num_clicks_accrued": [0, 0, 0, 0, 0, 0, 0, 0, 0, 0, 0, 0, 0], "stateRewards": ["", -4, -8, -48, 48, -2, 8, 48, 48, -2, -4, -48, -48], "withholdReward": false, "trial_id": "mdp_752833580638", "block": "test2", "trialIndex": 58, "score": 58.75, "costs": -0.25, "simulationMode": [null, null, null], "rewards": [-2, 8, 48], "path": ["0", "0", "5", "6", "8"], "rt": [718, 330, 40], "actions": ["right", "right", "down"], "actionTimes": [1184, 2015, 2559], "queries": {"click": {"state": {"target": ["8"], "time": [910]}, "edge": {"target": [], "time": []}}, "mouseover": {"state": {"target": ["5", "6", "8"], "time": [579, 634, 843]}, "edge": {"target": [], "time": []}}, "mouseout": {"state": {"target": ["12", "0", "5", "6", "8"], "time": [259, 377, 614, 662, 1031]}, "edge": {"target": [], "time": []}}}, "displayed_time": "9.47", "trialTime": 9990, "trial_type": "mouselab-mdp", "trial_index": 74, "time_elapsed": 1056942, "internal_node_id": "0.0-4.0-3.0-22.0"}}, {"uniqueid": "w96843049:a64562342", "current_trial": 75, "dateTime": 1664556191245, "trialdata": {"revealed_states": [], "num_clicks_accrued": [0, 0, 0, 0, 0, 0, 0, 0, 0, 0, 0, 0, 0], "stateRewards": ["", 2, 4, -48, 48, -4, 8, -48, -24, -4, -4, 48, 48], "withholdReward": true, "trial_id": "mdp_613582696541", "block": "test2", "trialIndex": 59, "score": 44.25, "costs": -0.75, "simulationMode": [null, null, null], "rewards": [-4, -4, 48], "path": ["0", "0", "9", "10", "11"], "rt": [2524, 86, 47], "actions": ["left", "left", "up"], "actionTimes": [3166, 3759, 4311], "queries": {"click": {"state": {"target": ["3", "8", "11"], "time": [974, 1774, 2816]}, "edge": {"target": [], "time": []}}, "mouseover": {"state": {"target": ["1", "3", "5", "8", "9", "11"], "time": [794, 905, 1615, 1705, 2560, 2671]}, "edge": {"target": [], "time": []}}, "mouseout": {"state": {"target": ["0", "1", "3", "5", "8", "9", "11"], "time": [155, 850, 1163, 1642, 1934, 2581, 2935]}, "edge": {"target": [], "time": []}}}, "displayed_time": "9.64", "trialTime": 10054, "trial_type": "mouselab-mdp", "trial_index": 75, "time_elapsed": 1067030, "internal_node_id": "0.0-4.0-3.0-23.0"}}, {"uniqueid": "w96843049:a64562342", "current_trial": 76, "dateTime": 1664556201781, "trialdata": {"revealed_states": [], "num_clicks_accrued": [0, 0, 0, 0, 0, 0, 0, 0, 0, 0, 0, 0, 0], "stateRewards": ["", 2, 4, 24, 48, -2, 8, 24, -24, -4, -4, 48, 48], "withholdReward": true, "trial_id": "mdp_753439303214", "block": "test2", "trialIndex": 60, "score": 34.75, "costs": -0.25, "simulationMode": [null, null, null], "rewards": [2, 4, 24], "path": ["0", "0", "1", "2", "3"], "rt": [646, 117, 101], "actions": ["up", "up", "right"], "actionTimes": [1838, 2462, 3071], "queries": {"click": {"state": {"target": ["3"], "time": [1508]}, "edge": {"target": [], "time": []}}, "mouseover": {"state": {"target": ["3", "5"], "time": [1412, 1724]}, "edge": {"target": [], "time": []}}, "mouseout": {"state": {"target": ["9", "0", "3", "5"], "time": [313, 1287, 1634, 1731]}, "edge": {"target": [], "time": []}}}, "displayed_time": "10.19", "trialTime": 10502, "trial_type": "mouselab-mdp", "trial_index": 76, "time_elapsed": 1077566, "internal_node_id": "0.0-4.0-3.0-24.0"}}, {"uniqueid": "w96843049:a64562342", "current_trial": 77, "dateTime": 1664556212957, "trialdata": {"revealed_states": [], "num_clicks_accrued": [0, 0, 0, 0, 0, 0, 0, 0, 0, 0, 0, 0, 0], "stateRewards": ["", -4, -8, -48, -48, 4, -8, 48, 48, 2, 8, 48, 24], "withholdReward": true, "trial_id": "mdp_880437222492", "block": "test2", "trialIndex": 61, "score": 48.75, "costs": -0.25, "simulationMode": [null, null, null], "rewards": [4, -8, 48], "path": ["0", "0", "5", "6", "7"], "rt": [887, 71, 6], "actions": ["right", "right", "up"], "actionTimes": [2020, 2597, 3109], "queries": {"click": {"state": {"target": ["7"], "time": [1691]}, "edge": {"target": [], "time": []}}, "mouseover": {"state": {"target": ["5", "6", "7", "6", "8"], "time": [1302, 1344, 1615, 1823, 1872]}, "edge": {"target": [], "time": []}}, "mouseout": {"state": {"target": ["7", "5", "6", "7", "6", "8", "8", "6", "7"], "time": [940, 1330, 1371, 1802, 1851, 1934, 2289, 2318, 2380]}, "edge": {"target": [], "time": []}}}, "displayed_time": "10.13", "trialTime": 11149, "trial_type": "mouselab-mdp", "trial_index": 77, "time_elapsed": 1088742, "internal_node_id": "0.0-4.0-3.0-25.0"}}, {"uniqueid": "w96843049:a64562342", "current_trial": 78, "dateTime": 1664556223829, "trialdata": {"revealed_states": [], "num_clicks_accrued": [0, 0, 0, 0, 0, 0, 0, 0, 0, 0, 0, 0, 0], "stateRewards": ["", 4, 4, 48, -24, -4, -8, 24, -24, 2, -8, -24, 24], "withholdReward": true, "trial_id": "mdp_933201675789", "block": "test2", "trialIndex": 62, "score": 16.5, "costs": -0.5, "simulationMode": [null, null, null], "rewards": [-4, -8, 24], "path": ["0", "0", "5", "6", "7"], "rt": [2481, 102, 152], "actions": ["right", "right", "up"], "actionTimes": [3192, 3800, 4456], "queries": {"click": {"state": {"target": ["4", "7"], "time": [1223, 2268]}, "edge": {"target": [], "time": []}}, "mouseover": {"state": {"target": ["4", "7", "6"], "time": [1125, 2126, 2474]}, "edge": {"target": [], "time": []}}, "mouseout": {"state": {"target": ["1", "4", "7", "6", "6"], "time": [583, 1354, 2432, 2557, 4260]}, "edge": {"target": [], "time": []}}}, "displayed_time": "8.71", "trialTime": 10840, "trial_type": "mouselab-mdp", "trial_index": 78, "time_elapsed": 1099614, "internal_node_id": "0.0-4.0-3.0-26.0"}}, {"uniqueid": "w96843049:a64562342", "current_trial": 79, "dateTime": 1664556248085, "trialdata": {"revealed_states": [], "num_clicks_accrued": [0, 0, 0, 0, 0, 0, 0, 0, 0, 0, 0, 0, 0], "stateRewards": ["", 2, 4, 48, 24, -4, 8, 48, 48, 2, -4, -48, -24], "withholdReward": true, "trial_id": "mdp_822099887466", "block": "test2", "trialIndex": 63, "score": 56.5, "costs": -0.5, "simulationMode": [null, null, null], "rewards": [-4, 8, 48], "path": ["0", "0", "5", "6", "8"], "rt": [2565, 127, 56], "actions": ["right", "right", "down"], "actionTimes": [6751, 7383, 7944], "queries": {"click": {"state": {"target": ["11", "8"], "time": [5275, 6329]}, "edge": {"target": [], "time": []}}, "mouseover": {"state": {"target": ["9", "11", "11", "10", "12", "8"], "time": [4363, 4412, 4822, 5642, 5788, 6213]}, "edge": {"target": [], "time": []}}, "mouseout": {"state": {"target": ["8", "0", "9", "11", "11", "9", "11", "11", "10", "12", "8"], "time": [3105, 3550, 3585, 3619, 3765, 4377, 4419, 5538, 5754, 5990, 6477]}, "edge": {"target": [], "time": []}}}, "displayed_time": "13.19", "trialTime": 24223, "trial_type": "mouselab-mdp", "trial_index": 79, "time_elapsed": 1123870, "internal_node_id": "0.0-4.0-3.0-27.0"}}, {"uniqueid": "w96843049:a64562342", "current_trial": 80, "dateTime": 1664556258269, "trialdata": {"revealed_states": [], "num_clicks_accrued": [0, 0, 0, 0, 0, 0, 0, 0, 0, 0, 0, 0, 0], "stateRewards": ["", -4, -4, -24, -48, -4, 8, -24, -48, 4, -8, 24, -24], "withholdReward": true, "trial_id": "mdp_924927483179", "block": "test2", "trialIndex": 64, "score": 24, "costs": -1, "simulationMode": [null, null, null], "rewards": [4, -8, 24], "path": ["0", "0", "9", "10", "11"], "rt": [3101, 98, 61], "actions": ["left", "left", "up"], "actionTimes": [4851, 5451, 6019], "queries": {"click": {"state": {"target": ["7", "8", "3", "11"], "time": [2261, 2769, 3419, 4361]}, "edge": {"target": [], "time": []}}, "mouseover": {"state": {"target": ["5", "7", "7", "6", "8", "5", "1", "3", "2", "4", "11"], "time": [1876, 1939, 2189, 2599, 2669, 3065, 3093, 3371, 3767, 3913, 4261]}, "edge": {"target": [], "time": []}}, "mouseout": {"state": {"target": ["5", "5", "0", "5", "7", "7", "6", "8", "5", "1", "3", "2", "4", "11", "9"], "time": [1098, 1383, 1849, 1897, 1953, 2565, 2634, 3037, 3079, 3114, 3725, 3851, 4157, 6458, 8119]}, "edge": {"target": [], "time": []}}}, "displayed_time": "9.75", "trialTime": 10155, "trial_type": "mouselab-mdp", "trial_index": 80, "time_elapsed": 1134054, "internal_node_id": "0.0-4.0-3.0-28.0"}}, {"uniqueid": "w96843049:a64562342", "current_trial": 81, "dateTime": 1664556267741, "trialdata": {"revealed_states": [], "num_clicks_accrued": [0, 0, 0, 0, 0, 0, 0, 0, 0, 0, 0, 0, 0], "stateRewards": ["", -2, -4, -24, 48, -2, -8, -48, -24, 4, 8, 48, 24], "withholdReward": false, "trial_id": "mdp_625355871626", "block": "test2", "trialIndex": 65, "score": 64.25, "costs": -0.75, "simulationMode": [null, null, null], "rewards": [4, 8, 48], "path": ["0", "0", "9", "10", "11"], "rt": [2074, 148, 71], "actions": ["left", "left", "up"], "actionTimes": [2838, 3494, 4071], "queries": {"click": {"state": {"target": ["3", "8", "11"], "time": [1194, 1825, 2470]}, "edge": {"target": [], "time": []}}, "mouseover": {"state": {"target": ["3", "3", "5", "8", "9", "11"], "time": [961, 1121, 1677, 1746, 2247, 2400]}, "edge": {"target": [], "time": []}}, "mouseout": {"state": {"target": ["0", "3", "3", "5", "8", "9", "11", "11"], "time": [342, 982, 1371, 1684, 2136, 2261, 2643, 4040]}, "edge": {"target": [], "time": []}}}, "displayed_time": "8.76", "trialTime": 9437, "trial_type": "mouselab-mdp", "trial_index": 81, "time_elapsed": 1143526, "internal_node_id": "0.0-4.0-3.0-29.0"}}, {"uniqueid": "w96843049:a64562342", "current_trial": 82, "dateTime": 1664556272397, "trialdata": {"rt": 4654, "stimulus": "<h1> End of block! </h1>\n\nYou have reached the end of the block 2/4. If you need a short break, feel free to take one now before moving on.\n\n<br><br>\nIn the next block, you will complete another 30 rounds of this game.\n\n<br><br>\n<div style='text-align: center;'>Press <code>space</code> to begin.</div>\n<br><br>\n<div style='text-align: center;'>(If the experiment doesn't continue, try clicking on the text and then pressing <code>space</code>.)</div>", "response": " ", "trial_id": "mdp_ready_3", "trial_type": "html-keyboard-response", "trial_index": 82, "time_elapsed": 1148182, "internal_node_id": "0.0-4.0-4.0"}}, {"uniqueid": "w96843049:a64562342", "current_trial": 83, "dateTime": 1664556283333, "trialdata": {"revealed_states": [], "num_clicks_accrued": [0, 0, 0, 0, 0, 0, 0, 0, 0, 0, 0, 0, 0], "stateRewards": ["", -2, 4, -48, 24, -4, 8, 48, 24, -2, 4, -48, -24], "withholdReward": true, "trial_id": "mdp_740882974347", "block": "test3", "trialIndex": 66, "score": 32.5, "costs": -0.5, "simulationMode": [null, null, null], "rewards": [-4, 8, 24], "path": ["0", "0", "5", "6", "8"], "rt": [1433, 33, 66], "actions": ["right", "right", "down"], "actionTimes": [3018, 3554, 4122], "queries": {"click": {"state": {"target": ["3", "8"], "time": [1883, 2619]}, "edge": {"target": [], "time": []}}, "mouseover": {"state": {"target": ["3", "6", "8"], "time": [1817, 2373, 2533]}, "edge": {"target": [], "time": []}}, "mouseout": {"state": {"target": ["10", "9", "0", "5", "5", "0", "0", "3", "6", "8", "8", "8"], "time": [809, 830, 844, 865, 1122, 1191, 1469, 2074, 2415, 2797, 8678, 9520]}, "edge": {"target": [], "time": []}}}, "displayed_time": "10.58", "trialTime": 10906, "trial_type": "mouselab-mdp", "trial_index": 83, "time_elapsed": 1159118, "internal_node_id": "0.0-4.0-5.0-0.0"}}, {"uniqueid": "w96843049:a64562342", "current_trial": 84, "dateTime": 1664556292111, "trialdata": {"revealed_states": [], "num_clicks_accrued": [0, 0, 0, 0, 0, 0, 0, 0, 0, 0, 0, 0, 0], "stateRewards": ["", 2, 4, -24, -24, 4, 8, -48, 48, 2, 4, -24, -48], "withholdReward": true, "trial_id": "mdp_565165082781", "block": "test3", "trialIndex": 67, "score": 64.5, "costs": -0.5, "simulationMode": [null, null, null], "rewards": [4, 8, 48], "path": ["0", "0", "5", "6", "8"], "rt": [1342, 58, 23], "actions": ["right", "right", "down"], "actionTimes": [1790, 2350, 2878], "queries": {"click": {"state": {"target": ["11", "8"], "time": [812, 1459]}, "edge": {"target": [], "time": []}}, "mouseover": {"state": {"target": ["9", "11", "9", "8"], "time": [574, 720, 1193, 1374]}, "edge": {"target": [], "time": []}}, "mouseout": {"state": {"target": ["8", "0", "9", "11", "9", "8"], "time": [74, 540, 609, 984, 1214, 3480]}, "edge": {"target": [], "time": []}}}, "displayed_time": "8.45", "trialTime": 8743, "trial_type": "mouselab-mdp", "trial_index": 84, "time_elapsed": 1167896, "internal_node_id": "0.0-4.0-5.0-1.0"}}, {"uniqueid": "w96843049:a64562342", "current_trial": 85, "dateTime": 1664556301157, "trialdata": {"revealed_states": [], "num_clicks_accrued": [0, 0, 0, 0, 0, 0, 0, 0, 0, 0, 0, 0, 0], "stateRewards": ["", -2, -8, -48, 24, 2, -4, -48, 48, 2, 4, 24, -24], "withholdReward": true, "trial_id": "mdp_849341543762", "block": "test3", "trialIndex": 68, "score": 50.5, "costs": -0.5, "simulationMode": [null, null, null], "rewards": [2, -4, 48], "path": ["0", "0", "5", "6", "8"], "rt": [1350, 5, 97], "actions": ["right", "right", "down"], "actionTimes": [1724, 2236, 2836], "queries": {"click": {"state": {"target": ["7", "8"], "time": [688, 1331]}, "edge": {"target": [], "time": []}}, "mouseover": {"state": {"target": ["5", "6", "7", "6", "8"], "time": [527, 576, 653, 1021, 1257]}, "edge": {"target": [], "time": []}}, "mouseout": {"state": {"target": ["0", "5", "6", "7", "6", "8"], "time": [493, 555, 590, 979, 1028, 1612]}, "edge": {"target": [], "time": []}}}, "displayed_time": "8.38", "trialTime": 9012, "trial_type": "mouselab-mdp", "trial_index": 85, "time_elapsed": 1176942, "internal_node_id": "0.0-4.0-5.0-2.0"}}, {"uniqueid": "w96843049:a64562342", "current_trial": 86, "dateTime": 1664556311485, "trialdata": {"revealed_states": [], "num_clicks_accrued": [0, 0, 0, 0, 0, 0, 0, 0, 0, 0, 0, 0, 0], "stateRewards": ["", -2, 8, 48, -24, 2, 4, -48, -24, -4, 8, -48, -48], "withholdReward": true, "trial_id": "mdp_539167561933", "block": "test3", "trialIndex": 69, "score": -13.25, "costs": -0.25, "simulationMode": [null, null, null], "rewards": [2, 4, -24], "path": ["0", "0", "5", "6", "8"], "rt": [783, 2262, 120], "actions": ["right", "right", "down"], "actionTimes": [1495, 4263, 4887], "queries": {"click": {"state": {"target": ["3"], "time": [1066]}, "edge": {"target": [], "time": []}}, "mouseover": {"state": {"target": ["3"], "time": [1014]}, "edge": {"target": [], "time": []}}, "mouseout": {"state": {"target": ["0", "3", "6", "7", "6", "12"], "time": [610, 2097, 2459, 2827, 2925, 8173]}, "edge": {"target": [], "time": []}}}, "displayed_time": "9.71", "trialTime": 10295, "trial_type": "mouselab-mdp", "trial_index": 86, "time_elapsed": 1187270, "internal_node_id": "0.0-4.0-5.0-3.0"}}, {"uniqueid": "w96843049:a64562342", "current_trial": 87, "dateTime": 1664556320893, "trialdata": {"revealed_states": [], "num_clicks_accrued": [0, 0, 0, 0, 0, 0, 0, 0, 0, 0, 0, 0, 0], "stateRewards": ["", 4, -4, 48, 24, 2, -8, 24, -48, -2, -4, -48, -48], "withholdReward": false, "trial_id": "mdp_655302318695", "block": "test3", "trialIndex": 70, "score": 22.75, "costs": -0.25, "simulationMode": [null, null, null], "rewards": [2, -8, 24], "path": ["0", "0", "5", "6", "7"], "rt": [1221, 36, 54], "actions": ["right", "right", "up"], "actionTimes": [1703, 2245, 2805], "queries": {"click": {"state": {"target": ["7"], "time": [1306]}, "edge": {"target": [], "time": []}}, "mouseover": {"state": {"target": ["7", "7", "7", "6"], "time": [964, 1041, 1256, 1555]}, "edge": {"target": [], "time": []}}, "mouseout": {"state": {"target": ["12", "0", "7", "7", "7", "6"], "time": [206, 644, 1013, 1061, 1499, 2104]}, "edge": {"target": [], "time": []}}}, "displayed_time": "8.48", "trialTime": 9373, "trial_type": "mouselab-mdp", "trial_index": 87, "time_elapsed": 1196678, "internal_node_id": "0.0-4.0-5.0-4.0"}}, {"uniqueid": "w96843049:a64562342", "current_trial": 88, "dateTime": 1664556331893, "trialdata": {"revealed_states": [], "num_clicks_accrued": [0, 0, 0, 0, 0, 0, 0, 0, 0, 0, 0, 0, 0], "stateRewards": ["", 4, 4, 48, -24, 2, -4, 48, 24, -4, -4, -48, 24], "withholdReward": true, "trial_id": "mdp_496003763005", "block": "test3", "trialIndex": 71, "score": 60.5, "costs": -0.5, "simulationMode": [null, null, null], "rewards": [4, 4, 48], "path": ["0", "0", "1", "2", "3"], "rt": [1953, 451, 118], "actions": ["up", "up", "right"], "actionTimes": [2324, 3284, 3908], "queries": {"click": {"state": {"target": ["11", "3"], "time": [1081, 1823]}, "edge": {"target": [], "time": []}}, "mouseover": {"state": {"target": ["11", "11", "3"], "time": [682, 1037, 1739]}, "edge": {"target": [], "time": []}}, "mouseout": {"state": {"target": ["11", "11", "3", "0"], "time": [752, 1454, 2545, 7349]}, "edge": {"target": [], "time": []}}}, "displayed_time": "10.37", "trialTime": 10964, "trial_type": "mouselab-mdp", "trial_index": 88, "time_elapsed": 1207678, "internal_node_id": "0.0-4.0-5.0-5.0"}}, {"uniqueid": "w96843049:a64562342", "current_trial": 89, "dateTime": 1664556342885, "trialdata": {"revealed_states": [], "num_clicks_accrued": [0, 0, 0, 0, 0, 0, 0, 0, 0, 0, 0, 0, 0], "stateRewards": ["", 2, -4, 48, -48, -2, 8, -48, 24, -2, -8, 48, 48], "withholdReward": true, "trial_id": "mdp_949326095747", "block": "test3", "trialIndex": 72, "score": 34.5, "costs": -0.5, "simulationMode": [null, null, null], "rewards": [-2, 8, 24], "path": ["0", "0", "5", "6", "8"], "rt": [1881, 569, 83], "actions": ["right", "right", "down"], "actionTimes": [2229, 3301, 3885], "queries": {"click": {"state": {"target": ["4", "8"], "time": [1030, 1813]}, "edge": {"target": [], "time": []}}, "mouseover": {"state": {"target": ["4", "4", "1", "5", "8", "8"], "time": [646, 854, 1348, 1397, 1459, 1716]}, "edge": {"target": [], "time": []}}, "mouseout": {"state": {"target": ["0", "4", "4", "1", "5", "8", "8"], "time": [521, 687, 1244, 1362, 1417, 1536, 1974]}, "edge": {"target": [], "time": []}}}, "displayed_time": "10.35", "trialTime": 10956, "trial_type": "mouselab-mdp", "trial_index": 89, "time_elapsed": 1218670, "internal_node_id": "0.0-4.0-5.0-6.0"}}, {"uniqueid": "w96843049:a64562342", "current_trial": 90, "dateTime": 1664556354837, "trialdata": {"revealed_states": [], "num_clicks_accrued": [0, 0, 0, 0, 0, 0, 0, 0, 0, 0, 0, 0, 0], "stateRewards": ["", 2, -4, 48, 24, 2, 8, 24, 24, -2, 4, 24, 24], "withholdReward": true, "trial_id": "mdp_813974524300", "block": "test3", "trialIndex": 73, "score": 38.75, "costs": -0.25, "simulationMode": [null, null, null], "rewards": [2, 8, 24], "path": ["0", "0", "5", "6", "7"], "rt": [1106, 5, 42], "actions": ["right", "right", "up"], "actionTimes": [4730, 5243, 5786], "queries": {"click": {"state": {"target": ["7"], "time": [4158]}, "edge": {"target": [], "time": []}}, "mouseover": {"state": {"target": ["7", "6"], "time": [4062, 4556]}, "edge": {"target": [], "time": []}}, "mouseout": {"state": {"target": ["0", "7"], "time": [718, 4458]}, "edge": {"target": [], "time": []}}}, "displayed_time": "11.63", "trialTime": 11914, "trial_type": "mouselab-mdp", "trial_index": 90, "time_elapsed": 1230622, "internal_node_id": "0.0-4.0-5.0-7.0"}}, {"uniqueid": "w96843049:a64562342", "current_trial": 91, "dateTime": 1664556365421, "trialdata": {"revealed_states": [], "num_clicks_accrued": [0, 0, 0, 0, 0, 0, 0, 0, 0, 0, 0, 0, 0], "stateRewards": ["", -2, -4, 48, -24, 2, -4, -24, -48, 2, 8, -48, -24], "withholdReward": false, "trial_id": "mdp_238243948191", "block": "test3", "trialIndex": 74, "score": 46.75, "costs": -0.25, "simulationMode": [null, null, null], "rewards": [-2, -4, 48], "path": ["0", "0", "1", "2", "3"], "rt": [696, 280, 95], "actions": ["up", "up", "right"], "actionTimes": [1181, 1965, 2565], "queries": {"click": {"state": {"target": ["3"], "time": [813]}, "edge": {"target": [], "time": []}}, "mouseover": {"state": {"target": ["3"], "time": [754]}, "edge": {"target": [], "time": []}}, "mouseout": {"state": {"target": ["6", "1", "3", "5"], "time": [79, 392, 983, 10236]}, "edge": {"target": [], "time": []}}}, "displayed_time": "8.49", "trialTime": 10549, "trial_type": "mouselab-mdp", "trial_index": 91, "time_elapsed": 1241206, "internal_node_id": "0.0-4.0-5.0-8.0"}}, {"uniqueid": "w96843049:a64562342", "current_trial": 92, "dateTime": 1664556388326, "trialdata": {"revealed_states": [], "num_clicks_accrued": [0, 0, 0, 0, 0, 0, 0, 0, 0, 0, 0, 0, 0], "stateRewards": ["", -2, -4, -24, -48, -4, -8, -48, 24, -4, -8, -24, -48], "withholdReward": false, "trial_id": "mdp_475782454549", "block": "test3", "trialIndex": 75, "score": 16.25, "costs": -0.75, "simulationMode": [null, null, null], "rewards": [-4, -8, 24], "path": ["0", "0", "5", "6", "8"], "rt": [1972, 127, 94], "actions": ["right", "right", "down"], "actionTimes": [2469, 3102, 3702], "queries": {"click": {"state": {"target": ["3", "7", "8"], "time": [1187, 1745, 2134]}, "edge": {"target": [], "time": []}}, "mouseover": {"state": {"target": ["3", "7", "7", "6", "8"], "time": [1063, 1507, 1681, 1925, 2029]}, "edge": {"target": [], "time": []}}, "mouseout": {"state": {"target": ["5", "3", "7", "7", "6", "8", "6"], "time": [159, 1438, 1521, 1883, 1994, 2383, 6568]}, "edge": {"target": [], "time": []}}}, "displayed_time": "9.50", "trialTime": 22871, "trial_type": "mouselab-mdp", "trial_index": 92, "time_elapsed": 1264111, "internal_node_id": "0.0-4.0-5.0-9.0"}}, {"uniqueid": "w96843049:a64562342", "current_trial": 93, "dateTime": 1664556401157, "trialdata": {"revealed_states": [], "num_clicks_accrued": [0, 0, 0, 0, 0, 0, 0, 0, 0, 0, 0, 0, 0], "stateRewards": ["", 2, 4, -48, -24, 2, 8, 24, 48, -2, 4, 48, -48], "withholdReward": true, "trial_id": "mdp_551894842204", "block": "test3", "trialIndex": 76, "score": 62.5, "costs": -0.5, "simulationMode": [null, null, null], "rewards": [2, 8, 48], "path": ["0", "0", "5", "6", "8"], "rt": [2482, 74, 33], "actions": ["right", "right", "down"], "actionTimes": [3187, 3760, 4297], "queries": {"click": {"state": {"target": ["7", "8"], "time": [1713, 2329]}, "edge": {"target": [], "time": []}}, "mouseover": {"state": {"target": ["5", "5", "6", "7", "6", "8", "0"], "time": [1003, 1177, 1510, 1629, 2067, 2157, 2873]}, "edge": {"target": [], "time": []}}, "mouseout": {"state": {"target": ["7", "5", "0", "5", "5", "6", "7", "6", "8", "0", "9", "0", "0"], "time": [106, 315, 968, 1024, 1448, 1524, 2025, 2115, 2588, 2880, 12313, 12466, 12689]}, "edge": {"target": [], "time": []}}}, "displayed_time": "8.71", "trialTime": 12793, "trial_type": "mouselab-mdp", "trial_index": 93, "time_elapsed": 1276942, "internal_node_id": "0.0-4.0-5.0-10.0"}}, {"uniqueid": "w96843049:a64562342", "current_trial": 94, "dateTime": 1664556415837, "trialdata": {"revealed_states": [], "num_clicks_accrued": [0, 0, 0, 0, 0, 0, 0, 0, 0, 0, 0, 0, 0], "stateRewards": ["", 2, -8, -24, 48, -4, -8, 24, -48, 4, -8, -24, -24], "withholdReward": true, "t