{"condition": 1, "counterbalance": 0, "assignmentId": "a49922299", "workerId": "w90425244", "hitId": "h66493919", "currenttrial": 143, "bonus": 0, "data": [{"uniqueid": "w90425244:a49922299", "current_trial": 0, "dateTime": 1664371455855, "trialdata": {"success": true, "trial_type": "fullscreen", "trial_index": 0, "time_elapsed": 37455, "internal_node_id": "0.0-0.0"}}, {"uniqueid": "w90425244:a49922299", "current_trial": 1, "dateTime": 1664371470448, "trialdata": {"view_history": [{"page_index": 0, "viewing_time": 14583}], "rt": 14585, "trial_id": "exp_instructions_no_distractor", "trial_type": "instructions", "trial_index": 1, "time_elapsed": 52049, "internal_node_id": "0.0-1.0"}}, {"uniqueid": "w90425244:a49922299", "current_trial": 2, "dateTime": 1664371474585, "trialdata": {"success": true, "trial_type": "fullscreen", "trial_index": 2, "time_elapsed": 56186, "internal_node_id": "0.0-2.0-0.0"}}, {"uniqueid": "w90425244:a49922299", "current_trial": 3, "dateTime": 1664371732602, "trialdata": {"view_history": [{"page_index": 0, "viewing_time": 128867}, {"page_index": 1, "viewing_time": 61754}, {"page_index": 2, "viewing_time": 10250}, {"page_index": 3, "viewing_time": 12106}, {"page_index": 4, "viewing_time": 45037}], "rt": 258014, "trial_id": "mouselab_instructions_1", "trial_type": "instructions", "trial_index": 3, "time_elapsed": 314203, "internal_node_id": "0.0-2.0-1.0"}}, {"uniqueid": "w90425244:a49922299", "current_trial": 4, "dateTime": 1664371759867, "trialdata": {"revealed_states": [], "num_clicks_accrued": [0, 0, 0, 0, 0, 0, 0, 0, 0, 0, 0, 0, 0], "stateRewards": ["", -10, 10, -10, -10, -10, 10, -10, -10, -10, 10, -10, -10], "withholdReward": false, "trial_id": "practice_1", "block": "test", "trialIndex": 0, "score": -8.75, "costs": -0.75, "simulationMode": [null, null, null], "rewards": [-10, 10, -10], "path": ["0", "0", "5", "6", "7"], "rt": [14906, 1158, 2131], "actions": ["right", "right", "up"], "actionTimes": [17509, 19155, 21779], "queries": {"click": {"state": {"target": ["9", "1", "5"], "time": [6961, 10385, 11576]}, "edge": {"target": [], "time": []}}, "mouseover": {"state": {"target": ["9", "9", "1", "5", "6"], "time": [6150, 6684, 9804, 11254, 12856]}, "edge": {"target": [], "time": []}}, "mouseout": {"state": {"target": ["1", "0", "9", "9", "1", "5"], "time": [693, 5900, 6484, 9520, 10888, 12640]}, "edge": {"target": [], "time": []}}}, "displayed_time": "22.28", "trialTime": 27043, "trial_type": "mouselab-mdp", "trial_index": 4, "time_elapsed": 341467, "internal_node_id": "0.0-2.0-2.0-0.0"}}, {"uniqueid": "w90425244:a49922299", "current_trial": 5, "dateTime": 1664371778698, "trialdata": {"revealed_states": [], "num_clicks_accrued": [0, 0, 0, 0, 0, 0, 0, 0, 0, 0, 0, 0, 0], "stateRewards": ["", 10, -10, -10, 10, -10, -10, 10, 10, -10, -10, -10, -10], "withholdReward": false, "trial_id": "practice_2", "block": "test", "trialIndex": 1, "score": -8.25, "costs": -0.25, "simulationMode": [null, null, null], "rewards": [10, -10, -10], "path": ["0", "0", "1", "2", "3"], "rt": [5690, 1698, 879], "actions": ["up", "up", "right"], "actionTimes": [9390, 11582, 12965], "queries": {"click": {"state": {"target": ["1"], "time": [6757]}, "edge": {"target": [], "time": []}}, "mouseover": {"state": {"target": ["9", "1"], "time": [5161, 5695]}, "edge": {"target": [], "time": []}}, "mouseout": {"state": {"target": ["6", "5", "0", "9", "1", "1", "2", "3"], "time": [2742, 3026, 5045, 5294, 7764, 9973, 12535, 14303]}, "edge": {"target": [], "time": []}}}, "displayed_time": "13.46", "trialTime": 18710, "trial_type": "mouselab-mdp", "trial_index": 5, "time_elapsed": 360299, "internal_node_id": "0.0-2.0-2.0-1.0"}}, {"uniqueid": "w90425244:a49922299", "current_trial": 6, "dateTime": 1664371878015, "trialdata": {"view_history": [{"page_index": 0, "viewing_time": 65899}, {"page_index": 1, "viewing_time": 19746}, {"page_index": 2, "viewing_time": 13666}], "rt": 99313, "trial_id": "mouselab_instructions_2_scarce", "trial_type": "instructions", "trial_index": 6, "time_elapsed": 459616, "internal_node_id": "0.0-2.0-3.0"}}, {"uniqueid": "w90425244:a49922299", "current_trial": 7, "dateTime": 1664371923589, "trialdata": {"rt": 45564, "response": {"Q0": "$-48 to $48", "Q1": "The cost is always $0.25.", "Q2": "The better I perform the higher my bonus will be.", "Q3": "No, the amount of cash at each node of the web may be different each time.", "Q4": "The values of the nodes walked through from start to finish.", "Q5": "Yes."}, "question_order": [0, 1, 2, 3, 4, 5], "correct": {"Q0": "$-48 to $48", "Q1": "The cost is always $0.25.", "Q2": "The better I perform the higher my bonus will be.", "Q3": "No, the amount of cash at each node of the web may be different each time.", "Q4": "The values of the nodes walked through from start to finish.", "Q5": "No, the spider might forget to count the money on some rounds."}, "trial_id": "mouselab_quiz_scarce", "trial_type": "survey-multi-choice", "trial_index": 7, "time_elapsed": 505190, "internal_node_id": "0.0-2.0-4.0"}}, {"uniqueid": "w90425244:a49922299", "current_trial": 8, "dateTime": 1664371987166, "trialdata": {"success": true, "trial_type": "fullscreen", "trial_index": 8, "time_elapsed": 568767, "internal_node_id": "0.0-2.1-0.1"}}, {"uniqueid": "w90425244:a49922299", "current_trial": 9, "dateTime": 1664372060262, "trialdata": {"view_history": [{"page_index": 0, "viewing_time": 28966}, {"page_index": 1, "viewing_time": 14634}, {"page_index": 2, "viewing_time": 12098}, {"page_index": 3, "viewing_time": 3983}, {"page_index": 4, "viewing_time": 13410}], "rt": 73093, "trial_id": "mouselab_instructions_1", "trial_type": "instructions", "trial_index": 9, "time_elapsed": 641863, "internal_node_id": "0.0-2.1-1.1"}}, {"uniqueid": "w90425244:a49922299", "current_trial": 10, "dateTime": 1664372087217, "trialdata": {"revealed_states": [], "num_clicks_accrued": [0, 0, 0, 0, 0, 0, 0, 0, 0, 0, 0, 0, 0], "stateRewards": ["", -10, 10, -10, -10, -10, 10, -10, -10, -10, 10, -10, -10], "withholdReward": false, "trial_id": "practice_1", "block": "test", "trialIndex": 2, "score": -11, "costs": -3, "simulationMode": [null, null, null], "rewards": [-10, 10, -10], "path": ["0", "0", "5", "6", "8"], "rt": [19402, 418, 677], "actions": ["right", "right", "down"], "actionTimes": [21892, 22804, 23980], "queries": {"click": {"state": {"target": ["1", "2", "3", "4", "11", "8", "6", "7", "10", "12", "9", "5"], "time": [4481, 6117, 6957, 8784, 9533, 10935, 11797, 12813, 14518, 15366, 16286, 17447]}, "edge": {"target": [], "time": []}}, "mouseover": {"state": {"target": ["1", "5", "2", "3", "4", "11", "10", "9", "0", "5", "8", "6", "5", "7", "9", "10", "12", "9", "0", "5", "0"], "time": [4215, 5283, 5834, 6651, 7868, 9220, 9971, 10104, 10154, 10188, 10621, 11423, 12190, 12540, 13624, 13957, 15126, 15993, 16811, 17178, 18229]}, "edge": {"target": [], "time": []}}, "mouseout": {"state": {"target": ["0", "1", "5", "2", "3", "2", "4", "11", "10", "9", "0", "5", "8", "6", "5", "7", "9", "10", "12", "9", "0", "5"], "time": [4082, 4916, 5550, 6584, 7327, 7451, 9120, 9904, 10037, 10137, 10171, 10237, 11305, 12172, 12390, 12973, 13808, 15076, 15726, 16511, 16944, 18063]}, "edge": {"target": [], "time": []}}}, "displayed_time": "24.47", "trialTime": 26828, "trial_type": "mouselab-mdp", "trial_index": 10, "time_elapsed": 668818, "internal_node_id": "0.0-2.1-2.1-0.1"}}, {"uniqueid": "w90425244:a49922299", "current_trial": 11, "dateTime": 1664372100593, "trialdata": {"revealed_states": [], "num_clicks_accrued": [0, 0, 0, 0, 0, 0, 0, 0, 0, 0, 0, 0, 0], "stateRewards": ["", 10, -10, -10, 10, -10, -10, 10, 10, -10, -10, -10, -10], "withholdReward": false, "trial_id": "practice_2", "block": "test", "trialIndex": 3, "score": 11.75, "costs": -0.25, "simulationMode": [null, null, null], "rewards": [10, -10, 10], "path": ["0", "0", "1", "2", "4"], "rt": [7246, 381, 209], "actions": ["up", "up", "left"], "actionTimes": [8905, 9784, 10496], "queries": {"click": {"state": {"target": ["1"], "time": [5397]}, "edge": {"target": [], "time": []}}, "mouseover": {"state": {"target": ["1", "2", "1", "2", "3"], "time": [2311, 3279, 5181, 5931, 6668]}, "edge": {"target": [], "time": []}}, "mouseout": {"state": {"target": ["0", "0", "1", "2", "1", "2", "3", "1"], "time": [759, 2052, 2908, 4981, 5764, 6424, 7366, 11486]}, "edge": {"target": [], "time": []}}}, "displayed_time": "10.99", "trialTime": 13240, "trial_type": "mouselab-mdp", "trial_index": 11, "time_elapsed": 682194, "internal_node_id": "0.0-2.1-2.1-1.1"}}, {"uniqueid": "w90425244:a49922299", "current_trial": 12, "dateTime": 1664372166342, "trialdata": {"view_history": [{"page_index": 0, "viewing_time": 22363}, {"page_index": 1, "viewing_time": 40501}, {"page_index": 2, "viewing_time": 2881}], "rt": 65745, "trial_id": "mouselab_instructions_2_scarce", "trial_type": "instructions", "trial_index": 12, "time_elapsed": 747943, "internal_node_id": "0.0-2.1-3.1"}}, {"uniqueid": "w90425244:a49922299", "current_trial": 13, "dateTime": 1664372213477, "trialdata": {"rt": 47129, "response": {"Q0": "$-48 to $48", "Q1": "The cost is always $0.25.", "Q2": "The better I perform the higher my bonus will be.", "Q3": "No, the amount of cash at each node of the web may be different each time.", "Q4": "The values of the nodes walked through from start to finish.", "Q5": "No, the spider might forget to count the money on some rounds."}, "question_order": [0, 1, 2, 3, 4, 5], "correct": {"Q0": "$-48 to $48", "Q1": "The cost is always $0.25.", "Q2": "The better I perform the higher my bonus will be.", "Q3": "No, the amount of cash at each node of the web may be different each time.", "Q4": "The values of the nodes walked through from start to finish.", "Q5": "No, the spider might forget to count the money on some rounds."}, "trial_id": "mouselab_quiz_scarce", "trial_type": "survey-multi-choice", "trial_index": 13, "time_elapsed": 795078, "internal_node_id": "0.0-2.1-4.1"}}, {"uniqueid": "w90425244:a49922299", "current_trial": 14, "dateTime": 1664372230186, "trialdata": {"rt": 16697, "stimulus": "\n<h1> Get ready to start the game! </h1>\n\nThank you for reading the instructions. Get ready start with the first of 4 block(s) of this game.\n<br><br>\nIn this first block, you will complete 30 rounds of this game before moving on.\n<br><br>\nRemember, the more money the spider gets, the bigger your bonus will be!\n<br><br>\n<div style='text-align: center;'>Press <code>space</code> to begin.</div>\n\n<br><br>\n(If, at any point, the <code>space</code> key does not take you to the next page, click once on the text and try again.)", "response": " ", "trial_id": "mdp_ready_1", "trial_type": "html-keyboard-response", "trial_index": 14, "time_elapsed": 811787, "internal_node_id": "0.0-4.0-0.0"}}, {"uniqueid": "w90425244:a49922299", "current_trial": 15, "dateTime": 1664372251170, "trialdata": {"revealed_states": [], "num_clicks_accrued": [0, 0, 0, 0, 0, 0, 0, 0, 0, 0, 0, 0, 0], "stateRewards": ["", 2, 8, 24, -48, 4, 8, 24, 24, 4, -8, 48, 48], "withholdReward": true, "trial_id": "mdp_646103824875", "block": "test1", "trialIndex": 4, "score": 40.25, "costs": -0.75, "simulationMode": [null, null, null], "rewards": [4, 8, 24], "path": ["0", "0", "5", "6", "8"], "rt": [8505, 1039, 472], "actions": ["right", "right", "down"], "actionTimes": [10161, 11697, 12664], "queries": {"click": {"state": {"target": ["1", "5", "9"], "time": [4349, 6498, 7538]}, "edge": {"target": [], "time": []}}, "mouseover": {"state": {"target": ["1", "5", "6", "5", "0", "9", "0"], "time": [3482, 5417, 5667, 6168, 7102, 7269, 8103]}, "edge": {"target": [], "time": []}}, "mouseout": {"state": {"target": ["0", "1", "5", "6", "5", "5", "0", "9", "0"], "time": [2264, 4684, 5534, 6134, 6752, 6952, 7219, 8054, 8121]}, "edge": {"target": [], "time": []}}}, "displayed_time": "13.16", "trialTime": 20874, "trial_type": "mouselab-mdp", "trial_index": 15, "time_elapsed": 832770, "internal_node_id": "0.0-4.0-1.0-0.0"}}, {"uniqueid": "w90425244:a49922299", "current_trial": 16, "dateTime": 1664372279681, "trialdata": {"revealed_states": [], "num_clicks_accrued": [0, 0, 0, 0, 0, 0, 0, 0, 0, 0, 0, 0, 0], "stateRewards": ["", 2, 4, 48, -48, 2, -4, 48, 24, -2, -8, -24, 48], "withholdReward": true, "trial_id": "mdp_962424406744", "block": "test1", "trialIndex": 5, "score": 58.25, "costs": -0.75, "simulationMode": [null, null, null], "rewards": [2, 4, 48], "path": ["0", "0", "1", "2", "3"], "rt": [7857, 334, 492], "actions": ["up", "up", "right"], "actionTimes": [19832, 20664, 21656], "queries": {"click": {"state": {"target": ["1", "9", "5"], "time": [14373, 17074, 17997]}, "edge": {"target": [], "time": []}}, "mouseover": {"state": {"target": ["1", "9", "9", "0", "5", "6", "7"], "time": [14111, 15273, 15991, 17542, 17792, 18309, 18376]}, "edge": {"target": [], "time": []}}, "mouseout": {"state": {"target": ["5", "5", "1", "9", "9", "0", "5", "6", "7"], "time": [3678, 3928, 15056, 15412, 17509, 17592, 18276, 18326, 18394]}, "edge": {"target": [], "time": []}}}, "displayed_time": "22.15", "trialTime": 28376, "trial_type": "mouselab-mdp", "trial_index": 16, "time_elapsed": 861282, "internal_node_id": "0.0-4.0-1.0-1.0"}}, {"uniqueid": "w90425244:a49922299", "current_trial": 17, "dateTime": 1664372298193, "trialdata": {"revealed_states": [], "num_clicks_accrued": [0, 0, 0, 0, 0, 0, 0, 0, 0, 0, 0, 0, 0], "stateRewards": ["", 4, -8, -48, -24, 2, -8, -48, 48, -4, 8, 48, -48], "withholdReward": false, "trial_id": "mdp_605757196263", "block": "test1", "trialIndex": 6, "score": 46.25, "costs": -0.75, "simulationMode": [null, null, null], "rewards": [2, -8, 48], "path": ["0", "0", "5", "6", "8"], "rt": [8716, 416, 443], "actions": ["right", "right", "down"], "actionTimes": [11575, 12486, 13430], "queries": {"click": {"state": {"target": ["6", "7", "8"], "time": [5854, 6862, 7863]}, "edge": {"target": [], "time": []}}, "mouseover": {"state": {"target": ["5", "6", "7", "8", "5", "0"], "time": [4711, 5341, 6245, 7215, 8414, 9465]}, "edge": {"target": [], "time": []}}, "mouseout": {"state": {"target": ["7", "5", "6", "7", "6", "8", "5", "0", "9", "12"], "time": [1207, 4994, 6195, 7149, 7213, 8348, 9049, 15088, 15138, 15338]}, "edge": {"target": [], "time": []}}}, "displayed_time": "13.92", "trialTime": 18374, "trial_type": "mouselab-mdp", "trial_index": 17, "time_elapsed": 879794, "internal_node_id": "0.0-4.0-1.0-2.0"}}, {"uniqueid": "w90425244:a49922299", "current_trial": 18, "dateTime": 1664372311401, "trialdata": {"revealed_states": [], "num_clicks_accrued": [0, 0, 0, 0, 0, 0, 0, 0, 0, 0, 0, 0, 0], "stateRewards": ["", 2, 4, 48, 24, -2, -8, 24, 24, -2, 4, -48, 24], "withholdReward": true, "trial_id": "mdp_130849500124", "block": "test1", "trialIndex": 7, "score": 30.25, "costs": -0.75, "simulationMode": [null, null, null], "rewards": [-2, 4, 24], "path": ["0", "0", "9", "10", "12"], "rt": [7377, 338, 360], "actions": ["left", "left", "down"], "actionTimes": [8866, 9705, 10561], "queries": {"click": {"state": {"target": ["9", "12", "10"], "time": [4914, 6196, 6891]}, "edge": {"target": [], "time": []}}, "mouseover": {"state": {"target": ["9", "10", "9", "10", "9", "0", "5", "0", "12", "10"], "time": [2058, 2375, 2858, 3276, 4528, 5328, 5378, 5495, 5896, 6646]}, "edge": {"target": [], "time": []}}, "mouseout": {"state": {"target": ["0", "9", "10", "9", "10", "9", "0", "5", "0", "9", "12", "10", "9"], "time": [1057, 2158, 2826, 3143, 4478, 5294, 5361, 5478, 5528, 5645, 6579, 7146, 12719]}, "edge": {"target": [], "time": []}}}, "displayed_time": "11.05", "trialTime": 13113, "trial_type": "mouselab-mdp", "trial_index": 18, "time_elapsed": 893001, "internal_node_id": "0.0-4.0-1.0-3.0"}}, {"uniqueid": "w90425244:a49922299", "current_trial": 19, "dateTime": 1664372322569, "trialdata": {"revealed_states": [], "num_clicks_accrued": [0, 0, 0, 0, 0, 0, 0, 0, 0, 0, 0, 0, 0], "stateRewards": ["", 4, -4, 48, -48, 2, 8, -48, 24, -2, -4, -24, 48], "withholdReward": true, "trial_id": "mdp_937564992306", "block": "test1", "trialIndex": 8, "score": 52.25, "costs": -0.75, "simulationMode": [null, null, null], "rewards": [4, -4, 48], "path": ["0", "0", "1", "2", "3"], "rt": [5264, 274, 330], "actions": ["up", "up", "right"], "actionTimes": [6770, 7537, 8361], "queries": {"click": {"state": {"target": ["1", "2", "3"], "time": [3445, 4253, 4742]}, "edge": {"target": [], "time": []}}, "mouseover": {"state": {"target": ["0", "1", "2", "1", "2", "3"], "time": [1596, 2139, 2606, 3223, 3940, 4508]}, "edge": {"target": [], "time": []}}, "mouseout": {"state": {"target": ["0", "0", "1", "2", "1", "2", "3", "5"], "time": [837, 1835, 2489, 3140, 3740, 4391, 5192, 9346]}, "edge": {"target": [], "time": []}}}, "displayed_time": "9.51", "trialTime": 11065, "trial_type": "mouselab-mdp", "trial_index": 19, "time_elapsed": 904170, "internal_node_id": "0.0-4.0-1.0-4.0"}}, {"uniqueid": "w90425244:a49922299", "current_trial": 20, "dateTime": 1664372335889, "trialdata": {"revealed_states": [], "num_clicks_accrued": [0, 0, 0, 0, 0, 0, 0, 0, 0, 0, 0, 0, 0], "stateRewards": ["", 2, -4, -24, 24, 2, 8, 48, 48, 2, -8, 48, -24], "withholdReward": false, "trial_id": "mdp_330392242530", "block": "test1", "trialIndex": 9, "score": 61.25, "costs": -1.75, "simulationMode": [null, null, null], "rewards": [2, 8, 48], "path": ["0", "0", "5", "6", "8"], "rt": [7764, 291, 379], "actions": ["right", "right", "down"], "actionTimes": [9626, 10410, 11281], "queries": {"click": {"state": {"target": ["1", "2", "4", "3", "5", "6", "8"], "time": [2735, 3673, 4511, 5856, 7024, 7504, 8648]}, "edge": {"target": [], "time": []}}, "mouseover": {"state": {"target": ["1", "2", "4", "3", "5", "6", "8"], "time": [2426, 3176, 4277, 5479, 6846, 7230, 8319]}, "edge": {"target": [], "time": []}}, "mouseout": {"state": {"target": ["0", "1", "2", "4", "2", "3", "5", "6", "8"], "time": [2214, 3093, 4027, 5046, 5245, 6046, 7180, 7864, 12339]}, "edge": {"target": [], "time": []}}}, "displayed_time": "11.77", "trialTime": 13210, "trial_type": "mouselab-mdp", "trial_index": 20, "time_elapsed": 917490, "internal_node_id": "0.0-4.0-1.0-5.0"}}, {"uniqueid": "w90425244:a49922299", "current_trial": 21, "dateTime": 1664372347936, "trialdata": {"revealed_states": [], "num_clicks_accrued": [0, 0, 0, 0, 0, 0, 0, 0, 0, 0, 0, 0, 0], "stateRewards": ["", -2, -4, -24, 24, -2, 4, -24, -24, -4, 4, 24, -24], "withholdReward": true, "trial_id": "mdp_999419261719", "block": "test1", "trialIndex": 10, "score": 27.25, "costs": -1.75, "simulationMode": [null, null, null], "rewards": [-4, 4, 24], "path": ["0", "0", "9", "10", "11"], "rt": [7934, 213, 297], "actions": ["left", "left", "up"], "actionTimes": [8873, 9609, 10408], "queries": {"click": {"state": {"target": ["9", "10", "11", "12", "5", "6", "7"], "time": [1664, 2576, 3201, 4296, 5232, 5857, 6536]}, "edge": {"target": [], "time": []}}, "mouseover": {"state": {"target": ["9", "10", "11", "12", "0", "5", "6", "7"], "time": [1471, 2368, 2969, 4047, 4805, 5021, 5789, 6256]}, "edge": {"target": [], "time": []}}, "mouseout": {"state": {"target": ["0", "9", "10", "11", "10", "12", "0", "5", "6", "7", "7", "5"], "time": [683, 1968, 2836, 3553, 3820, 4438, 4905, 5556, 6190, 6757, 8041, 11395]}, "edge": {"target": [], "time": []}}}, "displayed_time": "10.91", "trialTime": 11920, "trial_type": "mouselab-mdp", "trial_index": 21, "time_elapsed": 929536, "internal_node_id": "0.0-4.0-1.0-6.0"}}, {"uniqueid": "w90425244:a49922299", "current_trial": 22, "dateTime": 1664372366762, "trialdata": {"revealed_states": [], "num_clicks_accrued": [0, 0, 0, 0, 0, 0, 0, 0, 0, 0, 0, 0, 0], "stateRewards": ["", 2, -8, 24, 24, 4, -4, -24, -48, 4, 8, 24, 24], "withholdReward": false, "trial_id": "mdp_249803813713", "block": "test1", "trialIndex": 11, "score": 20.75, "costs": -2.25, "simulationMode": [null, null, null], "rewards": [2, -8, 24], "path": ["0", "0", "1", "2", "4"], "rt": [11477, 491, 442], "actions": ["up", "up", "left"], "actionTimes": [14291, 15283, 16219], "queries": {"click": {"state": {"target": ["1", "2", "3", "4", "5", "7", "8", "12", "11"], "time": [3876, 4532, 5140, 7124, 8028, 9625, 10517, 11541, 12309]}, "edge": {"target": [], "time": []}}, "mouseover": {"state": {"target": ["1", "2", "3", "5", "4", "5", "6", "7", "6", "8", "12", "10", "11"], "time": [3578, 4246, 4847, 6365, 6883, 7485, 8267, 8968, 10069, 10252, 11337, 11804, 12021]}, "edge": {"target": [], "time": []}}, "mouseout": {"state": {"target": ["0", "1", "2", "3", "2", "1", "5", "1", "2", "4", "1", "5", "6", "7", "6", "8", "12", "10", "11", "1", "5"], "time": [2626, 4196, 4797, 5564, 5931, 6348, 6587, 6633, 6849, 7283, 7416, 8167, 8701, 10036, 10153, 10708, 11754, 11820, 12572, 13205, 17092]}, "edge": {"target": [], "time": []}}}, "displayed_time": "16.71", "trialTime": 18676, "trial_type": "mouselab-mdp", "trial_index": 22, "time_elapsed": 948363, "internal_node_id": "0.0-4.0-1.0-7.0"}}, {"uniqueid": "w90425244:a49922299", "current_trial": 23, "dateTime": 1664372377561, "trialdata": {"revealed_states": [], "num_clicks_accrued": [0, 0, 0, 0, 0, 0, 0, 0, 0, 0, 0, 0, 0], "stateRewards": ["", -4, 8, -24, 48, 2, -8, 24, 48, 2, -8, -24, -48], "withholdReward": true, "trial_id": "mdp_493778446445", "block": "test1", "trialIndex": 12, "score": 56.25, "costs": -0.75, "simulationMode": [null, null, null], "rewards": [-4, 8, 48], "path": ["0", "0", "1", "2", "4"], "rt": [3214, 293, 308], "actions": ["up", "up", "left"], "actionTimes": [4389, 5189, 5990], "queries": {"click": {"state": {"target": ["1", "2", "4"], "time": [2522, 3105, 3857]}, "edge": {"target": [], "time": []}}, "mouseover": {"state": {"target": ["1", "2", "1", "2", "4"], "time": [1675, 2126, 2309, 2710, 3694]}, "edge": {"target": [], "time": []}}, "mouseout": {"state": {"target": ["0", "1", "2", "1", "2", "4", "1"], "time": [991, 1725, 2184, 2676, 3327, 4144, 4328]}, "edge": {"target": [], "time": []}}}, "displayed_time": "9.18", "trialTime": 10654, "trial_type": "mouselab-mdp", "trial_index": 23, "time_elapsed": 959161, "internal_node_id": "0.0-4.0-1.0-8.0"}}, {"uniqueid": "w90425244:a49922299", "current_trial": 24, "dateTime": 1664372391513, "trialdata": {"revealed_states": [], "num_clicks_accrued": [0, 0, 0, 0, 0, 0, 0, 0, 0, 0, 0, 0, 0], "stateRewards": ["", 4, -8, 48, -24, -4, 4, 24, 24, -2, -4, 24, 24], "withholdReward": true, "trial_id": "mdp_542168715839", "block": "test1", "trialIndex": 13, "score": 47, "costs": -2, "simulationMode": [null, null, null], "rewards": [4, -8, 48], "path": ["0", "0", "1", "2", "3"], "rt": [8898, 366, 517], "actions": ["up", "up", "right"], "actionTimes": [9940, 10803, 11820], "queries": {"click": {"state": {"target": ["9", "10", "11", "12", "1", "2", "4", "3"], "time": [2932, 3513, 4153, 5129, 6873, 7441, 8042, 8963]}, "edge": {"target": [], "time": []}}, "mouseover": {"state": {"target": ["9", "10", "11", "12", "2", "1", "2", "4", "3"], "time": [1659, 3244, 3879, 4912, 5847, 6614, 7249, 7748, 8800]}, "edge": {"target": [], "time": []}}, "mouseout": {"state": {"target": ["0", "9", "10", "11", "10", "12", "9", "2", "1", "2", "4", "2", "3", "5"], "time": [1409, 3144, 3844, 4462, 4695, 5296, 5447, 6514, 7081, 7632, 8449, 8667, 9267, 12904]}, "edge": {"target": [], "time": []}}}, "displayed_time": "12.32", "trialTime": 13812, "trial_type": "mouselab-mdp", "trial_index": 24, "time_elapsed": 973113, "internal_node_id": "0.0-4.0-1.0-9.0"}}, {"uniqueid": "w90425244:a49922299", "current_trial": 25, "dateTime": 1664372403681, "trialdata": {"revealed_states": [], "num_clicks_accrued": [0, 0, 0, 0, 0, 0, 0, 0, 0, 0, 0, 0, 0], "stateRewards": ["", -2, -8, 48, -24, 2, -4, -48, -24, -2, -4, -48, 48], "withholdReward": true, "trial_id": "mdp_143798438087", "block": "test1", "trialIndex": 14, "score": 42, "costs": -1, "simulationMode": [null, null, null], "rewards": [-2, -8, 48], "path": ["0", "0", "1", "2", "3"], "rt": [7843, 240, 257], "actions": ["up", "up", "right"], "actionTimes": [8853, 9596, 10349], "queries": {"click": {"state": {"target": ["5", "7", "8", "3"], "time": [1787, 2796, 5228, 6628]}, "edge": {"target": [], "time": []}}, "mouseover": {"state": {"target": ["5", "6", "7", "6", "8", "0", "1", "8", "3", "2", "1", "1"], "time": [1648, 2148, 2565, 3150, 3482, 3683, 4017, 4934, 6386, 6920, 7570, 8571]}, "edge": {"target": [], "time": []}}, "mouseout": {"state": {"target": ["0", "5", "6", "7", "6", "8", "5", "0", "1", "5", "8", "3", "2", "1"], "time": [1498, 2098, 2249, 3016, 3433, 3549, 3650, 3884, 4567, 4667, 5602, 6853, 7504, 8104]}, "edge": {"target": [], "time": []}}}, "displayed_time": "10.84", "trialTime": 12021, "trial_type": "mouselab-mdp", "trial_index": 25, "time_elapsed": 985281, "internal_node_id": "0.0-4.0-1.0-10.0"}}, {"uniqueid": "w90425244:a49922299", "current_trial": 26, "dateTime": 1664372415768, "trialdata": {"revealed_states": [], "num_clicks_accrued": [0, 0, 0, 0, 0, 0, 0, 0, 0, 0, 0, 0, 0], "stateRewards": ["", 2, 8, 24, 24, 2, -8, -24, -48, 2, 8, -48, 48], "withholdReward": false, "trial_id": "mdp_745175888812", "block": "test1", "trialIndex": 15, "score": 62.25, "costs": -0.75, "simulationMode": [null, null, null], "rewards": [2, 8, 48], "path": ["0", "0", "9", "10", "12"], "rt": [6223, 215, 121], "actions": ["left", "left", "down"], "actionTimes": [7460, 8172, 8795], "queries": {"click": {"state": {"target": ["12", "3", "7"], "time": [2572, 5205, 6542]}, "edge": {"target": [], "time": []}}, "mouseover": {"state": {"target": ["9", "10", "12", "10", "11", "9", "10", "11", "2", "3", "2", "2", "7"], "time": [1716, 1966, 2300, 2934, 3102, 4085, 4387, 4486, 4870, 4986, 5654, 5837, 6287]}, "edge": {"target": [], "time": []}}, "mouseout": {"state": {"target": ["1", "9", "10", "12", "10", "11", "9", "10", "11", "2", "3", "2", "2", "7", "0"], "time": [531, 1867, 2133, 2901, 2984, 3785, 4169, 4435, 4519, 4887, 5620, 5703, 5887, 6838, 10076]}, "edge": {"target": [], "time": []}}}, "displayed_time": "10.24", "trialTime": 11932, "trial_type": "mouselab-mdp", "trial_index": 26, "time_elapsed": 997369, "internal_node_id": "0.0-4.0-1.0-11.0"}}, {"uniqueid": "w90425244:a49922299", "current_trial": 27, "dateTime": 1664372431520, "trialdata": {"revealed_states": [], "num_clicks_accrued": [0, 0, 0, 0, 0, 0, 0, 0, 0, 0, 0, 0, 0], "stateRewards": ["", 4, -8, 24, 48, 2, 4, 48, 48, 2, 8, -48, -48], "withholdReward": true, "trial_id": "mdp_783704746330", "block": "test1", "trialIndex": 16, "score": 58.5, "costs": -0.5, "simulationMode": [null, null, null], "rewards": [2, 4, 48], "path": ["0", "0", "5", "6", "7"], "rt": [3023, 570, 119], "actions": ["right", "right", "up"], "actionTimes": [4633, 5696, 6312], "queries": {"click": {"state": {"target": ["11", "7"], "time": [2498, 3475]}, "edge": {"target": [], "time": []}}, "mouseover": {"state": {"target": ["10", "11", "7"], "time": [2154, 2321, 3272]}, "edge": {"target": [], "time": []}}, "mouseout": {"state": {"target": ["0", "10", "11", "7", "5"], "time": [1921, 2205, 2872, 4140, 14117]}, "edge": {"target": [], "time": []}}}, "displayed_time": "9.61", "trialTime": 15592, "trial_type": "mouselab-mdp", "trial_index": 27, "time_elapsed": 1013120, "internal_node_id": "0.0-4.0-1.0-12.0"}}, {"uniqueid": "w90425244:a49922299", "current_trial": 28, "dateTime": 1664372442993, "trialdata": {"revealed_states": [], "num_clicks_accrued": [0, 0, 0, 0, 0, 0, 0, 0, 0, 0, 0, 0, 0], "stateRewards": ["", 2, 4, 24, 48, -2, 8, 24, -24, -4, -4, 48, 48], "withholdReward": true, "trial_id": "mdp_753439303214", "block": "test1", "trialIndex": 17, "score": 44.5, "costs": -0.5, "simulationMode": [null, null, null], "rewards": [-4, -4, 48], "path": ["0", "0", "9", "10", "11"], "rt": [3159, 141, 220], "actions": ["left", "left", "up"], "actionTimes": [4050, 4682, 5394], "queries": {"click": {"state": {"target": ["3", "11"], "time": [1975, 3198]}, "edge": {"target": [], "time": []}}, "mouseover": {"state": {"target": ["1", "3", "2", "4", "11", "10"], "time": [1519, 1819, 2453, 2704, 3054, 3638]}, "edge": {"target": [], "time": []}}, "mouseout": {"state": {"target": ["0", "1", "3", "2", "4", "11", "10", "9"], "time": [1269, 1553, 2420, 2504, 2787, 3505, 5524, 6257]}, "edge": {"target": [], "time": []}}}, "displayed_time": "9.89", "trialTime": 11331, "trial_type": "mouselab-mdp", "trial_index": 28, "time_elapsed": 1024594, "internal_node_id": "0.0-4.0-1.0-13.0"}}, {"uniqueid": "w90425244:a49922299", "current_trial": 29, "dateTime": 1664372454760, "trialdata": {"revealed_states": [], "num_clicks_accrued": [0, 0, 0, 0, 0, 0, 0, 0, 0, 0, 0, 0, 0], "stateRewards": ["", 4, 4, 48, -24, 2, -4, 48, 24, -4, -4, -48, 24], "withholdReward": true, "trial_id": "mdp_496003763005", "block": "test1", "trialIndex": 18, "score": 60.25, "costs": -0.75, "simulationMode": [null, null, null], "rewards": [4, 4, 48], "path": ["0", "0", "1", "2", "3"], "rt": [7398, 199, 291], "actions": ["up", "up", "right"], "actionTimes": [8323, 9019, 9811], "queries": {"click": {"state": {"target": ["8", "3", "1"], "time": [3381, 4833, 7385]}, "edge": {"target": [], "time": []}}, "mouseover": {"state": {"target": ["9", "10", "12", "8", "7", "3", "2", "1"], "time": [1494, 1661, 1861, 3129, 4213, 4648, 5364, 6916]}, "edge": {"target": [], "time": []}}, "mouseout": {"state": {"target": ["0", "9", "10", "12", "8", "7", "3", "2", "1", "1", "1"], "time": [1343, 1594, 1694, 2779, 3897, 4263, 5314, 5415, 7683, 8000, 10871]}, "edge": {"target": [], "time": []}}}, "displayed_time": "10.30", "trialTime": 11611, "trial_type": "mouselab-mdp", "trial_index": 29, "time_elapsed": 1036361, "internal_node_id": "0.0-4.0-1.0-14.0"}}, {"uniqueid": "w90425244:a49922299", "current_trial": 30, "dateTime": 1664372464905, "trialdata": {"revealed_states": [], "num_clicks_accrued": [0, 0, 0, 0, 0, 0, 0, 0, 0, 0, 0, 0, 0], "stateRewards": ["", -2, 8, 48, 24, 2, -4, 48, -48, 2, 8, 24, -24], "withholdReward": true, "trial_id": "mdp_176207245985", "block": "test1", "trialIndex": 19, "score": 50.25, "costs": -0.75, "simulationMode": [null, null, null], "rewards": [2, -4, 48], "path": ["0", "0", "5", "6", "7"], "rt": [5550, 344, 191], "actions": ["right", "right", "up"], "actionTimes": [6263, 7111, 7806], "queries": {"click": {"state": {"target": ["7", "12", "5"], "time": [1974, 3838, 5734]}, "edge": {"target": [], "time": []}}, "mouseover": {"state": {"target": ["5", "7", "5", "0", "9", "12", "9", "1", "3", "5"], "time": [1424, 1724, 2708, 2925, 3092, 3676, 4343, 4477, 4777, 5444]}, "edge": {"target": [], "time": []}}, "mouseout": {"state": {"target": ["0", "0", "5", "7", "5", "0", "9", "12", "9", "1", "3", "5"], "time": [277, 1391, 1490, 2258, 2775, 3042, 3359, 4193, 4359, 4594, 5177, 8698]}, "edge": {"target": [], "time": []}}}, "displayed_time": "8.71", "trialTime": 10007, "trial_type": "mouselab-mdp", "trial_index": 30, "time_elapsed": 1046506, "internal_node_id": "0.0-4.0-1.0-15.0"}}, {"uniqueid": "w90425244:a49922299", "current_trial": 31, "dateTime": 1664372475497, "trialdata": {"revealed_states": [], "num_clicks_accrued": [0, 0, 0, 0, 0, 0, 0, 0, 0, 0, 0, 0, 0], "stateRewards": ["", -4, 8, -24, -24, 4, -8, 48, -24, -4, -8, -24, -48], "withholdReward": true, "trial_id": "mdp_391766721791", "block": "test1", "trialIndex": 20, "score": 48, "costs": -1, "simulationMode": [null, null, null], "rewards": [4, -8, 48], "path": ["0", "0", "5", "6", "7"], "rt": [5366, 298, 386], "actions": ["right", "right", "up"], "actionTimes": [6227, 7018, 7906], "queries": {"click": {"state": {"target": ["3", "8", "11", "7"], "time": [1723, 2867, 4115, 5437]}, "edge": {"target": [], "time": []}}, "mouseover": {"state": {"target": ["1", "3", "7", "6", "8", "9", "11", "1", "7"], "time": [1329, 1546, 2197, 2363, 2647, 3514, 3915, 4666, 5200]}, "edge": {"target": [], "time": []}}, "mouseout": {"state": {"target": ["0", "1", "3", "7", "6", "8", "9", "11", "1", "7"], "time": [628, 1446, 2064, 2280, 2548, 3314, 3648, 4570, 4683, 5884]}, "edge": {"target": [], "time": []}}}, "displayed_time": "8.40", "trialTime": 10412, "trial_type": "mouselab-mdp", "trial_index": 31, "time_elapsed": 1057098, "internal_node_id": "0.0-4.0-1.0-16.0"}}, {"uniqueid": "w90425244:a49922299", "current_trial": 32, "dateTime": 1664372488073, "trialdata": {"revealed_states": [], "num_clicks_accrued": [0, 0, 0, 0, 0, 0, 0, 0, 0, 0, 0, 0, 0], "stateRewards": ["", -2, -8, -24, 48, -2, -8, -48, -48, 2, -8, -48, 24], "withholdReward": true, "trial_id": "mdp_288324580942", "block": "test1", "trialIndex": 21, "score": 41.75, "costs": -1.25, "simulationMode": [null, null, null], "rewards": [-2, -8, 48], "path": ["0", "0", "1", "2", "4"], "rt": [5845, 252, 365], "actions": ["up", "up", "left"], "actionTimes": [6724, 7469, 8332], "queries": {"click": {"state": {"target": ["3", "11", "8", "7", "4"], "time": [1878, 2927, 4079, 4903, 5927]}, "edge": {"target": [], "time": []}}, "mouseover": {"state": {"target": ["1", "3", "2", "4", "11", "5", "8", "6", "7", "2", "4", "9"], "time": [1425, 1693, 2260, 2443, 2760, 3444, 3982, 4545, 4679, 5363, 5714, 6481]}, "edge": {"target": [], "time": []}}, "mouseout": {"state": {"target": ["0", "1", "3", "2", "4", "11", "5", "8", "8", "6", "7", "7", "2", "4", "9"], "time": [1192, 1442, 2226, 2326, 2509, 3311, 3461, 4462, 4512, 4562, 5130, 5296, 5582, 6281, 6531]}, "edge": {"target": [], "time": []}}}, "displayed_time": "9.88", "trialTime": 12389, "trial_type": "mouselab-mdp", "trial_index": 32, "time_elapsed": 1069674, "internal_node_id": "0.0-4.0-1.0-17.0"}}, {"uniqueid": "w90425244:a49922299", "current_trial": 33, "dateTime": 1664372500073, "trialdata": {"revealed_states": [], "num_clicks_accrued": [0, 0, 0, 0, 0, 0, 0, 0, 0, 0, 0, 0, 0], "stateRewards": ["", -4, 8, -24, 24, -2, -8, 24, -24, 4, -4, -48, 48], "withholdReward": true, "trial_id": "mdp_297684722007", "block": "test1", "trialIndex": 22, "score": 52.25, "costs": -0.75, "simulationMode": [null, null, null], "rewards": [4, -4, 48], "path": ["0", "0", "9", "10", "12"], "rt": [6192, 250, 211], "actions": ["left", "left", "down"], "actionTimes": [7702, 8446, 9159], "queries": {"click": {"state": {"target": ["4", "11", "12"], "time": [3027, 4667, 5628]}, "edge": {"target": [], "time": []}}, "mouseover": {"state": {"target": ["1", "2", "4", "2", "11", "10", "12", "5", "5", "0", "9"], "time": [1889, 2223, 2773, 3591, 4491, 5125, 5425, 6177, 6477, 6677, 6844]}, "edge": {"target": [], "time": []}}, "mouseout": {"state": {"target": ["0", "1", "2", "4", "2", "11", "10", "12", "5", "5", "0", "9", "9", "0"], "time": [1840, 1939, 2756, 3557, 3824, 4992, 5276, 5759, 6310, 6610, 6744, 8579, 8680, 10164]}, "edge": {"target": [], "time": []}}}, "displayed_time": "10.51", "trialTime": 11839, "trial_type": "mouselab-mdp", "trial_index": 33, "time_elapsed": 1081674, "internal_node_id": "0.0-4.0-1.0-18.0"}}, {"uniqueid": "w90425244:a49922299", "current_trial": 34, "dateTime": 1664372511337, "trialdata": {"revealed_states": [], "num_clicks_accrued": [0, 0, 0, 0, 0, 0, 0, 0, 0, 0, 0, 0, 0], "stateRewards": ["", -2, -8, 24, -24, 4, -8, 48, 48, -4, -8, -24, -48], "withholdReward": true, "trial_id": "mdp_286767261523", "block": "test1", "trialIndex": 23, "score": 47.75, "costs": -1.25, "simulationMode": [null, null, null], "rewards": [4, -8, 48], "path": ["0", "0", "5", "6", "8"], "rt": [7027, 198, 226], "actions": ["right", "right", "down"], "actionTimes": [7917, 8613, 9341], "queries": {"click": {"state": {"target": ["8", "5", "6", "11", "3"], "time": [1803, 4211, 4643, 6012, 7115]}, "edge": {"target": [], "time": []}}, "mouseover": {"state": {"target": ["5", "6", "8", "6", "7", "6", "5", "6", "9", "10", "11", "10", "4", "2", "3"], "time": [1289, 1389, 1540, 2507, 3441, 3826, 3976, 4459, 5493, 5627, 5794, 6462, 6678, 6845, 6929]}, "edge": {"target": [], "time": []}}, "mouseout": {"state": {"target": ["0", "5", "6", "8", "6", "7", "6", "5", "6", "5", "9", "10", "11", "10", "4", "2", "3", "6", "5"], "time": [1240, 1340, 1506, 2307, 3175, 3709, 3909, 4376, 5177, 5244, 5594, 5660, 6396, 6562, 6762, 6895, 7295, 10282, 10382]}, "edge": {"target": [], "time": []}}}, "displayed_time": "9.83", "trialTime": 11142, "trial_type": "mouselab-mdp", "trial_index": 34, "time_elapsed": 1092937, "internal_node_id": "0.0-4.0-1.0-19.0"}}, {"uniqueid": "w90425244:a49922299", "current_trial": 35, "dateTime": 1664372524433, "trialdata": {"revealed_states": [], "num_clicks_accrued": [0, 0, 0, 0, 0, 0, 0, 0, 0, 0, 0, 0, 0], "stateRewards": ["", 2, -8, 24, -24, -2, 8, -48, -48, 2, -8, -24, -48], "withholdReward": true, "trial_id": "mdp_744278669205", "block": "test1", "trialIndex": 24, "score": 21.5, "costs": -1.5, "simulationMode": [null, null, null], "rewards": [2, -8, 24], "path": ["0", "0", "1", "2", "3"], "rt": [8314, 170, 294], "actions": ["up", "up", "right"], "actionTimes": [9221, 9892, 10684], "queries": {"click": {"state": {"target": ["7", "4", "12", "3", "11", "8"], "time": [2115, 3004, 4100, 5204, 6324, 7549]}, "edge": {"target": [], "time": []}}, "mouseover": {"state": {"target": ["7", "2", "4", "11", "10", "12", "1", "3", "1", "11", "5", "8", "6"], "time": [1863, 2546, 2730, 3481, 3531, 3898, 4549, 4949, 5783, 6267, 6801, 7318, 9037]}, "edge": {"target": [], "time": []}}, "mouseout": {"state": {"target": ["0", "7", "2", "4", "11", "10", "12", "1", "3", "1", "11", "5", "8", "6", "5"], "time": [1378, 2463, 2580, 3397, 3497, 3699, 4232, 4666, 5433, 5833, 6707, 6818, 7635, 11489, 11540]}, "edge": {"target": [], "time": []}}}, "displayed_time": "11.17", "trialTime": 12949, "trial_type": "mouselab-mdp", "trial_index": 35, "time_elapsed": 1106034, "internal_node_id": "0.0-4.0-1.0-20.0"}}, {"uniqueid": "w90425244:a49922299", "current_trial": 36, "dateTime": 1664372537312, "trialdata": {"revealed_states": [], "num_clicks_accrued": [0, 0, 0, 0, 0, 0, 0, 0, 0, 0, 0, 0, 0], "stateRewards": ["", -2, 8, -48, 48, -4, 8, -24, 24, 4, -4, 24, -48], "withholdReward": false, "trial_id": "mdp_904238083902", "block": "test1", "trialIndex": 25, "score": 57.5, "costs": -1.5, "simulationMode": [null, null, null], "rewards": [-2, 8, 48], "path": ["0", "0", "1", "2", "4"], "rt": [8793, 154, 351], "actions": ["up", "up", "left"], "actionTimes": [9838, 10494, 11342], "queries": {"click": {"state": {"target": ["3", "7", "11", "12", "8", "4"], "time": [3701, 5143, 6128, 6864, 7792, 8968]}, "edge": {"target": [], "time": []}}, "mouseover": {"state": {"target": ["1", "3", "6", "7", "1", "11", "10", "12", "8", "5", "1", "4", "1"], "time": [1597, 3183, 4767, 4867, 5601, 5919, 6551, 6619, 7603, 8271, 8554, 8771, 9355]}, "edge": {"target": [], "time": []}}, "mouseout": {"state": {"target": ["0", "1", "3", "6", "7", "1", "11", "10", "12", "8", "5", "1", "4", "1", "1"], "time": [1350, 3099, 4217, 4800, 5551, 5634, 6503, 6602, 7186, 8254, 8304, 8571, 9271, 9372, 11776]}, "edge": {"target": [], "time": []}}}, "displayed_time": "11.84", "trialTime": 12766, "trial_type": "mouselab-mdp", "trial_index": 36, "time_elapsed": 1118913, "internal_node_id": "0.0-4.0-1.0-21.0"}}, {"uniqueid": "w90425244:a49922299", "current_trial": 37, "dateTime": 1664372550311, "trialdata": {"revealed_states": [], "num_clicks_accrued": [0, 0, 0, 0, 0, 0, 0, 0, 0, 0, 0, 0, 0], "stateRewards": ["", -4, -8, -48, 24, -4, -4, -24, -48, 2, -8, -24, -48], "withholdReward": true, "trial_id": "mdp_628181832088", "block": "test1", "trialIndex": 26, "score": 15.5, "costs": -1.5, "simulationMode": [null, null, null], "rewards": [-4, -8, 24], "path": ["0", "0", "1", "2", "4"], "rt": [7653, 405, 362], "actions": ["up", "up", "left"], "actionTimes": [9520, 10423, 11279], "queries": {"click": {"state": {"target": ["8", "7", "4", "11", "12", "3"], "time": [2714, 3562, 4346, 5090, 5938, 6667]}, "edge": {"target": [], "time": []}}, "mouseover": {"state": {"target": ["5", "8", "6", "7", "3", "2", "4", "11", "10", "12", "9", "1", "3", "1", "2"], "time": [2256, 2523, 3157, 3240, 3925, 4075, 4159, 4842, 5526, 5693, 6210, 6260, 6477, 7078, 8196]}, "edge": {"target": [], "time": []}}, "mouseout": {"state": {"target": ["0", "5", "8", "6", "7", "3", "2", "4", "11", "10", "12", "9", "1", "3", "1", "2", "3", "0"], "time": [2223, 2273, 3124, 3207, 3881, 3959, 4092, 4625, 5476, 5593, 6160, 6227, 6277, 6961, 8162, 10164, 12200, 12383]}, "edge": {"target": [], "time": []}}}, "displayed_time": "11.77", "trialTime": 12895, "trial_type": "mouselab-mdp", "trial_index": 37, "time_elapsed": 1131912, "internal_node_id": "0.0-4.0-1.0-22.0"}}, {"uniqueid": "w90425244:a49922299", "current_trial": 38, "dateTime": 1664372563536, "trialdata": {"revealed_states": [], "num_clicks_accrued": [0, 0, 0, 0, 0, 0, 0, 0, 0, 0, 0, 0, 0], "stateRewards": ["", 4, 4, -48, -48, 4, 4, -24, -24, -4, 8, -48, 24], "withholdReward": false, "trial_id": "mdp_669785455541", "block": "test1", "trialIndex": 27, "score": 31.5, "costs": -1.5, "simulationMode": [null, null, null], "rewards": [-4, 8, 24], "path": ["0", "0", "9", "10", "12"], "rt": [5860, 225, 227], "actions": ["left", "left", "down"], "actionTimes": [7347, 8074, 8794], "queries": {"click": {"state": {"target": ["3", "4", "11", "12", "7", "8"], "time": [2583, 3351, 4167, 4838, 5799, 6359]}, "edge": {"target": [], "time": []}}, "mouseover": {"state": {"target": ["1", "3", "2", "4", "11", "10", "12", "5", "7", "6", "8"], "time": [2075, 2374, 2975, 3166, 3926, 4494, 4627, 5261, 5595, 5962, 6161]}, "edge": {"target": [], "time": []}}, "mouseout": {"state": {"target": ["0", "1", "3", "2", "4", "11", "10", "12", "5", "7", "6", "8"], "time": [1306, 2174, 2942, 3025, 3626, 4410, 4543, 4994, 5294, 5928, 6045, 7430]}, "edge": {"target": [], "time": []}}}, "displayed_time": "10.49", "trialTime": 13074, "trial_type": "mouselab-mdp", "trial_index": 38, "time_elapsed": 1145136, "internal_node_id": "0.0-4.0-1.0-23.0"}}, {"uniqueid": "w90425244:a49922299", "current_trial": 39, "dateTime": 1664372576703, "trialdata": {"revealed_states": [], "num_clicks_accrued": [0, 0, 0, 0, 0, 0, 0, 0, 0, 0, 0, 0, 0], "stateRewards": ["", 2, 4, -48, -48, 4, 4, -48, -48, -2, -8, 48, -24], "withholdReward": true, "trial_id": "mdp_175327338412", "block": "test1", "trialIndex": 28, "score": 41, "costs": -2, "simulationMode": [null, null, null], "rewards": [-2, -8, 48], "path": ["0", "0", "9", "10", "11"], "rt": [8975, 101, 181], "actions": ["left", "left", "up"], "actionTimes": [10224, 10824, 11504], "queries": {"click": {"state": {"target": ["4", "11", "9", "10", "7", "8", "12", "3"], "time": [2054, 2943, 4711, 5639, 6863, 7775, 8519, 9479]}, "edge": {"target": [], "time": []}}, "mouseover": {"state": {"target": ["4", "11", "2", "3", "1", "9", "10", "0", "5", "7", "6", "8", "12", "1", "3"], "time": [1862, 2696, 3213, 3365, 3547, 3931, 5449, 5900, 6417, 6634, 7135, 7552, 8286, 8986, 9320]}, "edge": {"target": [], "time": []}}, "mouseout": {"state": {"target": ["0", "4", "11", "2", "3", "1", "9", "9", "10", "9", "0", "5", "7", "6", "8", "12", "1", "3", "5"], "time": [1462, 2479, 3097, 3230, 3514, 3630, 4865, 5249, 5766, 5867, 6383, 6500, 7084, 7184, 8102, 8853, 9203, 9737, 12423]}, "edge": {"target": [], "time": []}}}, "displayed_time": "12.01", "trialTime": 13000, "trial_type": "mouselab-mdp", "trial_index": 39, "time_elapsed": 1158304, "internal_node_id": "0.0-4.0-1.0-24.0"}}, {"uniqueid": "w90425244:a49922299", "current_trial": 40, "dateTime": 1664372590423, "trialdata": {"revealed_states": [], "num_clicks_accrued": [0, 0, 0, 0, 0, 0, 0, 0, 0, 0, 0, 0, 0], "stateRewards": ["", -2, 8, -24, 24, 2, -8, 48, -24, 2, 8, -24, -24], "withholdReward": true, "trial_id": "mdp_674708270444", "block": "test1", "trialIndex": 29, "score": 45.5, "costs": -1.5, "simulationMode": [null, null, null], "rewards": [2, -8, 48], "path": ["0", "0", "5", "6", "7"], "rt": [5945, 161, 358], "actions": ["right", "right", "up"], "actionTimes": [9065, 9721, 10569], "queries": {"click": {"state": {"target": ["3", "4", "11", "12", "8", "7"], "time": [4154, 5226, 5970, 6602, 7666, 8378]}, "edge": {"target": [], "time": []}}, "mouseover": {"state": {"target": ["1", "3", "2", "4", "11", "10", "12", "8", "6", "7"], "time": [3653, 3936, 4486, 5003, 5570, 6204, 6404, 7573, 7923, 8190]}, "edge": {"target": [], "time": []}}, "mouseout": {"state": {"target": ["0", "1", "3", "2", "4", "11", "10", "12", "8", "6", "7", "6", "8"], "time": [2768, 3768, 4470, 4520, 5420, 6154, 6321, 6822, 7889, 8089, 8707, 11477, 11527]}, "edge": {"target": [], "time": []}}}, "displayed_time": "12.12", "trialTime": 13560, "trial_type": "mouselab-mdp", "trial_index": 40, "time_elapsed": 1172024, "internal_node_id": "0.0-4.0-1.0-25.0"}}, {"uniqueid": "w90425244:a49922299", "current_trial": 41, "dateTime": 1664372602839, "trialdata": {"revealed_states": [], "num_clicks_accrued": [0, 0, 0, 0, 0, 0, 0, 0, 0, 0, 0, 0, 0], "stateRewards": ["", -4, 8, 24, -24, 4, 8, -24, -48, 2, 4, 24, -24], "withholdReward": false, "trial_id": "mdp_782187007008", "block": "test1", "trialIndex": 30, "score": 33, "costs": -2, "simulationMode": [null, null, null], "rewards": [2, 4, 24], "path": ["0", "0", "9", "10", "11"], "rt": [7777, 401, 253], "actions": ["left", "left", "up"], "actionTimes": [9049, 9945, 10697], "queries": {"click": {"state": {"target": ["7", "8", "11", "4", "3", "12", "1", "9"], "time": [2052, 2939, 3619, 4427, 4932, 5763, 7700, 8429]}, "edge": {"target": [], "time": []}}, "mouseover": {"state": {"target": ["1", "7", "6", "8", "5", "11", "4", "2", "3", "1", "9", "12", "0", "1", "9"], "time": [1517, 1650, 2351, 2718, 3136, 3519, 4036, 4670, 4754, 5154, 5288, 5588, 6739, 6956, 8207]}, "edge": {"target": [], "time": []}}, "mouseout": {"state": {"target": ["0", "1", "7", "6", "8", "5", "11", "4", "2", "3", "1", "9", "12", "0", "1", "9"], "time": [1116, 1534, 2318, 2385, 3102, 3153, 4003, 4603, 4721, 5104, 5171, 5370, 6022, 6789, 8024, 8958]}, "edge": {"target": [], "time": []}}}, "displayed_time": "11.23", "trialTime": 12296, "trial_type": "mouselab-mdp", "trial_index": 41, "time_elapsed": 1184440, "internal_node_id": "0.0-4.0-1.0-26.0"}}, {"uniqueid": "w90425244:a49922299", "current_trial": 42, "dateTime": 1664372616800, "trialdata": {"revealed_states": [], "num_clicks_accrued": [0, 0, 0, 0, 0, 0, 0, 0, 0, 0, 0, 0, 0], "stateRewards": ["", -2, 8, -48, -24, -2, 8, 48, -48, -4, 8, 24, 48], "withholdReward": false, "trial_id": "mdp_160707003673", "block": "test1", "trialIndex": 31, "score": 58.25, "costs": -0.75, "simulationMode": [null, null, null], "rewards": [-2, 8, 48], "path": ["0", "0", "5", "6", "7"], "rt": [5006, 196, 455], "actions": ["right", "right", "up"], "actionTimes": [7448, 8151, 9111], "queries": {"click": {"state": {"target": ["7", "6", "5"], "time": [3396, 4635, 5171]}, "edge": {"target": [], "time": []}}, "mouseover": {"state": {"target": ["7", "6", "5"], "time": [3165, 4333, 4900]}, "edge": {"target": [], "time": []}}, "mouseout": {"state": {"target": ["0", "7", "6", "5", "5", "6"], "time": [2147, 3915, 4817, 7253, 10105, 12758]}, "edge": {"target": [], "time": []}}}, "displayed_time": "11.44", "trialTime": 13807, "trial_type": "mouselab-mdp", "trial_index": 42, "time_elapsed": 1198401, "internal_node_id": "0.0-4.0-1.0-27.0"}}, {"uniqueid": "w90425244:a49922299", "current_trial": 43, "dateTime": 1664372628896, "trialdata": {"revealed_states": [], "num_clicks_accrued": [0, 0, 0, 0, 0, 0, 0, 0, 0, 0, 0, 0, 0], "stateRewards": ["", 2, -4, 24, 24, 2, 4, 24, 24, -4, 8, 24, 48], "withholdReward": true, "trial_id": "mdp_268430387178", "block": "test1", "trialIndex": 32, "score": 55.5, "costs": -1.5, "simulationMode": [null, null, null], "rewards": [-4, 8, 48], "path": ["0", "0", "9", "10", "12"], "rt": [7636, 207, 202], "actions": ["left", "left", "down"], "actionTimes": [8664, 9368, 10064], "queries": {"click": {"state": {"target": ["3", "11", "8", "7", "4", "12"], "time": [2021, 3558, 4854, 5749, 7013, 7814]}, "edge": {"target": [], "time": []}}, "mouseover": {"state": {"target": ["1", "3", "2", "4", "11", "10", "12", "8", "6", "7", "4", "12"], "time": [1668, 1802, 2453, 2770, 3294, 3771, 4004, 4572, 5406, 5456, 6756, 7574]}, "edge": {"target": [], "time": []}}, "mouseout": {"state": {"target": ["6", "5", "0", "1", "3", "2", "4", "11", "10", "12", "8", "6", "7", "4", "12", "0"], "time": [433, 651, 1519, 1702, 2436, 2553, 3020, 3670, 3904, 4155, 5389, 5440, 6189, 7191, 8092, 10962]}, "edge": {"target": [], "time": []}}}, "displayed_time": "10.56", "trialTime": 11944, "trial_type": "mouselab-mdp", "trial_index": 43, "time_elapsed": 1210497, "internal_node_id": "0.0-4.0-1.0-28.0"}}, {"uniqueid": "w90425244:a49922299", "current_trial": 44, "dateTime": 1664372641672, "trialdata": {"revealed_states": [], "num_clicks_accrued": [0, 0, 0, 0, 0, 0, 0, 0, 0, 0, 0, 0, 0], "stateRewards": ["", -2, 4, -24, -48, -4, 8, -24, 48, 4, 4, -48, 24], "withholdReward": true, "trial_id": "mdp_341117665701", "block": "test1", "trialIndex": 33, "score": 55.5, "costs": -1.5, "simulationMode": [null, null, null], "rewards": [-4, 8, 48], "path": ["0", "0", "5", "6", "8"], "rt": [7649, 181, 321], "actions": ["right", "right", "down"], "actionTimes": [9312, 9984, 10808], "queries": {"click": {"state": {"target": ["3", "4", "11", "12", "8", "7"], "time": [2600, 3415, 3968, 4640, 5450, 8761]}, "edge": {"target": [], "time": []}}, "mouseover": {"state": {"target": ["1", "3", "2", "4", "11", "10", "12", "8", "6", "5", "5", "6", "7", "6"], "time": [2143, 2443, 2994, 3244, 3811, 4294, 4445, 5346, 5997, 6163, 6814, 7765, 8416, 8983]}, "edge": {"target": [], "time": []}}, "mouseout": {"state": {"target": ["0", "1", "3", "2", "4", "11", "10", "12", "8", "6", "5", "5", "6", "7", "6"], "time": [1459, 2193, 2960, 3110, 3678, 4195, 4378, 4846, 5663, 6014, 6615, 7464, 8249, 8933, 9116]}, "edge": {"target": [], "time": []}}}, "displayed_time": "11.30", "trialTime": 12648, "trial_type": "mouselab-mdp", "trial_index": 44, "time_elapsed": 1223272, "internal_node_id": "0.0-4.0-1.0-29.0"}}, {"uniqueid": "w90425244:a49922299", "current_trial": 45, "dateTime": 1664372646609, "trialdata": {"rt": 4932, "stimulus": "<h1> End of block! </h1>\n\nYou have reached the end of the block 1/4. If you need a short break, feel free to take one now before moving on.\n\n<br><br>\nIn the next block, you will complete another 30 rounds of this game.\n\n<br><br>\n<div style='text-align: center;'>Press <code>space</code> to begin.</div>\n<br><br>\n<div style='text-align: center;'>(If the experiment doesn't continue, try clicking on the text and then pressing <code>space</code>.)</div>", "response": " ", "trial_id": "mdp_ready_2", "trial_type": "html-keyboard-response", "trial_index": 45, "time_elapsed": 1228210, "internal_node_id": "0.0-4.0-2.0"}}, {"uniqueid": "w90425244:a49922299", "current_trial": 46, "dateTime": 1664372658175, "trialdata": {"revealed_states": [], "num_clicks_accrued": [0, 0, 0, 0, 0, 0, 0, 0, 0, 0, 0, 0, 0], "stateRewards": ["", 2, -4, 24, 24, 4, -4, -24, 24, -4, -4, 48, 48], "withholdReward": true, "trial_id": "mdp_566306223773", "block": "test2", "trialIndex": 34, "score": 43.75, "costs": -1.25, "simulationMode": [null, null, null], "rewards": [-4, -4, 48], "path": ["0", "0", "9", "10", "11"], "rt": [5810, 39, 240], "actions": ["left", "left", "up"], "actionTimes": [7757, 8309, 9061], "queries": {"click": {"state": {"target": ["4", "3", "8", "7", "11"], "time": [3143, 4223, 5367, 6079, 6895]}, "edge": {"target": [], "time": []}}, "mouseover": {"state": {"target": ["1", "4", "2", "3", "5", "6", "8", "6", "7", "1", "11", "10", "12"], "time": [2647, 2947, 3581, 3864, 4648, 4699, 5132, 5749, 5833, 6368, 6817, 7134, 7334]}, "edge": {"target": [], "time": []}}, "mouseout": {"state": {"target": ["1", "4", "2", "3", "5", "6", "8", "6", "7", "1", "11", "10", "12"], "time": [2730, 3564, 3814, 4465, 4665, 5048, 5733, 5799, 6300, 6434, 7101, 7235, 9287]}, "edge": {"target": [], "time": []}}}, "displayed_time": "9.95", "trialTime": 11437, "trial_type": "mouselab-mdp", "trial_index": 46, "time_elapsed": 1239776, "internal_node_id": "0.0-4.0-3.0-0.0"}}, {"uniqueid": "w90425244:a49922299", "current_trial": 47, "dateTime": 1664372671562, "trialdata": {"revealed_states": [], "num_clicks_accrued": [0, 0, 0, 0, 0, 0, 0, 0, 0, 0, 0, 0, 0], "stateRewards": ["", -4, 8, 24, 24, 2, 4, -48, 24, -2, -4, -24, -24], "withholdReward": false, "trial_id": "mdp_752328329546", "block": "test2", "trialIndex": 35, "score": 31.5, "costs": -1.5, "simulationMode": [null, null, null], "rewards": [-4, 8, 24], "path": ["0", "0", "1", "2", "3"], "rt": [7291, 204, 384], "actions": ["up", "up", "right"], "actionTimes": [9250, 9953, 10833], "queries": {"click": {"state": {"target": ["12", "7", "3", "4", "8", "11"], "time": [2916, 3951, 4828, 5693, 6596, 7549]}, "edge": {"target": [], "time": []}}, "mouseover": {"state": {"target": ["11", "10", "12", "9", "7", "3", "2", "4", "8", "11", "9", "5"], "time": [2389, 2556, 2706, 3374, 3883, 4609, 5210, 5543, 6427, 7378, 7962, 8604]}, "edge": {"target": [], "time": []}}, "mouseout": {"state": {"target": ["0", "11", "10", "12", "9", "7", "3", "2", "4", "8", "11", "9", "5"], "time": [2239, 2507, 2640, 3340, 3441, 4332, 5092, 5375, 5927, 6994, 7862, 7979, 12133]}, "edge": {"target": [], "time": []}}}, "displayed_time": "11.33", "trialTime": 13171, "trial_type": "mouselab-mdp", "trial_index": 47, "time_elapsed": 1253163, "internal_node_id": "0.0-4.0-3.0-1.0"}}, {"uniqueid": "w90425244:a49922299", "current_trial": 48, "dateTime": 1664372682608, "trialdata": {"revealed_states": [], "num_clicks_accrued": [0, 0, 0, 0, 0, 0, 0, 0, 0, 0, 0, 0, 0], "stateRewards": ["", 2, 8, 48, 24, 2, 8, 48, 48, -2, -4, -24, -48], "withholdReward": true, "trial_id": "mdp_717636349175", "block": "test2", "trialIndex": 36, "score": 62.75, "costs": -0.25, "simulationMode": [null, null, null], "rewards": [2, 8, 48], "path": ["0", "0", "5", "6", "7"], "rt": [2428, 276, 252], "actions": ["right", "right", "up"], "actionTimes": [4297, 5073, 5817], "queries": {"click": {"state": {"target": ["7"], "time": [3079]}, "edge": {"target": [], "time": []}}, "mouseover": {"state": {"target": ["7"], "time": [2965]}, "edge": {"target": [], "time": []}}, "mouseout": {"state": {"target": ["0", "7", "6", "5", "6"], "time": [2093, 3745, 7299, 7532, 8466]}, "edge": {"target": [], "time": []}}}, "displayed_time": "9.87", "trialTime": 10858, "trial_type": "mouselab-mdp", "trial_index": 48, "time_elapsed": 1264209, "internal_node_id": "0.0-4.0-3.0-2.0"}}, {"uniqueid": "w90425244:a49922299", "current_trial": 49, "dateTime": 1664372693761, "trialdata": {"revealed_states": [], "num_clicks_accrued": [0, 0, 0, 0, 0, 0, 0, 0, 0, 0, 0, 0, 0], "stateRewards": ["", 4, -8, 24, 48, 2, 4, 48, 48, 2, 8, -48, -48], "withholdReward": true, "trial_id": "mdp_783704746330", "block": "test2", "trialIndex": 37, "score": 48.25, "costs": -0.75, "simulationMode": [null, null, null], "rewards": [4, -8, 48], "path": ["0", "0", "1", "2", "4"], "rt": [4937, 801, 371], "actions": ["up", "up", "left"], "actionTimes": [6455, 7759, 8630], "queries": {"click": {"state": {"target": ["3", "4", "1"], "time": [2709, 3485, 5866]}, "edge": {"target": [], "time": []}}, "mouseover": {"state": {"target": ["1", "2", "3", "2", "4", "1"], "time": [2085, 2335, 2452, 3153, 3270, 4705]}, "edge": {"target": [], "time": []}}, "mouseout": {"state": {"target": ["7", "6", "5", "0", "1", "2", "3", "2", "4", "1", "0"], "time": [500, 617, 1134, 1852, 2202, 2352, 3119, 3220, 3754, 9576, 9643]}, "edge": {"target": [], "time": []}}}, "displayed_time": "9.52", "trialTime": 10991, "trial_type": "mouselab-mdp", "trial_index": 49, "time_elapsed": 1275361, "internal_node_id": "0.0-4.0-3.0-3.0"}}, {"uniqueid": "w90425244:a49922299", "current_trial": 50, "dateTime": 1664372706032, "trialdata": {"revealed_states": [], "num_clicks_accrued": [0, 0, 0, 0, 0, 0, 0, 0, 0, 0, 0, 0, 0], "stateRewards": ["", -4, 4, 24, 24, 4, -8, 48, -48, -2, -8, 24, 24], "withholdReward": true, "trial_id": "mdp_395264223239", "block": "test2", "trialIndex": 38, "score": 47.75, "costs": -1.25, "simulationMode": [null, null, null], "rewards": [4, -8, 48], "path": ["0", "0", "5", "6", "7"], "rt": [6971, 379, 697], "actions": ["right", "right", "up"], "actionTimes": [8264, 9153, 10353], "queries": {"click": {"state": {"target": ["12", "8", "7", "3", "4"], "time": [2272, 3299, 4080, 6057, 7825]}, "edge": {"target": [], "time": []}}, "mouseover": {"state": {"target": ["0", "9", "12", "8", "6", "7", "3", "5", "3", "6", "5", "1", "4", "5"], "time": [1347, 1764, 2166, 3132, 3733, 3899, 4467, 4934, 5872, 6819, 7103, 7188, 7624, 8120]}, "edge": {"target": [], "time": []}}, "mouseout": {"state": {"target": ["0", "9", "12", "8", "6", "7", "3", "5", "3", "6", "5", "1", "4", "5"], "time": [1714, 1814, 2732, 3632, 3750, 4367, 4734, 5336, 6269, 7070, 7120, 7253, 7987, 11259]}, "edge": {"target": [], "time": []}}}, "displayed_time": "10.84", "trialTime": 12080, "trial_type": "mouselab-mdp", "trial_index": 50, "time_elapsed": 1287632, "internal_node_id": "0.0-4.0-3.0-4.0"}}, {"uniqueid": "w90425244:a49922299", "current_trial": 51, "dateTime": 1664372717488, "trialdata": {"revealed_states": [], "num_clicks_accrued": [0, 0, 0, 0, 0, 0, 0, 0, 0, 0, 0, 0, 0], "stateRewards": ["", 2, 4, -48, 48, -4, 8, -48, -24, -4, -4, 48, 48], "withholdReward": true, "trial_id": "mdp_613582696541", "block": "test2", "trialIndex": 39, "score": 44.75, "costs": -0.25, "simulationMode": [null, null, null], "rewards": [-4, -4, 48], "path": ["0", "0", "9", "10", "11"], "rt": [1842, 2035, 1963], "actions": ["left", "left", "up"], "actionTimes": [3057, 5610, 8074], "queries": {"click": {"state": {"target": ["11"], "time": [2341]}, "edge": {"target": [], "time": []}}, "mouseover": {"state": {"target": ["11"], "time": [2171]}, "edge": {"target": [], "time": []}}, "mouseout": {"state": {"target": ["0", "11", "10", "9"], "time": [1804, 2889, 8828, 8880]}, "edge": {"target": [], "time": []}}}, "displayed_time": "10.22", "trialTime": 11298, "trial_type": "mouselab-mdp", "trial_index": 51, "time_elapsed": 1299089, "internal_node_id": "0.0-4.0-3.0-5.0"}}, {"uniqueid": "w90425244:a49922299", "current_trial": 52, "dateTime": 1664372730784, "trialdata": {"revealed_states": [], "num_clicks_accrued": [0, 0, 0, 0, 0, 0, 0, 0, 0, 0, 0, 0, 0], "stateRewards": ["", 4, 4, -24, -48, -4, 4, -48, 24, 4, -8, -48, 48], "withholdReward": false, "trial_id": "mdp_566768794366", "block": "test2", "trialIndex": 40, "score": 47.75, "costs": -1.25, "simulationMode": [null, null, null], "rewards": [4, -8, 48], "path": ["0", "0", "9", "10", "12"], "rt": [4989, 2509, 465], "actions": ["left", "left", "down"], "actionTimes": [6759, 9759, 10719], "queries": {"click": {"state": {"target": ["7", "8", "3", "4", "12"], "time": [2908, 3602, 4354, 4866, 6042]}, "edge": {"target": [], "time": []}}, "mouseover": {"state": {"target": ["7", "6", "8", "3", "2", "4", "11", "10", "12"], "time": [2544, 3278, 3378, 4079, 4630, 4780, 5330, 5530, 5831]}, "edge": {"target": [], "time": []}}, "mouseout": {"state": {"target": ["0", "7", "6", "8", "3", "2", "4", "11", "10", "12", "9"], "time": [2193, 3211, 3329, 4007, 4596, 4697, 5130, 5480, 5713, 6431, 11520]}, "edge": {"target": [], "time": []}}}, "displayed_time": "11.77", "trialTime": 13088, "trial_type": "mouselab-mdp", "trial_index": 52, "time_elapsed": 1312385, "internal_node_id": "0.0-4.0-3.0-6.0"}}, {"uniqueid": "w90425244:a49922299", "current_trial": 53, "dateTime": 1664372746489, "trialdata": {"revealed_states": [], "num_clicks_accrued": [0, 0, 0, 0, 0, 0, 0, 0, 0, 0, 0, 0, 0], "stateRewards": ["", -4, -4, -24, -48, -4, 8, -24, -48, 4, -8, 24, -24], "withholdReward": true, "trial_id": "mdp_924927483179", "block": "test2", "trialIndex": 41, "score": 23.5, "costs": -1.5, "simulationMode": [null, null, null], "rewards": [4, -8, 24], "path": ["0", "0", "9", "10", "11"], "rt": [7485, 550, 354], "actions": ["left", "left", "up"], "actionTimes": [9458, 10506, 11361], "queries": {"click": {"state": {"target": ["12", "7", "4", "3", "8", "11"], "time": [2952, 4055, 5002, 6207, 7839, 8800]}, "edge": {"target": [], "time": []}}, "mouseover": {"state": {"target": ["9", "10", "12", "6", "7", "3", "2", "4", "2", "3", "5", "6", "8", "8", "11"], "time": [2565, 2663, 2781, 3665, 3749, 4633, 4700, 4833, 5735, 6150, 6822, 6951, 7235, 7652, 8587]}, "edge": {"target": [], "time": []}}, "mouseout": {"state": {"target": ["0", "9", "10", "12", "6", "7", "3", "2", "4", "2", "3", "5", "6", "8", "8", "11"], "time": [2464, 2598, 2697, 3317, 3699, 4432, 4649, 4766, 5684, 5834, 6584, 6918, 7168, 7302, 8219, 9238]}, "edge": {"target": [], "time": []}}}, "displayed_time": "11.86", "trialTime": 15515, "trial_type": "mouselab-mdp", "trial_index": 53, "time_elapsed": 1328090, "internal_node_id": "0.0-4.0-3.0-7.0"}}, {"uniqueid": "w90425244:a49922299", "current_trial": 54, "dateTime": 1664372759144, "trialdata": {"revealed_states": [], "num_clicks_accrued": [0, 0, 0, 0, 0, 0, 0, 0, 0, 0, 0, 0, 0], "stateRewards": ["", 2, -4, -48, 24, 4, 4, 48, -48, -2, -4, -24, -48], "withholdReward": false, "trial_id": "mdp_858916930936", "block": "test2", "trialIndex": 42, "score": 60.75, "costs": -0.25, "simulationMode": [null, null, null], "rewards": [4, 4, 48], "path": ["0", "0", "5", "6", "7"], "rt": [1805, 681, 504], "actions": ["right", "right", "up"], "actionTimes": [3236, 4420, 5428], "queries": {"click": {"state": {"target": ["7"], "time": [2467]}, "edge": {"target": [], "time": []}}, "mouseover": {"state": {"target": ["7"], "time": [2237]}, "edge": {"target": [], "time": []}}, "mouseout": {"state": {"target": ["0", "7", "6"], "time": [1903, 3188, 6525]}, "edge": {"target": [], "time": []}}}, "displayed_time": "11.43", "trialTime": 12445, "trial_type": "mouselab-mdp", "trial_index": 54, "time_elapsed": 1340745, "internal_node_id": "0.0-4.0-3.0-8.0"}}, {"uniqueid": "w90425244:a49922299", "current_trial": 55, "dateTime": 1664372773753, "trialdata": {"revealed_states": [], "num_clicks_accrued": [0, 0, 0, 0, 0, 0, 0, 0, 0, 0, 0, 0, 0], "stateRewards": ["", -4, -8, -48, 24, -4, -4, -24, -48, 2, -8, -24, -48], "withholdReward": true, "trial_id": "mdp_628181832088", "block": "test2", "trialIndex": 43, "score": 15.25, "costs": -1.75, "simulationMode": [null, null, null], "rewards": [-4, -8, 24], "path": ["0", "0", "1", "2", "4"], "rt": [9008, 294, 479], "actions": ["up", "up", "left"], "actionTimes": [10326, 11124, 12093], "queries": {"click": {"state": {"target": ["3", "4", "11", "12", "8", "7", "5"], "time": [2488, 3246, 3917, 4678, 6094, 6726, 8199]}, "edge": {"target": [], "time": []}}, "mouseover": {"state": {"target": ["1", "3", "2", "4", "11", "10", "12", "8", "6", "7", "1", "5", "6", "6", "1"], "time": [2086, 2320, 2920, 3020, 3754, 4221, 4372, 5606, 6407, 6524, 7625, 7892, 8392, 8693, 9226]}, "edge": {"target": [], "time": []}}, "mouseout": {"state": {"target": ["5", "0", "1", "3", "2", "4", "11", "10", "12", "8", "6", "7", "7", "1", "5", "6", "6"], "time": [985, 1789, 2153, 2870, 2970, 3504, 4138, 4305, 5039, 6374, 6458, 7008, 7391, 7775, 8359, 8459, 8759]}, "edge": {"target": [], "time": []}}}, "displayed_time": "12.59", "trialTime": 14406, "trial_type": "mouselab-mdp", "trial_index": 55, "time_elapsed": 1355353, "internal_node_id": "0.0-4.0-3.0-9.0"}}, {"uniqueid": "w90425244:a49922299", "current_trial": 56, "dateTime": 1664372784240, "trialdata": {"revealed_states": [], "num_clicks_accrued": [0, 0, 0, 0, 0, 0, 0, 0, 0, 0, 0, 0, 0], "stateRewards": ["", -2, 8, 24, -48, -4, -8, -24, -48, -4, 8, -24, 48], "withholdReward": false, "trial_id": "mdp_464339499860", "block": "test2", "trialIndex": 44, "score": 56.75, "costs": -0.25, "simulationMode": [null, null, null], "rewards": [-4, 8, 48], "path": ["0", "0", "9", "10", "12"], "rt": [2200, 1277, 716], "actions": ["left", "left", "down"], "actionTimes": [3408, 5185, 6393], "queries": {"click": {"state": {"target": ["12"], "time": [2074]}, "edge": {"target": [], "time": []}}, "mouseover": {"state": {"target": ["9", "10", "12", "9"], "time": [1637, 1770, 1937, 2961]}, "edge": {"target": [], "time": []}}, "mouseout": {"state": {"target": ["1", "9", "10", "12", "9"], "time": [802, 1687, 1820, 2601, 6976]}, "edge": {"target": [], "time": []}}}, "displayed_time": "9.21", "trialTime": 10296, "trial_type": "mouselab-mdp", "trial_index": 56, "time_elapsed": 1365841, "internal_node_id": "0.0-4.0-3.0-10.0"}}, {"uniqueid": "w90425244:a49922299", "current_trial": 57, "dateTime": 1664372796921, "trialdata": {"revealed_states": [], "num_clicks_accrued": [0, 0, 0, 0, 0, 0, 0, 0, 0, 0, 0, 0, 0], "stateRewards": ["", 2, 8, 24, 24, 2, -8, -24, -48, 2, 8, -48, 48], "withholdReward": true, "trial_id": "mdp_745175888812", "block": "test2", "trialIndex": 45, "score": 61.5, "costs": -1.5, "simulationMode": [null, null, null], "rewards": [2, 8, 48], "path": ["0", "0", "9", "10", "12"], "rt": [6448, 649, 835], "actions": ["left", "left", "down"], "actionTimes": [8031, 9191, 10528], "queries": {"click": {"state": {"target": ["7", "4", "8", "3", "11", "12"], "time": [2723, 4499, 5460, 6188, 6804, 7436]}, "edge": {"target": [], "time": []}}, "mouseover": {"state": {"target": ["7", "3", "2", "4", "4", "1", "5", "8", "3", "1", "11", "10", "12"], "time": [2484, 3219, 3369, 3504, 4098, 4920, 4987, 5303, 6004, 6488, 6739, 7139, 7239]}, "edge": {"target": [], "time": []}}, "mouseout": {"state": {"target": ["0", "7", "3", "2", "4", "4", "1", "5", "8", "7", "3", "1", "11", "10", "12"], "time": [2218, 2969, 3234, 3418, 3635, 4686, 4954, 5020, 5754, 5887, 6371, 6538, 7106, 7189, 7772]}, "edge": {"target": [], "time": []}}}, "displayed_time": "11.03", "trialTime": 12497, "trial_type": "mouselab-mdp", "trial_index": 57, "time_elapsed": 1378522, "internal_node_id": "0.0-4.0-3.0-11.0"}}, {"uniqueid": "w90425244:a49922299", "current_trial": 58, "dateTime": 1664372813328, "trialdata": {"revealed_states": [], "num_clicks_accrued": [0, 0, 0, 0, 0, 0, 0, 0, 0, 0, 0, 0, 0], "stateRewards": ["", 2, -4, -24, 24, 2, 8, 48, 48, 2, -8, 48, -24], "withholdReward": false, "trial_id": "mdp_330392242530", "block": "test2", "trialIndex": 46, "score": 61.5, "costs": -1.5, "simulationMode": [null, null, null], "rewards": [2, 8, 48], "path": ["0", "0", "5", "6", "7"], "rt": [8793, 560, 636], "actions": ["right", "right", "up"], "actionTimes": [11439, 12503, 13631], "queries": {"click": {"state": {"target": ["7", "11", "9", "5", "10", "6"], "time": [3829, 6621, 8494, 9086, 9950, 10759]}, "edge": {"target": [], "time": []}}, "mouseover": {"state": {"target": ["5", "7", "6", "5", "1", "11", "0", "9", "9", "0", "5", "0", "10", "0", "6"], "time": [3399, 3699, 4550, 4767, 5936, 6469, 7356, 7553, 8204, 8705, 8905, 9572, 9789, 10189, 10573]}, "edge": {"target": [], "time": []}}, "mouseout": {"state": {"target": ["9", "9", "5", "7", "6", "5", "1", "11", "0", "9", "9", "0", "5", "5", "0", "9", "10", "9", "0", "5", "6"], "time": [1899, 2298, 3433, 4000, 4717, 5854, 6003, 6803, 7504, 7604, 8688, 8788, 9305, 9539, 9588, 9706, 10090, 10173, 10240, 10493, 10874]}, "edge": {"target": [], "time": []}}}, "displayed_time": "14.13", "trialTime": 16271, "trial_type": "mouselab-mdp", "trial_index": 58, "time_elapsed": 1394929, "internal_node_id": "0.0-4.0-3.0-12.0"}}, {"uniqueid": "w90425244:a49922299", "current_trial": 59, "dateTime": 1664372826903, "trialdata": {"revealed_states": [], "num_clicks_accrued": [0, 0, 0, 0, 0, 0, 0, 0, 0, 0, 0, 0, 0], "stateRewards": ["", -2, 4, -24, -24, -2, 4, 48, 24, -4, -8, 24, -48], "withholdReward": true, "trial_id": "mdp_191839460481", "block": "test2", "trialIndex": 47, "score": 53.5, "costs": -1.5, "simulationMode": [null, null, null], "rewards": [-2, 4, 48], "path": ["0", "0", "5", "6", "7"], "rt": [6838, 440, 827], "actions": ["right", "right", "up"], "actionTimes": [9446, 10381, 11701], "queries": {"click": {"state": {"target": ["7", "12", "11", "4", "3", "8"], "time": [3790, 5095, 5847, 6392, 7255, 8138]}, "edge": {"target": [], "time": []}}, "mouseover": {"state": {"target": ["7", "5", "10", "12", "9", "11", "4", "2", "3", "5", "8", "6", "5"], "time": [3633, 4467, 4800, 4934, 5501, 5618, 6253, 6552, 7070, 7737, 7904, 8638, 8888]}, "edge": {"target": [], "time": []}}, "mouseout": {"state": {"target": ["6", "5", "7", "5", "10", "12", "9", "11", "4", "2", "3", "5", "8", "6", "5", "6"], "time": [2181, 2298, 4267, 4517, 4852, 5285, 5518, 6052, 6519, 6720, 7573, 7770, 8588, 8838, 10174, 12608]}, "edge": {"target": [], "time": []}}}, "displayed_time": "12.19", "trialTime": 13430, "trial_type": "mouselab-mdp", "trial_index": 59, "time_elapsed": 1408504, "internal_node_id": "0.0-4.0-3.0-13.0"}}, {"uniqueid": "w90425244:a49922299", "current_trial": 60, "dateTime": 1664372841224, "trialdata": {"revealed_states": [], "num_clicks_accrued": [0, 0, 0, 0, 0, 0, 0, 0, 0, 0, 0, 0, 0], "stateRewards": ["", 2, -8, 24, 24, 4, -4, -24, -48, 4, 8, 24, 24], "withholdReward": false, "trial_id": "mdp_249803813713", "block": "test2", "trialIndex": 48, "score": 39, "costs": -2, "simulationMode": [null, null, null], "rewards": [4, 8, 24], "path": ["0", "0", "9", "10", "11"], "rt": [8101, 469, 397], "actions": ["left", "left", "up"], "actionTimes": [9616, 10600, 11496], "queries": {"click": {"state": {"target": ["3", "11", "4", "7", "8", "12", "9", "1"], "time": [2402, 3530, 4265, 4907, 5562, 6451, 8363, 8939]}, "edge": {"target": [], "time": []}}, "mouseover": {"state": {"target": ["1", "3", "2", "4", "11", "4", "7", "6", "8", "12", "0", "1", "1", "9", "1"], "time": [2004, 2204, 2906, 3006, 3390, 4156, 4774, 5175, 5374, 6309, 6843, 7093, 7410, 8128, 8662]}, "edge": {"target": [], "time": []}}, "mouseout": {"state": {"target": ["0", "1", "3", "2", "4", "11", "4", "7", "6", "8", "12", "0", "1", "1", "9", "1", "0"], "time": [1921, 2088, 2872, 2956, 3223, 3857, 4423, 5108, 5274, 5959, 6593, 6943, 7110, 7577, 8545, 9404, 12633]}, "edge": {"target": [], "time": []}}}, "displayed_time": "12.00", "trialTime": 14161, "trial_type": "mouselab-mdp", "trial_index": 60, "time_elapsed": 1422825, "internal_node_id": "0.0-4.0-3.0-14.0"}}, {"uniqueid": "w90425244:a49922299", "current_trial": 61, "dateTime": 1664372858304, "trialdata": {"revealed_states": [], "num_clicks_accrued": [0, 0, 0, 0, 0, 0, 0, 0, 0, 0, 0, 0, 0], "stateRewards": ["", -2, -8, 24, -48, 4, 4, -24, -48, -2, -8, -48, 24], "withholdReward": true, "trial_id": "mdp_556006673466", "block": "test2", "trialIndex": 49, "score": 16.5, "costs": -2.5, "simulationMode": [null, null, null], "rewards": [-2, -8, 24], "path": ["0", "0", "9", "10", "12"], "rt": [12461, 247, 386], "actions": ["left", "left", "down"], "actionTimes": [13800, 14544, 15431], "queries": {"click": {"state": {"target": ["11", "3", "4", "7", "8", "12", "1", "9", "2", "10"], "time": [2116, 3060, 3788, 4613, 6161, 6877, 8344, 8818, 9829, 10660]}, "edge": {"target": [], "time": []}}, "mouseover": {"state": {"target": ["1", "11", "2", "3", "2", "4", "7", "6", "8", "8", "12", "9", "1", "1", "9", "0", "2", "10"], "time": [1698, 1932, 2499, 2716, 3452, 3567, 4334, 4801, 4868, 5975, 6703, 7203, 7472, 8183, 8588, 9140, 9573, 10491]}, "edge": {"target": [], "time": []}}, "mouseout": {"state": {"target": ["0", "1", "11", "2", "3", "2", "4", "7", "6", "8", "8", "12", "9", "1", "1", "9", "0", "1", "2", "10", "9"], "time": [1548, 1714, 2399, 2599, 3450, 3500, 4151, 4768, 4851, 4985, 6404, 7170, 7220, 7988, 8505, 9089, 9390, 9539, 10042, 10808, 10891]}, "edge": {"target": [], "time": []}}}, "displayed_time": "15.93", "trialTime": 16937, "trial_type": "mouselab-mdp", "trial_index": 61, "time_elapsed": 1439905, "internal_node_id": "0.0-4.0-3.0-15.0"}}, {"uniqueid": "w90425244:a49922299", "current_trial": 62, "dateTime": 1664372871279, "trialdata": {"revealed_states": [], "num_clicks_accrued": [0, 0, 0, 0, 0, 0, 0, 0, 0, 0, 0, 0, 0], "stateRewards": ["", -4, -4, 48, 24, -4, -4, -24, -48, -4, 4, 48, -24], "withholdReward": true, "trial_id": "mdp_896503755738", "block": "test2", "trialIndex": 50, "score": 51.5, "costs": -1.5, "simulationMode": [null, null, null], "rewards": [-4, 4, 48], "path": ["0", "0", "9", "10", "11"], "rt": [7786, 336, 492], "actions": ["left", "left", "up"], "actionTimes": [9348, 10188, 11195], "queries": {"click": {"state": {"target": ["3", "11", "9", "1", "2", "10"], "time": [2634, 4514, 6266, 7011, 7931, 8667]}, "edge": {"target": [], "time": []}}, "mouseover": {"state": {"target": ["1", "3", "2", "4", "11", "9", "10", "9", "1", "2", "10"], "time": [2209, 2393, 2910, 3027, 4295, 5163, 5713, 6013, 6801, 7698, 8499]}, "edge": {"target": [], "time": []}}, "mouseout": {"state": {"target": ["0", "1", "3", "2", "4", "11", "9", "10", "9", "1", "2", "10", "9"], "time": [577, 2276, 2877, 2960, 3811, 4962, 5680, 5963, 6498, 7215, 8082, 8983, 9034]}, "edge": {"target": [], "time": []}}}, "displayed_time": "11.69", "trialTime": 12772, "trial_type": "mouselab-mdp", "trial_index": 62, "time_elapsed": 1452880, "internal_node_id": "0.0-4.0-3.0-16.0"}}, {"uniqueid": "w90425244:a49922299", "current_trial": 63, "dateTime": 1664372884521, "trialdata": {"revealed_states": [], "num_clicks_accrued": [0, 0, 0, 0, 0, 0, 0, 0, 0, 0, 0, 0, 0], "stateRewards": ["", -4, 8, -24, 48, 2, -8, 24, 48, 2, -8, -24, -48], "withholdReward": false, "trial_id": "mdp_493778446445", "block": "test2", "trialIndex": 51, "score": 45, "costs": -2, "simulationMode": [null, null, null], "rewards": [2, -8, 48], "path": ["0", "0", "5", "6", "8"], "rt": [8040, 630, 440], "actions": ["right", "right", "down"], "actionTimes": [9140, 10260, 11203], "queries": {"click": {"state": {"target": ["3", "11", "7", "8", "12", "4", "1", "5"], "time": [2125, 2916, 3716, 4405, 5549, 6269, 7989, 8516]}, "edge": {"target": [], "time": []}}, "mouseover": {"state": {"target": ["0", "1", "3", "2", "4", "11", "7", "6", "8", "12", "9", "2", "4", "1", "1", "1", "5", "6"], "time": [1203, 1786, 1970, 2470, 2554, 2738, 3638, 4056, 4239, 5290, 5807, 5924, 6091, 6708, 6958, 7743, 8259, 8943]}, "edge": {"target": [], "time": []}}, "mouseout": {"state": {"target": ["0", "1", "3", "2", "4", "11", "7", "6", "8", "12", "9", "2", "4", "1", "1", "1", "5", "6"], "time": [1570, 1853, 2387, 2504, 2587, 3171, 4022, 4172, 4597, 5740, 5840, 6074, 6625, 6792, 7542, 8176, 8777, 12013]}, "edge": {"target": [], "time": []}}}, "displayed_time": "11.70", "trialTime": 13077, "trial_type": "mouselab-mdp", "trial_index": 63, "time_elapsed": 1466121, "internal_node_id": "0.0-4.0-3.0-17.0"}}, {"uniqueid": "w90425244:a49922299", "current_trial": 64, "dateTime": 1664372897161, "trialdata": {"revealed_states": [], "num_clicks_accrued": [0, 0, 0, 0, 0, 0, 0, 0, 0, 0, 0, 0, 0], "stateRewards": ["", -4, -4, 24, -48, 2, 4, -24, -48, -2, -8, -24, 24], "withholdReward": true, "trial_id": "mdp_565569130486", "block": "test2", "trialIndex": 52, "score": 17, "costs": -2, "simulationMode": [null, null, null], "rewards": [-2, -8, 24], "path": ["0", "0", "9", "10", "12"], "rt": [7723, 502, 366], "actions": ["left", "left", "down"], "actionTimes": [8742, 9741, 10605], "queries": {"click": {"state": {"target": ["3", "11", "7", "8", "4", "12", "1", "9"], "time": [1872, 2850, 3808, 4801, 5656, 6346, 7499, 8145]}, "edge": {"target": [], "time": []}}, "mouseover": {"state": {"target": ["1", "2", "3", "2", "4", "11", "1", "7", "6", "8", "8", "5", "1", "4", "12", "9", "1", "2", "1", "9"], "time": [1313, 1546, 1746, 2181, 2423, 2714, 3298, 3682, 3998, 4133, 4583, 5100, 5200, 5467, 6151, 6718, 6852, 7035, 7286, 7919]}, "edge": {"target": [], "time": []}}, "mouseout": {"state": {"target": ["0", "1", "2", "3", "2", "4", "11", "1", "7", "6", "8", "8", "5", "1", "4", "12", "9", "1", "2", "1", "9"], "time": [1263, 1380, 1646, 2130, 2264, 2564, 3098, 3382, 3983, 4082, 4249, 5033, 5117, 5283, 5867, 6635, 6751, 6985, 7135, 7703, 8303]}, "edge": {"target": [], "time": []}}}, "displayed_time": "11.11", "trialTime": 12447, "trial_type": "mouselab-mdp", "trial_index": 64, "time_elapsed": 1478761, "internal_node_id": "0.0-4.0-3.0-18.0"}}, {"uniqueid": "w90425244:a49922299", "current_trial": 65, "dateTime": 1664372909112, "trialdata": {"revealed_states": [], "num_clicks_accrued": [0, 0, 0, 0, 0, 0, 0, 0, 0, 0, 0, 0, 0], "stateRewards": ["", -2, 8, 24, -48, -2, -4, 24, 48, 2, 8, -48, -48], "withholdReward": true, "trial_id": "mdp_562228697607", "block": "test2", "trialIndex": 53, "score": 45.5, "costs": -1.5, "simulationMode": [null, null, null], "rewards": [-2, -4, 48], "path": ["0", "0", "5", "6", "8"], "rt": [5839, 383, 394], "actions": ["right", "right", "down"], "actionTimes": [6817, 7710, 8623], "queries": {"click": {"state": {"target": ["3", "7", "4", "11", "12", "8"], "time": [1722, 2394, 3307, 3843, 4674, 5547]}, "edge": {"target": [], "time": []}}, "mouseover": {"state": {"target": ["1", "3", "7", "4", "11", "10", "12", "8", "6", "5"], "time": [1285, 1502, 2219, 3020, 3654, 4188, 4538, 5372, 5973, 6240]}, "edge": {"target": [], "time": []}}, "mouseout": {"state": {"target": ["9", "0", "1", "3", "7", "4", "11", "10", "12", "8", "6", "5", "6", "6"], "time": [512, 1201, 1385, 2053, 2603, 3537, 4137, 4337, 4789, 5739, 6074, 6907, 7691, 9060]}, "edge": {"target": [], "time": []}}}, "displayed_time": "10.98", "trialTime": 11808, "trial_type": "mouselab-mdp", "trial_index": 65, "time_elapsed": 1490713, "internal_node_id": "0.0-4.0-3.0-19.0"}}, {"uniqueid": "w90425244:a49922299", "current_trial": 66, "dateTime": 1664372922608, "trialdata": {"revealed_states": [], "num_clicks_accrued": [0, 0, 0, 0, 0, 0, 0, 0, 0, 0, 0, 0, 0], "stateRewards": ["", -2, -8, 48, -24, 2, -4, -48, -24, -2, -4, -48, 48], "withholdReward": true, "trial_id": "mdp_143798438087", "block": "test2", "trialIndex": 54, "score": 45, "costs": -2, "simulationMode": [null, null, null], "rewards": [-2, -4, 48], "path": ["0", "0", "9", "10", "12"], "rt": [7952, 512, 518], "actions": ["left", "left", "down"], "actionTimes": [9355, 10363, 11371], "queries": {"click": {"state": {"target": ["8", "3", "11", "12", "9", "1", "10", "2"], "time": [2104, 3025, 4305, 4977, 6377, 6993, 8001, 8625]}, "edge": {"target": [], "time": []}}, "mouseover": {"state": {"target": ["5", "8", "7", "3", "2", "4", "11", "10", "12", "0", "9", "1", "10", "2"], "time": [1659, 1959, 2576, 2860, 3327, 3844, 4094, 4695, 4778, 5328, 5967, 6913, 7815, 8315]}, "edge": {"target": [], "time": []}}, "mouseout": {"state": {"target": ["0", "5", "8", "7", "3", "2", "4", "11", "10", "12", "0", "9", "1", "9", "10", "2", "1", "0"], "time": [1224, 1775, 2476, 2593, 3293, 3427, 3911, 4645, 4728, 5229, 5729, 6613, 7531, 7714, 8165, 8849, 9183, 12252]}, "edge": {"target": [], "time": []}}}, "displayed_time": "11.87", "trialTime": 13347, "trial_type": "mouselab-mdp", "trial_index": 66, "time_elapsed": 1504209, "internal_node_id": "0.0-4.0-3.0-20.0"}}, {"uniqueid": "w90425244:a49922299", "current_trial": 67, "dateTime": 1664372935447, "trialdata": {"revealed_states": [], "num_clicks_accrued": [0, 0, 0, 0, 0, 0, 0, 0, 0, 0, 0, 0, 0], "stateRewards": ["", -4, 4, -24, 24, -2, -4, 48, 24, 2, 8, -48, 24], "withholdReward": false, "trial_id": "mdp_150340189492", "block": "test2", "trialIndex": 55, "score": 45.75, "costs": -1.25, "simulationMode": [null, null, null], "rewards": [-2, -4, 48], "path": ["0", "0", "5", "6", "7"], "rt": [5995, 1250, 598], "actions": ["right", "right", "up"], "actionTimes": [7503, 9256, 10359], "queries": {"click": {"state": {"target": ["3", "4", "11", "7", "12"], "time": [2414, 2958, 3447, 4703, 6246]}, "edge": {"target": [], "time": []}}, "mouseover": {"state": {"target": ["1", "3", "2", "4", "11", "7", "6", "5", "0", "9", "12", "5"], "time": [1932, 2232, 2683, 2749, 3317, 4202, 5053, 5403, 5753, 5820, 6037, 6754]}, "edge": {"target": [], "time": []}}, "mouseout": {"state": {"target": ["0", "1", "3", "2", "4", "11", "7", "6", "5", "0", "9", "12", "5", "6", "6", "5"], "time": [1782, 2132, 2633, 2716, 3167, 3634, 5019, 5202, 5720, 5786, 5903, 6653, 7155, 9774, 11225, 11259]}, "edge": {"target": [], "time": []}}}, "displayed_time": "11.51", "trialTime": 12646, "trial_type": "mouselab-mdp", "trial_index": 67, "time_elapsed": 1517047, "internal_node_id": "0.0-4.0-3.0-21.0"}}, {"uniqueid": "w90425244:a49922299", "current_trial": 68, "dateTime": 1664372950943, "trialdata": {"revealed_states": [], "num_clicks_accrued": [0, 0, 0, 0, 0, 0, 0, 0, 0, 0, 0, 0, 0], "stateRewards": ["", -2, -4, -48, 48, -2, -4, 24, 48, -4, -8, -24, 24], "withholdReward": true, "trial_id": "mdp_917590390609", "block": "test2", "trialIndex": 56, "score": 44.75, "costs": -2.25, "simulationMode": [null, null, null], "rewards": [-2, -4, 48], "path": ["0", "0", "1", "2", "4"], "rt": [10573, 424, 378], "actions": ["up", "up", "left"], "actionTimes": [11888, 12816, 13688], "queries": {"click": {"state": {"target": ["3", "7", "4", "11", "8", "5", "1", "6", "2"], "time": [2257, 2884, 3657, 5857, 7257, 8986, 9522, 10186, 10826]}, "edge": {"target": [], "time": []}}, "mouseover": {"state": {"target": ["1", "3", "7", "2", "4", "11", "1", "11", "9", "9", "5", "8", "6", "5", "1", "6", "2"], "time": [1813, 2047, 2764, 3314, 3548, 4065, 4466, 5617, 6334, 6451, 6685, 7001, 7969, 8736, 9337, 9971, 10572]}, "edge": {"target": [], "time": []}}, "mouseout": {"state": {"target": ["0", "1", "3", "7", "2", "4", "11", "1", "11", "9", "9", "5", "8", "8", "6", "5", "1", "6", "2", "5", "5"], "time": [1704, 1897, 2597, 3181, 3499, 3898, 4232, 5368, 6067, 6402, 6501, 6702, 7669, 7903, 8654, 9120, 9822, 10321, 11039, 11239, 14642]}, "edge": {"target": [], "time": []}}}, "displayed_time": "14.18", "trialTime": 15344, "trial_type": "mouselab-mdp", "trial_index": 68, "time_elapsed": 1532544, "internal_node_id": "0.0-4.0-3.0-22.0"}}, {"uniqueid": "w90425244:a49922299", "current_trial": 69, "dateTime": 1664372963265, "trialdata": {"revealed_states": [], "num_clicks_accrued": [0, 0, 0, 0, 0, 0, 0, 0, 0, 0, 0, 0, 0], "stateRewards": ["", 2, 4, -24, -48, 4, -4, 24, 48, -4, -4, -24, 48], "withholdReward": true, "trial_id": "mdp_181958792175", "block": "test2", "trialIndex": 57, "score": 51, "costs": -2, "simulationMode": [null, null, null], "rewards": [4, -4, 48], "path": ["0", "0", "5", "6", "8"], "rt": [6922, 686, 621], "actions": ["right", "right", "down"], "actionTimes": [7965, 9152, 10271], "queries": {"click": {"state": {"target": ["4", "3", "7", "8", "12", "11", "9", "5"], "time": [1762, 2385, 2859, 3561, 4369, 5097, 6905, 7378]}, "edge": {"target": [], "time": []}}, "mouseover": {"state": {"target": ["4", "2", "3", "7", "6", "8", "12", "11", "10", "10", "9", "0", "5"], "time": [1664, 2073, 2174, 2725, 3075, 3308, 4092, 4943, 5294, 6161, 6661, 7045, 7288]}, "edge": {"target": [], "time": []}}, "mouseout": {"state": {"target": ["0", "4", "2", "3", "7", "6", "8", "12", "11", "10", "10", "9", "0", "5"], "time": [1240, 2058, 2142, 2524, 3008, 3175, 3776, 4576, 5244, 5360, 6378, 7012, 7096, 7629]}, "edge": {"target": [], "time": []}}}, "displayed_time": "10.77", "trialTime": 12143, "trial_type": "mouselab-mdp", "trial_index": 69, "time_elapsed": 1544865, "internal_node_id": "0.0-4.0-3.0-23.0"}}, {"uniqueid": "w90425244:a49922299", "current_trial": 70, "dateTime": 1664372975360, "trialdata": {"revealed_states": [], "num_clicks_accrued": [0, 0, 0, 0, 0, 0, 0, 0, 0, 0, 0, 0, 0], "stateRewards": ["", 2, 4, 48, 48, 4, -8, 24, -48, -4, -8, -24, -48], "withholdReward": true, "trial_id": "mdp_343818007251", "block": "test2", "trialIndex": 58, "score": 57.75, "costs": -1.25, "simulationMode": [null, null, null], "rewards": [2, 4, 48], "path": ["0", "0", "1", "2", "3"], "rt": [4678, 482, 653], "actions": ["up", "up", "right"], "actionTimes": [6014, 7003, 8156], "queries": {"click": {"state": {"target": ["8", "7", "3", "11", "12"], "time": [2024, 2656, 3152, 4248, 4818]}, "edge": {"target": [], "time": []}}, "mouseover": {"state": {"target": ["5", "8", "7", "3", "2", "4", "11", "10", "12", "1", "2"], "time": [1662, 1829, 2413, 2946, 3364, 3480, 4064, 4548, 4665, 5499, 5799]}, "edge": {"target": [], "time": []}}, "mouseout": {"state": {"target": ["5", "0", "5", "8", "7", "3", "2", "4", "11", "10", "12", "1"], "time": [945, 1612, 1695, 2313, 2863, 3330, 3414, 3998, 4481, 4615, 5032, 5666]}, "edge": {"target": [], "time": []}}}, "displayed_time": "11.34", "trialTime": 11948, "trial_type": "mouselab-mdp", "trial_index": 70, "time_elapsed": 1556961, "internal_node_id": "0.0-4.0-3.0-24.0"}}, {"uniqueid": "w90425244:a49922299", "current_trial": 71, "dateTime": 1664372990111, "trialdata": {"revealed_states": [], "num_clicks_accrued": [0, 0, 0, 0, 0, 0, 0, 0, 0, 0, 0, 0, 0], "stateRewards": ["", -4, 4, -24, 48, -2, 8, -48, 24, 2, 4, 48, -48], "withholdReward": true, "trial_id": "mdp_366632183904", "block": "test2", "trialIndex": 59, "score": 57, "costs": -2, "simulationMode": [null, null, null], "rewards": [2, 4, 48], "path": ["0", "0", "9", "10", "11"], "rt": [9595, 446, 473], "actions": ["left", "left", "up"], "actionTimes": [11417, 12353, 13329], "queries": {"click": {"state": {"target": ["3", "11", "8", "12", "7", "4", "1", "9"], "time": [2736, 3480, 4858, 5880, 7040, 8280, 9953, 10545]}, "edge": {"target": [], "time": []}}, "mouseover": {"state": {"target": ["1", "3", "2", "4", "11", "8", "6", "5", "0", "12", "1", "7", "2", "4", "1", "1", "9"], "time": [2395, 2545, 3046, 3146, 3313, 4697, 5281, 5331, 5364, 5665, 6432, 6849, 7550, 7951, 8919, 9553, 10320]}, "edge": {"target": [], "time": []}}, "mouseout": {"state": {"target": ["2", "0", "1", "3", "2", "4", "11", "8", "6", "5", "0", "12", "1", "7", "2", "4", "1", "1"], "time": [1177, 2145, 2445, 3012, 3079, 3230, 3713, 4948, 5314, 5348, 5382, 6082, 6482, 7400, 7700, 8568, 9035, 10136]}, "edge": {"target": [], "time": []}}}, "displayed_time": "13.82", "trialTime": 14568, "trial_type": "mouselab-mdp", "trial_index": 71, "time_elapsed": 1571712, "internal_node_id": "0.0-4.0-3.0-25.0"}}, {"uniqueid": "w90425244:a49922299", "current_trial": 72, "dateTime": 1664373006800, "trialdata": {"revealed_states": [], "num_clicks_accrued": [0, 0, 0, 0, 0, 0, 0, 0, 0, 0, 0, 0, 0], "stateRewards": ["", -2, -8, -24, 24, -2, -8, -48, 24, -2, -8, 24, 24], "withholdReward": true, "trial_id": "mdp_336617436097", "block": "test2", "trialIndex": 60, "score": 16, "costs": -3, "simulationMode": [null, null, null], "rewards": [-2, -8, 24], "path": ["0", "0", "9", "10", "11"], "rt": [11416, 1328, 366], "actions": ["left", "left", "up"], "actionTimes": [12846, 14669, 15525], "queries": {"click": {"state": {"target": ["3", "4", "11", "12", "7", "8", "1", "9", "5", "10", "6", "2"], "time": [2421, 3278, 3838, 4365, 5030, 5486, 7265, 7903, 8391, 9263, 9983, 10831]}, "edge": {"target": [], "time": []}}, "mouseover": {"state": {"target": ["1", "2", "3", "2", "4", "11", "10", "12", "5", "7", "6", "8", "5", "1", "9", "0", "5", "0", "10", "6", "2"], "time": [1994, 2144, 2260, 3028, 3112, 3653, 4079, 4196, 4663, 4930, 5197, 5280, 5981, 6515, 7599, 8084, 8200, 8767, 9117, 9768, 10636]}, "edge": {"target": [], "time": []}}, "mouseout": {"state": {"target": ["9", "0", "1", "2", "3", "2", "4", "11", "10", "12", "5", "7", "6", "8", "5", "1", "9", "0", "5", "0", "9", "10", "9", "5", "6", "2", "1", "5", "6"], "time": [961, 1927, 2127, 2160, 2945, 3078, 3512, 4029, 4146, 4496, 4696, 5181, 5247, 5931, 6165, 7449, 8066, 8133, 8734, 8817, 8917, 9435, 9518, 9668, 10319, 11136, 11169, 14473, 16142]}, "edge": {"target": [], "time": []}}}, "displayed_time": "16.03", "trialTime": 16541, "trial_type": "mouselab-mdp", "trial_index": 72, "time_elapsed": 1588400, "internal_node_id": "0.0-4.0-3.0-26.0"}}, {"uniqueid": "w90425244:a49922299", "current_trial": 73, "dateTime": 1664373017072, "trialdata": {"revealed_states": [], "num_clicks_accrued": [0, 0, 0, 0, 0, 0, 0, 0, 0, 0, 0, 0, 0], "stateRewards": ["", 4, 4, 48, -24, -4, -8, 24, -24, 2, -8, -24, 24], "withholdReward": true, "trial_id": "mdp_933201675789", "block": "test2", "trialIndex": 61, "score": 59.5, "costs": -1.5, "simulationMode": [null, null, null], "rewards": [4, 4, 48], "path": ["0", "0", "1", "2", "3"], "rt": [5217, 535, 734], "actions": ["up", "up", "right"], "actionTimes": [6317, 7349, 8582], "queries": {"click": {"state": {"target": ["3", "7", "8", "12", "11", "4"], "time": [1999, 2809, 3432, 4136, 4792, 5489]}, "edge": {"target": [], "time": []}}, "mouseover": {"state": {"target": ["1", "2", "3", "7", "8", "12", "10", "11", "4", "2"], "time": [1324, 1640, 1807, 2308, 3342, 3993, 4411, 4644, 5211, 5930]}, "edge": {"target": [], "time": []}}, "mouseout": {"state": {"target": ["5", "1", "2", "3", "7", "8", "12", "10", "11", "4"], "time": [756, 1557, 1707, 2174, 2959, 3609, 4359, 4510, 4960, 5727]}, "edge": {"target": [], "time": []}}}, "displayed_time": "9.08", "trialTime": 10093, "trial_type": "mouselab-mdp", "trial_index": 73, "time_elapsed": 1598673, "internal_node_id": "0.0-4.0-3.0-27.0"}}, {"uniqueid": "w90425244:a49922299", "current_trial": 74, "dateTime": 1664373028873, "trialdata": {"revealed_states": [], "num_clicks_accrued": [0, 0, 0, 0, 0, 0, 0, 0, 0, 0, 0, 0, 0], "stateRewards": ["", -4, -8, 48, -24, 4, -8, 48, 48, -2, 4, -48, -24], "withholdReward": true, "trial_id": "mdp_925905402462", "block": "test2", "trialIndex": 62, "score": 48, "costs": -1, "simulationMode": [null, null, null], "rewards": [4, -8, 48], "path": ["0", "0", "5", "6", "7"], "rt": [4465, 726, 539], "actions": ["right", "right", "up"], "actionTimes": [6614, 7847, 8878], "queries": {"click": {"state": {"target": ["3", "7", "5", "1"], "time": [2987, 4018, 5235, 5803]}, "edge": {"target": [], "time": []}}, "mouseover": {"state": {"target": ["1", "3", "7", "5", "1"], "time": [2665, 2832, 3716, 5001, 5568]}, "edge": {"target": [], "time": []}}, "mouseout": {"state": {"target": ["2", "1", "3", "7", "5", "1"], "time": [1648, 2714, 3315, 4200, 5384, 5935]}, "edge": {"target": [], "time": []}}}, "displayed_time": "11.15", "trialTime": 11625, "trial_type": "mouselab-mdp", "trial_index": 74, "time_elapsed": 1610474, "internal_node_id": "0.0-4.0-3.0-28.0"}}, {"uniqueid": "w90425244:a49922299", "current_trial": 75, "dateTime": 1664373041968, "trialdata": {"revealed_states": [], "num_clicks_accrued": [0, 0, 0, 0, 0, 0, 0, 0, 0, 0, 0, 0, 0], "stateRewards": ["", 4, -4, 48, 24, 2, 4, 24, -24, 2, 4, 24, 48], "withholdReward": true, "trial_id": "mdp_736351885282", "block": "test2", "trialIndex": 63, "score": 52, "costs": -1, "simulationMode": [null, null, null], "rewards": [4, -4, 48], "path": ["0", "0", "1", "2", "3"], "rt": [4628, 646, 582], "actions": ["up", "up", "right"], "actionTimes": [5769, 6920, 7992], "queries": {"click": {"state": {"target": ["12", "3", "1", "9"], "time": [1830, 3046, 4311, 4858]}, "edge": {"target": [], "time": []}}, "mouseover": {"state": {"target": ["9", "10", "12", "1", "2", "3", "7", "1", "9", "10"], "time": [1485, 1585, 1685, 2436, 2669, 2869, 3420, 4061, 4705, 5238]}, "edge": {"target": [], "time": []}}, "mouseout": {"state": {"target": ["5", "9", "10", "12", "1", "2", "3", "7", "1", "9", "10"], "time": [784, 1534, 1601, 2036, 2469, 2686, 3203, 3637, 4521, 5205, 5589]}, "edge": {"target": [], "time": []}}}, "displayed_time": "11.14", "trialTime": 12945, "trial_type": "mouselab-mdp", "trial_index": 75, "time_elapsed": 1623568, "internal_node_id": "0.0-4.0-3.0-29.0"}}, {"uniqueid": "w90425244:a49922299", "current_trial": 76, "dateTime": 1664373052554, "trialdata": {"rt": 10580, "stimulus": "<h1> End of block! </h1>\n\nYou have reached the end of the block 2/4. If you need a short break, feel free to take one now before moving on.\n\n<br><br>\nIn the next block, you will complete another 30 rounds of this game.\n\n<br><br>\n<div style='text-align: center;'>Press <code>space</code> to begin.</div>\n<br><br>\n<div style='text-align: center;'>(If the experiment doesn't continue, try clicking on the text and then pressing <code>space</code>.)</div>", "response": " ", "trial_id": "mdp_ready_3", "trial_type": "html-keyboard-response", "trial_index": 76, "time_elapsed": 1634155, "internal_node_id": "0.0-4.0-4.0"}}, {"uniqueid": "w90425244:a49922299", "current_trial": 77, "dateTime": 1664373066136, "trialdata": {"revealed_states": [], "num_clicks_accrued": [0, 0, 0, 0, 0, 0, 0, 0, 0, 0, 0, 0, 0], "stateRewards": ["", 2, -4, -24, 24, 2, 8, 48, 48, 2, -8, 48, -24], "withholdReward": false, "trial_id": "mdp_330392242530", "block": "test3", "trialIndex": 64, "score": 61, "costs": -2, "simulationMode": [null, null, null], "rewards": [2, 8, 48], "path": ["0", "0", "5", "6", "8"], "rt": [8477, 212, 568], "actions": ["right", "right", "down"], "actionTimes": [9854, 10557, 11628], "queries": {"click": {"state": {"target": ["3", "4", "11", "8", "5", "9", "6", "10"], "time": [2094, 2877, 3334, 4470, 5758, 6318, 7399, 8190]}, "edge": {"target": [], "time": []}}, "mouseover": {"state": {"target": ["3", "2", "4", "11", "10", "8", "6", "5", "9", "6", "0", "10"], "time": [1933, 2517, 2618, 3151, 3569, 4319, 4820, 5204, 6037, 7189, 7740, 7989]}, "edge": {"target": [], "time": []}}, "mouseout": {"state": {"target": ["1", "3", "2", "4", "11", "10", "8", "6", "5", "9", "5", "6", "5", "0", "9", "10"], "time": [665, 2484, 2567, 3051, 3501, 3668, 4703, 4869, 5904, 6774, 7038, 7639, 7706, 7756, 7873, 12678]}, "edge": {"target": [], "time": []}}}, "displayed_time": "12.13", "trialTime": 13438, "trial_type": "mouselab-mdp", "trial_index": 77, "time_elapsed": 1647737, "internal_node_id": "0.0-4.0-5.0-0.0"}}, {"uniqueid": "w90425244:a49922299", "current_trial": 78, "dateTime": 1664373078416, "trialdata": {"revealed_states": [], "num_clicks_accrued": [0, 0, 0, 0, 0, 0, 0, 0, 0, 0, 0, 0, 0], "stateRewards": ["", -4, -4, -24, 48, -4, -8, -24, 48, 2, 4, 48, 48], "withholdReward": true, "trial_id": "mdp_810954007398", "block": "test3", "trialIndex": 65, "score": 57.75, "costs": -1.25, "simulationMode": [null, null, null], "rewards": [2, 4, 48], "path": ["0", "0", "9", "10", "12"], "rt": [4564, 454, 617], "actions": ["left", "left", "down"], "actionTimes": [5939, 6891, 8005], "queries": {"click": {"state": {"target": ["12", "3", "4", "1", "9"], "time": [2047, 2847, 3543, 4698, 5242]}, "edge": {"target": [], "time": []}}, "mouseover": {"state": {"target": ["9", "12", "2", "3", "2", "4", "1", "9"], "time": [1764, 1863, 2581, 2665, 3299, 3365, 4450, 5068]}, "edge": {"target": [], "time": []}}, "mouseout": {"state": {"target": ["12", "11", "0", "9", "12", "2", "3", "2", "4", "1", "9", "9"], "time": [268, 345, 1647, 1781, 2315, 2597, 3265, 3333, 3765, 4934, 5651, 8821]}, "edge": {"target": [], "time": []}}}, "displayed_time": "11.38", "trialTime": 12100, "trial_type": "mouselab-mdp", "trial_index": 78, "time_elapsed": 1660017, "internal_node_id": "0.0-4.0-5.0-1.0"}}, {"uniqueid": "w90425244:a49922299", "current_trial": 79, "dateTime": 1664373092601, "trialdata": {"revealed_states": [], "num_clicks_accrued": [0, 0, 0, 0, 0, 0, 0, 0, 0, 0, 0, 0, 0], "stateRewards": ["", -4, -4, 24, -48, 2, 4, -24, -48, -2, -8, -24, 24], "withholdReward": true, "trial_id": "mdp_565569130486", "block": "test3", "trialIndex": 66, "score": 17, "costs": -2, "simulationMode": [null, null, null], "rewards": [-2, -8, 24], "path": ["0", "0", "9", "10", "12"], "rt": [6750, 435, 404], "actions": ["left", "left", "down"], "actionTimes": [8958, 9886, 10790], "queries": {"click": {"state": {"target": ["3", "7", "12", "11", "4", "8", "1", "9"], "time": [3042, 3827, 4618, 5594, 6076, 6883, 8075, 8555]}, "edge": {"target": [], "time": []}}, "mouseover": {"state": {"target": ["3", "7", "9", "10", "12", "9", "11", "4", "1", "5", "8", "2", "1", "9"], "time": [2893, 3626, 4244, 4361, 4494, 4994, 5262, 5930, 6346, 6397, 6746, 7664, 7765, 8348]}, "edge": {"target": [], "time": []}}, "mouseout": {"state": {"target": ["0", "3", "7", "9", "10", "12", "9", "11", "4", "1", "5", "8", "7", "3", "2", "1", "9"], "time": [2459, 3443, 4161, 4278, 4377, 4811, 5045, 5779, 6297, 6363, 6430, 7298, 7381, 7581, 7681, 8248, 8898]}, "edge": {"target": [], "time": []}}}, "displayed_time": "12.21", "trialTime": 13967, "trial_type": "mouselab-mdp", "trial_index": 79, "time_elapsed": 1674201, "internal_node_id": "0.0-4.0-5.0-2.0"}}, {"uniqueid": "w90425244:a49922299", "current_trial": 80, "dateTime": 1664373104191, "trialdata": {"revealed_states": [], "num_clicks_accrued": [0, 0, 0, 0, 0, 0, 0, 0, 0, 0, 0, 0, 0], "stateRewards": ["", -4, 8, -48, -48, -4, 4, -24, -48, 2, -4, -24, 24], "withholdReward": true, "trial_id": "mdp_183773275291", "block": "test3", "trialIndex": 67, "score": 25.5, "costs": -1.5, "simulationMode": [null, null, null], "rewards": [2, -4, 24], "path": ["0", "0", "9", "10", "12"], "rt": [5052, 480, 633], "actions": ["left", "left", "down"], "actionTimes": [6140, 7115, 8251], "queries": {"click": {"state": {"target": ["3", "7", "4", "11", "12", "8"], "time": [1986, 2589, 3300, 3722, 4290, 4986]}, "edge": {"target": [], "time": []}}, "mouseover": {"state": {"target": ["3", "7", "2", "4", "11", "10", "12", "8", "6", "5", "9"], "time": [1878, 2478, 2895, 3185, 3613, 3996, 4113, 4813, 5381, 5414, 5881]}, "edge": {"target": [], "time": []}}, "mouseout": {"state": {"target": ["9", "3", "7", "2", "4", "11", "10", "12", "8", "6", "5"], "time": [759, 2328, 2761, 2928, 3513, 3946, 4080, 4379, 5331, 5397, 5497]}, "edge": {"target": [], "time": []}}}, "displayed_time": "8.75", "trialTime": 11395, "trial_type": "mouselab-mdp", "trial_index": 80, "time_elapsed": 1685792, "internal_node_id": "0.0-4.0-5.0-3.0"}}, {"uniqueid": "w90425244:a49922299", "current_trial": 81, "dateTime": 1664373115015, "trialdata": {"revealed_states": [], "num_clicks_accrued": [0, 0, 0, 0, 0, 0, 0, 0, 0, 0, 0, 0, 0], "stateRewards": ["", 2, -4, 48, 24, 2, 8, 24, 24, -2, 4, 24, 24], "withholdReward": true, "trial_id": "mdp_813974524300", "block": "test3", "trialIndex": 68, "score": 49.5, "costs": -1.5, "simulationMode": [null, null, null], "rewards": [2, -4, 48], "path": ["0", "0", "1", "2", "3"], "rt": [4849, 500, 909], "actions": ["up", "up", "right"], "actionTimes": [6030, 7030, 8438], "queries": {"click": {"state": {"target": ["3", "7", "4", "11", "12", "8"], "time": [2197, 2825, 3566, 4112, 4790, 5422]}, "edge": {"target": [], "time": []}}, "mouseover": {"state": {"target": ["1", "2", "3", "7", "2", "4", "11", "9", "12", "8", "6"], "time": [1572, 1622, 2006, 2723, 3224, 3441, 3991, 4375, 4608, 5176, 5793]}, "edge": {"target": [], "time": []}}, "mouseout": {"state": {"target": ["9", "0", "1", "2", "3", "7", "2", "4", "11", "9", "12", "8", "6", "1", "0"], "time": [755, 1524, 1588, 1922, 2473, 3040, 3340, 3757, 4292, 4441, 4909, 5560, 5827, 9063, 9147]}, "edge": {"target": [], "time": []}}}, "displayed_time": "10.18", "trialTime": 10670, "trial_type": "mouselab-mdp", "trial_index": 81, "time_elapsed": 1696616, "internal_node_id": "0.0-4.0-5.0-4.0"}}, {"uniqueid": "w90425244:a49922299", "current_trial": 82, "dateTime": 1664373127872, "trialdata": {"revealed_states": [], "num_clicks_accrued": [0, 0, 0, 0, 0, 0, 0, 0, 0, 0, 0, 0, 0], "stateRewards": ["", -2, 4, -48, -48, 4, 4, 48, -48, 2, 8, 24, 48], "withholdReward": false, "trial_id": "mdp_686771069745", "block": "test3", "trialIndex": 69, "score": 59.25, "costs": -1.75, "simulationMode": [null, null, null], "rewards": [4, 4, 48], "path": ["0", "0", "5", "6", "7"], "rt": [6951, 561, 887], "actions": ["right", "right", "up"], "actionTimes": [8122, 9186, 10563], "queries": {"click": {"state": {"target": ["3", "11", "4", "7", "12", "9", "5"], "time": [1860, 2631, 3180, 3940, 5356, 6549, 7573]}, "edge": {"target": [], "time": []}}, "mouseover": {"state": {"target": ["3", "2", "4", "11", "4", "2", "1", "7", "6", "8", "12", "0", "9", "5", "5"], "time": [1683, 2117, 2267, 2500, 2968, 3385, 3434, 3802, 4169, 4502, 5203, 6054, 6187, 6888, 7412]}, "edge": {"target": [], "time": []}}, "mouseout": {"state": {"target": ["3", "2", "4", "11", "4", "2", "1", "7", "6", "8", "12", "0", "9", "5", "5"], "time": [2050, 2183, 2317, 2867, 3351, 3419, 3451, 4102, 4385, 4886, 5503, 6104, 6804, 6938, 11810]}, "edge": {"target": [], "time": []}}}, "displayed_time": "11.06", "trialTime": 12659, "trial_type": "mouselab-mdp", "trial_index": 82, "time_elapsed": 1709473, "internal_node_id": "0.0-4.0-5.0-5.0"}}, {"uniqueid": "w90425244:a49922299", "current_trial": 83, "dateTime": 16643731386