{"condition": 0, "counterbalance": 0, "assignmentId": "a24559656", "workerId": "w32214033", "hitId": "h61541244", "currenttrial": 959, "bonus": 0, "data": [{"uniqueid": "w32214033:a24559656", "current_trial": 0, "dateTime": 1664463591750, "trialdata": {"success": true, "trial_type": "fullscreen", "trial_index": 0, "time_elapsed": 3466, "internal_node_id": "0.0-0.0"}}, {"uniqueid": "w32214033:a24559656", "current_trial": 1, "dateTime": 1664463610290, "trialdata": {"view_history": [{"page_index": 0, "viewing_time": 18535}], "rt": 18535, "trial_id": "exp_instructions_distractor", "trial_type": "instructions", "trial_index": 1, "time_elapsed": 22005, "internal_node_id": "0.0-1.0"}}, {"uniqueid": "w32214033:a24559656", "current_trial": 2, "dateTime": 1664463660960, "trialdata": {"view_history": [{"page_index": 0, "viewing_time": 50667}], "rt": 50667, "trial_id": "color_game_instructions", "trial_type": "instructions", "trial_index": 2, "time_elapsed": 72676, "internal_node_id": "0.0-2.0"}}, {"uniqueid": "w32214033:a24559656", "current_trial": 3, "dateTime": 1664463669128, "trialdata": {"rt": 8162, "stimulus": "<h1> Get ready to start the game! </h1>\n\nThank you for reading the instructions. Get ready start with the first of 5 block(s) of this game.\n<br><br>\nIn this first block, you will complete 90 rounds of this game before moving on.\n<br><br>\nRemember, the better you perform, the bigger your bonus will be!\n<br><br>\n<div style='text-align: center;'>Press <code>space</code> to begin.</div>", "response": " ", "trial_id": "stroop_1_ready_1", "trial_type": "html-keyboard-response", "trial_index": 3, "time_elapsed": 80844, "internal_node_id": "0.0-3.0"}}, {"uniqueid": "w32214033:a24559656", "current_trial": 4, "dateTime": 1664463670302, "trialdata": {"rt": 1168, "stimulus": "<p id='stroop-text' class='stroop-red'>BLUE</p>", "response": "r", "stimulus-type": "incongruent", "word": "blue", "color": "red", "correct_response": "r", "trial_id": "stroop-trial-1-incongruent-14", "trial_type": "html-keyboard-response", "trial_index": 4, "time_elapsed": 82017, "internal_node_id": "0.0-4.0-0.0"}}, {"uniqueid": "w32214033:a24559656", "current_trial": 5, "dateTime": 1664463672666, "trialdata": {"rt": 1860, "stimulus": "<p id='stroop-text' class='stroop-green'>YELLOW</p>", "response": "g", "stimulus-type": "incongruent", "word": "yellow", "color": "green", "correct_response": "g", "trial_id": "stroop-trial-1-incongruent-11", "trial_type": "html-keyboard-response", "trial_index": 5, "time_elapsed": 84382, "internal_node_id": "0.0-4.0-1.0"}}, {"uniqueid": "w32214033:a24559656", "current_trial": 6, "dateTime": 1664463674391, "trialdata": {"rt": 1207, "stimulus": "<p id='stroop-text' class='stroop-yellow'>CHAIR</p>", "response": "y", "stimulus-type": "unrelated", "word": "CHAIR", "color": "yellow", "correct_response": "y", "trial_id": "stroop-trial-1-unrelated-25", "trial_type": "html-keyboard-response", "trial_index": 6, "time_elapsed": 86105, "internal_node_id": "0.0-4.0-2.0"}}, {"uniqueid": "w32214033:a24559656", "current_trial": 7, "dateTime": 1664463676328, "trialdata": {"rt": 1421, "stimulus": "<p id='stroop-text' class='stroop-blue'>BLUE</p>", "response": "b", "stimulus-type": "congruent", "word": "blue", "color": "blue", "correct_response": "b", "trial_id": "stroop-trial-1-congruent-2", "trial_type": "html-keyboard-response", "trial_index": 7, "time_elapsed": 88044, "internal_node_id": "0.0-4.0-3.0"}}, {"uniqueid": "w32214033:a24559656", "current_trial": 8, "dateTime": 1664463678245, "trialdata": {"rt": 1412, "stimulus": "<p id='stroop-text' class='stroop-green'>DOG</p>", "response": "g", "stimulus-type": "unrelated", "word": "DOG", "color": "green", "correct_response": "g", "trial_id": "stroop-trial-1-unrelated-30", "trial_type": "html-keyboard-response", "trial_index": 8, "time_elapsed": 89961, "internal_node_id": "0.0-4.0-4.0"}}, {"uniqueid": "w32214033:a24559656", "current_trial": 9, "dateTime": 1664463679731, "trialdata": {"rt": 969, "stimulus": "<p id='stroop-text' class='stroop-blue'>DOG</p>", "response": "b", "stimulus-type": "unrelated", "word": "DOG", "color": "blue", "correct_response": "b", "trial_id": "stroop-trial-1-unrelated-13", "trial_type": "html-keyboard-response", "trial_index": 9, "time_elapsed": 91447, "internal_node_id": "0.0-4.0-5.0"}}, {"uniqueid": "w32214033:a24559656", "current_trial": 10, "dateTime": 1664463680931, "trialdata": {"rt": 691, "stimulus": "<p id='stroop-text' class='stroop-green'>YELLOW</p>", "response": "y", "stimulus-type": "incongruent", "word": "yellow", "color": "green", "correct_response": "g", "trial_id": "stroop-trial-1-incongruent-2", "trial_type": "html-keyboard-response", "trial_index": 10, "time_elapsed": 92647, "internal_node_id": "0.0-4.0-6.0"}}, {"uniqueid": "w32214033:a24559656", "current_trial": 11, "dateTime": 1664463682192, "trialdata": {"rt": 751, "stimulus": "<p id='stroop-text' class='stroop-blue'>BLUE</p>", "response": "b", "stimulus-type": "congruent", "word": "blue", "color": "blue", "correct_response": "b", "trial_id": "stroop-trial-1-congruent-14", "trial_type": "html-keyboard-response", "trial_index": 11, "time_elapsed": 93907, "internal_node_id": "0.0-4.0-7.0"}}, {"uniqueid": "w32214033:a24559656", "current_trial": 12, "dateTime": 1664463684240, "trialdata": {"rt": 1537, "stimulus": "<p id='stroop-text' class='stroop-green'>GREEN</p>", "response": "g", "stimulus-type": "congruent", "word": "green", "color": "green", "correct_response": "g", "trial_id": "stroop-trial-1-congruent-3", "trial_type": "html-keyboard-response", "trial_index": 12, "time_elapsed": 95956, "internal_node_id": "0.0-4.0-8.0"}}, {"uniqueid": "w32214033:a24559656", "current_trial": 13, "dateTime": 1664463685515, "trialdata": {"rt": 758, "stimulus": "<p id='stroop-text' class='stroop-red'>STONE</p>", "response": "r", "stimulus-type": "unrelated", "word": "STONE", "color": "red", "correct_response": "r", "trial_id": "stroop-trial-1-unrelated-4", "trial_type": "html-keyboard-response", "trial_index": 13, "time_elapsed": 97230, "internal_node_id": "0.0-4.0-9.0"}}, {"uniqueid": "w32214033:a24559656", "current_trial": 14, "dateTime": 1664463686928, "trialdata": {"rt": 909, "stimulus": "<p id='stroop-text' class='stroop-red'>BOAT</p>", "response": "r", "stimulus-type": "unrelated", "word": "BOAT", "color": "red", "correct_response": "r", "trial_id": "stroop-trial-1-unrelated-16", "trial_type": "html-keyboard-response", "trial_index": 14, "time_elapsed": 98643, "internal_node_id": "0.0-4.0-10.0"}}, {"uniqueid": "w32214033:a24559656", "current_trial": 15, "dateTime": 1664463687858, "trialdata": {"rt": 425, "stimulus": "<p id='stroop-text' class='stroop-red'>BLUE</p>", "response": "r", "stimulus-type": "incongruent", "word": "blue", "color": "red", "correct_response": "r", "trial_id": "stroop-trial-1-incongruent-21", "trial_type": "html-keyboard-response", "trial_index": 15, "time_elapsed": 99573, "internal_node_id": "0.0-4.0-11.0"}}, {"uniqueid": "w32214033:a24559656", "current_trial": 16, "dateTime": 1664463689065, "trialdata": {"rt": 690, "stimulus": "<p id='stroop-text' class='stroop-yellow'>BLUE</p>", "response": "y", "stimulus-type": "incongruent", "word": "blue", "color": "yellow", "correct_response": "y", "trial_id": "stroop-trial-1-incongruent-15", "trial_type": "html-keyboard-response", "trial_index": 16, "time_elapsed": 100780, "internal_node_id": "0.0-4.0-12.0"}}, {"uniqueid": "w32214033:a24559656", "current_trial": 17, "dateTime": 1664463690356, "trialdata": {"rt": 776, "stimulus": "<p id='stroop-text' class='stroop-red'>FORK</p>", "response": "r", "stimulus-type": "unrelated", "word": "FORK", "color": "red", "correct_response": "r", "trial_id": "stroop-trial-1-unrelated-12", "trial_type": "html-keyboard-response", "trial_index": 17, "time_elapsed": 102072, "internal_node_id": "0.0-4.0-13.0"}}, {"uniqueid": "w32214033:a24559656", "current_trial": 18, "dateTime": 1664463692597, "trialdata": {"rt": 1737, "stimulus": "<p id='stroop-text' class='stroop-blue'>GREEN</p>", "response": "b", "stimulus-type": "incongruent", "word": "green", "color": "blue", "correct_response": "b", "trial_id": "stroop-trial-1-incongruent-17", "trial_type": "html-keyboard-response", "trial_index": 18, "time_elapsed": 104312, "internal_node_id": "0.0-4.0-14.0"}}, {"uniqueid": "w32214033:a24559656", "current_trial": 19, "dateTime": 1664463693556, "trialdata": {"rt": 456, "stimulus": "<p id='stroop-text' class='stroop-blue'>STONE</p>", "response": "b", "stimulus-type": "unrelated", "word": "STONE", "color": "blue", "correct_response": "b", "trial_id": "stroop-trial-1-unrelated-8", "trial_type": "html-keyboard-response", "trial_index": 19, "time_elapsed": 105271, "internal_node_id": "0.0-4.0-15.0"}}, {"uniqueid": "w32214033:a24559656", "current_trial": 20, "dateTime": 1664463694585, "trialdata": {"rt": 511, "stimulus": "<p id='stroop-text' class='stroop-red'>RED</p>", "response": "r", "stimulus-type": "congruent", "word": "red", "color": "red", "correct_response": "r", "trial_id": "stroop-trial-1-congruent-9", "trial_type": "html-keyboard-response", "trial_index": 20, "time_elapsed": 106301, "internal_node_id": "0.0-4.0-16.0"}}, {"uniqueid": "w32214033:a24559656", "current_trial": 21, "dateTime": 1664463695956, "trialdata": {"rt": 862, "stimulus": "<p id='stroop-text' class='stroop-green'>GREEN</p>", "response": "g", "stimulus-type": "congruent", "word": "green", "color": "green", "correct_response": "g", "trial_id": "stroop-trial-1-congruent-28", "trial_type": "html-keyboard-response", "trial_index": 21, "time_elapsed": 107671, "internal_node_id": "0.0-4.0-17.0"}}, {"uniqueid": "w32214033:a24559656", "current_trial": 22, "dateTime": 1664463697675, "trialdata": {"rt": 1215, "stimulus": "<p id='stroop-text' class='stroop-blue'>RED</p>", "response": "b", "stimulus-type": "incongruent", "word": "red", "color": "blue", "correct_response": "b", "trial_id": "stroop-trial-1-incongruent-19", "trial_type": "html-keyboard-response", "trial_index": 22, "time_elapsed": 109391, "internal_node_id": "0.0-4.0-18.0"}}, {"uniqueid": "w32214033:a24559656", "current_trial": 23, "dateTime": 1664463699544, "trialdata": {"rt": 1359, "stimulus": "<p id='stroop-text' class='stroop-green'>GREEN</p>", "response": "g", "stimulus-type": "congruent", "word": "green", "color": "green", "correct_response": "g", "trial_id": "stroop-trial-1-congruent-26", "trial_type": "html-keyboard-response", "trial_index": 23, "time_elapsed": 111259, "internal_node_id": "0.0-4.0-19.0"}}, {"uniqueid": "w32214033:a24559656", "current_trial": 24, "dateTime": 1664463700749, "trialdata": {"rt": 692, "stimulus": "<p id='stroop-text' class='stroop-green'>WINDOW</p>", "response": "g", "stimulus-type": "unrelated", "word": "WINDOW", "color": "green", "correct_response": "g", "trial_id": "stroop-trial-1-unrelated-9", "trial_type": "html-keyboard-response", "trial_index": 24, "time_elapsed": 112464, "internal_node_id": "0.0-4.0-20.0"}}, {"uniqueid": "w32214033:a24559656", "current_trial": 25, "dateTime": 1664463701756, "trialdata": {"rt": 496, "stimulus": "<p id='stroop-text' class='stroop-red'>BRAIN</p>", "response": "r", "stimulus-type": "unrelated", "word": "BRAIN", "color": "red", "correct_response": "r", "trial_id": "stroop-trial-1-unrelated-5", "trial_type": "html-keyboard-response", "trial_index": 25, "time_elapsed": 113470, "internal_node_id": "0.0-4.0-21.0"}}, {"uniqueid": "w32214033:a24559656", "current_trial": 26, "dateTime": 1664463702977, "trialdata": {"rt": 718, "stimulus": "<p id='stroop-text' class='stroop-blue'>BLUE</p>", "response": "b", "stimulus-type": "congruent", "word": "blue", "color": "blue", "correct_response": "b", "trial_id": "stroop-trial-1-congruent-7", "trial_type": "html-keyboard-response", "trial_index": 26, "time_elapsed": 114693, "internal_node_id": "0.0-4.0-22.0"}}, {"uniqueid": "w32214033:a24559656", "current_trial": 27, "dateTime": 1664463704119, "trialdata": {"rt": 628, "stimulus": "<p id='stroop-text' class='stroop-yellow'>GREEN</p>", "response": "y", "stimulus-type": "incongruent", "word": "green", "color": "yellow", "correct_response": "y", "trial_id": "stroop-trial-1-incongruent-13", "trial_type": "html-keyboard-response", "trial_index": 27, "time_elapsed": 115835, "internal_node_id": "0.0-4.0-23.0"}}, {"uniqueid": "w32214033:a24559656", "current_trial": 28, "dateTime": 1664463706097, "trialdata": {"rt": 1468, "stimulus": "<p id='stroop-text' class='stroop-green'>YELLOW</p>", "response": "g", "stimulus-type": "incongruent", "word": "yellow", "color": "green", "correct_response": "g", "trial_id": "stroop-trial-1-incongruent-28", "trial_type": "html-keyboard-response", "trial_index": 28, "time_elapsed": 117813, "internal_node_id": "0.0-4.0-24.0"}}, {"uniqueid": "w32214033:a24559656", "current_trial": 29, "dateTime": 1664463707148, "trialdata": {"rt": 548, "stimulus": "<p id='stroop-text' class='stroop-green'>GREEN</p>", "response": "g", "stimulus-type": "congruent", "word": "green", "color": "green", "correct_response": "g", "trial_id": "stroop-trial-1-congruent-11", "trial_type": "html-keyboard-response", "trial_index": 29, "time_elapsed": 118864, "internal_node_id": "0.0-4.0-25.0"}}, {"uniqueid": "w32214033:a24559656", "current_trial": 30, "dateTime": 1664463708067, "trialdata": {"rt": 415, "stimulus": "<p id='stroop-text' class='stroop-green'>RED</p>", "response": "g", "stimulus-type": "incongruent", "word": "red", "color": "green", "correct_response": "g", "trial_id": "stroop-trial-1-incongruent-5", "trial_type": "html-keyboard-response", "trial_index": 30, "time_elapsed": 119783, "internal_node_id": "0.0-4.0-26.0"}}, {"uniqueid": "w32214033:a24559656", "current_trial": 31, "dateTime": 1664463709342, "trialdata": {"rt": 768, "stimulus": "<p id='stroop-text' class='stroop-blue'>BRAIN</p>", "response": "b", "stimulus-type": "unrelated", "word": "BRAIN", "color": "blue", "correct_response": "b", "trial_id": "stroop-trial-1-unrelated-10", "trial_type": "html-keyboard-response", "trial_index": 31, "time_elapsed": 121058, "internal_node_id": "0.0-4.0-27.0"}}, {"uniqueid": "w32214033:a24559656", "current_trial": 32, "dateTime": 1664463710430, "trialdata": {"rt": 585, "stimulus": "<p id='stroop-text' class='stroop-blue'>YELLOW</p>", "response": "y", "stimulus-type": "incongruent", "word": "yellow", "color": "blue", "correct_response": "b", "trial_id": "stroop-trial-1-incongruent-8", "trial_type": "html-keyboard-response", "trial_index": 32, "time_elapsed": 122145, "internal_node_id": "0.0-4.0-28.0"}}, {"uniqueid": "w32214033:a24559656", "current_trial": 33, "dateTime": 1664463711738, "trialdata": {"rt": 799, "stimulus": "<p id='stroop-text' class='stroop-blue'>GREEN</p>", "response": "g", "stimulus-type": "incongruent", "word": "green", "color": "blue", "correct_response": "b", "trial_id": "stroop-trial-1-incongruent-24", "trial_type": "html-keyboard-response", "trial_index": 33, "time_elapsed": 123454, "internal_node_id": "0.0-4.0-29.0"}}, {"uniqueid": "w32214033:a24559656", "current_trial": 34, "dateTime": 1664463713629, "trialdata": {"rt": 1380, "stimulus": "<p id='stroop-text' class='stroop-blue'>DOG</p>", "response": "b", "stimulus-type": "unrelated", "word": "DOG", "color": "blue", "correct_response": "b", "trial_id": "stroop-trial-1-unrelated-26", "trial_type": "html-keyboard-response", "trial_index": 34, "time_elapsed": 125344, "internal_node_id": "0.0-4.0-30.0"}}, {"uniqueid": "w32214033:a24559656", "current_trial": 35, "dateTime": 1664463715539, "trialdata": {"rt": 1393, "stimulus": "<p id='stroop-text' class='stroop-green'>SHIP</p>", "response": "g", "stimulus-type": "unrelated", "word": "SHIP", "color": "green", "correct_response": "g", "trial_id": "stroop-trial-1-unrelated-27", "trial_type": "html-keyboard-response", "trial_index": 35, "time_elapsed": 127255, "internal_node_id": "0.0-4.0-31.0"}}, {"uniqueid": "w32214033:a24559656", "current_trial": 36, "dateTime": 1664463716382, "trialdata": {"rt": 334, "stimulus": "<p id='stroop-text' class='stroop-green'>STONE</p>", "response": "g", "stimulus-type": "unrelated", "word": "STONE", "color": "green", "correct_response": "g", "trial_id": "stroop-trial-1-unrelated-28", "trial_type": "html-keyboard-response", "trial_index": 36, "time_elapsed": 128097, "internal_node_id": "0.0-4.0-32.0"}}, {"uniqueid": "w32214033:a24559656", "current_trial": 37, "dateTime": 1664463717876, "trialdata": {"rt": 983, "stimulus": "<p id='stroop-text' class='stroop-blue'>BLUE</p>", "response": "b", "stimulus-type": "congruent", "word": "blue", "color": "blue", "correct_response": "b", "trial_id": "stroop-trial-1-congruent-12", "trial_type": "html-keyboard-response", "trial_index": 37, "time_elapsed": 129591, "internal_node_id": "0.0-4.0-33.0"}}, {"uniqueid": "w32214033:a24559656", "current_trial": 38, "dateTime": 1664463719181, "trialdata": {"rt": 789, "stimulus": "<p id='stroop-text' class='stroop-green'>GREEN</p>", "response": "g", "stimulus-type": "congruent", "word": "green", "color": "green", "correct_response": "g", "trial_id": "stroop-trial-1-congruent-20", "trial_type": "html-keyboard-response", "trial_index": 38, "time_elapsed": 130897, "internal_node_id": "0.0-4.0-34.0"}}, {"uniqueid": "w32214033:a24559656", "current_trial": 39, "dateTime": 1664463720869, "trialdata": {"rt": 1179, "stimulus": "<p id='stroop-text' class='stroop-blue'>GREEN</p>", "response": "b", "stimulus-type": "incongruent", "word": "green", "color": "blue", "correct_response": "b", "trial_id": "stroop-trial-1-incongruent-26", "trial_type": "html-keyboard-response", "trial_index": 39, "time_elapsed": 132584, "internal_node_id": "0.0-4.0-35.0"}}, {"uniqueid": "w32214033:a24559656", "current_trial": 40, "dateTime": 1664463721991, "trialdata": {"rt": 608, "stimulus": "<p id='stroop-text' class='stroop-yellow'>BLUE</p>", "response": "y", "stimulus-type": "incongruent", "word": "blue", "color": "yellow", "correct_response": "y", "trial_id": "stroop-trial-1-incongruent-30", "trial_type": "html-keyboard-response", "trial_index": 40, "time_elapsed": 133707, "internal_node_id": "0.0-4.0-36.0"}}, {"uniqueid": "w32214033:a24559656", "current_trial": 41, "dateTime": 1664463723044, "trialdata": {"rt": 539, "stimulus": "<p id='stroop-text' class='stroop-yellow'>BRAIN</p>", "response": "y", "stimulus-type": "unrelated", "word": "BRAIN", "color": "yellow", "correct_response": "y", "trial_id": "stroop-trial-1-unrelated-22", "trial_type": "html-keyboard-response", "trial_index": 41, "time_elapsed": 134760, "internal_node_id": "0.0-4.0-37.0"}}, {"uniqueid": "w32214033:a24559656", "current_trial": 42, "dateTime": 1664463724011, "trialdata": {"rt": 460, "stimulus": "<p id='stroop-text' class='stroop-yellow'>BRAIN</p>", "response": "y", "stimulus-type": "unrelated", "word": "BRAIN", "color": "yellow", "correct_response": "y", "trial_id": "stroop-trial-1-unrelated-18", "trial_type": "html-keyboard-response", "trial_index": 42, "time_elapsed": 135726, "internal_node_id": "0.0-4.0-38.0"}}, {"uniqueid": "w32214033:a24559656", "current_trial": 43, "dateTime": 1664463725306, "trialdata": {"rt": 785, "stimulus": "<p id='stroop-text' class='stroop-blue'>WINDOW</p>", "response": "b", "stimulus-type": "unrelated", "word": "WINDOW", "color": "blue", "correct_response": "b", "trial_id": "stroop-trial-1-unrelated-1", "trial_type": "html-keyboard-response", "trial_index": 43, "time_elapsed": 137021, "internal_node_id": "0.0-4.0-39.0"}}, {"uniqueid": "w32214033:a24559656", "current_trial": 44, "dateTime": 1664463726772, "trialdata": {"rt": 956, "stimulus": "<p id='stroop-text' class='stroop-yellow'>BOTTLE</p>", "response": "y", "stimulus-type": "unrelated", "word": "BOTTLE", "color": "yellow", "correct_response": "y", "trial_id": "stroop-trial-1-unrelated-21", "trial_type": "html-keyboard-response", "trial_index": 44, "time_elapsed": 138488, "internal_node_id": "0.0-4.0-40.0"}}, {"uniqueid": "w32214033:a24559656", "current_trial": 45, "dateTime": 1664463727765, "trialdata": {"rt": 488, "stimulus": "<p id='stroop-text' class='stroop-red'>RED</p>", "response": "r", "stimulus-type": "congruent", "word": "red", "color": "red", "correct_response": "r", "trial_id": "stroop-trial-1-congruent-23", "trial_type": "html-keyboard-response", "trial_index": 45, "time_elapsed": 139481, "internal_node_id": "0.0-4.0-41.0"}}, {"uniqueid": "w32214033:a24559656", "current_trial": 46, "dateTime": 1664463728874, "trialdata": {"rt": 595, "stimulus": "<p id='stroop-text' class='stroop-blue'>BLUE</p>", "response": "b", "stimulus-type": "congruent", "word": "blue", "color": "blue", "correct_response": "b", "trial_id": "stroop-trial-1-congruent-5", "trial_type": "html-keyboard-response", "trial_index": 46, "time_elapsed": 140589, "internal_node_id": "0.0-4.0-42.0"}}, {"uniqueid": "w32214033:a24559656", "current_trial": 47, "dateTime": 1664463729813, "trialdata": {"rt": 424, "stimulus": "<p id='stroop-text' class='stroop-blue'>BLUE</p>", "response": "b", "stimulus-type": "congruent", "word": "blue", "color": "blue", "correct_response": "b", "trial_id": "stroop-trial-1-congruent-19", "trial_type": "html-keyboard-response", "trial_index": 47, "time_elapsed": 141529, "internal_node_id": "0.0-4.0-43.0"}}, {"uniqueid": "w32214033:a24559656", "current_trial": 48, "dateTime": 1664463730923, "trialdata": {"rt": 594, "stimulus": "<p id='stroop-text' class='stroop-red'>RED</p>", "response": "r", "stimulus-type": "congruent", "word": "red", "color": "red", "correct_response": "r", "trial_id": "stroop-trial-1-congruent-30", "trial_type": "html-keyboard-response", "trial_index": 48, "time_elapsed": 142639, "internal_node_id": "0.0-4.0-44.0"}}, {"uniqueid": "w32214033:a24559656", "current_trial": 49, "dateTime": 1664463732178, "trialdata": {"rt": 744, "stimulus": "<p id='stroop-text' class='stroop-green'>GREEN</p>", "response": "g", "stimulus-type": "congruent", "word": "green", "color": "green", "correct_response": "g", "trial_id": "stroop-trial-1-congruent-22", "trial_type": "html-keyboard-response", "trial_index": 49, "time_elapsed": 143893, "internal_node_id": "0.0-4.0-45.0"}}, {"uniqueid": "w32214033:a24559656", "current_trial": 50, "dateTime": 1664463733384, "trialdata": {"rt": 701, "stimulus": "<p id='stroop-text' class='stroop-green'>FORK</p>", "response": "g", "stimulus-type": "unrelated", "word": "FORK", "color": "green", "correct_response": "g", "trial_id": "stroop-trial-1-unrelated-6", "trial_type": "html-keyboard-response", "trial_index": 50, "time_elapsed": 145100, "internal_node_id": "0.0-4.0-46.0"}}, {"uniqueid": "w32214033:a24559656", "current_trial": 51, "dateTime": 1664463734565, "trialdata": {"rt": 680, "stimulus": "<p id='stroop-text' class='stroop-yellow'>RED</p>", "response": "r", "stimulus-type": "incongruent", "word": "red", "color": "yellow", "correct_response": "y", "trial_id": "stroop-trial-1-incongruent-25", "trial_type": "html-keyboard-response", "trial_index": 51, "time_elapsed": 146281, "internal_node_id": "0.0-4.0-47.0"}}, {"uniqueid": "w32214033:a24559656", "current_trial": 52, "dateTime": 1664463735839, "trialdata": {"rt": 766, "stimulus": "<p id='stroop-text' class='stroop-blue'>BLUE</p>", "response": "b", "stimulus-type": "congruent", "word": "blue", "color": "blue", "correct_response": "b", "trial_id": "stroop-trial-1-congruent-6", "trial_type": "html-keyboard-response", "trial_index": 52, "time_elapsed": 147554, "internal_node_id": "0.0-4.0-48.0"}}, {"uniqueid": "w32214033:a24559656", "current_trial": 53, "dateTime": 1664463737691, "trialdata": {"rt": 1341, "stimulus": "<p id='stroop-text' class='stroop-green'>DOG</p>", "response": "g", "stimulus-type": "unrelated", "word": "DOG", "color": "green", "correct_response": "g", "trial_id": "stroop-trial-1-unrelated-3", "trial_type": "html-keyboard-response", "trial_index": 53, "time_elapsed": 149406, "internal_node_id": "0.0-4.0-49.0"}}, {"uniqueid": "w32214033:a24559656", "current_trial": 54, "dateTime": 1664463738658, "trialdata": {"rt": 456, "stimulus": "<p id='stroop-text' class='stroop-red'>RED</p>", "response": "r", "stimulus-type": "congruent", "word": "red", "color": "red", "correct_response": "r", "trial_id": "stroop-trial-1-congruent-29", "trial_type": "html-keyboard-response", "trial_index": 54, "time_elapsed": 150374, "internal_node_id": "0.0-4.0-50.0"}}, {"uniqueid": "w32214033:a24559656", "current_trial": 55, "dateTime": 1664463739888, "trialdata": {"rt": 713, "stimulus": "<p id='stroop-text' class='stroop-red'>RED</p>", "response": "r", "stimulus-type": "congruent", "word": "red", "color": "red", "correct_response": "r", "trial_id": "stroop-trial-1-congruent-13", "trial_type": "html-keyboard-response", "trial_index": 55, "time_elapsed": 151603, "internal_node_id": "0.0-4.0-51.0"}}, {"uniqueid": "w32214033:a24559656", "current_trial": 56, "dateTime": 1664463740985, "trialdata": {"rt": 595, "stimulus": "<p id='stroop-text' class='stroop-red'>WINDOW</p>", "response": "r", "stimulus-type": "unrelated", "word": "WINDOW", "color": "red", "correct_response": "r", "trial_id": "stroop-trial-1-unrelated-23", "trial_type": "html-keyboard-response", "trial_index": 56, "time_elapsed": 152701, "internal_node_id": "0.0-4.0-52.0"}}, {"uniqueid": "w32214033:a24559656", "current_trial": 57, "dateTime": 1664463742240, "trialdata": {"rt": 742, "stimulus": "<p id='stroop-text' class='stroop-green'>GREEN</p>", "response": "g", "stimulus-type": "congruent", "word": "green", "color": "green", "correct_response": "g", "trial_id": "stroop-trial-1-congruent-16", "trial_type": "html-keyboard-response", "trial_index": 57, "time_elapsed": 153955, "internal_node_id": "0.0-4.0-53.0"}}, {"uniqueid": "w32214033:a24559656", "current_trial": 58, "dateTime": 1664463743396, "trialdata": {"rt": 649, "stimulus": "<p id='stroop-text' class='stroop-red'>RED</p>", "response": "r", "stimulus-type": "congruent", "word": "red", "color": "red", "correct_response": "r", "trial_id": "stroop-trial-1-congruent-10", "trial_type": "html-keyboard-response", "trial_index": 58, "time_elapsed": 155112, "internal_node_id": "0.0-4.0-54.0"}}, {"uniqueid": "w32214033:a24559656", "current_trial": 59, "dateTime": 1664463744502, "trialdata": {"rt": 599, "stimulus": "<p id='stroop-text' class='stroop-red'>BOAT</p>", "response": "r", "stimulus-type": "unrelated", "word": "BOAT", "color": "red", "correct_response": "r", "trial_id": "stroop-trial-1-unrelated-24", "trial_type": "html-keyboard-response", "trial_index": 59, "time_elapsed": 156218, "internal_node_id": "0.0-4.0-55.0"}}, {"uniqueid": "w32214033:a24559656", "current_trial": 60, "dateTime": 1664463745943, "trialdata": {"rt": 933, "stimulus": "<p id='stroop-text' class='stroop-blue'>MONKEY</p>", "response": "b", "stimulus-type": "unrelated", "word": "MONKEY", "color": "blue", "correct_response": "b", "trial_id": "stroop-trial-1-unrelated-11", "trial_type": "html-keyboard-response", "trial_index": 60, "time_elapsed": 157658, "internal_node_id": "0.0-4.0-56.0"}}, {"uniqueid": "w32214033:a24559656", "current_trial": 61, "dateTime": 1664463747631, "trialdata": {"rt": 1185, "stimulus": "<p id='stroop-text' class='stroop-green'>RED</p>", "response": "g", "stimulus-type": "incongruent", "word": "red", "color": "green", "correct_response": "g", "trial_id": "stroop-trial-1-incongruent-22", "trial_type": "html-keyboard-response", "trial_index": 61, "time_elapsed": 159346, "internal_node_id": "0.0-4.0-57.0"}}, {"uniqueid": "w32214033:a24559656", "current_trial": 62, "dateTime": 1664463748716, "trialdata": {"rt": 569, "stimulus": "<p id='stroop-text' class='stroop-red'>SHIP</p>", "response": "r", "stimulus-type": "unrelated", "word": "SHIP", "color": "red", "correct_response": "r", "trial_id": "stroop-trial-1-unrelated-17", "trial_type": "html-keyboard-response", "trial_index": 62, "time_elapsed": 160432, "internal_node_id": "0.0-4.0-58.0"}}, {"uniqueid": "w32214033:a24559656", "current_trial": 63, "dateTime": 1664463750287, "trialdata": {"rt": 1060, "stimulus": "<p id='stroop-text' class='stroop-green'>GREEN</p>", "response": "g", "stimulus-type": "congruent", "word": "green", "color": "green", "correct_response": "g", "trial_id": "stroop-trial-1-congruent-4", "trial_type": "html-keyboard-response", "trial_index": 63, "time_elapsed": 162003, "internal_node_id": "0.0-4.0-59.0"}}, {"uniqueid": "w32214033:a24559656", "current_trial": 64, "dateTime": 1664463751210, "trialdata": {"rt": 410, "stimulus": "<p id='stroop-text' class='stroop-green'>FORK</p>", "response": "g", "stimulus-type": "unrelated", "word": "FORK", "color": "green", "correct_response": "g", "trial_id": "stroop-trial-1-unrelated-14", "trial_type": "html-keyboard-response", "trial_index": 64, "time_elapsed": 162925, "internal_node_id": "0.0-4.0-60.0"}}, {"uniqueid": "w32214033:a24559656", "current_trial": 65, "dateTime": 1664463752664, "trialdata": {"rt": 951, "stimulus": "<p id='stroop-text' class='stroop-blue'>RED</p>", "response": "b", "stimulus-type": "incongruent", "word": "red", "color": "blue", "correct_response": "b", "trial_id": "stroop-trial-1-incongruent-16", "trial_type": "html-keyboard-response", "trial_index": 65, "time_elapsed": 164380, "internal_node_id": "0.0-4.0-61.0"}}, {"uniqueid": "w32214033:a24559656", "current_trial": 66, "dateTime": 1664463753527, "trialdata": {"rt": 350, "stimulus": "<p id='stroop-text' class='stroop-blue'>BLUE</p>", "response": "b", "stimulus-type": "congruent", "word": "blue", "color": "blue", "correct_response": "b", "trial_id": "stroop-trial-1-congruent-8", "trial_type": "html-keyboard-response", "trial_index": 66, "time_elapsed": 165242, "internal_node_id": "0.0-4.0-62.0"}}, {"uniqueid": "w32214033:a24559656", "current_trial": 67, "dateTime": 1664463754735, "trialdata": {"rt": 694, "stimulus": "<p id='stroop-text' class='stroop-yellow'>RED</p>", "response": "y", "stimulus-type": "incongruent", "word": "red", "color": "yellow", "correct_response": "y", "trial_id": "stroop-trial-1-incongruent-23", "trial_type": "html-keyboard-response", "trial_index": 67, "time_elapsed": 166451, "internal_node_id": "0.0-4.0-63.0"}}, {"uniqueid": "w32214033:a24559656", "current_trial": 68, "dateTime": 1664463755914, "trialdata": {"rt": 667, "stimulus": "<p id='stroop-text' class='stroop-red'>CHAIR</p>", "response": "r", "stimulus-type": "unrelated", "word": "CHAIR", "color": "red", "correct_response": "r", "trial_id": "stroop-trial-1-unrelated-29", "trial_type": "html-keyboard-response", "trial_index": 68, "time_elapsed": 167630, "internal_node_id": "0.0-4.0-64.0"}}, {"uniqueid": "w32214033:a24559656", "current_trial": 69, "dateTime": 1664463756820, "trialdata": {"rt": 401, "stimulus": "<p id='stroop-text' class='stroop-red'>BRAIN</p>", "response": "r", "stimulus-type": "unrelated", "word": "BRAIN", "color": "red", "correct_response": "r", "trial_id": "stroop-trial-1-unrelated-19", "trial_type": "html-keyboard-response", "trial_index": 69, "time_elapsed": 168535, "internal_node_id": "0.0-4.0-65.0"}}, {"uniqueid": "w32214033:a24559656", "current_trial": 70, "dateTime": 1664463758250, "trialdata": {"rt": 927, "stimulus": "<p id='stroop-text' class='stroop-blue'>GREEN</p>", "response": "b", "stimulus-type": "incongruent", "word": "green", "color": "blue", "correct_response": "b", "trial_id": "stroop-trial-1-incongruent-1", "trial_type": "html-keyboard-response", "trial_index": 70, "time_elapsed": 169966, "internal_node_id": "0.0-4.0-66.0"}}, {"uniqueid": "w32214033:a24559656", "current_trial": 71, "dateTime": 1664463759663, "trialdata": {"rt": 906, "stimulus": "<p id='stroop-text' class='stroop-green'>YELLOW</p>", "response": "g", "stimulus-type": "incongruent", "word": "yellow", "color": "green", "correct_response": "g", "trial_id": "stroop-trial-1-incongruent-7", "trial_type": "html-keyboard-response", "trial_index": 71, "time_elapsed": 171379, "internal_node_id": "0.0-4.0-67.0"}}, {"uniqueid": "w32214033:a24559656", "current_trial": 72, "dateTime": 1664463760877, "trialdata": {"rt": 696, "stimulus": "<p id='stroop-text' class='stroop-blue'>BLUE</p>", "response": "b", "stimulus-type": "congruent", "word": "blue", "color": "blue", "correct_response": "b", "trial_id": "stroop-trial-1-congruent-21", "trial_type": "html-keyboard-response", "trial_index": 72, "time_elapsed": 172592, "internal_node_id": "0.0-4.0-68.0"}}, {"uniqueid": "w32214033:a24559656", "current_trial": 73, "dateTime": 1664463762543, "trialdata": {"rt": 1160, "stimulus": "<p id='stroop-text' class='stroop-blue'>YELLOW</p>", "response": "b", "stimulus-type": "incongruent", "word": "yellow", "color": "blue", "correct_response": "b", "trial_id": "stroop-trial-1-incongruent-18", "trial_type": "html-keyboard-response", "trial_index": 73, "time_elapsed": 174259, "internal_node_id": "0.0-4.0-69.0"}}, {"uniqueid": "w32214033:a24559656", "current_trial": 74, "dateTime": 1664463763691, "trialdata": {"rt": 632, "stimulus": "<p id='stroop-text' class='stroop-yellow'>BLUE</p>", "response": "y", "stimulus-type": "incongruent", "word": "blue", "color": "yellow", "correct_response": "y", "trial_id": "stroop-trial-1-incongruent-9", "trial_type": "html-keyboard-response", "trial_index": 74, "time_elapsed": 175406, "internal_node_id": "0.0-4.0-70.0"}}, {"uniqueid": "w32214033:a24559656", "current_trial": 75, "dateTime": 1664463764856, "trialdata": {"rt": 658, "stimulus": "<p id='stroop-text' class='stroop-red'>BLUE</p>", "response": "r", "stimulus-type": "incongruent", "word": "blue", "color": "red", "correct_response": "r", "trial_id": "stroop-trial-1-incongruent-20", "trial_type": "html-keyboard-response", "trial_index": 75, "time_elapsed": 176572, "internal_node_id": "0.0-4.0-71.0"}}, {"uniqueid": "w32214033:a24559656", "current_trial": 76, "dateTime": 1664463766174, "trialdata": {"rt": 801, "stimulus": "<p id='stroop-text' class='stroop-yellow'>RED</p>", "response": "y", "stimulus-type": "incongruent", "word": "red", "color": "yellow", "correct_response": "y", "trial_id": "stroop-trial-1-incongruent-27", "trial_type": "html-keyboard-response", "trial_index": 76, "time_elapsed": 177889, "internal_node_id": "0.0-4.0-72.0"}}, {"uniqueid": "w32214033:a24559656", "current_trial": 77, "dateTime": 1664463767130, "trialdata": {"rt": 451, "stimulus": "<p id='stroop-text' class='stroop-yellow'>YELLOW</p>", "response": "y", "stimulus-type": "congruent", "word": "yellow", "color": "yellow", "correct_response": "y", "trial_id": "stroop-trial-1-congruent-17", "trial_type": "html-keyboard-response", "trial_index": 77, "time_elapsed": 178846, "internal_node_id": "0.0-4.0-73.0"}}, {"uniqueid": "w32214033:a24559656", "current_trial": 78, "dateTime": 1664463768562, "trialdata": {"rt": 925, "stimulus": "<p id='stroop-text' class='stroop-green'>RED</p>", "response": "g", "stimulus-type": "incongruent", "word": "red", "color": "green", "correct_response": "g", "trial_id": "stroop-trial-1-incongruent-6", "trial_type": "html-keyboard-response", "trial_index": 78, "time_elapsed": 180277, "internal_node_id": "0.0-4.0-74.0"}}, {"uniqueid": "w32214033:a24559656", "current_trial": 79, "dateTime": 1664463770314, "trialdata": {"rt": 1238, "stimulus": "<p id='stroop-text' class='stroop-yellow'>YELLOW</p>", "response": "y", "stimulus-type": "congruent", "word": "yellow", "color": "yellow", "correct_response": "y", "trial_id": "stroop-trial-1-congruent-25", "trial_type": "html-keyboard-response", "trial_index": 79, "time_elapsed": 182029, "internal_node_id": "0.0-4.0-75.0"}}, {"uniqueid": "w32214033:a24559656", "current_trial": 80, "dateTime": 1664463771400, "trialdata": {"rt": 569, "stimulus": "<p id='stroop-text' class='stroop-blue'>BLUE</p>", "response": "b", "stimulus-type": "congruent", "word": "blue", "color": "blue", "correct_response": "b", "trial_id": "stroop-trial-1-congruent-18", "trial_type": "html-keyboard-response", "trial_index": 80, "time_elapsed": 183115, "internal_node_id": "0.0-4.0-76.0"}}, {"uniqueid": "w32214033:a24559656", "current_trial": 81, "dateTime": 1664463772446, "trialdata": {"rt": 534, "stimulus": "<p id='stroop-text' class='stroop-red'>BOTTLE</p>", "response": "r", "stimulus-type": "unrelated", "word": "BOTTLE", "color": "red", "correct_response": "r", "trial_id": "stroop-trial-1-unrelated-20", "trial_type": "html-keyboard-response", "trial_index": 81, "time_elapsed": 184161, "internal_node_id": "0.0-4.0-77.0"}}, {"uniqueid": "w32214033:a24559656", "current_trial": 82, "dateTime": 1664463774373, "trialdata": {"rt": 1413, "stimulus": "<p id='stroop-text' class='stroop-green'>RED</p>", "response": "g", "stimulus-type": "incongruent", "word": "red", "color": "green", "correct_response": "g", "trial_id": "stroop-trial-1-incongruent-10", "trial_type": "html-keyboard-response", "trial_index": 82, "time_elapsed": 186088, "internal_node_id": "0.0-4.0-78.0"}}, {"uniqueid": "w32214033:a24559656", "current_trial": 83, "dateTime": 1664463775701, "trialdata": {"rt": 813, "stimulus": "<p id='stroop-text' class='stroop-yellow'>YELLOW</p>", "response": "y", "stimulus-type": "congruent", "word": "yellow", "color": "yellow", "correct_response": "y", "trial_id": "stroop-trial-1-congruent-24", "trial_type": "html-keyboard-response", "trial_index": 83, "time_elapsed": 187417, "internal_node_id": "0.0-4.0-79.0"}}, {"uniqueid": "w32214033:a24559656", "current_trial": 84, "dateTime": 1664463776654, "trialdata": {"rt": 441, "stimulus": "<p id='stroop-text' class='stroop-yellow'>WINDOW</p>", "response": "y", "stimulus-type": "unrelated", "word": "WINDOW", "color": "yellow", "correct_response": "y", "trial_id": "stroop-trial-1-unrelated-2", "trial_type": "html-keyboard-response", "trial_index": 84, "time_elapsed": 188370, "internal_node_id": "0.0-4.0-80.0"}}, {"uniqueid": "w32214033:a24559656", "current_trial": 85, "dateTime": 1664463777804, "trialdata": {"rt": 634, "stimulus": "<p id='stroop-text' class='stroop-blue'>BLUE</p>", "response": "b", "stimulus-type": "congruent", "word": "blue", "color": "blue", "correct_response": "b", "trial_id": "stroop-trial-1-congruent-15", "trial_type": "html-keyboard-response", "trial_index": 85, "time_elapsed": 189519, "internal_node_id": "0.0-4.0-81.0"}}, {"uniqueid": "w32214033:a24559656", "current_trial": 86, "dateTime": 1664463779035, "trialdata": {"rt": 726, "stimulus": "<p id='stroop-text' class='stroop-red'>SHIP</p>", "response": "r", "stimulus-type": "unrelated", "word": "SHIP", "color": "red", "correct_response": "r", "trial_id": "stroop-trial-1-unrelated-15", "trial_type": "html-keyboard-response", "trial_index": 86, "time_elapsed": 190750, "internal_node_id": "0.0-4.0-82.0"}}, {"uniqueid": "w32214033:a24559656", "current_trial": 87, "dateTime": 1664463781043, "trialdata": {"rt": 1501, "stimulus": "<p id='stroop-text' class='stroop-yellow'>YELLOW</p>", "response": "y", "stimulus-type": "congruent", "word": "yellow", "color": "yellow", "correct_response": "y", "trial_id": "stroop-trial-1-congruent-1", "trial_type": "html-keyboard-response", "trial_index": 87, "time_elapsed": 192759, "internal_node_id": "0.0-4.0-83.0"}}, {"uniqueid": "w32214033:a24559656", "current_trial": 88, "dateTime": 1664463782551, "trialdata": {"rt": 1004, "stimulus": "<p id='stroop-text' class='stroop-blue'>GREEN</p>", "response": "b", "stimulus-type": "incongruent", "word": "green", "color": "blue", "correct_response": "b", "trial_id": "stroop-trial-1-incongruent-4", "trial_type": "html-keyboard-response", "trial_index": 88, "time_elapsed": 194267, "internal_node_id": "0.0-4.0-84.0"}}, {"uniqueid": "w32214033:a24559656", "current_trial": 89, "dateTime": 1664463783467, "trialdata": {"rt": 411, "stimulus": "<p id='stroop-text' class='stroop-blue'>GREEN</p>", "response": "b", "stimulus-type": "incongruent", "word": "green", "color": "blue", "correct_response": "b", "trial_id": "stroop-trial-1-incongruent-29", "trial_type": "html-keyboard-response", "trial_index": 89, "time_elapsed": 195182, "internal_node_id": "0.0-4.0-85.0"}}, {"uniqueid": "w32214033:a24559656", "current_trial": 90, "dateTime": 1664463784843, "trialdata": {"rt": 865, "stimulus": "<p id='stroop-text' class='stroop-yellow'>RED</p>", "response": "y", "stimulus-type": "incongruent", "word": "red", "color": "yellow", "correct_response": "y", "trial_id": "stroop-trial-1-incongruent-3", "trial_type": "html-keyboard-response", "trial_index": 90, "time_elapsed": 196559, "internal_node_id": "0.0-4.0-86.0"}}, {"uniqueid": "w32214033:a24559656", "current_trial": 91, "dateTime": 1664463785895, "trialdata": {"rt": 543, "stimulus": "<p id='stroop-text' class='stroop-yellow'>WINDOW</p>", "response": "y", "stimulus-type": "unrelated", "word": "WINDOW", "color": "yellow", "correct_response": "y", "trial_id": "stroop-trial-1-unrelated-7", "trial_type": "html-keyboard-response", "trial_index": 91, "time_elapsed": 197611, "internal_node_id": "0.0-4.0-87.0"}}, {"uniqueid": "w32214033:a24559656", "current_trial": 92, "dateTime": 1664463786966, "trialdata": {"rt": 563, "stimulus": "<p id='stroop-text' class='stroop-red'>RED</p>", "response": "r", "stimulus-type": "congruent", "word": "red", "color": "red", "correct_response": "r", "trial_id": "stroop-trial-1-congruent-27", "trial_type": "html-keyboard-response", "trial_index": 92, "time_elapsed": 198682, "internal_node_id": "0.0-4.0-88.0"}}, {"uniqueid": "w32214033:a24559656", "current_trial": 93, "dateTime": 1664463788218, "trialdata": {"rt": 736, "stimulus": "<p id='stroop-text' class='stroop-blue'>RED</p>", "response": "b", "stimulus-type": "incongruent", "word": "red", "color": "blue", "correct_response": "b", "trial_id": "stroop-trial-1-incongruent-12", "trial_type": "html-keyboard-response", "trial_index": 93, "time_elapsed": 199933, "internal_node_id": "0.0-4.0-89.0"}}, {"uniqueid": "w32214033:a24559656", "current_trial": 94, "dateTime": 1664463794544, "trialdata": {"rt": 5819, "stimulus": "  <h1> End of block! </h1>\n\n  You have reached the end of the block 1/5. If you need a short break, feel free to take one now before moving on.\n\n  <br><br>\n  In the next block, you will complete another 90 rounds of this game.\n\n  <br><br>\n  <div style='text-align: center;'>Press <code>space</code> to begin.</div>\n  <br><br>\n<div style='text-align: center;'>(If the experiment doesn't continue, try clicking on the text and then pressing <code>space</code>.)</div>", "response": " ", "trial_id": "stroop_1_ready_2", "trial_type": "html-keyboard-response", "trial_index": 94, "time_elapsed": 206260, "internal_node_id": "0.0-5.0"}}, {"uniqueid": "w32214033:a24559656", "current_trial": 95, "dateTime": 1664463795763, "trialdata": {"rt": 1215, "stimulus": "<p id='stroop-text' class='stroop-green'>BLUE</p>", "response": "g", "stimulus-type": "incongruent", "word": "blue", "color": "green", "correct_response": "g", "trial_id": "stroop-trial-1-incongruent-22", "trial_type": "html-keyboard-response", "trial_index": 95, "time_elapsed": 207479, "internal_node_id": "0.0-6.0-0.0"}}, {"uniqueid": "w32214033:a24559656", "current_trial": 96, "dateTime": 1664463796781, "trialdata": {"rt": 512, "stimulus": "<p id='stroop-text' class='stroop-green'>RED</p>", "response": "g", "stimulus-type": "incongruent", "word": "red", "color": "green", "correct_response": "g", "trial_id": "stroop-trial-1-incongruent-16", "trial_type": "html-keyboard-response", "trial_index": 96, "time_elapsed": 208497, "internal_node_id": "0.0-6.0-1.0"}}, {"uniqueid": "w32214033:a24559656", "current_trial": 97, "dateTime": 1664463797747, "trialdata": {"rt": 451, "stimulus": "<p id='stroop-text' class='stroop-yellow'>YELLOW</p>", "response": "y", "stimulus-type": "congruent", "word": "yellow", "color": "yellow", "correct_response": "y", "trial_id": "stroop-trial-1-congruent-12", "trial_type": "html-keyboard-response", "trial_index": 97, "time_elapsed": 209463, "internal_node_id": "0.0-6.0-2.0"}}, {"uniqueid": "w32214033:a24559656", "current_trial": 98, "dateTime": 1664463799765, "trialdata": {"rt": 1504, "stimulus": "<p id='stroop-text' class='stroop-blue'>GREEN</p>", "response": "b", "stimulus-type": "incongruent", "word": "green", "color": "blue", "correct_response": "b", "trial_id": "stroop-trial-1-incongruent-14", "trial_type": "html-keyboard-response", "trial_index": 98, "time_elapsed": 211481, "internal_node_id": "0.0-6.0-3.0"}}, {"uniqueid": "w32214033:a24559656", "current_trial": 99, "dateTime": 1664463801955, "trialdata": {"rt": 1675, "stimulus": "<p id='stroop-text' class='stroop-blue'>STONE</p>", "response": "b", "stimulus-type": "unrelated", "word": "STONE", "color": "blue", "correct_response": "b", "trial_id": "stroop-trial-1-unrelated-4", "trial_type": "html-keyboard-response", "trial_index": 99, "time_elapsed": 213670, "internal_node_id": "0.0-6.0-4.0"}}, {"uniqueid": "w32214033:a24559656", "current_trial": 100, "dateTime": 1664463803419, "trialdata": {"rt": 952, "stimulus": "<p id='stroop-text' class='stroop-green'>GREEN</p>", "response": "g", "stimulus-type": "congruent", "word": "green", "color": "green", "correct_response": "g", "trial_id": "stroop-trial-1-congruent-25", "trial_type": "html-keyboard-response", "trial_index": 100, "time_elapsed": 215135, "internal_node_id": "0.0-6.0-5.0"}}, {"uniqueid": "w32214033:a24559656", "current_trial": 101, "dateTime": 1664463804533, "trialdata": {"rt": 604, "stimulus": "<p id='stroop-text' class='stroop-blue'>GREEN</p>", "response": "b", "stimulus-type": "incongruent", "word": "green", "color": "blue", "correct_response": "b", "trial_id": "stroop-trial-1-incongruent-29", "trial_type": "html-keyboard-response", "trial_index": 101, "time_elapsed": 216249, "internal_node_id": "0.0-6.0-6.0"}}, {"uniqueid": "w32214033:a24559656", "current_trial": 102, "dateTime": 1664463805603, "trialdata": {"rt": 556, "stimulus": "<p id='stroop-text' class='stroop-red'>BLUE</p>", "response": "r", "stimulus-type": "incongruent", "word": "blue", "color": "red", "correct_response": "r", "trial_id": "stroop-trial-1-incongruent-30", "trial_type": "html-keyboard-response", "trial_index": 102, "time_elapsed": 217318, "internal_node_id": "0.0-6.0-7.0"}}, {"uniqueid": "w32214033:a24559656", "current_trial": 103, "dateTime": 1664463806827, "trialdata": {"rt": 719, "stimulus": "<p id='stroop-text' class='stroop-red'>RED</p>", "response": "r", "stimulus-type": "congruent", "word": "red", "color": "red", "correct_response": "r", "trial_id": "stroop-trial-1-congruent-7", "trial_type": "html-keyboard-response", "trial_index": 103, "time_elapsed": 218543, "internal_node_id": "0.0-6.0-8.0"}}, {"uniqueid": "w32214033:a24559656", "current_trial": 104, "dateTime": 1664463808282, "trialdata": {"rt": 940, "stimulus": "<p id='stroop-text' class='stroop-green'>GREEN</p>", "response": "g", "stimulus-type": "congruent", "word": "green", "color": "green", "correct_response": "g", "trial_id": "stroop-trial-1-congruent-2", "trial_type": "html-keyboard-response", "trial_index": 104, "time_elapsed": 219997, "internal_node_id": "0.0-6.0-9.0"}}, {"uniqueid": "w32214033:a24559656", "current_trial": 105, "dateTime": 1664463809245, "trialdata": {"rt": 456, "stimulus": "<p id='stroop-text' class='stroop-blue'>BLUE</p>", "response": "b", "stimulus-type": "congruent", "word": "blue", "color": "blue", "correct_response": "b", "trial_id": "stroop-trial-1-congruent-10", "trial_type": "html-keyboard-response", "trial_index": 105, "time_elapsed": 220961, "internal_node_id": "0.0-6.0-10.0"}}, {"uniqueid": "w32214033:a24559656", "current_trial": 106, "dateTime": 1664463810253, "trialdata": {"rt": 492, "stimulus": "<p id='stroop-text' class='stroop-red'>BOAT</p>", "response": "r", "stimulus-type": "unrelated", "word": "BOAT", "color": "red", "correct_response": "r", "trial_id": "stroop-trial-1-unrelated-7", "trial_type": "html-keyboard-response", "trial_index": 106, "time_elapsed": 221969, "internal_node_id": "0.0-6.0-11.0"}}, {"uniqueid": "w32214033:a24559656", "current_trial": 107, "dateTime": 1664463811823, "trialdata": {"rt": 1059, "stimulus": "<p id='stroop-text' class='stroop-green'>YELLOW</p>", "response": "g", "stimulus-type": "incongruent", "word": "yellow", "color": "green", "correct_response": "g", "trial_id": "stroop-trial-1-incongruent-21", "trial_type": "html-keyboard-response", "trial_index": 107, "time_elapsed": 223539, "internal_node_id": "0.0-6.0-12.0"}}, {"uniqueid": "w32214033:a24559656", "current_trial": 108, "dateTime": 1664463812856, "trialdata": {"rt": 519, "stimulus": "<p id='stroop-text' class='stroop-red'>SHIP</p>", "response": "r", "stimulus-type": "unrelated", "word": "SHIP", "color": "red", "correct_response": "r", "trial_id": "stroop-trial-1-unrelated-1", "trial_type": "html-keyboard-response", "trial_index": 108, "time_elapsed": 224572, "internal_node_id": "0.0-6.0-13.0"}}, {"uniqueid": "w32214033:a24559656", "current_trial": 109, "dateTime": 1664463813948, "trialdata": {"rt": 580, "stimulus": "<p id='stroop-text' class='stroop-red'>GREEN</p>", "response": "r", "stimulus-type": "incongruent", "word": "green", "color": "red", "correct_response": "r", "trial_id": "stroop-trial-1-incongruent-26", "trial_type": "html-keyboard-response", "trial_index": 109, "time_elapsed": 225664, "internal_node_id": "0.0-6.0-14.0"}}, {"uniqueid": "w32214033:a24559656", "current_trial": 110, "dateTime": 1664463814876, "trialdata": {"rt": 413, "stimulus": "<p id='stroop-text' class='stroop-green'>YELLOW</p>", "response": "r", "stimulus-type": "incongruent", "word": "yellow", "color": "green", "correct_response": "g", "trial_id": "stroop-trial-1-incongruent-27", "trial_type": "html-keyboard-response", "trial_index": 110, "time_elapsed": 226592, "internal_node_id": "0.0-6.0-15.0"}}, {"uniqueid": "w32214033:a24559656", "current_trial": 111, "dateTime": 1664463816445, "trialdata": {"rt": 1058, "stimulus": "<p id='stroop-text' class='stroop-blue'>YELLOW</p>", "response": "b", "stimulus-type": "incongruent", "word": "yellow", "color": "blue", "correct_response": "b", "trial_id": "stroop-trial-1-incongruent-2", "trial_type": "html-keyboard-response", "trial_index": 111, "time_elapsed": 228161, "internal_node_id": "0.0-6.0-16.0"}}, {"uniqueid": "w32214033:a24559656", "current_trial": 112, "dateTime": 1664463817825, "trialdata": {"rt": 868, "stimulus": "<p id='stroop-text' class='stroop-yellow'>CHAIR</p>", "response": "y", "stimulus-type": "unrelated", "word": "CHAIR", "color": "yellow", "correct_response": "y", "trial_id": "stroop-trial-1-unrelated-20", "trial_type": "html-keyboard-response", "trial_index": 112, "time_elapsed": 229541, "internal_node_id": "0.0-6.0-17.0"}}, {"uniqueid": "w32214033:a24559656", "current_trial": 113, "dateTime": 1664463819039, "trialdata": {"rt": 699, "stimulus": "<p id='stroop-text' class='stroop-red'>BLUE</p>", "response": "r", "stimulus-type": "incongruent", "word": "blue", "color": "red", "correct_response": "r", "trial_id": "stroop-trial-1-incongruent-11", "trial_type": "html-keyboard-response", "trial_index": 113, "time_elapsed": 230755, "internal_node_id": "0.0-6.0-18.0"}}, {"uniqueid": "w32214033:a24559656", "current_trial": 114, "dateTime": 1664463819944, "trialdata": {"rt": 403, "stimulus": "<p id='stroop-text' class='stroop-red'>RED</p>", "response": "r", "stimulus-type": "congruent", "word": "red", "color": "red", "correct_response": "r", "trial_id": "stroop-trial-1-congruent-4", "trial_type": "html-keyboard-response", "trial_index": 114, "time_elapsed": 231660, "internal_node_id": "0.0-6.0-19.0"}}, {"uniqueid": "w32214033:a24559656", "current_trial": 115, "dateTime": 1664463821105, "trialdata": {"rt": 657, "stimulus": "<p id='stroop-text' class='stroop-yellow'>FORK</p>", "response": "y", "stimulus-type": "unrelated", "word": "FORK", "color": "yellow", "correct_response": "y", "trial_id": "stroop-trial-1-unrelated-15", "trial_type": "html-keyboard-response", "trial_index": 115, "time_elapsed": 232821, "internal_node_id": "0.0-6.0-20.0"}}, {"uniqueid": "w32214033:a24559656", "current_trial": 116, "dateTime": 1664463822556, "trialdata": {"rt": 934, "stimulus": "<p id='stroop-text' class='stroop-blue'>YELLOW</p>", "response": "b", "stimulus-type": "incongruent", "word": "yellow", "color": "blue", "correct_response": "b", "trial_id": "stroop-trial-1-incongruent-20", "trial_type": "html-keyboard-response", "trial_index": 116, "time_elapsed": 234272, "internal_node_id": "0.0-6.0-21.0"}}, {"uniqueid": "w32214033:a24559656", "current_trial": 117, "dateTime": 1664463823453, "trialdata": {"rt": 380, "stimulus": "<p id='stroop-text' class='stroop-blue'>RED</p>", "response": "b", "stimulus-type": "incongruent", "word": "red", "color": "blue", "correct_response": "b", "trial_id": "stroop-trial-1-incongruent-18", "trial_type": "html-keyboard-response", "trial_index": 117, "time_elapsed": 235169, "internal_node_id": "0.0-6.0-22.0"}}, {"uniqueid": "w32214033:a24559656", "current_trial": 118, "dateTime": 1664463824518, "trialdata": {"rt": 547, "stimulus": "<p id='stroop-text' class='stroop-red'>RED</p>", "response": "r", "stimulus-type": "congruent", "word": "red", "color": "red", "correct_response": "r", "trial_id": "stroop-trial-1-congruent-5", "trial_type": "html-keyboard-response", "trial_index": 118, "time_elapsed": 236233, "internal_node_id": "0.0-6.0-23.0"}}, {"uniqueid": "w32214033:a24559656", "current_trial": 119, "dateTime": 1664463825810, "trialdata": {"rt": 775, "stimulus": "<p id='stroop-text' class='stroop-yellow'>BLUE</p>", "response": "y", "stimulus-type": "incongruent", "word": "blue", "color": "yellow", "correct_response": "y", "trial_id": "stroop-trial-1-incongruent-1", "trial_type": "html-keyboard-response", "trial_index": 119, "time_elapsed": 237525, "internal_node_id": "0.0-6.0-24.0"}}, {"uniqueid": "w32214033:a24559656", "current_trial": 120, "dateTime": 1664463826952, "trialdata": {"rt": 636, "stimulus": "<p id='stroop-text' class='stroop-red'>RED</p>", "response": "r", "stimulus-type": "congruent", "word": "red", "color": "red", "correct_response": "r", "trial_id": "stroop-trial-1-congruent-21", "trial_type": "html-keyboard-response", "trial_index": 120, "time_elapsed": 238668, "internal_node_id": "0.0-6.0-25.0"}}, {"uniqueid": "w32214033:a24559656", "current_trial": 121, "dateTime": 1664463828184, "trialdata": {"rt": 723, "stimulus": "<p id='stroop-text' class='stroop-green'>BOAT</p>", "response": "g", "stimulus-type": "unrelated", "word": "BOAT", "color": "green", "correct_response": "g", "trial_id": "stroop-trial-1-unrelated-8", "trial_type": "html-keyboard-response", "trial_index": 121, "time_elapsed": 239900, "internal_node_id": "0.0-6.0-26.0"}}, {"uniqueid": "w32214033:a24559656", "current_trial": 122, "dateTime": 1664463829236, "trialdata": {"rt": 539, "stimulus": "<p id='stroop-text' class='stroop-red'>RED</p>", "response": "r", "stimulus-type": "congruent", "word": "red", "color": "red", "correct_response": "r", "trial_id": "stroop-trial-1-congruent-27", "trial_type": "html-keyboard-response", "trial_index": 122, "time_elapsed": 240951, "internal_node_id": "0.0-6.0-27.0"}}, {"uniqueid": "w32214033:a24559656", "current_trial": 123, "dateTime": 1664463830275, "trialdata": {"rt": 524, "stimulus": "<p id='stroop-text' class='stroop-blue'>BLUE</p>", "response": "b", "stimulus-type": "congruent", "word": "blue", "color": "blue", "correct_response": "b", "trial_id": "stroop-trial-1-congruent-29", "trial_type": "html-keyboard-response", "trial_index": 123, "time_elapsed": 241990, "internal_node_id": "0.0-6.0-28.0"}}, {"uniqueid": "w32214033:a24559656", "current_trial": 124, "dateTime": 1664463831212, "trialdata": {"rt": 426, "stimulus": "<p id='stroop-text' class='stroop-blue'>BRIDGE</p>", "response": "b", "stimulus-type": "unrelated", "word": "BRIDGE", "color": "blue", "correct_response": "b", "trial_id": "stroop-trial-1-unrelated-24", "trial_type": "html-keyboard-response", "trial_index": 124, "time_elapsed": 242927, "internal_node_id": "0.0-6.0-29.0"}}, {"uniqueid": "w32214033:a24559656", "current_trial": 125, "dateTime": 1664463832539, "trialdata": {"rt": 814, "stimulus": "<p id='stroop-text' class='stroop-green'>SHIP</p>", "response": "g", "stimulus-type": "unrelated", "word": "SHIP", "color": "green", "correct_response": "g", "trial_id": "stroop-trial-1-unrelated-3", "trial_type": "html-keyboard-response", "trial_index": 125, "time_elapsed": 244255, "internal_node_id": "0.0-6.0-30.0"}}, {"uniqueid": "w32214033:a24559656", "current_trial": 126, "dateTime": 1664463833373, "trialdata": {"rt": 318, "stimulus": "<p id='stroop-text' class='stroop-green'>DOG</p>", "response": "g", "stimulus-type": "unrelated", "word": "DOG", "color": "green", "correct_response": "g", "trial_id": "stroop-trial-1-unrelated-13", "trial_type": "html-keyboard-response", "trial_index": 126, "time_elapsed": 245089, "internal_node_id": "0.0-6.0-31.0"}}, {"uniqueid": "w32214033:a24559656", "current_trial": 127, "dateTime": 1664463834651, "trialdata": {"rt": 761, "stimulus": "<p id='stroop-text' class='stroop-blue'>STONE</p>", "response": "b", "stimulus-type": "unrelated", "word": "STONE", "color": "blue", "correct_response": "b", "trial_id": "stroop-trial-1-unrelated-28", "trial_type": "html-keyboard-response", "trial_index": 127, "time_elapsed": 246367, "internal_node_id": "0.0-6.0-32.0"}}, {"uniqueid": "w32214033:a24559656", "current_trial": 128, "dateTime": 1664463835546, "trialdata": {"rt": 392, "stimulus": "<p id='stroop-text' class='stroop-blue'>CHAIR</p>", "response": "b", "stimulus-type": "unrelated", "word": "CHAIR", "color": "blue", "correct_response": "b", "trial_id": "stroop-trial-1-unrelated-25", "trial_type": "html-keyboard-response", "trial_index": 128, "time_elapsed": 247261, "internal_node_id": "0.0-6.0-33.0"}}, {"uniqueid": "w32214033:a24559656", "current_trial": 129, "dateTime": 1664463836461, "trialdata": {"rt": 400, "stimulus": "<p id='stroop-text' class='stroop-blue'>WINDOW</p>", "response": "b", "stimulus-type": "unrelated", "word": "WINDOW", "color": "blue", "correct_response": "b", "trial_id": "stroop-trial-1-unrelated-5", "trial_type": "html-keyboard-response", "trial_index": 129, "time_elapsed": 248176, "internal_node_id": "0.0-6.0-34.0"}}, {"uniqueid": "w32214033:a24559656", "current_trial": 130, "dateTime": 1664463837682, "trialdata": {"rt": 711, "stimulus": "<p id='stroop-text' class='stroop-green'>GREEN</p>", "response": "g", "stimulus-type": "congruent", "word": "green", "color": "green", "correct_response": "g", "trial_id": "stroop-trial-1-congruent-19", "trial_type": "html-keyboard-response", "trial_index": 130, "time_elapsed": 249397, "internal_node_id": "0.0-6.0-35.0"}}, {"uniqueid": "w32214033:a24559656", "current_trial": 131, "dateTime": 1664463838780, "trialdata": {"rt": 593, "stimulus": "<p id='stroop-text' class='stroop-yellow'>STONE</p>", "response": "y", "stimulus-type": "unrelated", "word": "STONE", "color": "yellow", "correct_response": "y", "trial_id": "stroop-trial-1-unrelated-9", "trial_type": "html-keyboard-response", "trial_index": 131, "time_elapsed": 250495, "internal_node_id": "0.0-6.0-36.0"}}, {"uniqueid": "w32214033:a24559656", "current_trial": 132, "dateTime": 1664463839684, "trialdata": {"rt": 387, "stimulus": "<p id='stroop-text' class='stroop-yellow'>YELLOW</p>", "response": "y", "stimulus-type": "congruent", "word": "yellow", "color": "yellow", "correct_response": "y", "trial_id": "stroop-trial-1-congruent-23", "trial_type": "html-keyboard-response", "trial_index": 132, "time_elapsed": 251399, "internal_node_id": "0.0-6.0-37.0"}}, {"uniqueid": "w32214033:a24559656", "current_trial": 133, "dateTime": 1664463840554, "trialdata": {"rt": 366, "stimulus": "<p id='stroop-text' class='stroop-yellow'>YELLOW</p>", "response": "y", "stimulus-type": "congruent", "word": "yellow", "color": "yellow", "correct_response": "y", "trial_id": "stroop-trial-1-congruent-18", "trial_type": "html-keyboard-response", "trial_index": 133, "time_elapsed": 252270, "internal_node_id": "0.0-6.0-38.0"}}, {"uniqueid": "w32214033:a24559656", "current_trial": 134, "dateTime": 1664463841395, "trialdata": {"rt": 326, "stimulus": "<p id='stroop-text' class='stroop-yellow'>YELLOW</p>", "response": "y", "stimulus-type": "congruent", "word": "yellow", "color": "yellow", "correct_response": "y", "trial_id": "stroop-trial-1-congruent-22", "trial_type": "html-keyboard-response", "trial_index": 134, "time_elapsed": 253111, "internal_node_id": "0.0-6.0-39.0"}}, {"uniqueid": "w32214033:a24559656", "current_trial": 135, "dateTime": 1664463842220, "trialdata": {"rt": 320, "stimulus": "<p id='stroop-text' class='stroop-yellow'>YELLOW</p>", "response": "y", "stimulus-type": "congruent", "word": "yellow", "color": "yellow", "correct_response": "y", "trial_id": "stroop-trial-1-congruent-3", "trial_type": "html-keyboard-response", "trial_index": 135, "time_elapsed": 253935, "internal_node_id": "0.0-6.0-40.0"}}, {"uniqueid": "w32214033:a24559656", "current_trial": 136, "dateTime": 1664463843115, "trialdata": {"rt": 383, "stimulus": "<p id='stroop-text' class='stroop-blue'>BLUE</p>", "response": "g", "stimulus-type": "congruent", "word": "blue", "color": "blue", "correct_response": "b", "trial_id": "stroop-trial-1-congruent-1", "trial_type": "html-keyboard-response", "trial_index": 136, "time_elapsed": 254831, "internal_node_id": "0.0-6.0-41.0"}}, {"uniqueid": "w32214033:a24559656", "current_trial": 137, "dateTime": 1664463844536, "trialdata": {"rt": 908, "stimulus": "<p id='stroop-text' class='stroop-red'>RED</p>", "response": "r", "stimulus-type": "congruent", "word": "red", "color": "red", "correct_response": "r", "trial_id": "stroop-trial-1-congruent-26", "trial_type": "html-keyboard-response", "trial_index": 137, "time_elapsed": 256252, "internal_node_id": "0.0-6.0-42.0"}}, {"uniqueid": "w32214033:a24559656", "current_trial": 138, "dateTime": 1664463846537, "trialdata": {"rt": 1487, "stimulus": "<p id='stroop-text' class='stroop-green'>YELLOW</p>", "response": "g", "stimulus-type": "incongruent", "word": "yellow", "color": "green", "correct_response": "g", "trial_id": "stroop-trial-1-incongruent-19", "trial_type": "html-keyboard-response", "trial_index": 138, "time_elapsed": 258253, "internal_node_id": "0.0-6.0-43.0"}}, {"uniqueid": "w32214033:a24559656", "current_trial": 139, "dateTime": 1664463847484, "trialdata": {"rt": 431, "stimulus": "<p id='stroop-text' class='stroop-green'>GREEN</p>", "response": "g", "stimulus-type": "congruent", "word": "green", "color": "green", "correct_response": "g", "trial_id": "stroop-trial-1-congruent-14", "trial_type": "html-keyboard-response", "trial_index": 139, "time_elapsed": 259199, "internal_node_id": "0.0-6.0-44.0"}}, {"uniqueid": "w32214033:a24559656", "current_trial": 140, "dateTime": 1664463848678, "trialdata": {"rt": 686, "stimulus": "<p id='stroop-text' class='stroop-yellow'>GREEN</p>", "response": "y", "stimulus-type": "incongruent", "word": "green", "color": "yellow", "correct_response": "y", "trial_id": "stroop-trial-1-incongruent-8", "trial_type": "html-keyboard-response", "trial_index": 140, "time_elapsed": 260393, "internal_node_id": "0.0-6.0-45.0"}}, {"uniqueid": "w32214033:a24559656", "current_trial": 141, "dateTime": 1664463850083, "trialdata": {"rt": 899, "stimulus": "<p id='stroop-text' class='stroop-green'>DOG</p>", "response": "g", "stimulus-type": "unrelated", "word": "DOG", "color": "green", "correct_response": "g", "trial_id": "stroop-trial-1-unrelated-16", "trial_type": "html-keyboard-response", "trial_index": 141, "time_elapsed": 261798, "internal_node_id": "0.0-6.0-46.0"}}, {"uniqueid": "w32214033:a24559656", "current_trial": 142, "dateTime": 1664463851278, "trialdata": {"rt": 679, "stimulus": "<p id='stroop-text' class='stroop-red'>YELLOW</p>", "response": "r", "stimulus-type": "incongruent", "word": "yellow", "color": "red", "correct_response": "r", "trial_id": "stroop-trial-1-incongruent-25", "trial_type": "html-keyboard-response", "trial_index": 142, "time_elapsed": 262994, "internal_node_id": "0.0-6.0-47.0"}}, {"uniqueid": "w32214033:a24559656", "current_trial": 143, "dateTime": 1664463852433, "trialdata": {"rt": 649, "stimulus": "<p id='stroop-text' class='stroop-yellow'>YELLOW</p>", "response": "y", "stimulus-type": "congruent", "word": "yellow", "color": "yellow", "correct_response": "y", "trial_id": "stroop-trial-1-congruent-13", "trial_type": "html-keyboard-response", "trial_index": 143, "time_elapsed": 264148, "internal_node_id": "0.0-6.0-48.0"}}, {"uniqueid": "w32214033:a24559656", "current_trial": 144, "dateTime": 1664463853539, "trialdata": {"rt": 597, "stimulus": "<p id='stroop-text' class='stroop-blue'>WINDOW</p>", "response": "b", "stimulus-type": "unrelated", "word": "WINDOW", "color": "blue", "correct_response": "b", "trial_id": "stroop-trial-1-unrelated-6", "trial_type": "html-keyboard-response", "trial_index": 144, "time_elapsed": 265255, "internal_node_id": "0.0-6.0-49.0"}}, {"uniqueid": "w32214033:a24559656", "current_trial": 145, "dateTime": 1664463855112, "trialdata": {"rt": 1064, "stimulus": "<p id='stroop-text' class='stroop-green'>BOAT</p>", "response": "g", "stimulus-type": "unrelated", "word": "BOAT", "color": "green", "correct_response": "g", "trial_id": "stroop-trial-1-unrelated-26", "trial_type": "html-keyboard-response", "trial_index": 145, "time_elapsed": 266827, "internal_node_id": "0.0-6.0-50.0"}}, {"uniqueid": "w32214033:a24559656", "current_trial": 146, "dateTime": 1664463856165, "trialdata": {"rt": 545, "stimulus": "<p id='stroop-text' class='stroop-red'>RED</p>", "response": "r", "stimulus-type": "congruent", "word": "red", "color": "red", "correct_response": "r", "trial_id": "stroop-trial-1-congruent-30", "trial_type": "html-keyboard-response", "trial_index": 146, "time_elapsed": 267881, "internal_node_id": "0.0-6.0-51.0"}}, {"uniqueid": "w32214033:a24559656", "current_trial": 147, "dateTime": 1664463857653, "trialdata": {"rt": 985, "stimulus": "<p id='stroop-text' class='stroop-blue'>SHIP</p>", "response": "b", "stimulus-type": "unrelated", "word": "SHIP", "color": "blue", "correct_response": "b", "trial_id": "stroop-trial-1-unrelated-30", "trial_type": "html-keyboard-response", "trial_index": 147, "time_elapsed": 269369, "internal_node_id": "0.0-6.0-52.0"}}, {"uniqueid": "w32214033:a24559656", "current_trial": 148, "dateTime": 1664463859165, "trialdata": {"rt": 1002, "stimulus": "<p id='stroop-text' class='stroop-red'>BLUE</p>", "response": "r", "stimulus-type": "incongruent", "word": "blue", "color": "red", "correct_response": "r", "trial_id": "stroop-trial-1-incongruent-3", "trial_type": "html-keyboard-response", "trial_index": 148, "time_elapsed": 270881, "internal_node_id": "0.0-6.0-53.0"}}, {"uniqueid": "w32214033:a24559656", "current_trial": 149, "dateTime": 1664463860096, "trialdata": {"rt": 422, "stimulus": "<p id='stroop-text' class='stroop-red'>BRAIN</p>", "response": "r", "stimulus-type": "unrelated", "word": "BRAIN", "color": "red", "correct_response": "r", "trial_id": "stroop-trial-1-unrelated-14", "trial_type": "html-keyboard-response", "trial_index": 149, "time_elapsed": 271811, "internal_node_id": "0.0-6.0-54.0"}}, {"uniqueid": "w32214033:a24559656", "current_trial": 150, "dateTime": 1664463860983, "trialdata": {"rt": 380, "stimulus": "<p id='stroop-text' class='stroop-red'>MONKEY</p>", "response": "r", "stimulus-type": "unrelated", "word": "MONKEY", "color": "red", "correct_response": "r", "trial_id": "stroop-trial-1-unrelated-21", "trial_type": "html-keyboard-response", "trial_index": 150, "time_elapsed": 272699, "internal_node_id": "0.0-6.0-55.0"}}, {"uniqueid": "w32214033:a24559656", "current_trial": 151, "dateTime": 1664463862498, "trialdata": {"rt": 1009, "stimulus": "<p id='stroop-text' class='stroop-green'>BLUE</p>", "response": "g", "stimulus-type": "incongruent", "word": "blue", "color": "green", "correct_response": "g", "trial_id": "stroop-trial-1-incongruent-23", "trial_type": "html-keyboard-response", "trial_index": 151, "time_elapsed": 274214, "internal_node_id": "0.0-6.0-56.0"}}, {"uniqueid": "w32214033:a24559656", "current_trial": 152, "dateTime": 1664463863579, "trialdata": {"rt": 566, "stimulus": "<p id='stroop-text' class='stroop-blue'>BRAIN</p>", "response": "b", "stimulus-type": "unrelated", "word": "BRAIN", "color": "blue", "correct_response": "b", "trial_id": "stroop-trial-1-unrelated-12", "trial_type": "html-keyboard-response", "trial_index": 152, "time_elapsed": 275295, "internal_node_id": "0.0-6.0-57.0"}}, {"uniqueid": "w32214033:a24559656", "current_trial": 153, "dateTime": 1664463864520, "trialdata": {"rt": 430, "stimulus": "<p id='stroop-text' class='stroop-blue'>GREEN</p>", "response": "b", "stimulus-type": "incongruent", "word": "green", "color": "blue", "correct_response": "b", "trial_id": "stroop-trial-1-incongruent-6", "trial_type": "html-keyboard-response", "trial_index": 153, "time_elapsed": 276235, "internal_node_id": "0.0-6.0-58.0"}}, {"uniqueid": "w32214033:a24559656", "current_trial": 154, "dateTime": 1664463865368, "trialdata": {"rt": 337, "stimulus": "<p id='stroop-text' class='stroop-blue'>YELLOW</p>", "response": "b", "stimulus-type": "incongruent", "word": "yellow", "color": "blue", "correct_response": "b", "trial_id": "stroop-trial-1-incongruent-7", "trial_type": "html-keyboard-response", "trial_index": 154, "time_elapsed": 277084, "internal_node_id": "0.0-6.0-59.0"}}, {"uniqueid": "w32214033:a24559656", "current_trial": 155, "dateTime": 1664463866310, "trialdata": {"rt": 433, "stimulus": "<p id='stroop-text' class='stroop-red'>RED</p>", "response": "r", "stimulus-type": "congruent", "word": "red", "color": "red", "correct_response": "r", "trial_id": "stroop-trial-1-congruent-15", "trial_type": "html-keyboard-response", "trial_index": 155, "time_elapsed": 278026, "internal_node_id": "0.0-6.0-60.0"}}, {"uniqueid": "w32214033:a24559656", "current_trial": 156, "dateTime": 1664463867416, "trialdata": {"rt": 598, "stimulus": "<p id='stroop-text' class='stroop-red'>YELLOW</p>", "response": "r", "stimulus-type": "incongruent", "word": "yellow", "color": "red", "correct_response": "r", "trial_id": "stroop-trial-1-incongruent-28", "trial_type": "html-keyboard-response", "trial_index": 156, "time_elapsed": 279132, "internal_node_id": "0.0-6.0-61.0"}}, {"uniqueid": "w32214033:a24559656", "current_trial": 157, "dateTime": 1664463868692, "trialdata": {"rt": 761, "stimulus": "<p id='stroop-text' class='stroop-green'>BOAT</p>", "response": "g", "stimulus-type": "unrelated", "word": "BOAT", "color": "green", "correct_response": "g", "trial_id": "stroop-trial-1-unrelated-29", "trial_type": "html-keyboard-response", "trial_index": 157, "time_elapsed": 280407, "internal_node_id": "0.0-6.0-62.0"}}, {"uniqueid": "w32214033:a24559656", "current_trial": 158, "dateTime": 1664463869830, "trialdata": {"rt": 621, "stimulus": "<p id='stroop-text' class='stroop-yellow'>YELLOW</p>", "response": "y", "stimulus-type": "congruent", "word": "yellow", "color": "yellow", "correct_response": "y", "trial_id": "stroop-trial-1-congruent-16", "trial_type": "html-keyboard-response", "trial_index": 158, "time_elapsed": 281545, "internal_node_id": "0.0-6.0-63.0"}}, {"uniqueid": "w32214033:a24559656", "current_trial": 159, "dateTime": 1664463870986, "trialdata": {"rt": 641, "stimulus": "<p id='stroop-text' class='stroop-red'>RED</p>", "response": "r", "stimulus-type": "congruent", "word": "red", "color": "red", "correct_response": "r", "trial_id": "stroop-trial-1-congruent-8", "trial_type": "html-keyboard-response", "trial_index": 159, "time_elapsed": 282702, "internal_node_id": "0.0-6.0-64.0"}}, {"uniqueid": "w32214033:a24559656", "current_trial": 160, "dateTime": 1664463872069, "trialdata": {"rt": 571, "stimulus": "<p id='stroop-text' class='stroop-red'>BOTTLE</p>", "response": "r", "stimulus-type": "unrelated", "word": "BOTTLE", "color": "red", "correct_response": "r", "trial_id": "stroop-trial-1-unrelated-10", "trial_type": "html-keyboard-response", "trial_index": 160, "time_elapsed": 283785, "internal_node_id": "0.0-6.0-65.0"}}, {"uniqueid": "w32214033:a24559656", "current_trial": 161, "dateTime": 1664463874015, "trialdata": {"rt": 1440, "stimulus": "<p id='stroop-text' class='stroop-yellow'>YELLOW</p>", "response": "y", "stimulus-type": "congruent", "word": "yellow", "color": "yellow", "correct_response": "y", "trial_id": "stroop-trial-1-congruent-20", "trial_type": "html-keyboard-response", "trial_index": 161, "time_elapsed": 285731, "internal_node_id": "0.0-6.0-66.0"}}, {"uniqueid": "w32214033:a24559656", "current_trial": 162, "dateTime": 1664463874989, "trialdata": {"rt": 469, "stimulus": "<p id='stroop-text' class='stroop-yellow'>SHIP</p>", "response": "y", "stimulus-type": "unrelated", "word": "SHIP", "color": "yellow", "correct_response": "y", "trial_id": "stroop-trial-1-unrelated-17", "trial_type": "html-keyboard-response", "trial_index": 162, "time_elapsed": 286705, "internal_node_id": "0.0-6.0-67.0"}}, {"uniqueid": "w32214033:a24559656", "current_trial": 163, "dateTime": 1664463876528, "trialdata": {"rt": 1022, "stimulus": "<p id='stroop-text' class='stroop-blue'>GREEN</p>", "response": "b", "stimulus-type": "incongruent", "word": "green", "color": "blue", "correct_response": "b", "trial_id": "stroop-trial-1-incongruent-17", "trial_type": "html-keyboard-response", "trial_index": 163, "time_elapsed": 288243, "internal_node_id": "0.0-6.0-68.0"}}, {"uniqueid": "w32214033:a24559656", "current_trial": 164, "dateTime": 1664463877476, "trialdata": {"rt": 445, "stimulus": "<p id='stroop-text' class='stroop-red'>RED</p>", "response": "g", "stimulus-type": "congruent", "word": "red", "color": "red", "correct_response": "r", "trial_id": "stroop-trial-1-congruent-11", "trial_type": "html-keyboard-response", "trial_index": 164, "time_elapsed": 289191, "internal_node_id": "0.0-6.0-69.0"}}, {"uniqueid": "w32214033:a24559656", "current_trial": 165, "dateTime": 1664463878536, "trialdata": {"rt": 548, "stimulus": "<p id='stroop-text' class='stroop-red'>BOAT</p>", "response": "r", "stimulus-type": "unrelated", "word": "BOAT", "color": "red", "correct_response": "r", "trial_id": "stroop-trial-1-unrelated-11", "trial_type": "html-keyboard-response", "trial_index": 165, "time_elapsed": 290251, "internal_node_id": "0.0-6.0-70.0"}}, {"uniqueid": "w32214033:a24559656", "current_trial": 166, "dateTime": 1664463879682, "trialdata": {"rt": 643, "stimulus": "<p id='stroop-text' class='stroop-green'>GREEN</p>", "response": "b", "stimulus-type": "congruent", "word": "green", "color": "green", "correct_response": "g", "trial_id": "stroop-trial-1-congruent-17", "trial_type": "html-keyboard-response", "trial_index": 166, "time_elapsed": 291398, "internal_node_id": "0.0-6.0-71.0"}}, {"uniqueid": "w32214033:a24559656", "current_trial": 167, "dateTime": 1664463880986, "trialdata": {"rt": 794, "stimulus": "<p id='stroop-text' class='stroop-blue'>YELLOW</p>", "response": "y", "stimulus-type": "incongruent", "word": "yellow", "color": "blue", "correct_response": "b", "trial_id": "stroop-trial-1-incongruent-4", "trial_type": "html-keyboard-response", "trial_index": 167, "time_elapsed": 292702, "internal_node_id": "0.0-6.0-72.0"}}, {"uniqueid": "w32214033:a24559656", "current_trial": 168, "dateTime": 1664463882478, "trialdata": {"rt": 983, "stimulus": "<p id='stroop-text' class='stroop-green'>YELLOW</p>", "response": "g", "stimulus-type": "incongruent", "word": "yellow", "color": "green", "correct_response": "g", "trial_id": "stroop-trial-1-incongruent-10", "trial_type": "html-keyboard-response", "trial_index": 168, "time_elapsed": 294194, "internal_node_id": "0.0-6.0-73.0"}}, {"uniqueid": "w32214033:a24559656", "current_trial": 169, "dateTime": 1664463883622, "trialdata": {"rt": 630, "stimulus": "<p id='stroop-text' class='stroop-red'>SHIP</p>", "response": "r", "stimulus-type": "unrelated", "word": "SHIP", "color": "red", "correct_response": "r", "trial_id": "stroop-trial-1-unrelated-18", "trial_type": "html-keyboard-response", "trial_index": 169, "time_elapsed": 295338, "internal_node_id": "0.0-6.0-74.0"}}, {"uniqueid": "w32214033:a24559656", "current_trial": 170, "dateTime": 1664463884895, "trialdata": {"rt": 769, "stimulus": "<p id='stroop-text' class='stroop-green'>GREEN</p>", "response": "g", "stimulus-type": "congruent", "word": "green", "color": "green", "correct_response": "g", "trial_id": "stroop-trial-1-congruent-28", "trial_type": "html-keyboard-response", "trial_index": 170, "time_elapsed": 296611, "internal_node_id": "0.0-6.0-75.0"}}, {"uniqueid": "w32214033:a24559656", "current_trial": 171, "dateTime": 1664463886245, "trialdata": {"rt": 838, "stimulus": "<p id='stroop-text' class='stroop-blue'>YELLOW</p>", "response": "b", "stimulus-type": "incongruent", "word": "yellow", "color": "blue", "correct_response": "b", "trial_id": "stroop-trial-1-incongruent-5", "trial_type": "html-keyboard-response", "trial_index": 171, "time_elapsed": 297961, "internal_node_id": "0.0-6.0-76.0"}}, {"uniqueid": "w32214033:a24559656", "current_trial": 172, "dateTime": 1664463887592, "trialdata": {"rt": 842, "stimulus": "<p id='stroop-text' class='stroop-green'>GREEN</p>", "response": "g", "stimulus-type": "congruent", "word": "green", "color": "green", "correct_response": "g", "trial_id": "stroop-trial-1-congruent-6", "trial_type": "html-keyboard-response", "trial_index": 172, "time_elapsed": 299307, "internal_node_id": "0.0-6.0-77.0"}}, {"uniqueid": "w32214033:a24559656", "current_trial": 173, "dateTime": 1664463888589, "trialdata": {"rt": 485, "stimulus": "<p id='stroop-text' class='stroop-green'>DOG</p>", "response": "g", "stimulus-type": "unrelated", "word": "DOG", "color": "green", "correct_response": "g", "trial_id": "stroop-trial-1-unrelated-22", "trial_type": "html-keyboard-response", "trial_index": 173, "time_elapsed": 300305, "internal_node_id": "0.0-6.0-78.0"}}, {"uniqueid": "w32214033:a24559656", "current_trial": 174, "dateTime": 1664463889511, "trialdata": {"rt": 404, "stimulus": "<p id='stroop-text' class='stroop-green'>BLUE</p>", "response": "g", "stimulus-type": "incongruent", "word": "blue", "color": "green", "correct_response": "g", "trial_id": "stroop-trial-1-incongruent-15", "trial_type": "html-keyboard-response", "trial_index": 174, "time_elapsed": 301227, "internal_node_id": "0.0-6.0-79.0"}}, {"uniqueid": "w32214033:a24559656", "current_trial": 175, "dateTime": 1664463890649, "trialdata": {"rt": 635, "stimulus": "<p id='stroop-text' class='stroop-yellow'>BLUE</p>", "response": "y", "stimulus-type": "incongruent", "word": "blue", "color": "yellow", "correct_response": "y", "trial_id": "stroop-trial-1-incongruent-12", "trial_type": "html-keyboard-response", "trial_index": 175, "time_elapsed": 302365, "internal_node_id": "0.0-6.0-80.0"}}, {"uniqueid": "w32214033:a24559656", "current_trial": 176, "dateTime": 1664463891646, "trialdata": {"rt": 488, "stimulus": "<p id='stroop-text' class='stroop-blue'>BLUE</p>", "response": "r", "stimulus-type": "congruent", "word": "blue", "color": "blue", "correct_response": "b", "trial_id": "stroop-trial-1-congruent-24", "trial_type": "html-keyboard-response", "trial_index": 176, "time_elapsed": 303360, "internal_node_id": "0.0-6.0-81.0"}}, {"uniqueid": "w32214033:a24559656", "current_trial": 177, "dateTime": 1664463893658, "trialdata": {"rt": 1500, "stimulus": "<p id='stroop-text' class='stroop-blue'>BOTTLE</p>", "response": "b", "stimulus-type": "unrelated", "word": "BOTTLE", "color": "blue", "correct_response": "b", "trial_id": "stroop-trial-1-unrelated-19", "trial_type": "html-keyboard-response", "trial_index": 177, "time_elapsed": 305374, "internal_node_id": "0.0-6.0-82.0"}}, {"uniqueid": "w32214033:a24559656", "current_trial": 178, "dateTime": 1664463894602, "trialdata": {"rt": 439, "stimulus": "<p id='stroop-text' class='stroop-blue'>BLUE</p>", "response": "b", "stimulus-type": "congruent", "word": "blue", "color": "blue", "correct_response": "b", "trial_id": "stroop-trial-1-congruent-9", "trial_type": "html-keyboard-response", "trial_index": 178, "time_elapsed": 306318, "internal_node_id": "0.0-6.0-83.0"}}, {"uniqueid": "w32214033:a24559656", "current_trial": 179, "dateTime": 1664463895936, "trialdata": {"rt": 821, "stimulus": "<p id='stroop-text' class='stroop-yellow'>MONKEY</p>", "response": "y", "stimulus-type": "unrelated", "word": "MONKEY", "color": "yellow", "correct_response": "y", "trial_id": "stroop-trial-1-unrelated-2", "trial_type": "html-keyboard-response", "trial_index": 179, "time_elapsed": 307652, "internal_node_id": "0.0-6.0-84.0"}}, {"uniqueid": "w32214033:a24559656", "current_trial": 180, "dateTime": 1664463896833, "trialdata": {"rt": 389, "stimulus": "<p id='stroop-text' class='stroop-yellow'>DOG</p>", "response": "y", "stimulus-type": "unrelated", "word": "DOG", "color": "yellow", "correct_response": "y", "trial_id": "stroop-trial-1-unrelated-27", "trial_type": "html-keyboard-response", "trial_index": 180, "time_elapsed": 308549, "internal_node_id": "0.0-6.0-85.0"}}, {"uniqueid": "w32214033:a24559656", "current_trial": 181, "dateTime": 1664463897913, "trialdata": {"rt": 574, "stimulus": "<p id='stroop-text' class='stroop-red'>BLUE</p>", "response": "r", "stimulus-type": "incongruent", "word": "blue", "color": "red", "correct_response": "r", "trial_id": "stroop-trial-1-incongruent-9", "trial_type": "html-keyboard-response", "trial_index": 181, "time_elapsed": 309629, "internal_node_id": "0.0-6.0-86.0"}}, {"uniqueid": "w32214033:a24559656", "current_trial": 182, "dateTime": 1664463899571, "trialdata": {"rt": 1154, "stimulus": "<p id='stroop-text' class='stroop-green'>YELLOW</p>", "response": "g", "stimulus-type": "incongruent", "word": "yellow", "color": "green", "correct_response": "g", "trial_id": "stroop-trial-1-incongruent-24", "trial_type": "html-keyboard-response", "trial_index": 182, "time_elapsed": 311286, "internal_node_id": "0.0-6.0-87.0"}}, {"uniqueid": "w32214033:a24559656", "current_trial": 183, "dateTime": 1664463900470, "trialdata": {"rt": 390, "stimulus": "<p id='stroop-text' class='stroop-green'>DOG</p>", "response": "g", "stimulus-type": "unrelated", "word": "DOG", "color": "green", "correct_response": "g", "trial_id": "stroop-trial-1-unrelated-23", "trial_type": "html-keyboard-response", "trial_index": 183, "time_elapsed": 312186, "internal_node_id": "0.0-6.0-88.0"}}, {"uniqueid": "w32214033:a24559656", "current_trial": 184, "dateTime": 1664463901712, "trialdata": {"rt": 725, "stimulus": "<p id='stroop-text' class='stroop-yellow'>RED</p>", "response": "r", "stimulus-type": "incongruent", "word": "red", "color": "yellow", "correct_response": "y", "trial_id": "stroop-trial-1-incongruent-13", "trial_type": "html-keyboard-response", "trial_index": 184, "time_elapsed": 313427, "internal_node_id": "0.0-6.0-89.0"}}, {"uniqueid": "w32214033:a24559656", "current_trial": 185, "dateTime": 1664463905342, "trialdata": {"rt": 3121, "stimulus": "  <h1> End of block! </h1>\n\n  You have reached the end of the block 2/5. If you need a short break, feel free to take one now before moving on.\n\n  <br><br>\n  In the next block, you will complete another 90 rounds of this game.\n\n  <br><br>\n  <div style='text-align: center;'>Press <code>space</code> to begin.</div>\n  <br><br>\n<div style='text-align: center;'>(If the experiment doesn't continue, try clicking on the text and then pressing <code>space</code>.)</div>", "response": " ", "trial_id": "stroop_1_ready_3", "trial_type": "html-keyboard-response", "trial_index": 185, "time_elapsed": 317058, "internal_node_id": "0.0-7.0"}}, {"uniqueid": "w32214033:a24559656", "current_trial": 186, "dateTime": 1664463906399, "trialdata": {"rt": 1052, "stimulus": "<p id='stroop-text' class='stroop-green'>BLUE</p>", "response": "g", "stimulus-type": "incongruent", "word": "blue", "color": "green", "correct_response": "g", "trial_id": "stroop-trial-1-incongruent-14", "trial_type": "html-keyboard-response", "trial_index": 186, "time_elapsed": 318114, "internal_node_id": "0.0-8.0-0.0"}}, {"uniqueid": "w32214033:a24559656", "current_trial": 187, "dateTime": 1664463907739, "trialdata": {"rt": 823, "stimulus": "<p id='stroop-text' class='stroop-blue'>BLUE</p>", "response": "b", "stimulus-type": "congruent", "word": "blue", "color": "blue", "correct_response": "b", "trial_id": "stroop-trial-1-congruent-10", "trial_type": "html-keyboard-response", "trial_index": 187, "time_elapsed": 319455, "internal_node_id": "0.0-8.0-1.0"}}, {"uniqueid": "w32214033:a24559656", "current_trial": 188, "dateTime": 1664463909749, "trialdata": {"rt": 1506, "stimulus": "<p id='stroop-text' class='stroop-green'>FORK</p>", "response": "g", "stimulus-type": "unrelated", "word": "FORK", "color": "green", "correct_response": "g", "trial_id": "stroop-trial-1-unrelated-8", "trial_type": "html-keyboard-response", "trial_index": 188, "time_elapsed": 321465, "internal_node_id": "0.0-8.0-2.0"}}, {"uniqueid": "w32214033:a24559656", "current_trial": 189, "dateTime": 1664463911123, "trialdata": {"rt": 862, "stimulus": "<p id='stroop-text' class='stroop-yellow'>YELLOW</p>", "response": "y", "stimulus-type": "congruent", "word": "yellow", "color": "yellow", "correct_response": "y", "trial_id": "stroop-trial-1-congruent-11", "trial_type": "html-keyboard-response", "trial_index": 189, "time_elapsed": 322839, "internal_node_id": "0.0-8.0-3.0"}}, {"uniqueid": "w32214033:a24559656", "current_trial": 190, "dateTime": 1664463912081, "trialdata": {"rt": 442, "stimulus": "<p id='stroop-text' class='stroop-yellow'>YELLOW</p>", "response": "y", "stimulus-type": "congruent", "word": "yellow", "color": "yellow", "correct_response": "y", "trial_id": "stroop-trial-1-congruent-14", "trial_type": "html-keyboard-response", "trial_index": 190, "time_elapsed": 323797, "internal_node_id": "0.0-8.0-4.0"}}, {"uniqueid": "w32214033:a24559656", "current_trial": 191, "dateTime": 1664463913255, "trialdata": {"rt": 659, "stimulus": "<p id='stroop-text' class='stroop-blue'>WINDOW</p>", "response": "b", "stimulus-type": "unrelated", "word": "WINDOW", "color": "blue", "correct_response": "b", "trial_id": "stroop-trial-1-unrelated-25", "trial_type": "html-keyboard-response", "trial_index": 191, "time_elapsed": 324971, "internal_node_id": "0.0-8.0-5.0"}}, {"uniqueid": "w32214033:a24559656", "current_trial": 192, "dateTime": 1664463914272, "trialdata": {"rt": 504, "stimulus": "<p id='stroop-text' class='stroop-blue'>BLUE</p>", "response": "b", "stimulus-type": "congruent", "word": "blue", "color": "blue", "correct_response": "b", "trial_id": "stroop-trial-1-congruent-24", "trial_type": "html-keyboard-response", "trial_index": 192, "time_elapsed": 325988, "internal_node_id": "0.0-8.0-6.0"}}, {"uniqueid": "w32214033:a24559656", "current_trial": 193, "dateTime": 1664463915496, "trialdata": {"rt": 712, "stimulus": "<p id='stroop-text' class='stroop-yellow'>MONKEY</p>", "response": "y", "stimulus-type": "unrelated", "word": "MONKEY", "color": "yellow", "correct_response": "y", "trial_id": "stroop-trial-1-unrelated-12", "trial_type": "html-keyboard-response", "trial_index": 193, "time_elapsed": 327212, "internal_node_id": "0.0-8.0-7.0"}}, {"uniqueid": "w32214033:a24559656", "current_trial": 194, "dateTime": 1664463916414, "trialdata": {"rt": 411, "stimulus": "<p id='stroop-text' class='stroop-yellow'>RED</p>", "response": "y", "stimulus-type": "incongruent", "word": "red", "color": "yellow", "correct_response": "y", "trial_id": "stroop-trial-1-incongruent-26", "trial_type": "html-keyboard-response", "trial_index": 194, "time_elapsed": 328130, "internal_node_id": "0.0-8.0-8.0"}}, {"uniqueid": "w32214033:a24559656", "current_trial": 195, "dateTime": 1664463917480, "trialdata": {"rt": 552, "stimulus": "<p id='stroop-text' class='stroop-red'>RED</p>", "response": "r", "stimulus-type": "congruent", "word": "red", "color": "red", "correct_response": "r", "trial_id": "stroop-trial-1-congruent-18", "trial_type": "html-keyboard-response", "trial_index": 195, "time_elapsed": 329195, "internal_node_id": "0.0-8.0-9.0"}}, {"uniqueid": "w32214033:a24559656", "current_trial": 196, "dateTime": 1664463918599, "trialdata": {"rt": 607, "stimulus": "<p id='stroop-text' class='stroop-yellow'>YELLOW</p>", "response": "y", "stimulus-type": "congruent", "word": "yellow", "color": "yellow", "correct_response": "y", "trial_id": "stroop-trial-1-congruent-30", "trial_type": "html-keyboard-response", "trial_index": 196, "time_elapsed": 330314, "internal_node_id": "0.0-8.0-10.0"}}, {"uniqueid": "w32214033:a24559656", "current_trial": 197, "dateTime": 1664463919783, "trialdata": {"rt": 670, "stimulus": "<p id='stroop-text' class='stroop-blue'>YELLOW</p>", "response": "b", "stimulus-type": "incongruent", "word": "yellow", "color": "blue", "correct_response": "b", "trial_id": "stroop-trial-1-incongruent-23", "trial_type": "html-keyboard-response", "trial_index": 197, "time_elapsed": 331499, "internal_node_id": "0.0-8.0-11.0"}}, {"uniqueid": "w32214033:a24559656", "current_trial": 198, "dateTime": 1664463921075, "trialdata": {"rt": 776, "stimulus": "<p id='stroop-text' class='stroop-green'>BLUE</p>", "response": "g", "stimulus-type": "incongruent", "word": "blue", "color": "green", "correct_response": "g", "trial_id": "stroop-trial-1-incongruent-29", "trial_type": "html-keyboard-response", "trial_index": 198, "time_elapsed": 332791, "internal_node_id": "0.0-8.0-12.0"}}, {"uniqueid": "w32214033:a24559656", "current_trial": 199, "dateTime": 1664463922455, "trialdata": {"rt": 874, "stimulus": "<p id='stroop-text' class='stroop-blue'>SHIP</p>", "response": "b", "stimulus-type": "unrelated", "word": "SHIP", "color": "blue", "correct_response": "b", "trial_id": "stroop-trial-1-unrelated-16", "trial_type": "html-keyboard-response", "trial_index": 199, "time_elapsed": 334171, "internal_node_id": "0.0-8.0-13.0"}}, {"uniqueid": "w32214033:a24559656", "current_trial": 200, "dateTime": 1664463923829, "trialdata": {"rt": 859, "stimulus": "<p id='stroop-text' class='stroop-yellow'>GREEN</p>", "response": "y", "stimulus-type": "incongruent", "word": "green", "color": "yellow", "correct_response": "y", "trial_id": "stroop-trial-1-incongruent-22", "trial_type": "html-keyboard-response", "trial_index": 200, "time_elapsed": 335545, "internal_node_id": "0.0-8.0-14.0"}}, {"uniqueid": "w32214033:a24559656", "current_trial": 201, "dateTime": 1664463924887, "trialdata": {"rt": 549, "stimulus": "<p id='stroop-text' class='stroop-yellow'>CHAIR</p>", "response": "y", "stimulus-type": "unrelated", "word": "CHAIR", "color": "yellow", "correct_response": "y", "trial_id": "stroop-trial-1-unrelated-13", "trial_type": "html-keyboard-response", "trial_index": 201, "time_elapsed": 336602, "internal_node_id": "0.0-8.0-15.0"}}, {"uniqueid": "w32214033:a24559656", "current_trial": 202, "dateTime": 1664463926044, "trialdata": {"rt": 645, "stimulus": "<p id='stroop-text' class='stroop-blue'>YELLOW</p>", "response": "b", "stimulus-type": "incongruent", "word": "yellow", "color": "blue", "correct_response": "b", "trial_id": "stroop-trial-1-incongruent-19", "trial_type": "html-keyboard-response", "trial_index": 202, "time_elapsed": 337759, "internal_node_id": "0.0-8.0-16.0"}}, {"uniqueid": "w32214033:a24559656", "current_trial": 203, "dateTime": 1664463927135, "trialdata": {"rt": 579, "stimulus": "<p id='stroop-text' class='stroop-red'>RED</p>", "response": "r", "stimulus-type": "congruent", "word": "red", "color": "red", "correct_response": "r", "trial_id": "stroop-trial-1-congruent-19", "trial_type": "html-keyboard-response", "trial_index": 203, "time_elapsed": 338851, "internal_node_id": "0.0-8.0-17.0"}}, {"uniqueid": "w32214033:a24559656", "current_trial": 204, "dateTime": 1664463928452, "trialdata": {"rt": 814, "stimulus": "<p id='stroop-text' class='stroop-green'>BRAIN</p>", "response": "g", "stimulus-type": "unrelated", "word": "BRAIN", "color": "green", "correct_response": "g", "trial_id": "stroop-trial-1-unrelated-7", "trial_type": "html-keyboard-response", "trial_index": 204, "time_elapsed": 340168, "internal_node_id": "0.0-8.0-18.0"}}, {"uniqueid": "w32214033:a24559656", "current_trial": 205, "dateTime": 1664463929508, "trialdata": {"rt": 543, "stimulus": "<p id='stroop-text' class='stroop-green'>RED</p>", "response": "g", "stimulus-type": "incongruent", "word": "red", "color": "green", "correct_response": "g", "trial_id": "stroop-trial-1-incongruent-24", "trial_type": "html-keyboard-response", "trial_index": 205, "time_elapsed": 341224, "internal_node_id": "0.0-8.0-19.0"}}, {"uniqueid": "w32214033:a24559656", "current_trial": 206, "dateTime": 1664463930631, "trialdata": {"rt": 609, "stimulus": "<p id='stroop-text' class='stroop-blue'>RED</p>", "response": "b", "stimulus-type": "incongruent", "word": "red", "color": "blue", "correct_response": "b", "trial_id": "stroop-trial-1-incongruent-1", "trial_type": "html-keyboard-response", "trial_index": 206, "time_elapsed": 342347, "internal_node_id": "0.0-8.0-20.0"}}, {"uniqueid": "w32214033:a24559656", "current_trial": 207, "dateTime": 1664463931664, "trialdata": {"rt": 517, "stimulus": "<p id='stroop-text' class='stroop-red'>BLUE</p>", "response": "r", "stimulus-type": "incongruent", "word": "blue", "color": "red", "correct_response": "r", "trial_id": "stroop-trial-1-incongruent-25", "trial_type": "html-keyboard-response", "trial_index": 207, "time_elapsed": 343380, "internal_node_id": "0.0-8.0-21.0"}}, {"uniqueid": "w32214033:a24559656", "current_trial": 208, "dateTime": 1664463932720, "trialdata": {"rt": 551, "stimulus": "<p id='stroop-text' class='stroop-yellow'>YELLOW</p>", "response": "y", "stimulus-type": "congruent", "word": "yellow", "color": "yellow", "correct_response": "y", "trial_id": "stroop-trial-1-congruent-23", "trial_type": "html-keyboard-response", "trial_index": 208, "time_elapsed": 344436, "internal_node_id": "0.0-8.0-22.0"}}, {"uniqueid": "w32214033:a24559656", "current_trial": 209, "dateTime": 1664463933966, "trialdata": {"rt": 732, "stimulus": "<p id='stroop-text' class='stroop-red'>RED</p>", "response": "r", "stimulus-type": "congruent", "word": "red", "color": "red", "correct_response": "r", "trial_id": "stroop-trial-1-congruent-13", "trial_type": "html-keyboard-response", "trial_index": 209, "time_elapsed": 345682, "internal_node_id": "0.0-8.0-23.0"}}, {"uniqueid": "w32214033:a24559656", "current_trial": 210, "dateTime": 1664463935044, "trialdata": {"rt": 561, "stimulus": "<p id='stroop-text' class='stroop-blue'>BLUE</p>", "response": "b", "stimulus-type": "congruent", "word": "blue", "color": "blue", "correct_response": "b", "trial_id": "stroop-trial-1-congruent-29", "trial_type": "html-keyboard-response", "trial_index": 210, "time_elapsed": 346760, "internal_node_id": "0.0-8.0-24.0"}}, {"uniqueid": "w32214033:a24559656", "current_trial": 211, "dateTime": 1664463936260, "trialdata": {"rt": 698, "stimulus": "<p id='stroop-text' class='stroop-red'>MONKEY</p>", "response": "r", "stimulus-type": "unrelated", "word": "MONKEY", "color": "red", "correct_response": "r", "trial_id": "stroop-trial-1-unrelated-9", "trial_type": "html-keyboard-response", "trial_index": 211, "time_elapsed": 347975, "internal_node_id": "0.0-8.0-25.0"}}, {"uniqueid": "w32214033:a24559656", "current_trial": 212, "dateTime": 1664463937239, "trialdata": {"rt": 474, "stimulus": "<p id='stroop-text' class='stroop-red'>GREEN</p>", "response": "r", "stimulus-type": "incongruent", "word": "green", "color": "red", "correct_response": "r", "trial_id": "stroop-trial-1-incongruent-4", "trial_type": "html-keyboard-response", "trial_index": 212, "time_elapsed": 348954, "internal_node_id": "0.0-8.0-26.0"}}, {"uniqueid": "w32214033:a24559656", "current_trial": 213, "dateTime": 1664463938651, "trialdata": {"rt": 902, "stimulus": "<p id='stroop-text' class='stroop-blue'>WINDOW</p>", "response": "b", "stimulus-type": "unrelated", "word": "WINDOW", "color": "blue", "correct_response": "b", "trial_id": "stroop-trial-1-unrelated-30", "trial_type": "html-keyboard-response", "trial_index": 213, "time_elapsed": 350367, "internal_node_id": "0.0-8.0-27.0"}}, {"uniqueid": "w32214033:a24559656", "current_trial": 214, "dateTime": 1664463939756, "trialdata": {"rt": 588, "stimulus": "<p id='stroop-text' class='stroop-yellow'>YELLOW</p>", "response": "y", "stimulus-type": "congruent", "word": "yellow", "color": "yellow", "correct_response": "y", "trial_id": "stroop-trial-1-congruent-6", "trial_type": "html-keyboard-response", "trial_index": 214, "time_elapsed": 351472, "internal_node_id": "0.0-8.0-28.0"}}, {"uniqueid": "w32214033:a24559656", "current_trial": 215, "dateTime": 1664463940683, "trialdata": {"rt": 418, "stimulus": "<p id='stroop-text' class='stroop-yellow'>YELLOW</p>", "response": "y", "stimulus-type": "congruent", "word": "yellow", "color": "yellow", "correct_response": "y", "trial_id": "stroop-trial-1-congruent-28", "trial_type": "html-keyboard-response", "trial_index": 215, "time_elapsed": 352399, "internal_node_id": "0.0-8.0-29.0"}}, {"uniqueid": "w32214033:a24559656", "current_trial": 216, "dateTime": 1664463941820, "trialdata": {"rt": 631, "stimulus": "<p id='stroop-text' class='stroop-blue'>CHAIR</p>", "response": "b", "stimulus-type": "unrelated", "word": "CHAIR", "color": "blue", "correct_response": "b", "trial_id": "stroop-trial-1-unrelated-14", "trial_type": "html-keyboard-response", "trial_index": 216, "time_elapsed": 353536, "internal_node_id": "0.0-8.0-30.0"}}, {"uniqueid": "w32214033:a24559656", "current_trial": 217, "dateTime": 1664463942923, "trialdata": {"rt": 592, "stimulus": "<p id='stroop-text' class='stroop-green'>STONE</p>", "response": "g", "stimulus-type": "unrelated", "word": "STONE", "color": "green", "correct_response": "g", "trial_id": "stroop-trial-1-unrelated-20", "trial_type": "html-keyboard-response", "trial_index": 217, "time_elapsed": 354638, "internal_node_id": "0.0-8.0-31.0"}}, {"uniqueid": "w32214033:a24559656", "current_trial": 218, "dateTime": 1664463944906, "trialdata": {"rt": 1477, "stimulus": "<p id='stroop-text' class='stroop-yellow'>BOTTLE</p>", "response": "y", "stimulus-type": "unrelated", "word": "BOTTLE", "color": "yellow", "correct_response": "y", "trial_id": "stroop-trial-1-unrelated-22", "trial_type": "html-keyboard-response", "trial_index": 218, "time_elapsed": 356621, "internal_node_id": "0.0-8.0-32.0"}}, {"uniqueid": "w32214033:a24559656", "current_trial": 219, "dateTime": 1664463945963, "trialdata": {"rt": 549, "stimulus": "<p id='stroop-text' class='stroop-yellow'>YELLOW</p>", "response": "y", "stimulus-type": "congruent", "word": "yellow", "color": "yellow", "correct_response": "y", "trial_id": "stroop-trial-1-congruent-15", "trial_type": "html-keyboard-response", "trial_index": 219, "time_elapsed": 357679, "internal_node_id": "0.0-8.0-33.0"}}, {"uniqueid": "w32214033:a24559656", "current_trial": 220, "dateTime": 1664463947461, "trialdata": {"rt": 983, "stimulus": "<p id='stroop-text' class='stroop-red'>BRAIN</p>", "response": "r", "stimulus-type": "unrelated", "word": "BRAIN", "color": "red", "correct_response": "r", "trial_id": "stroop-trial-1-unrelated-27", "trial_type": "html-keyboard-response", "trial_index": 220, "time_elapsed": 359176, "internal_node_id": "0.0-8.0-34.0"}}, {"uniqueid": "w32214033:a24559656", "current_trial": 221, "dateTime": 1664463948549, "trialdata": {"rt": 579, "stimulus": "<p id='stroop-text' class='stroop-blue'>BLUE</p>", "response": "b", "stimulus-type": "congruent", "word": "blue", "color": "blue", "correct_response": "b", "trial_id": "stroop-trial-1-congruent-2", "trial_type": "html-keyboard-response", "trial_index": 221, "time_elapsed": 360265, "internal_node_id": "0.0-8.0-35.0"}}, {"uniqueid": "w32214033:a24559656", "current_trial": 222, "dateTime": 1664463949473, "trialdata": {"rt": 410, "stimulus": "<p id='stroop-text' class='stroop-blue'>SHIP</p>", "response": "b", "stimulus-type": "unrelated", "word": "SHIP", "color": "blue", "correct_response": "b", "trial_id": "stroop-trial-1-unrelated-29", "trial_type": "html-keyboard-response", "trial_index": 222, "time_elapsed": 361188, "internal_node_id": 