{"condition": 1, "counterbalance": 0, "assignmentId": "a11392863", "workerId": "w67473409", "hitId": "h17829042", "currenttrial": 137, "bonus": 0, "data": [{"uniqueid": "w67473409:a11392863", "current_trial": 0, "dateTime": 1664367819843, "trialdata": {"success": true, "trial_type": "fullscreen", "trial_index": 0, "time_elapsed": 4584, "internal_node_id": "0.0-0.0"}}, {"uniqueid": "w67473409:a11392863", "current_trial": 1, "dateTime": 1664367838688, "trialdata": {"view_history": [{"page_index": 0, "viewing_time": 18839}], "rt": 18839, "trial_id": "exp_instructions_no_distractor", "trial_type": "instructions", "trial_index": 1, "time_elapsed": 23430, "internal_node_id": "0.0-1.0"}}, {"uniqueid": "w67473409:a11392863", "current_trial": 2, "dateTime": 1664367842631, "trialdata": {"success": true, "trial_type": "fullscreen", "trial_index": 2, "time_elapsed": 27373, "internal_node_id": "0.0-2.0-0.0"}}, {"uniqueid": "w67473409:a11392863", "current_trial": 3, "dateTime": 1664367952244, "trialdata": {"view_history": [{"page_index": 0, "viewing_time": 31075}, {"page_index": 1, "viewing_time": 41487}, {"page_index": 2, "viewing_time": 8414}, {"page_index": 3, "viewing_time": 12334}, {"page_index": 4, "viewing_time": 16301}], "rt": 109611, "trial_id": "mouselab_instructions_1", "trial_type": "instructions", "trial_index": 3, "time_elapsed": 136986, "internal_node_id": "0.0-2.0-1.0"}}, {"uniqueid": "w67473409:a11392863", "current_trial": 4, "dateTime": 1664367984643, "trialdata": {"revealed_states": [], "num_clicks_accrued": [0, 0, 0, 0, 0, 0, 0, 0, 0, 0, 0, 0, 0], "stateRewards": ["", 10, -10, 10, -10, 10, -10, 10, 10, 10, -10, 10, -10], "withholdReward": false, "trial_id": "practice_1", "block": "test", "trialIndex": 0, "score": 9, "costs": -3, "simulationMode": [null, null, null], "rewards": [10, -10, 10], "path": ["0", "0", "5", "6", "8"], "rt": [24603, 448, 218], "actions": ["right", "right", "down"], "actionTimes": [27767, 28731, 29465], "queries": {"click": {"state": {"target": ["5", "6", "8", "1", "2", "3", "7", "9", "10", "11", "12", "4"], "time": [7631, 9536, 10515, 12550, 13238, 13784, 16439, 20206, 20758, 21303, 21820, 22508]}, "edge": {"target": [], "time": []}}, "mouseover": {"state": {"target": ["5", "6", "8", "1", "2", "3", "7", "0", "9", "10", "11", "12", "4"], "time": [7382, 9162, 10227, 12092, 12940, 13506, 15752, 19446, 19496, 20514, 21060, 21576, 22275]}, "edge": {"target": [], "time": []}}, "mouseout": {"state": {"target": ["1", "1", "0", "0", "5", "6", "8", "5", "1", "2", "3", "7", "6", "0", "9", "10", "11", "10", "12", "4", "1"], "time": [293, 1391, 1709, 7250, 9046, 10144, 11259, 11758, 12857, 13442, 14188, 16717, 16834, 19480, 20461, 20977, 21459, 21542, 22092, 22674, 22741]}, "edge": {"target": [], "time": []}}}, "displayed_time": "29.98", "trialTime": 32139, "trial_type": "mouselab-mdp", "trial_index": 4, "time_elapsed": 169385, "internal_node_id": "0.0-2.0-2.0-0.0"}}, {"uniqueid": "w67473409:a11392863", "current_trial": 5, "dateTime": 1664367998332, "trialdata": {"revealed_states": [], "num_clicks_accrued": [0, 0, 0, 0, 0, 0, 0, 0, 0, 0, 0, 0, 0], "stateRewards": ["", -10, 10, 10, -10, 10, -10, 10, -10, -10, 10, 10, -10], "withholdReward": false, "trial_id": "practice_2", "block": "test", "trialIndex": 1, "score": 10.5, "costs": -1.5, "simulationMode": [null, null, null], "rewards": [10, -10, 10], "path": ["0", "0", "5", "6", "7"], "rt": [7316, 106, 449], "actions": ["right", "right", "up"], "actionTimes": [9449, 10058, 11017], "queries": {"click": {"state": {"target": ["1", "5", "9", "6", "8", "7"], "time": [3467, 3991, 4557, 6014, 6612, 7490]}, "edge": {"target": [], "time": []}}, "mouseover": {"state": {"target": ["1", "5", "0", "9", "6", "8", "7"], "time": [3362, 3695, 4293, 4394, 5858, 6440, 7205]}, "edge": {"target": [], "time": []}}, "mouseout": {"state": {"target": ["1", "0", "1", "5", "0", "9", "5", "6", "8", "8", "6", "7", "6"], "time": [1548, 3079, 3612, 4227, 4343, 4694, 5708, 6174, 6890, 7089, 7155, 7655, 12515]}, "edge": {"target": [], "time": []}}}, "displayed_time": "11.53", "trialTime": 13653, "trial_type": "mouselab-mdp", "trial_index": 5, "time_elapsed": 183074, "internal_node_id": "0.0-2.0-2.0-1.0"}}, {"uniqueid": "w67473409:a11392863", "current_trial": 6, "dateTime": 1664368044510, "trialdata": {"view_history": [{"page_index": 0, "viewing_time": 26075}, {"page_index": 1, "viewing_time": 11072}, {"page_index": 2, "viewing_time": 9029}], "rt": 46176, "trial_id": "mouselab_instructions_2_scarce", "trial_type": "instructions", "trial_index": 6, "time_elapsed": 229252, "internal_node_id": "0.0-2.0-3.0"}}, {"uniqueid": "w67473409:a11392863", "current_trial": 7, "dateTime": 1664368072875, "trialdata": {"rt": 28360, "response": {"Q0": "$-48 to $48", "Q1": "The cost is always $0.25.", "Q2": "The better I perform the higher my bonus will be.", "Q3": "No, the amount of cash at each node of the web may be different each time.", "Q4": "The values of the nodes walked through from start to finish.", "Q5": "No, the spider might forget to count the money on some rounds."}, "question_order": [0, 1, 2, 3, 4, 5], "correct": {"Q0": "$-48 to $48", "Q1": "The cost is always $0.25.", "Q2": "The better I perform the higher my bonus will be.", "Q3": "No, the amount of cash at each node of the web may be different each time.", "Q4": "The values of the nodes walked through from start to finish.", "Q5": "No, the spider might forget to count the money on some rounds."}, "trial_id": "mouselab_quiz_scarce", "trial_type": "survey-multi-choice", "trial_index": 7, "time_elapsed": 257617, "internal_node_id": "0.0-2.0-4.0"}}, {"uniqueid": "w67473409:a11392863", "current_trial": 8, "dateTime": 1664368083078, "trialdata": {"rt": 10197, "stimulus": "\n<h1> Get ready to start the game! </h1>\n\nThank you for reading the instructions. Get ready start with the first of 4 block(s) of this game.\n<br><br>\nIn this first block, you will complete 30 rounds of this game before moving on.\n<br><br>\nRemember, the more money the spider gets, the bigger your bonus will be!\n<br><br>\n<div style='text-align: center;'>Press <code>space</code> to begin.</div>\n\n<br><br>\n(If, at any point, the <code>space</code> key does not take you to the next page, click once on the text and try again.)", "response": " ", "trial_id": "mdp_ready_1", "trial_type": "html-keyboard-response", "trial_index": 8, "time_elapsed": 267820, "internal_node_id": "0.0-4.0-0.0"}}, {"uniqueid": "w67473409:a11392863", "current_trial": 9, "dateTime": 1664368097263, "trialdata": {"revealed_states": [], "num_clicks_accrued": [0, 0, 0, 0, 0, 0, 0, 0, 0, 0, 0, 0, 0], "stateRewards": ["", 4, -8, -48, 48, -2, 8, -48, 48, -2, -4, 24, -48], "withholdReward": false, "trial_id": "mdp_400558136089", "block": "test1", "trialIndex": 2, "score": 46.5, "costs": -2.5, "simulationMode": [null, null, null], "rewards": [4, -8, 48], "path": ["0", "0", "1", "2", "4"], "rt": [8840, 61, 430], "actions": ["up", "up", "left"], "actionTimes": [10421, 10996, 11929], "queries": {"click": {"state": {"target": ["5", "6", "9", "10", "12", "11", "1", "2", "4", "3"], "time": [2753, 3384, 4252, 4826, 5351, 6043, 6895, 7420, 7899, 8577]}, "edge": {"target": [], "time": []}}, "mouseover": {"state": {"target": ["5", "6", "0", "9", "10", "12", "11", "1", "2", "4", "3"], "time": [2414, 3080, 3762, 3978, 4494, 5110, 5642, 6624, 7306, 7689, 8388]}, "edge": {"target": [], "time": []}}, "mouseout": {"state": {"target": ["5", "3", "0", "5", "6", "0", "9", "10", "12", "10", "11", "1", "2", "4", "2", "3", "3", "6", "8"], "time": [234, 933, 2364, 2930, 3579, 3812, 4460, 5027, 5493, 5576, 6291, 7140, 7589, 8022, 8205, 8904, 13313, 13396, 13429]}, "edge": {"target": [], "time": []}}}, "displayed_time": "12.43", "trialTime": 14142, "trial_type": "mouselab-mdp", "trial_index": 9, "time_elapsed": 282005, "internal_node_id": "0.0-4.0-1.0-0.0"}}, {"uniqueid": "w67473409:a11392863", "current_trial": 10, "dateTime": 1664368109851, "trialdata": {"revealed_states": [], "num_clicks_accrued": [0, 0, 0, 0, 0, 0, 0, 0, 0, 0, 0, 0, 0], "stateRewards": ["", -2, -8, 24, -24, 4, -8, 48, 48, -4, -8, -24, -48], "withholdReward": true, "trial_id": "mdp_286767261523", "block": "test1", "trialIndex": 3, "score": 48.25, "costs": -0.75, "simulationMode": [null, null, null], "rewards": [4, -8, 48], "path": ["0", "0", "5", "6", "8"], "rt": [3949, 91, 57], "actions": ["right", "right", "down"], "actionTimes": [5427, 6021, 6585], "queries": {"click": {"state": {"target": ["5", "6", "8"], "time": [2384, 2864, 3336]}, "edge": {"target": [], "time": []}}, "mouseover": {"state": {"target": ["5", "6", "8", "1"], "time": [1902, 2618, 3250, 4199]}, "edge": {"target": [], "time": []}}, "mouseout": {"state": {"target": ["0", "5", "6", "8", "5", "1", "6"], "time": [1852, 2568, 3101, 3882, 3999, 4382, 11470]}, "edge": {"target": [], "time": []}}}, "displayed_time": "10.48", "trialTime": 12557, "trial_type": "mouselab-mdp", "trial_index": 10, "time_elapsed": 294593, "internal_node_id": "0.0-4.0-1.0-1.0"}}, {"uniqueid": "w67473409:a11392863", "current_trial": 11, "dateTime": 1664368130669, "trialdata": {"revealed_states": [], "num_clicks_accrued": [0, 0, 0, 0, 0, 0, 0, 0, 0, 0, 0, 0, 0], "stateRewards": ["", -2, -4, -48, -48, 4, 8, 24, -48, 4, -8, 24, 24], "withholdReward": true, "trial_id": "mdp_749799219195", "block": "test1", "trialIndex": 4, "score": 38.5, "costs": -2.5, "simulationMode": [null, null, null], "rewards": [4, 8, 24], "path": ["0", "0", "5", "6", "7"], "rt": [14035, 524, 1657], "actions": ["right", "right", "up"], "actionTimes": [15489, 16528, 18693], "queries": {"click": {"state": {"target": ["5", "6", "8", "7", "9", "10", "12", "11", "4", "3"], "time": [2875, 3403, 3811, 4727, 5701, 6108, 6467, 7171, 8083, 8656]}, "edge": {"target": [], "time": []}}, "mouseover": {"state": {"target": ["5", "6", "8", "7", "0", "9", "10", "12", "11", "4", "2", "3", "0"], "time": [2742, 3041, 3607, 4423, 5271, 5454, 5937, 6353, 6968, 7952, 8233, 8583, 13857]}, "edge": {"target": [], "time": []}}, "mouseout": {"state": {"target": ["0", "5", "6", "8", "8", "6", "7", "6", "5", "0", "9", "10", "12", "10", "11", "9", "4", "2", "3", "6", "6", "0", "5", "6", "7", "8"], "time": [2592, 3025, 3540, 4090, 4339, 4389, 4922, 5171, 5222, 5404, 5820, 6253, 6669, 6935, 7335, 7734, 8216, 8283, 8882, 10446, 11761, 13874, 14040, 14506, 14639, 19814]}, "edge": {"target": [], "time": []}}}, "displayed_time": "19.20", "trialTime": 20786, "trial_type": "mouselab-mdp", "trial_index": 11, "time_elapsed": 315411, "internal_node_id": "0.0-4.0-1.0-2.0"}}, {"uniqueid": "w67473409:a11392863", "current_trial": 12, "dateTime": 1664368142947, "trialdata": {"revealed_states": [], "num_clicks_accrued": [0, 0, 0, 0, 0, 0, 0, 0, 0, 0, 0, 0, 0], "stateRewards": ["", 4, -4, 48, -48, -4, -4, 48, -48, 4, 4, -48, -24], "withholdReward": true, "trial_id": "mdp_490058671112", "block": "test1", "trialIndex": 5, "score": 44, "costs": -1, "simulationMode": [null, null, null], "rewards": [-4, -4, 48], "path": ["0", "0", "5", "6", "7"], "rt": [4234, 147, 262], "actions": ["right", "right", "up"], "actionTimes": [5842, 6495, 7260], "queries": {"click": {"state": {"target": ["8", "7", "5", "6"], "time": [2381, 2874, 4286, 4616]}, "edge": {"target": [], "time": []}}, "mouseover": {"state": {"target": ["8", "6", "7", "6", "5", "5", "5", "6"], "time": [2221, 2571, 2737, 3469, 3551, 3785, 4184, 4483]}, "edge": {"target": [], "time": []}}, "mouseout": {"state": {"target": ["0", "8", "6", "7", "6", "5", "5", "5", "6", "6", "5"], "time": [1905, 2536, 2653, 3103, 3518, 3718, 3951, 4434, 4800, 8194, 8211]}, "edge": {"target": [], "time": []}}}, "displayed_time": "10.61", "trialTime": 12242, "trial_type": "mouselab-mdp", "trial_index": 12, "time_elapsed": 327689, "internal_node_id": "0.0-4.0-1.0-3.0"}}, {"uniqueid": "w67473409:a11392863", "current_trial": 13, "dateTime": 1664368154555, "trialdata": {"revealed_states": [], "num_clicks_accrued": [0, 0, 0, 0, 0, 0, 0, 0, 0, 0, 0, 0, 0], "stateRewards": ["", 2, 8, -48, 24, -4, 8, 48, -24, 2, 8, 24, 24], "withholdReward": true, "trial_id": "mdp_175372499314", "block": "test1", "trialIndex": 6, "score": 55, "costs": -2, "simulationMode": [null, null, null], "rewards": [-4, 8, 48], "path": ["0", "0", "5", "6", "7"], "rt": [6919, 119, 123], "actions": ["right", "right", "up"], "actionTimes": [8328, 8950, 9585], "queries": {"click": {"state": {"target": ["12", "11", "4", "3", "7", "8", "5", "6"], "time": [4120, 4559, 5040, 5627, 6188, 6642, 7141, 7443]}, "edge": {"target": [], "time": []}}, "mouseover": {"state": {"target": ["0", "9", "0", "0", "12", "10", "11", "4", "2", "3", "7", "6", "8", "5", "6"], "time": [1974, 2574, 2673, 3305, 3904, 4254, 4337, 4986, 5269, 5502, 5835, 6350, 6467, 7016, 7299]}, "edge": {"target": [], "time": []}}, "mouseout": {"state": {"target": ["0", "0", "9", "0", "0", "12", "10", "11", "4", "2", "3", "7", "6", "8", "5", "6"], "time": [1775, 2324, 2624, 3040, 3805, 4237, 4289, 4770, 5219, 5369, 5785, 6317, 6400, 6900, 7266, 7565]}, "edge": {"target": [], "time": []}}}, "displayed_time": "10.41", "trialTime": 11572, "trial_type": "mouselab-mdp", "trial_index": 13, "time_elapsed": 339297, "internal_node_id": "0.0-4.0-1.0-4.0"}}, {"uniqueid": "w67473409:a11392863", "current_trial": 14, "dateTime": 1664368168522, "trialdata": {"revealed_states": [], "num_clicks_accrued": [0, 0, 0, 0, 0, 0, 0, 0, 0, 0, 0, 0, 0], "stateRewards": ["", -4, -8, -24, 24, 4, 4, -48, -48, -4, -4, 24, -48], "withholdReward": true, "trial_id": "mdp_431592223624", "block": "test1", "trialIndex": 7, "score": 18.75, "costs": -2.25, "simulationMode": [null, null, null], "rewards": [-4, -4, 24], "path": ["0", "0", "9", "10", "11"], "rt": [9605, 90, 226], "actions": ["left", "left", "up"], "actionTimes": [11230, 11826, 12562], "queries": {"click": {"state": {"target": ["9", "10", "12", "11", "4", "3", "7", "8", "2"], "time": [3015, 3392, 3724, 4082, 4616, 5129, 5628, 6026, 9831]}, "edge": {"target": [], "time": []}}, "mouseover": {"state": {"target": ["0", "0", "9", "0", "9", "10", "12", "11", "4", "2", "3", "7", "6", "8", "6", "5", "1", "1", "1", "2"], "time": [1820, 2234, 2317, 2567, 2867, 3250, 3616, 3948, 4431, 4847, 5030, 5463, 5796, 5979, 6694, 6727, 7227, 8142, 9473, 9706]}, "edge": {"target": [], "time": []}}, "mouseout": {"state": {"target": ["6", "9", "0", "0", "9", "0", "9", "10", "12", "10", "11", "4", "2", "3", "7", "6", "8", "6", "5", "1", "1", "7", "1", "2"], "time": [786, 1186, 1952, 2284, 2534, 2834, 3166, 3532, 3815, 3898, 4281, 4781, 4964, 5313, 5764, 5862, 6228, 6711, 6760, 7742, 8258, 9108, 9639, 10006]}, "edge": {"target": [], "time": []}}}, "displayed_time": "13.07", "trialTime": 13936, "trial_type": "mouselab-mdp", "trial_index": 14, "time_elapsed": 353264, "internal_node_id": "0.0-4.0-1.0-5.0"}}, {"uniqueid": "w67473409:a11392863", "current_trial": 15, "dateTime": 1664368180097, "trialdata": {"revealed_states": [], "num_clicks_accrued": [0, 0, 0, 0, 0, 0, 0, 0, 0, 0, 0, 0, 0], "stateRewards": ["", -2, -8, 48, 24, 4, -8, 24, 48, 4, -4, 24, -48], "withholdReward": false, "trial_id": "mdp_871576155740", "block": "test1", "trialIndex": 8, "score": 48, "costs": -1, "simulationMode": [null, null, null], "rewards": [4, -8, 48], "path": ["0", "0", "5", "6", "8"], "rt": [3499, 58, 43], "actions": ["right", "right", "down"], "actionTimes": [4761, 5330, 5880], "queries": {"click": {"state": {"target": ["8", "7", "5", "6"], "time": [1927, 2375, 3393, 3670]}, "edge": {"target": [], "time": []}}, "mouseover": {"state": {"target": ["5", "6", "8", "6", "7", "6", "5", "6"], "time": [1493, 1610, 1843, 2076, 2243, 3075, 3157, 3523]}, "edge": {"target": [], "time": []}}, "mouseout": {"state": {"target": ["5", "0", "5", "6", "8", "6", "7", "6", "5", "6", "8"], "time": [911, 1478, 1510, 1693, 2044, 2160, 2558, 3124, 3507, 3806, 10645]}, "edge": {"target": [], "time": []}}}, "displayed_time": "10.26", "trialTime": 11541, "trial_type": "mouselab-mdp", "trial_index": 15, "time_elapsed": 364839, "internal_node_id": "0.0-4.0-1.0-6.0"}}, {"uniqueid": "w67473409:a11392863", "current_trial": 16, "dateTime": 1664368191857, "trialdata": {"revealed_states": [], "num_clicks_accrued": [0, 0, 0, 0, 0, 0, 0, 0, 0, 0, 0, 0, 0], "stateRewards": ["", -4, -4, 48, 24, -4, -4, -24, -48, -4, 4, 48, -24], "withholdReward": true, "trial_id": "mdp_896503755738", "block": "test1", "trialIndex": 9, "score": 50.5, "costs": -2.5, "simulationMode": [null, null, null], "rewards": [-4, 4, 48], "path": ["0", "0", "9", "10", "11"], "rt": [7198, 462, 143], "actions": ["left", "left", "up"], "actionTimes": [8279, 9245, 9891], "queries": {"click": {"state": {"target": ["12", "11", "4", "10", "9", "3", "7", "2", "1", "8"], "time": [1556, 2126, 2559, 3145, 3563, 4362, 5003, 5392, 5725, 6405]}, "edge": {"target": [], "time": []}}, "mouseover": {"state": {"target": ["12", "11", "4", "10", "9", "0", "3", "7", "1", "2", "1", "5", "8"], "time": [1495, 1994, 2427, 3059, 3343, 3825, 4307, 4673, 5222, 5323, 5622, 6137, 6270]}, "edge": {"target": [], "time": []}}, "mouseout": {"state": {"target": ["0", "12", "11", "4", "10", "9", "0", "3", "7", "1", "2", "1", "5", "8", "9", "0"], "time": [1212, 1844, 2260, 2759, 3275, 3708, 4024, 4473, 5106, 5239, 5522, 5854, 6154, 6570, 7319, 10780]}, "edge": {"target": [], "time": []}}}, "displayed_time": "10.40", "trialTime": 11721, "trial_type": "mouselab-mdp", "trial_index": 16, "time_elapsed": 376599, "internal_node_id": "0.0-4.0-1.0-7.0"}}, {"uniqueid": "w67473409:a11392863", "current_trial": 17, "dateTime": 1664368202472, "trialdata": {"revealed_states": [], "num_clicks_accrued": [0, 0, 0, 0, 0, 0, 0, 0, 0, 0, 0, 0, 0], "stateRewards": ["", 2, -4, 24, 24, 4, -4, -24, 24, -4, -4, 48, 48], "withholdReward": true, "trial_id": "mdp_566306223773", "block": "test1", "trialIndex": 10, "score": 43, "costs": -2, "simulationMode": [null, null, null], "rewards": [-4, -4, 48], "path": ["0", "0", "9", "10", "12"], "rt": [6868, 41, 32], "actions": ["left", "left", "down"], "actionTimes": [8192, 8745, 9303], "queries": {"click": {"state": {"target": ["11", "10", "9", "7", "8", "4", "3", "12"], "time": [1879, 2674, 2907, 3767, 4300, 4937, 5377, 6067]}, "edge": {"target": [], "time": []}}, "mouseover": {"state": {"target": ["9", "11", "4", "10", "9", "6", "7", "8", "5", "1", "2", "4", "1", "3", "0", "12"], "time": [1616, 1799, 2132, 2464, 2831, 3530, 3662, 4178, 4494, 4561, 4628, 4745, 5177, 5310, 5592, 6009]}, "edge": {"target": [], "time": []}}, "mouseout": {"state": {"target": ["0", "9", "11", "4", "10", "9", "6", "7", "8", "5", "1", "2", "4", "1", "3", "0", "12"], "time": [1566, 1666, 2015, 2381, 2764, 3047, 3612, 3946, 4411, 4511, 4594, 4694, 5077, 5227, 5459, 5609, 6208]}, "edge": {"target": [], "time": []}}}, "displayed_time": "10.33", "trialTime": 10575, "trial_type": "mouselab-mdp", "trial_index": 17, "time_elapsed": 387214, "internal_node_id": "0.0-4.0-1.0-8.0"}}, {"uniqueid": "w67473409:a11392863", "current_trial": 18, "dateTime": 1664368212732, "trialdata": {"revealed_states": [], "num_clicks_accrued": [0, 0, 0, 0, 0, 0, 0, 0, 0, 0, 0, 0, 0], "stateRewards": ["", 2, -4, 48, -24, 4, -8, -24, 48, -2, -4, 24, -48], "withholdReward": false, "trial_id": "mdp_357328205509", "block": "test1", "trialIndex": 11, "score": 48.25, "costs": -0.75, "simulationMode": [null, null, null], "rewards": [4, -8, 48], "path": ["0", "0", "5", "6", "8"], "rt": [3041, 50, 351], "actions": ["right", "right", "down"], "actionTimes": [4206, 4767, 5633], "queries": {"click": {"state": {"target": ["8", "5", "6"], "time": [2161, 3151, 3410]}, "edge": {"target": [], "time": []}}, "mouseover": {"state": {"target": ["8", "8", "6", "5", "6"], "time": [1638, 2038, 2736, 3019, 3318]}, "edge": {"target": [], "time": []}}, "mouseout": {"state": {"target": ["0", "8", "8", "6", "5", "6", "6", "5", "9", "12"], "time": [1355, 1754, 2320, 2786, 3252, 3501, 6330, 6363, 6463, 6563]}, "edge": {"target": [], "time": []}}}, "displayed_time": "9.16", "trialTime": 10225, "trial_type": "mouselab-mdp", "trial_index": 18, "time_elapsed": 397474, "internal_node_id": "0.0-4.0-1.0-9.0"}}, {"uniqueid": "w67473409:a11392863", "current_trial": 19, "dateTime": 1664368224182, "trialdata": {"revealed_states": [], "num_clicks_accrued": [0, 0, 0, 0, 0, 0, 0, 0, 0, 0, 0, 0, 0], "stateRewards": ["", -4, -8, -24, 24, 2, 8, 24, 48, 2, 4, 24, -48], "withholdReward": false, "trial_id": "mdp_122352383932", "block": "test1", "trialIndex": 12, "score": 61.75, "costs": -1.25, "simulationMode": [null, null, null], "rewards": [2, 8, 48], "path": ["0", "0", "5", "6", "8"], "rt": [4000, 60, 23], "actions": ["right", "right", "down"], "actionTimes": [5305, 5872, 6402], "queries": {"click": {"state": {"target": ["12", "11", "4", "3", "8"], "time": [1934, 2467, 2908, 3282, 3816]}, "edge": {"target": [], "time": []}}, "mouseover": {"state": {"target": ["12", "9", "11", "4", "2", "3", "6", "8", "6", "7", "7", "6"], "time": [1869, 2251, 2402, 2834, 3050, 3183, 3532, 3750, 3932, 4015, 4281, 4548]}, "edge": {"target": [], "time": []}}, "mouseout": {"state": {"target": ["0", "12", "9", "11", "4", "2", "3", "6", "8", "6", "7", "7", "6", "6"], "time": [1636, 2035, 2301, 2601, 3033, 3066, 3399, 3666, 3916, 3965, 4115, 4298, 4697, 8608]}, "edge": {"target": [], "time": []}}}, "displayed_time": "10.31", "trialTime": 11405, "trial_type": "mouselab-mdp", "trial_index": 19, "time_elapsed": 408924, "internal_node_id": "0.0-4.0-1.0-10.0"}}, {"uniqueid": "w67473409:a11392863", "current_trial": 20, "dateTime": 1664368234381, "trialdata": {"revealed_states": [], "num_clicks_accrued": [0, 0, 0, 0, 0, 0, 0, 0, 0, 0, 0, 0, 0], "stateRewards": ["", -4, -4, 24, 48, 4, -4, -24, 24, -4, -4, 24, 24], "withholdReward": true, "trial_id": "mdp_357725458160", "block": "test1", "trialIndex": 13, "score": 44.25, "costs": -0.75, "simulationMode": [null, null, null], "rewards": [-4, -4, 48], "path": ["0", "0", "1", "2", "4"], "rt": [3380, 664, 56], "actions": ["up", "up", "left"], "actionTimes": [4282, 5460, 6033], "queries": {"click": {"state": {"target": ["12", "11", "4"], "time": [1589, 2002, 2372]}, "edge": {"target": [], "time": []}}, "mouseover": {"state": {"target": ["12", "12", "10", "11", "4", "2", "3", "1"], "time": [1101, 1384, 1733, 1816, 2216, 2482, 2615, 3014]}, "edge": {"target": [], "time": []}}, "mouseout": {"state": {"target": ["0", "12", "12", "10", "11", "4", "2", "3", "1", "5"], "time": [1034, 1118, 1716, 1783, 2116, 2465, 2515, 2832, 8289, 8456]}, "edge": {"target": [], "time": []}}}, "displayed_time": "8.90", "trialTime": 10171, "trial_type": "mouselab-mdp", "trial_index": 20, "time_elapsed": 419123, "internal_node_id": "0.0-4.0-1.0-11.0"}}, {"uniqueid": "w67473409:a11392863", "current_trial": 21, "dateTime": 1664368245707, "trialdata": {"revealed_states": [], "num_clicks_accrued": [0, 0, 0, 0, 0, 0, 0, 0, 0, 0, 0, 0, 0], "stateRewards": ["", 4, -4, 48, -48, 4, -4, 24, -24, 4, 8, -24, -48], "withholdReward": true, "trial_id": "mdp_433630527224", "block": "test1", "trialIndex": 14, "score": 52.25, "costs": -0.75, "simulationMode": [null, null, null], "rewards": [4, -4, 48], "path": ["0", "0", "1", "2", "3"], "rt": [2676, 58, 41], "actions": ["up", "up", "right"], "actionTimes": [4187, 4760, 5309], "queries": {"click": {"state": {"target": ["7", "3", "4"], "time": [2272, 2660, 3094]}, "edge": {"target": [], "time": []}}, "mouseover": {"state": {"target": ["5", "7", "3", "2", "4"], "time": [1789, 2072, 2555, 2821, 2971]}, "edge": {"target": [], "time": []}}, "mouseout": {"state": {"target": ["0", "5", "7", "3", "2", "4", "8", "5", "5"], "time": [1722, 1905, 2390, 2771, 2904, 3287, 7846, 8928, 9360]}, "edge": {"target": [], "time": []}}}, "displayed_time": "10.51", "trialTime": 11286, "trial_type": "mouselab-mdp", "trial_index": 21, "time_elapsed": 430449, "internal_node_id": "0.0-4.0-1.0-12.0"}}, {"uniqueid": "w67473409:a11392863", "current_trial": 22, "dateTime": 1664368257546, "trialdata": {"revealed_states": [], "num_clicks_accrued": [0, 0, 0, 0, 0, 0, 0, 0, 0, 0, 0, 0, 0], "stateRewards": ["", 4, -8, 48, -24, -4, 4, 24, 24, -2, -4, 24, 24], "withholdReward": true, "trial_id": "mdp_542168715839", "block": "test1", "trialIndex": 15, "score": 47.75, "costs": -1.25, "simulationMode": [null, null, null], "rewards": [4, -8, 48], "path": ["0", "0", "1", "2", "3"], "rt": [4556, 19, 61], "actions": ["up", "up", "right"], "actionTimes": [5597, 6123, 6698], "queries": {"click": {"state": {"target": ["7", "8", "11", "4", "3"], "time": [1718, 2099, 3637, 3985, 4452]}, "edge": {"target": [], "time": []}}, "mouseover": {"state": {"target": ["6", "7", "6", "8", "9", "11", "11", "11", "4", "1", "3", "9", "0", "5"], "time": [1462, 1645, 1878, 2028, 2394, 2760, 2960, 3326, 3891, 4174, 4391, 4740, 4890, 4957]}, "edge": {"target": [], "time": []}}, "mouseout": {"state": {"target": ["0", "6", "7", "6", "8", "9", "11", "11", "11", "4", "1", "3", "9", "0", "5", "5", "1", "0"], "time": [1163, 1562, 1845, 1945, 2227, 2460, 2793, 3193, 3775, 4124, 4258, 4557, 4775, 4907, 4973, 9848, 10581, 11013]}, "edge": {"target": [], "time": []}}}, "displayed_time": "10.04", "trialTime": 11799, "trial_type": "mouselab-mdp", "trial_index": 22, "time_elapsed": 442288, "internal_node_id": "0.0-4.0-1.0-13.0"}}, {"uniqueid": "w67473409:a11392863", "current_trial": 23, "dateTime": 1664368267152, "trialdata": {"revealed_states": [], "num_clicks_accrued": [0, 0, 0, 0, 0, 0, 0, 0, 0, 0, 0, 0, 0], "stateRewards": ["", -4, -8, 48, -24, 4, -8, 48, 48, -2, 4, -48, -24], "withholdReward": true, "trial_id": "mdp_925905402462", "block": "test1", "trialIndex": 16, "score": 48.5, "costs": -0.5, "simulationMode": [null, null, null], "rewards": [4, -8, 48], "path": ["0", "0", "5", "6", "7"], "rt": [2204, 96, 27], "actions": ["right", "right", "up"], "actionTimes": [3182, 3782, 4313], "queries": {"click": {"state": {"target": ["8", "7"], "time": [2005, 2389]}, "edge": {"target": [], "time": []}}, "mouseover": {"state": {"target": ["5", "8", "8", "6", "7"], "time": [1257, 1606, 1839, 2189, 2322]}, "edge": {"target": [], "time": []}}, "mouseout": {"state": {"target": ["0", "5", "8", "8", "6", "7", "7", "5", "5"], "time": [791, 1290, 1673, 2139, 2238, 2571, 5234, 7913, 8795]}, "edge": {"target": [], "time": []}}}, "displayed_time": "8.98", "trialTime": 9569, "trial_type": "mouselab-mdp", "trial_index": 23, "time_elapsed": 451894, "internal_node_id": "0.0-4.0-1.0-14.0"}}, {"uniqueid": "w67473409:a11392863", "current_trial": 24, "dateTime": 1664368277733, "trialdata": {"revealed_states": [], "num_clicks_accrued": [0, 0, 0, 0, 0, 0, 0, 0, 0, 0, 0, 0, 0], "stateRewards": ["", 4, 4, 24, 24, 4, -4, 48, 48, 4, 4, 24, -48], "withholdReward": true, "trial_id": "mdp_454251689008", "block": "test1", "trialIndex": 17, "score": 52.75, "costs": -0.25, "simulationMode": [null, null, null], "rewards": [4, -4, 48], "path": ["0", "0", "5", "6", "7"], "rt": [2151, 55, 916], "actions": ["right", "right", "up"], "actionTimes": [3207, 3769, 5212], "queries": {"click": {"state": {"target": ["7"], "time": [2070]}, "edge": {"target": [], "time": []}}, "mouseover": {"state": {"target": ["5", "7", "7", "3"], "time": [1283, 1552, 1916, 2315]}, "edge": {"target": [], "time": []}}, "mouseout": {"state": {"target": ["0", "5", "7", "7", "3", "5", "8", "6", "6", "8", "6", "7", "6"], "time": [1251, 1333, 1750, 2215, 2582, 6209, 7276, 8522, 8555, 8655, 8705, 8772, 8821]}, "edge": {"target": [], "time": []}}}, "displayed_time": "9.06", "trialTime": 10542, "trial_type": "mouselab-mdp", "trial_index": 24, "time_elapsed": 462475, "internal_node_id": "0.0-4.0-1.0-15.0"}}, {"uniqueid": "w67473409:a11392863", "current_trial": 25, "dateTime": 1664368289198, "trialdata": {"revealed_states": [], "num_clicks_accrued": [0, 0, 0, 0, 0, 0, 0, 0, 0, 0, 0, 0, 0], "stateRewards": ["", 4, -8, 24, 48, 2, -4, 48, 48, 4, -8, 48, 48], "withholdReward": true, "trial_id": "mdp_962498334245", "block": "test1", "trialIndex": 18, "score": 50.75, "costs": -0.25, "simulationMode": [null, null, null], "rewards": [2, -4, 48], "path": ["0", "0", "5", "6", "7"], "rt": [1821, 74, 75], "actions": ["right", "right", "up"], "actionTimes": [2838, 3423, 4006], "queries": {"click": {"state": {"target": ["7"], "time": [1860]}, "edge": {"target": [], "time": []}}, "mouseover": {"state": {"target": ["5", "7", "7", "7", "6", "8"], "time": [1135, 1285, 1568, 1767, 2033, 2150]}, "edge": {"target": [], "time": []}}, "mouseout": {"state": {"target": ["6", "5", "0", "5", "7", "7", "7", "6", "8", "8", "5", "5", "0"], "time": [618, 669, 1085, 1168, 1351, 1601, 1983, 2083, 2284, 5145, 8173, 10487, 10603]}, "edge": {"target": [], "time": []}}}, "displayed_time": "10.02", "trialTime": 11425, "trial_type": "mouselab-mdp", "trial_index": 25, "time_elapsed": 473940, "internal_node_id": "0.0-4.0-1.0-16.0"}}, {"uniqueid": "w67473409:a11392863", "current_trial": 26, "dateTime": 1664368300581, "trialdata": {"revealed_states": [], "num_clicks_accrued": [0, 0, 0, 0, 0, 0, 0, 0, 0, 0, 0, 0, 0], "stateRewards": ["", -4, -8, 48, 48, -4, 4, 48, -24, 4, 8, -24, -48], "withholdReward": false, "trial_id": "mdp_142906093415", "block": "test1", "trialIndex": 19, "score": 52.75, "costs": -0.25, "simulationMode": [null, null, null], "rewards": [-4, 4, 48], "path": ["0", "0", "5", "6", "7"], "rt": [1395, 27, 189], "actions": ["right", "right", "up"], "actionTimes": [2437, 2973, 3667], "queries": {"click": {"state": {"target": ["7"], "time": [1495]}, "edge": {"target": [], "time": []}}, "mouseover": {"state": {"target": ["5", "6", "7", "6"], "time": [1198, 1265, 1431, 1831]}, "edge": {"target": [], "time": []}}, "mouseout": {"state": {"target": ["0", "5", "6", "7", "6", "8"], "time": [1166, 1231, 1314, 1698, 1931, 4959]}, "edge": {"target": [], "time": []}}}, "displayed_time": "10.04", "trialTime": 11340, "trial_type": "mouselab-mdp", "trial_index": 26, "time_elapsed": 485323, "internal_node_id": "0.0-4.0-1.0-17.0"}}, {"uniqueid": "w67473409:a11392863", "current_trial": 27, "dateTime": 1664368310884, "trialdata": {"revealed_states": [], "num_clicks_accrued": [0, 0, 0, 0, 0, 0, 0, 0, 0, 0, 0, 0, 0], "stateRewards": ["", -4, -4, -24, 48, 2, 4, -24, -48, -2, 4, 24, 24], "withholdReward": true, "trial_id": "mdp_360934723192", "block": "test1", "trialIndex": 20, "score": 43.75, "costs": -1.25, "simulationMode": [null, null, null], "rewards": [-4, -4, 48], "path": ["0", "0", "1", "2", "4"], "rt": [4239, 405, 35], "actions": ["up", "up", "left"], "actionTimes": [5334, 6245, 6790], "queries": {"click": {"state": {"target": ["7", "8", "12", "11", "4"], "time": [1647, 2314, 3248, 3725, 4174]}, "edge": {"target": [], "time": []}}, "mouseover": {"state": {"target": ["5", "6", "7", "6", "8", "12", "9", "11", "4", "3"], "time": [1347, 1430, 1547, 2145, 2229, 3178, 3543, 3643, 4109, 4675]}, "edge": {"target": [], "time": []}}, "mouseout": {"state": {"target": ["0", "5", "6", "7", "6", "8", "12", "9", "11", "4", "3", "5"], "time": [748, 1397, 1464, 1863, 2162, 2495, 3444, 3560, 3993, 4309, 4691, 8003]}, "edge": {"target": [], "time": []}}}, "displayed_time": "9.10", "trialTime": 10259, "trial_type": "mouselab-mdp", "trial_index": 27, "time_elapsed": 495625, "internal_node_id": "0.0-4.0-1.0-18.0"}}, {"uniqueid": "w67473409:a11392863", "current_trial": 28, "dateTime": 1664368320542, "trialdata": {"revealed_states": [], "num_clicks_accrued": [0, 0, 0, 0, 0, 0, 0, 0, 0, 0, 0, 0, 0], "stateRewards": ["", -2, 8, 48, -24, 2, 4, -48, -24, -4, 8, -48, -48], "withholdReward": true, "trial_id": "mdp_539167561933", "block": "test1", "trialIndex": 21, "score": 57.75, "costs": -1.25, "simulationMode": [null, null, null], "rewards": [-2, 8, 48], "path": ["0", "0", "1", "2", "3"], "rt": [4432, 278, 69], "actions": ["up", "up", "right"], "actionTimes": [5532, 6320, 6894], "queries": {"click": {"state": {"target": ["4", "7", "8", "11", "3"], "time": [2096, 2614, 3226, 3877, 4424]}, "edge": {"target": [], "time": []}}, "mouseover": {"state": {"target": ["4", "1", "7", "6", "8", "9", "11", "9", "1", "3", "5", "0", "9"], "time": [1566, 2281, 2564, 2830, 3129, 3630, 3812, 4061, 4211, 4328, 4660, 4710, 4927]}, "edge": {"target": [], "time": []}}, "mouseout": {"state": {"target": ["0", "0", "4", "1", "7", "6", "8", "9", "11", "9", "1", "3", "5", "0", "9"], "time": [666, 1233, 2248, 2347, 2730, 3046, 3379, 3645, 4011, 4161, 4244, 4560, 4694, 4744, 4960]}, "edge": {"target": [], "time": []}}}, "displayed_time": "9.10", "trialTime": 9620, "trial_type": "mouselab-mdp", "trial_index": 28, "time_elapsed": 505284, "internal_node_id": "0.0-4.0-1.0-19.0"}}, {"uniqueid": "w67473409:a11392863", "current_trial": 29, "dateTime": 1664368330881, "trialdata": {"revealed_states": [], "num_clicks_accrued": [0, 0, 0, 0, 0, 0, 0, 0, 0, 0, 0, 0, 0], "stateRewards": ["", 4, -8, 48, 48, 2, 4, 48, -48, 4, -4, -48, 48], "withholdReward": true, "trial_id": "mdp_519605841135", "block": "test1", "trialIndex": 22, "score": 48.5, "costs": -0.5, "simulationMode": [null, null, null], "rewards": [4, -8, 48], "path": ["0", "0", "1", "2", "4"], "rt": [2383, 76, 85], "actions": ["up", "up", "left"], "actionTimes": [3330, 3916, 4507], "queries": {"click": {"state": {"target": ["11", "4"], "time": [1520, 2176]}, "edge": {"target": [], "time": []}}, "mouseover": {"state": {"target": ["0", "9", "11", "4", "1"], "time": [1161, 1193, 1310, 2092, 2375]}, "edge": {"target": [], "time": []}}, "mouseout": {"state": {"target": ["0", "0", "9", "11", "4", "1", "6", "5", "0"], "time": [1110, 1177, 1227, 1676, 2308, 2525, 6319, 6352, 6419]}, "edge": {"target": [], "time": []}}}, "displayed_time": "9.95", "trialTime": 10301, "trial_type": "mouselab-mdp", "trial_index": 29, "time_elapsed": 515622, "internal_node_id": "0.0-4.0-1.0-20.0"}}, {"uniqueid": "w67473409:a11392863", "current_trial": 30, "dateTime": 1664368343025, "trialdata": {"revealed_states": [], "num_clicks_accrued": [0, 0, 0, 0, 0, 0, 0, 0, 0, 0, 0, 0, 0], "stateRewards": ["", 2, -8, -24, -48, -2, -4, 48, 48, 4, 8, 48, 48], "withholdReward": false, "trial_id": "mdp_347285045422", "block": "test1", "trialIndex": 23, "score": 46.5, "costs": -0.5, "simulationMode": [null, null, null], "rewards": [-2, -4, 48], "path": ["0", "0", "5", "6", "7"], "rt": [2301, 115, 51], "actions": ["right", "right", "up"], "actionTimes": [3634, 4262, 4832], "queries": {"click": {"state": {"target": ["3", "7"], "time": [1994, 2589]}, "edge": {"target": [], "time": []}}, "mouseover": {"state": {"target": ["5", "3", "7", "7", "6"], "time": [1617, 1950, 2349, 2465, 2815]}, "edge": {"target": [], "time": []}}, "mouseout": {"state": {"target": ["0", "5", "3", "7", "7", "6", "8"], "time": [1600, 1633, 2199, 2365, 2732, 2881, 5976]}, "edge": {"target": [], "time": []}}}, "displayed_time": "10.33", "trialTime": 12103, "trial_type": "mouselab-mdp", "trial_index": 30, "time_elapsed": 527767, "internal_node_id": "0.0-4.0-1.0-21.0"}}, {"uniqueid": "w67473409:a11392863", "current_trial": 31, "dateTime": 1664368354955, "trialdata": {"revealed_states": [], "num_clicks_accrued": [0, 0, 0, 0, 0, 0, 0, 0, 0, 0, 0, 0, 0], "stateRewards": ["", 4, 4, 48, -48, -2, 4, 48, -48, -4, 4, -24, -24], "withholdReward": false, "trial_id": "mdp_753324812898", "block": "test1", "trialIndex": 24, "score": 60, "costs": -1, "simulationMode": [null, null, null], "rewards": [4, 4, 48], "path": ["0", "0", "1", "2", "3"], "rt": [3003, 27, 82], "actions": ["up", "up", "right"], "actionTimes": [4134, 4674, 5262], "queries": {"click": {"state": {"target": ["11", "12", "4", "3"], "time": [1571, 2086, 2590, 3085]}, "edge": {"target": [], "time": []}}, "mouseover": {"state": {"target": ["9", "11", "10", "12", "9", "4", "3", "7"], "time": [1302, 1451, 1784, 1967, 2300, 2483, 3016, 3365]}, "edge": {"target": [], "time": []}}, "mouseout": {"state": {"target": ["5", "0", "9", "11", "10", "12", "9", "4", "3", "7"], "time": [869, 1285, 1335, 1734, 1834, 2200, 2317, 2716, 3215, 3531]}, "edge": {"target": [], "time": []}}}, "displayed_time": "9.13", "trialTime": 11887, "trial_type": "mouselab-mdp", "trial_index": 31, "time_elapsed": 539697, "internal_node_id": "0.0-4.0-1.0-22.0"}}, {"uniqueid": "w67473409:a11392863", "current_trial": 32, "dateTime": 1664368366418, "trialdata": {"revealed_states": [], "num_clicks_accrued": [0, 0, 0, 0, 0, 0, 0, 0, 0, 0, 0, 0, 0], "stateRewards": ["", -2, -4, -24, -48, -2, 8, -48, 24, 4, -4, -24, -24], "withholdReward": false, "trial_id": "mdp_915304165774", "block": "test1", "trialIndex": 25, "score": 33.5, "costs": -1.5, "simulationMode": [null, null, null], "rewards": [-2, 8, 24], "path": ["0", "0", "5", "6", "8"], "rt": [5900, 79, 6], "actions": ["right", "right", "down"], "actionTimes": [7144, 7734, 8243], "queries": {"click": {"state": {"target": ["3", "7", "8", "12", "11", "4"], "time": [2013, 2446, 3255, 4032, 4442, 4814]}, "edge": {"target": [], "time": []}}, "mouseover": {"state": {"target": ["0", "3", "7", "8", "12", "11", "4", "1", "5", "6"], "time": [1597, 1930, 2329, 3095, 3962, 4359, 4759, 5075, 5724, 6024]}, "edge": {"target": [], "time": []}}, "mouseout": {"state": {"target": ["0", "0", "3", "7", "8", "12", "11", "4", "1", "5", "6", "6"], "time": [1531, 1614, 2213, 2612, 3444, 4193, 4626, 4926, 5608, 5857, 6673, 9751]}, "edge": {"target": [], "time": []}}}, "displayed_time": "10.24", "trialTime": 11415, "trial_type": "mouselab-mdp", "trial_index": 32, "time_elapsed": 551160, "internal_node_id": "0.0-4.0-1.0-23.0"}}, {"uniqueid": "w67473409:a11392863", "current_trial": 33, "dateTime": 1664368377673, "trialdata": {"revealed_states": [], "num_clicks_accrued": [0, 0, 0, 0, 0, 0, 0, 0, 0, 0, 0, 0, 0], "stateRewards": ["", -2, 8, 48, 24, 2, -8, -24, -48, -4, 8, -48, 24], "withholdReward": true, "trial_id": "mdp_224053025943", "block": "test1", "trialIndex": 26, "score": 57.5, "costs": -1.5, "simulationMode": [null, null, null], "rewards": [-2, 8, 48], "path": ["0", "0", "1", "2", "3"], "rt": [3866, 28, 93], "actions": ["up", "up", "right"], "actionTimes": [4879, 5412, 6008], "queries": {"click": {"state": {"target": ["7", "8", "12", "11", "4", "3"], "time": [1544, 1969, 2663, 3054, 3594, 3912]}, "edge": {"target": [], "time": []}}, "mouseover": {"state": {"target": ["5", "7", "6", "8", "12", "10", "11", "4", "2", "3"], "time": [1273, 1474, 1806, 1889, 2571, 2871, 2971, 3570, 3769, 3852]}, "edge": {"target": [], "time": []}}, "mouseout": {"state": {"target": ["0", "5", "7", "6", "8", "12", "10", "11", "4", "2", "3"], "time": [874, 1307, 1739, 1856, 2238, 2838, 2937, 3393, 3736, 3819, 4052]}, "edge": {"target": [], "time": []}}}, "displayed_time": "10.01", "trialTime": 11214, "trial_type": "mouselab-mdp", "trial_index": 33, "time_elapsed": 562415, "internal_node_id": "0.0-4.0-1.0-24.0"}}, {"uniqueid": "w67473409:a11392863", "current_trial": 34, "dateTime": 1664368389442, "trialdata": {"revealed_states": [], "num_clicks_accrued": [0, 0, 0, 0, 0, 0, 0, 0, 0, 0, 0, 0, 0], "stateRewards": ["", -4, -4, -24, 24, -4, 4, -24, 48, -2, 4, 48, -48], "withholdReward": true, "trial_id": "mdp_774757609669", "block": "test1", "trialIndex": 27, "score": 52.5, "costs": -0.5, "simulationMode": [null, null, null], "rewards": [-4, 4, 48], "path": ["0", "0", "5", "6", "8"], "rt": [2094, 73, 59], "actions": ["right", "right", "down"], "actionTimes": [3148, 3726, 4294], "queries": {"click": {"state": {"target": ["7", "8"], "time": [1516, 1893]}, "edge": {"target": [], "time": []}}, "mouseover": {"state": {"target": ["5", "6", "7", "6", "8", "6", "3"], "time": [1289, 1355, 1488, 1705, 1805, 2088, 2322]}, "edge": {"target": [], "time": []}}, "mouseout": {"state": {"target": ["0", "5", "6", "7", "6", "8", "6", "3", "7", "5"], "time": [1256, 1322, 1389, 1655, 1772, 2071, 2121, 2620, 10774, 11023]}, "edge": {"target": [], "time": []}}}, "displayed_time": "9.05", "trialTime": 11716, "trial_type": "mouselab-mdp", "trial_index": 34, "time_elapsed": 574184, "internal_node_id": "0.0-4.0-1.0-25.0"}}, {"uniqueid": "w67473409:a11392863", "current_trial": 35, "dateTime": 1664368401264, "trialdata": {"revealed_states": [], "num_clicks_accrued": [0, 0, 0, 0, 0, 0, 0, 0, 0, 0, 0, 0, 0], "stateRewards": ["", 4, -4, 48, 24, 2, 4, 24, -24, 2, 4, 24, 48], "withholdReward": true, "trial_id": "mdp_736351885282", "block": "test1", "trialIndex": 28, "score": 58.25, "costs": -0.75, "simulationMode": [null, null, null], "rewards": [2, 4, 48], "path": ["0", "0", "9", "10", "12"], "rt": [3923, 46, 103], "actions": ["left", "left", "down"], "actionTimes": [5996, 6551, 7173], "queries": {"click": {"state": {"target": ["7", "8", "12"], "time": [2860, 3824, 4745]}, "edge": {"target": [], "time": []}}, "mouseover": {"state": {"target": ["5", "7", "7", "6", "8", "8", "12", "10", "11"], "time": [2194, 2361, 2645, 3109, 3209, 3442, 4533, 4957, 5073]}, "edge": {"target": [], "time": []}}, "mouseout": {"state": {"target": ["10", "9", "9", "0", "5", "7", "7", "6", "8", "8", "12", "10", "11"], "time": [879, 1096, 1595, 2161, 2211, 2395, 3076, 3159, 3292, 3958, 4940, 5023, 5172]}, "edge": {"target": [], "time": []}}}, "displayed_time": "10.07", "trialTime": 11780, "trial_type": "mouselab-mdp", "trial_index": 35, "time_elapsed": 586006, "internal_node_id": "0.0-4.0-1.0-26.0"}}, {"uniqueid": "w67473409:a11392863", "current_trial": 36, "dateTime": 1664368413289, "trialdata": {"revealed_states": [], "num_clicks_accrued": [0, 0, 0, 0, 0, 0, 0, 0, 0, 0, 0, 0, 0], "stateRewards": ["", -4, 4, -24, 48, 2, 4, -48, 24, 4, -8, -24, 24], "withholdReward": true, "trial_id": "mdp_740130150937", "block": "test1", "trialIndex": 29, "score": 52, "costs": -1, "simulationMode": [null, null, null], "rewards": [-4, 4, 48], "path": ["0", "0", "1", "2", "4"], "rt": [4610, 82, 121], "actions": ["up", "up", "left"], "actionTimes": [5656, 6256, 6893], "queries": {"click": {"state": {"target": ["7", "11", "12", "4"], "time": [1850, 2972, 3442, 4623]}, "edge": {"target": [], "time": []}}, "mouseover": {"state": {"target": ["7", "7", "6", "5", "11", "12", "9", "4", "4", "4", "4"], "time": [1331, 1647, 2163, 2279, 2896, 3294, 3627, 3744, 4010, 4193, 4426]}, "edge": {"target": [], "time": []}}, "mouseout": {"state": {"target": ["7", "7", "6", "5", "11", "12", "9", "4", "4", "4", "4", "0"], "time": [1497, 2113, 2246, 2312, 3128, 3594, 3644, 3860, 4043, 4243, 4775, 11249]}, "edge": {"target": [], "time": []}}}, "displayed_time": "10.05", "trialTime": 11977, "trial_type": "mouselab-mdp", "trial_index": 36, "time_elapsed": 598031, "internal_node_id": "0.0-4.0-1.0-27.0"}}, {"uniqueid": "w67473409:a11392863", "current_trial": 37, "dateTime": 1664368423003, "trialdata": {"revealed_states": [], "num_clicks_accrued": [0, 0, 0, 0, 0, 0, 0, 0, 0, 0, 0, 0, 0], "stateRewards": ["", -4, -8, 24, -48, 2, 4, -48, -48, 2, -8, 24, 48], "withholdReward": true, "trial_id": "mdp_111262146724", "block": "test1", "trialIndex": 30, "score": 46, "costs": -1, "simulationMode": [null, null, null], "rewards": [2, -8, 48], "path": ["0", "0", "9", "10", "12"], "rt": [3188, 138, 59], "actions": ["left", "left", "down"], "actionTimes": [4198, 4842, 5412], "queries": {"click": {"state": {"target": ["7", "8", "11", "12"], "time": [1420, 1988, 2708, 3149]}, "edge": {"target": [], "time": []}}, "mouseover": {"state": {"target": ["7", "6", "8", "9", "11", "10", "12", "1"], "time": [1359, 1658, 1841, 2290, 2473, 3005, 3089, 3738]}, "edge": {"target": [], "time": []}}, "mouseout": {"state": {"target": ["0", "7", "6", "8", "9", "11", "10", "12", "1", "0"], "time": [892, 1574, 1724, 2190, 2340, 2956, 3055, 3338, 6317, 6883]}, "edge": {"target": [], "time": []}}}, "displayed_time": "9.01", "trialTime": 9671, "trial_type": "mouselab-mdp", "trial_index": 37, "time_elapsed": 607745, "internal_node_id": "0.0-4.0-1.0-28.0"}}, {"uniqueid": "w67473409:a11392863", "current_trial": 38, "dateTime": 1664368438276, "trialdata": {"revealed_states": [], "num_clicks_accrued": [0, 0, 0, 0, 0, 0, 0, 0, 0, 0, 0, 0, 0], "stateRewards": ["", -4, 8, 24, 24, 2, 4, -48, 24, -2, -4, -24, -24], "withholdReward": true, "trial_id": "mdp_752328329546", "block": "test1", "trialIndex": 31, "score": 32.5, "costs": -2.5, "simulationMode": [null, null, null], "rewards": [2, 4, 24], "path": ["0", "0", "5", "6", "8"], "rt": [10693, 639, 149], "actions": ["right", "right", "down"], "actionTimes": [11746, 12901, 13559], "queries": {"click": {"state": {"target": ["7", "4", "3", "11", "12", "8", "2", "1", "6", "5"], "time": [1430, 1981, 2843, 3318, 3729, 4844, 7926, 8285, 8756, 9403]}, "edge": {"target": [], "time": []}}, "mouseover": {"state": {"target": ["5", "7", "1", "4", "3", "3", "1", "11", "10", "12", "8", "8", "8", "5", "2", "1", "5", "6", "5"], "time": [1195, 1362, 1711, 1861, 2610, 2743, 3009, 3259, 3558, 3641, 4074, 4441, 4574, 7486, 7785, 8134, 8468, 8667, 9316]}, "edge": {"target": [], "time": []}}, "mouseout": {"state": {"target": ["0", "5", "7", "1", "4", "3", "3", "1", "11", "10", "12", "8", "8", "8", "8", "5", "2", "1", "5", "6", "6", "5", "6"], "time": [1129, 1212, 1645, 1728, 2194, 2677, 2960, 3059, 3492, 3609, 3891, 4174, 4474, 5056, 7435, 7502, 8085, 8401, 8484, 8967, 9233, 9566, 9632]}, "edge": {"target": [], "time": []}}}, "displayed_time": "14.08", "trialTime": 15230, "trial_type": "mouselab-mdp", "trial_index": 38, "time_elapsed": 623018, "internal_node_id": "0.0-4.0-1.0-29.0"}}, {"uniqueid": "w67473409:a11392863", "current_trial": 39, "dateTime": 1664368444550, "trialdata": {"rt": 6271, "stimulus": "<h1> End of block! </h1>\n\nYou have reached the end of the block 1/4. If you need a short break, feel free to take one now before moving on.\n\n<br><br>\nIn the next block, you will complete another 30 rounds of this game.\n\n<br><br>\n<div style='text-align: center;'>Press <code>space</code> to begin.</div>\n<br><br>\n<div style='text-align: center;'>(If the experiment doesn't continue, try clicking on the text and then pressing <code>space</code>.)</div>", "response": " ", "trial_id": "mdp_ready_2", "trial_type": "html-keyboard-response", "trial_index": 39, "time_elapsed": 629292, "internal_node_id": "0.0-4.0-2.0"}}, {"uniqueid": "w67473409:a11392863", "current_trial": 40, "dateTime": 1664368454211, "trialdata": {"revealed_states": [], "num_clicks_accrued": [0, 0, 0, 0, 0, 0, 0, 0, 0, 0, 0, 0, 0], "stateRewards": ["", -4, 4, -24, 24, -2, -4, 48, 24, 2, 8, -48, 24], "withholdReward": true, "trial_id": "mdp_150340189492", "block": "test2", "trialIndex": 32, "score": 45.5, "costs": -1.5, "simulationMode": [null, null, null], "rewards": [-2, -4, 48], "path": ["0", "0", "5", "6", "7"], "rt": [4219, 498, 175], "actions": ["right", "right", "up"], "actionTimes": [5565, 6575, 7266], "queries": {"click": {"state": {"target": ["4", "3", "7", "8", "5", "6"], "time": [2306, 2641, 3126, 3529, 4118, 4361]}, "edge": {"target": [], "time": []}}, "mouseover": {"state": {"target": ["1", "2", "4", "2", "3", "7", "6", "8", "5", "6"], "time": [1783, 2066, 2216, 2449, 2549, 2931, 3297, 3414, 4095, 4262]}, "edge": {"target": [], "time": []}}, "mouseout": {"state": {"target": ["4", "11", "0", "0", "1", "2", "4", "2", "3", "7", "6", "8", "8", "5", "6"], "time": [735, 818, 984, 1717, 2016, 2132, 2416, 2482, 2815, 3247, 3364, 3730, 3946, 4230, 4479]}, "edge": {"target": [], "time": []}}}, "displayed_time": "9.35", "trialTime": 9621, "trial_type": "mouselab-mdp", "trial_index": 40, "time_elapsed": 638953, "internal_node_id": "0.0-4.0-3.0-0.0"}}, {"uniqueid": "w67473409:a11392863", "current_trial": 41, "dateTime": 1664368464432, "trialdata": {"revealed_states": [], "num_clicks_accrued": [0, 0, 0, 0, 0, 0, 0, 0, 0, 0, 0, 0, 0], "stateRewards": ["", -4, 8, -24, 48, 2, -8, 24, 48, 2, -8, -24, -48], "withholdReward": true, "trial_id": "mdp_493778446445", "block": "test2", "trialIndex": 33, "score": 46.5, "costs": -0.5, "simulationMode": [null, null, null], "rewards": [2, -8, 48], "path": ["0", "0", "5", "6", "8"], "rt": [2001, 68, 69], "actions": ["right", "right", "down"], "actionTimes": [3082, 3659, 4242], "queries": {"click": {"state": {"target": ["7", "8"], "time": [1660, 2016]}, "edge": {"target": [], "time": []}}, "mouseover": {"state": {"target": ["7", "6", "8"], "time": [1527, 1810, 1943]}, "edge": {"target": [], "time": []}}, "mouseout": {"state": {"target": ["8", "0", "7", "6", "8", "8"], "time": [761, 1361, 1776, 1876, 2209, 5205]}, "edge": {"target": [], "time": []}}}, "displayed_time": "9.08", "trialTime": 10184, "trial_type": "mouselab-mdp", "trial_index": 41, "time_elapsed": 649174, "internal_node_id": "0.0-4.0-3.0-1.0"}}, {"uniqueid": "w67473409:a11392863", "current_trial": 42, "dateTime": 1664368474134, "trialdata": {"revealed_states": [], "num_clicks_accrued": [0, 0, 0, 0, 0, 0, 0, 0, 0, 0, 0, 0, 0], "stateRewards": ["", 2, -4, 24, -24, 2, -8, 48, 48, 4, -4, 24, 48], "withholdReward": false, "trial_id": "mdp_947836623875", "block": "test2", "trialIndex": 34, "score": 46.5, "costs": -0.5, "simulationMode": [null, null, null], "rewards": [2, -8, 48], "path": ["0", "0", "5", "6", "7"], "rt": [1481, 54, 94], "actions": ["right", "right", "up"], "actionTimes": [2471, 3038, 3643], "queries": {"click": {"state": {"target": ["7", "8"], "time": [1377, 1714]}, "edge": {"target": [], "time": []}}, "mouseover": {"state": {"target": ["5", "7", "6", "8"], "time": [1153, 1286, 1552, 1652]}, "edge": {"target": [], "time": []}}, "mouseout": {"state": {"target": ["0", "0", "5", "7", "6", "8", "8"], "time": [753, 1119, 1202, 1519, 1602, 1935, 4630]}, "edge": {"target": [], "time": []}}}, "displayed_time": "8.99", "trialTime": 9661, "trial_type": "mouselab-mdp", "trial_index": 42, "time_elapsed": 658876, "internal_node_id": "0.0-4.0-3.0-2.0"}}, {"uniqueid": "w67473409:a11392863", "current_trial": 43, "dateTime": 1664368485296, "trialdata": {"revealed_states": [], "num_clicks_accrued": [0, 0, 0, 0, 0, 0, 0, 0, 0, 0, 0, 0, 0], "stateRewards": ["", -4, -4, -24, 24, 4, 4, -24, -24, -4, 4, 24, 24], "withholdReward": true, "trial_id": "mdp_787781487383", "block": "test2", "trialIndex": 35, "score": 26.5, "costs": -2.5, "simulationMode": [null, null, null], "rewards": [-4, 4, 24], "path": ["0", "0", "9", "10", "11"], "rt": [7528, 70, 74], "actions": ["left", "left", "up"], "actionTimes": [8356, 8941, 9526], "queries": {"click": {"state": {"target": ["7", "8", "12", "11", "4", "3", "1", "2", "9", "10"], "time": [1275, 1658, 2498, 2885, 3259, 3587, 4767, 4992, 5485, 5720]}, "edge": {"target": [], "time": []}}, "mouseover": {"state": {"target": ["5", "7", "6", "8", "12", "10", "11", "4", "2", "3", "5", "1", "2", "9", "10", "0"], "time": [1015, 1182, 1465, 1565, 2280, 2679, 2763, 3212, 3428, 3512, 3811, 4560, 4893, 5292, 5625, 5974]}, "edge": {"target": [], "time": []}}, "mouseout": {"state": {"target": ["0", "5", "7", "6", "8", "12", "10", "11", "4", "2", "3", "5", "1", "2", "9", "10", "9", "0", "5"], "time": [982, 1065, 1415, 1515, 1847, 2646, 2713, 3029, 3395, 3478, 3711, 4460, 4843, 5142, 5591, 5895, 5941, 10368, 10435]}, "edge": {"target": [], "time": []}}}, "displayed_time": "10.04", "trialTime": 11118, "trial_type": "mouselab-mdp", "trial_index": 43, "time_elapsed": 670038, "internal_node_id": "0.0-4.0-3.0-3.0"}}, {"uniqueid": "w67473409:a11392863", "current_trial": 44, "dateTime": 1664368494916, "trialdata": {"revealed_states": [], "num_clicks_accrued": [0, 0, 0, 0, 0, 0, 0, 0, 0, 0, 0, 0, 0], "stateRewards": ["", -2, 8, -48, 48, -4, 8, -24, 24, 4, -4, 24, -48], "withholdReward": true, "trial_id": "mdp_904238083902", "block": "test2", "trialIndex": 36, "score": 57.5, "costs": -1.5, "simulationMode": [null, null, null], "rewards": [-2, 8, 48], "path": ["0", "0", "1", "2", "4"], "rt": [4294, 41, 47], "actions": ["up", "up", "left"], "actionTimes": [5431, 5987, 6559], "queries": {"click": {"state": {"target": ["7", "8", "11", "12", "4", "3"], "time": [1611, 2469, 3216, 3514, 4022, 4755]}, "edge": {"target": [], "time": []}}, "mouseover": {"state": {"target": ["5", "7", "6", "8", "9", "10", "11", "10", "12", "10", "4", "2", "3", "3"], "time": [1386, 1503, 1786, 2436, 2701, 2750, 3067, 3349, 3416, 3666, 3865, 4165, 4215, 4548]}, "edge": {"target": [], "time": []}}, "mouseout": {"state": {"target": ["0", "5", "7", "6", "8", "9", "10", "11", "10", "12", "10", "4", "2", "3", "3"], "time": [1370, 1419, 1752, 1853, 2551, 2717, 2818, 3334, 3383, 3649, 3716, 4149, 4182, 4282, 4914]}, "edge": {"target": [], "time": []}}}, "displayed_time": "9.14", "trialTime": 9577, "trial_type": "mouselab-mdp", "trial_index": 44, "time_elapsed": 679658, "internal_node_id": "0.0-4.0-3.0-4.0"}}, {"uniqueid": "w67473409:a11392863", "current_trial": 45, "dateTime": 1664368505311, "trialdata": {"revealed_states": [], "num_clicks_accrued": [0, 0, 0, 0, 0, 0, 0, 0, 0, 0, 0, 0, 0], "stateRewards": ["", -2, -4, -24, -48, -2, 8, -48, 24, 4, -4, -24, -24], "withholdReward": true, "trial_id": "mdp_915304165774", "block": "test2", "trialIndex": 37, "score": 33.5, "costs": -1.5, "simulationMode": [null, null, null], "rewards": [-2, 8, 24], "path": ["0", "0", "5", "6", "8"], "rt": [6205, 71, 159], "actions": ["right", "right", "down"], "actionTimes": [7532, 8116, 8787], "queries": {"click": {"state": {"target": ["7", "8", "4", "3", "11", "12"], "time": [1948, 2669, 3211, 3583, 4304, 5154]}, "edge": {"target": [], "time": []}}, "mouseover": {"state": {"target": ["5", "7", "6", "8", "5", "1", "4", "2", "3", "9", "11", "10", "12", "12", "0"], "time": [1588, 1838, 2121, 2537, 2903, 2969, 3169, 3369, 3485, 3984, 4234, 4484, 4583, 5049, 5649]}, "edge": {"target": [], "time": []}}, "mouseout": {"state": {"target": ["3", "1", "1", "0", "0", "0", "5", "7", "6", "8", "5", "1", "4", "2", "3", "9", "11", "10", "12", "12", "0", "0", "0"], "time": [690, 739, 906, 972, 1056, 1572, 1622, 2087, 2204, 2803, 2919, 3003, 3336, 3419, 3752, 4018, 4450, 4550, 4617, 5449, 5749, 9590, 9675]}, "edge": {"target": [], "time": []}}}, "displayed_time": "9.33", "trialTime": 10357, "trial_type": "mouselab-mdp", "trial_index": 45, "time_elapsed": 690053, "internal_node_id": "0.0-4.0-3.0-5.0"}}, {"uniqueid": "w67473409:a11392863", "current_trial": 46, "dateTime": 1664368515639, "trialdata": {"revealed_states": [], "num_clicks_accrued": [0, 0, 0, 0, 0, 0, 0, 0, 0, 0, 0, 0, 0], "stateRewards": ["", 2, -8, 48, -24, 2, -4, 24, 48, 4, -4, 48, -24], "withholdReward": true, "trial_id": "mdp_656500928756", "block": "test2", "trialIndex": 38, "score": 50.5, "costs": -0.5, "simulationMode": [null, null, null], "rewards": [2, -4, 48], "path": ["0", "0", "5", "6", "8"], "rt": [2041, 124, 144], "actions": ["right", "right", "down"], "actionTimes": [3052, 3677, 4329], "queries": {"click": {"state": {"target": ["7", "8"], "time": [1625, 2006]}, "edge": {"target": [], "time": []}}, "mouseover": {"state": {"target": ["5", "7", "6", "8", "1", "1"], "time": [1356, 1506, 1806, 1889, 2338, 2471]}, "edge": {"target": [], "time": []}}, "mouseout": {"state": {"target": ["0", "5", "7", "6", "8", "1", "1", "0"], "time": [1323, 1373, 1756, 1855, 2222, 2355, 2488, 5250]}, "edge": {"target": [], "time": []}}}, "displayed_time": "9.01", "trialTime": 10285, "trial_type": "mouselab-mdp", "trial_index": 46, "time_elapsed": 700381, "internal_node_id": "0.0-4.0-3.0-6.0"}}, {"uniqueid": "w67473409:a11392863", "current_trial": 47, "dateTime": 1664368530176, "trialdata": {"revealed_states": [], "num_clicks_accrued": [0, 0, 0, 0, 0, 0, 0, 0, 0, 0, 0, 0, 0], "stateRewards": ["", 2, 8, 48, 24, -4, 4, -48, 24, 2, 8, 48, 48], "withholdReward": true, "trial_id": "mdp_367344599162", "block": "test2", "trialIndex": 39, "score": 62, "costs": -1, "simulationMode": [null, null, null], "rewards": [2, 8, 48], "path": ["0", "0", "9", "10", "12"], "rt": [3232, 110, 60], "actions": ["left", "left", "down"], "actionTimes": [4190, 4807, 5372], "queries": {"click": {"state": {"target": ["7", "8", "11", "12"], "time": [1573, 2443, 3014, 3410]}, "edge": {"target": [], "time": []}}, "mouseover": {"state": {"target": ["5", "7", "6", "8", "8", "8", "10", "11", "10", "12", "9"], "time": [1268, 1517, 1734, 1800, 2050, 2233, 2799, 2949, 3232, 3315, 3614]}, "edge": {"target": [], "time": []}}, "mouseout": {"state": {"target": ["0", "5", "7", "6", "8", "8", "8", "10", "11", "10", "12", "9", "9", "0", "5"], "time": [1185, 1384, 1701, 1767, 1850, 2133, 2566, 2866, 3182, 3282, 3564, 3664, 7894, 13332, 13365]}, "edge": {"target": [], "time": []}}}, "displayed_time": "8.96", "trialTime": 14500, "trial_type": "mouselab-mdp", "trial_index": 47, "time_elapsed": 714917, "internal_node_id": "0.0-4.0-3.0-7.0"}}, {"uniqueid": "w67473409:a11392863", "current_trial": 48, "dateTime": 1664368541263, "trialdata": {"revealed_states": [], "num_clicks_accrued": [0, 0, 0, 0, 0, 0, 0, 0, 0, 0, 0, 0, 0], "stateRewards": ["", 2, 4, 48, -48, 2, 8, -24, 48, 4, 8, 48, -48], "withholdReward": true, "trial_id": "mdp_110142964375", "block": "test2", "trialIndex": 40, "score": 58.5, "costs": -0.5, "simulationMode": [null, null, null], "rewards": [2, 4, 48], "path": ["0", "0", "1", "2", "3"], "rt": [2538, 184, 166], "actions": ["up", "up", "right"], "actionTimes": [3930, 4623, 5304], "queries": {"click": {"state": {"target": ["7", "3"], "time": [1900, 2714]}, "edge": {"target": [], "time": []}}, "mouseover": {"state": {"target": ["7", "3"], "time": [1810, 2625]}, "edge": {"target": [], "time": []}}, "mouseout": {"state": {"target": ["5", "7", "3"], "time": [894, 2159, 2841]}, "edge": {"target": [], "time": []}}}, "displayed_time": "10.39", "trialTime": 11037, "trial_type": "mouselab-mdp", "trial_index": 48, "time_elapsed": 726005, "internal_node_id": "0.0-4.0-3.0-8.0"}}, {"uniqueid": "w67473409:a11392863", "current_trial": 49, "dateTime": 1664368552791, "trialdata": {"revealed_states": [], "num_clicks_accrued": [0, 0, 0, 0, 0, 0, 0, 0, 0, 0, 0, 0, 0], "stateRewards": ["", 2, 4, -48, 24, -4, 4, -24, 48, -2, -8, -48, 48], "withholdReward": false, "trial_id": "mdp_424193661731", "block": "test2", "trialIndex": 41, "score": 42, "costs": -1, "simulationMode": [null, null, null], "rewards": [-2, -8, 48], "path": ["0", "0", "9", "10", "12"], "rt": [3500, 38, 8], "actions": ["left", "left", "down"], "actionTimes": [4786, 5340, 5875], "queries": {"click": {"state": {"target": ["3", "4", "11", "12"], "time": [2141, 2608, 3018, 3654]}, "edge": {"target": [], "time": []}}, "mouseover": {"state": {"target": ["1", "3", "2", "4", "11", "10", "12", "12"], "time": [1757, 2006, 2389, 2539, 2888, 3188, 3254, 3571]}, "edge": {"target": [], "time": []}}, "mouseout": {"state": {"target": ["1", "11", "1", "3", "2", "4", "11", "10", "12", "12", "7", "5"], "time": [792, 875, 1923, 2339, 2456, 2756, 3154, 3221, 3288, 3920, 10294, 11010]}, "edge": {"target": [], "time": []}}}, "displayed_time": "10.29", "trialTime": 11479, "trial_type": "mouselab-mdp", "trial_index": 49, "time_elapsed": 737533, "internal_node_id": "0.0-4.0-3.0-9.0"}}, {"uniqueid": "w67473409:a11392863", "current_trial": 50, "dateTime": 1664368567990, "trialdata": {"revealed_states": [], "num_clicks_accrued": [0, 0, 0, 0, 0, 0, 0, 0, 0, 0, 0, 0, 0], "stateRewards": ["", 2, -4, -48, -48, -2, -4, -24, -48, -2, 8, 24, 24], "withholdReward": true, "trial_id": "mdp_656069446729", "block": "test2", "trialIndex": 42, "score": 33.5, "costs": -1.5, "simulationMode": [null, null, null], "rewards": [-2, 8, 24], "path": ["0", "0", "9", "10", "12"], "rt": [4679, 50, 111], "actions": ["left", "left", "down"], "actionTimes": [5597, 6155, 6799], "queries": {"click": {"state": {"target": ["7", "8", "4", "3", "11", "12"], "time": [1654, 2079, 2891, 3263, 3763, 4074]}, "edge": {"target": [], "time": []}}, "mouseover": {"state": {"target": ["5", "7", "7", "6", "8", "6", "2", "4", "2", "3", "1", "11", "10", "12", "9", "0"], "time": [1079, 1212, 1479, 1878, 1994, 2227, 2443, 2677, 3092, 3175, 3458, 3692, 3924, 4041, 4424, 4574]}, "edge": {"target": [], "time": []}}, "mouseout": {"state": {"target": ["5", "5", "5", "7", "7", "6", "8", "6", "2", "4", "2", "3", "1", "11", "10", "12", "9", "0", "0", "1", "0"], "time": [596, 747, 1096, 1279, 1845, 1944, 2210, 2244, 2528, 3042, 3142, 3409, 3508, 3874, 3974, 4324, 4440, 4590, 13759, 14092, 14275]}, "edge": {"target": [], "time": []}}}, "displayed_time": "9.92", "trialTime": 15151, "trial_type": "mouselab-mdp", "trial_index": 50, "time_elapsed": 752732, "internal_node_id": "0.0-4.0-3.0-10.0"}}, {"uniqueid": "w67473409:a11392863", "current_trial": 51, "dateTime": 1664368578266, "trialdata": {"revealed_states": [], "num_clicks_accrued": [0, 0, 0, 0, 0, 0, 0, 0, 0, 0, 0, 0, 0], "stateRewards": ["", 4, 8, -48, -48, 2, 4, -24, -48, 2, 8, 48, -48], "withholdReward": true, "trial_id": "mdp_902172716465", "block": "test2", "trialIndex": 43, "score": 61.5, "costs": -1.5, "simulationMode": [null, null, null], "rewards": [2, 8, 48], "path": ["0", "0", "9", "10", "11"], "rt": [4218, 91, 32], "actions": ["left", "left", "up"], "actionTimes": [5354, 5953, 6492], "queries": {"click": {"state": {"target": ["7", "8", "3", "4", "11", "12"], "time": [1814, 2774, 3350, 3751, 4180, 4596]}, "edge": {"target": [], "time": []}}, "mouseover": {"state": {"target": ["0", "5", "6", "7", "6", "8", "8", "8", "5", "3", "2", "4", "11", "10", "12"], "time": [1252, 1386, 1435, 1701, 1967, 2034, 2333, 2633, 3032, 3215, 3531, 3664, 4113, 4363, 4464]}, "edge": {"target": [], "time": []}}, "mouseout": {"state": {"target": ["0", "0", "5", "6", "7", "6", "8", "8", "8", "5", "3", "2", "4", "11", "10", "12", "9"], "time": [918, 1385, 1418, 1501, 1950, 2000, 2150, 2383, 2999, 3065, 3465, 3598, 3914, 4346, 4429, 4813, 7209]}, "edge": {"target": [], "time": []}}}, "displayed_time": "9.14", "trialTime": 10224, "trial_type": "mouselab-mdp", "trial_index": 51, "time_elapsed": 763008, "internal_node_id": "0.0-4.0-3.0-11.0"}}, {"uniqueid": "w67473409:a11392863", "current_trial": 52, "dateTime": 1664368589520, "trialdata": {"revealed_states": [], "num_clicks_accrued": [0, 0, 0, 0, 0, 0, 0, 0, 0, 0, 0, 0, 0], "stateRewards": ["", -2, -4, -24, -24, 4, 8, 24, 24, -2, 8, 48, 48], "withholdReward": false, "trial_id": "mdp_620787912291", "block": "test2", "trialIndex": 44, "score": 57.5, "costs": -1.5, "simulationMode": [null, null, null], "rewards": [-2, 8, 48], "path": ["0", "0", "9", "10", "11"], "rt": [3610, 53, 38], "actions": ["left", "left", "up"], "actionTimes": [4874, 5435, 5987], "queries": {"click": {"state": {"target": ["7", "8", "4", "3", "11", "12"], "time": [1699, 2189, 2830, 3184, 3675, 4043]}, "edge": {"target": [], "time": []}}, "mouseover": {"state": {"target": ["5", "6", "7", "6", "8", "5", "1", "4", "2", "3", "1", "11", "10", "12"], "time": [1389, 1438, 1588, 1887, 1971, 2503, 2553, 2703, 2969, 3086, 3368, 3485, 3818, 3901]}, "edge": {"target": [], "time": []}}, "mouseout": {"state": {"target": ["0", "5", "6", "7", "6", "8", "5", "1", "4", "2", "3", "1", "11", "10", "12", "0"], "time": [1389, 1421, 1472, 1854, 1921, 2470, 2520, 2603, 2953, 3002, 3336, 3402, 3784, 3868, 4217, 10424]}, "edge": {"target": [], "time": []}}}, "displayed_time": "10.26", "trialTime": 11215, "trial_type": "mouselab-mdp", "trial_index": 52, "time_elapsed": 774262, "internal_node_id": "0.0-4.0-3.0-12.0"}}, {"uniqueid": "w67473409:a11392863", "current_trial": 53, "dateTime": 1664368600893, "trialdata": {"revealed_states": [], "num_clicks_accrued": [0, 0, 0, 0, 0, 0, 0, 0, 0, 0, 0, 0, 0], "stateRewards": ["", -4, 8, 24, 24, 2, 4, -48, 24, -2, -4, -24, -24], "withholdReward": false, "trial_id": "mdp_752328329546", "block": "test2", "trialIndex": 45, "score": 31, "costs": -2, "simulationMode": [null, null, null], "rewards": [-4, 8, 24], "path": ["0", "0", "1", "2", "3"], "rt": [7022, 526, 1], "actions": ["up", "up", "right"], "actionTimes": [8178, 9214, 9722], "queries": {"click": {"state": {"target": ["7", "8", "11", "12", "4", "3", "2", "6"], "time": [1621, 2113, 2747, 3090, 3555, 3847, 6402, 7165]}, "edge": {"target": [], "time": []}}, "mouseover": {"state": {"target": ["5", "7", "6", "8", "10", "11", "10", "12", "4", "2", "3", "2", "6"], "time": [1366, 1583, 1816, 1899, 2548, 2648, 2897, 2998, 3430, 3679, 3796, 6292, 6958]}, "edge": {"target": [], "time": []}}, "mouseout": {"state": {"target": ["0", "5", "7", "6", "8", "10", "11", "10", "12", "4", "2", "3", "2", "6", "6"], "time": [1283, 1466, 1782, 1865, 2398, 2598, 2864, 2947, 3214, 3663, 3713, 3996, 6541, 7375, 10702]}, "edge": {"target": [], "time": []}}}, "displayed_time": "10.25", "trialTime": 11334, "trial_type": "mouselab-mdp", "trial_index": 53, "time_elapsed": 785635, "internal_node_id": "0.0-4.0-3.0-13.0"}}, {"uniqueid": "w67473409:a11392863", "current_trial": 54, "dateTime": 1664368612088, "trialdata": {"revealed_states": [], "num_clicks_accrued": [0, 0, 0, 0, 0, 0, 0, 0, 0, 0, 0, 0, 0], "stateRewards": ["", -2, -8, 48, -24, 2, -4, -48, -24, -2, -4, -48, 48], "withholdReward": true, "trial_id": "mdp_143798438087", "block": "test2", "trialIndex": 46, "score": 41.5, "costs": -1.5, "simulationMode": [null, null, null], "rewards": [-2, -8, 48], "path": ["0", "0", "1", "2", "3"], "rt": [4538, 15, 9], "actions": ["up", "up", "right"], "actionTimes": [5504, 6025, 6551], "queries": {"click": {"state": {"target": ["7", "8", "3", "4", "11", "12"], "time": [1445, 1764, 2263, 2616, 3995, 4296]}, "edge": {"target": [], "time": []}}, "mouseover": {"state": {"target": ["5", "7", "6", "8", "5", "3", "2", "4", "9", "10", "10", "10", "11", "10", "12", "1"], "time": [1101, 1367, 1583, 1650, 1949, 2166, 2449, 2515, 2915, 3164, 3514, 3747, 3863, 4129, 4229, 4628]}, "edge": {"target": [], "time": []}}, "mouseout": {"state": {"target": ["6", "0", "5", "7", "6", "8", "5", "3", "2", "4", "9", "10", "10", "10", "11", "10", "12", "1", "1", "9"], "time": [569, 1084, 1234, 1551, 1617, 1899, 1983, 2415, 2482, 2749, 3148, 3264, 3563, 3797, 4113, 4196, 4429, 4712, 10236, 10470]}, "edge": {"target": [], "time": []}}}, "displayed_time": "9.97", "trialTime": 11147, "trial_type": "mouselab-mdp", "trial_index": 54, "time_elapsed": 796830, "internal_node_id": "0.0-4.0-3.0-14.0"}}, {"uniqueid": "w67473409:a11392863", "current_trial": 55, "dateTime": 1664368623103, "trialdata": {"revealed_states": [], "num_clicks_accrued": [0, 0, 0, 0, 0, 0, 0, 0, 0, 0, 0, 0, 0], "stateRewards": ["", 4, 4, -24, -48, -4, 4, -48, 24, 4, -8, -48, 48], "withholdReward": true, "trial_id": "mdp_566768794366", "block": "test2", "trialIndex": 47, "score": 46, "costs": -3, "simulationMode": [null, null, null], "rewards": [4, -8, 48], "path": ["0", "0", "9", "10", "12"], "rt": [7143, 366, 98], "actions": ["left", "left", "down"], "actionTimes": [8120, 8991, 9604], "queries": {"click": {"state": {"target": ["3", "4", "11", "12", "7", "8", "6", "5", "9", "10", "1", "2"], "time": [2013, 2328, 2795, 3143, 3701, 4114, 4446, 4692, 5078, 5403, 5790, 7198]}, "edge": {"target": [], "time": []}}, "mouseover": {"state": {"target": ["1", "2", "4", "4", "2", "3", "2", "4", "11", "10", "12", "0", "5", "7", "6", "8", "6", "5", "0", "9", "10", "1", "2"], "time": [1252, 1352, 1418, 1651, 1701, 1835, 2117, 2217, 2666, 2932, 3016, 3365, 3415, 3699, 3864, 3948, 4331, 4580, 4846, 4913, 5345, 5628, 7143]}, "edge": {"target": [], "time": []}}, "mouseout": {"state": {"target": ["0", "1", "2", "4", "4", "2", "3", "2", "4", "11", "10", "12", "0", "5", "7", "6", "8", "6", "5", "0", "9", "10", "9", "1", "1", "3", "2", "3"], "time": [1172, 1302, 1385, 1502, 1685, 1734, 2084, 2150, 2467, 2899, 2982, 3299, 3382, 3432, 3832, 3914, 4264, 4547, 4813, 4863, 5295, 5496, 5545, 6045, 6577, 6910, 7359, 7475]}, "edge": {"target": [], "time": []}}}, "displayed_time": "10.11", "trialTime": 10965, "trial_type": "mouselab-mdp", "trial_index": 55, "time_elapsed": 807845, "internal_node_id": "0.0-4.0-3.0-15.0"}}, {"uniqueid": "w67473409:a11392863", "current_trial": 56, "dateTime": 1664368632343, "trialdata": {"revealed_states": [], "num_clicks_accrued": [0, 0, 0, 0, 0, 0, 0, 0, 0, 0, 0, 0, 0], "stateRewards": ["", 2, -8, 48, -24, 2, 8, 24, -24, 4, -4, -48, -48], "withholdReward": true, "trial_id": "mdp_130946197263", "block": "test2", "trialIndex": 48, "score": 45.5, "costs": -1.5, "simulationMode": [null, null, null], "rewards": [2, -8, 48], "path": ["0", "0", "1", "2", "3"], "rt": [4123, 160, 58], "actions": ["up", "up", "right"], "actionTimes": [5248, 5909, 6473], "queries": {"click": {"state": {"target": ["7", "8", "11", "12", "4", "3"], "time": [1574, 1968, 2507, 2875, 3366, 4169]}, "edge": {"target": [], "time": []}}, "mouseover": {"state": {"target": ["5", "7", "6", "8", "9", "11", "10", "12", "4", "2", "3", "3"], "time": [1306, 1439, 1788, 1888, 2271, 2487, 2720, 2786, 3186, 3519, 3569, 4069]}, "edge": {"target": [], "time": []}}, "mouseout": {"state": {"target": ["3", "2", "1", "0", "5", "7", "6", "8", "9", "11", "10", "12", "4", "2", "3", "3", "7"], "time": [723, 789, 839, 1257, 1322, 1739, 1838, 2138, 2321, 2670, 2753, 3019, 3486, 3535, 3635, 4417, 7429]}, "edge": {"target": [], "time": []}}}, "displayed_time": "9.13", "trialTime": 9194, "trial_type": "mouselab-mdp", "trial_index": 56, "time_elapsed": 817085, "internal_node_id": "0.0-4.0-3.0-16.0"}}, {"uniqueid": "w67473409:a11392863", "current_trial": 57, "dateTime": 1664368648089, "trialdata": {"revealed_states": [], "num_clicks_accrued": [0, 0, 0, 0, 0, 0, 0, 0, 0, 0, 0, 0, 0], "stateRewards": ["", -4, -4, -24, -24, -2, 4, 48, -24, -2, -4, -24, 48], "withholdReward": true, "trial_id": "mdp_855903341564", "block": "test2", "trialIndex": 49, "score": 54.75, "costs": -0.25, "simulationMode": [null, null, null], "rewards": [-2, 4, 48], "path": ["0", "0", "5", "6", "7"], "rt": [2248, 30, 173], "actions": ["right", "right", "up"], "actionTimes": [3880, 4427, 5103], "queries": {"click": {"state": {"target": ["7"], "time": [2440]}, "edge": {"target": [], "time": []}}, "mouseover": {"state": {"target": ["7", "1", "5"], "time": [2334, 2650, 2949]}, "edge": {"target": [], "time": []}}, "mouseout": {"state": {"target": ["5", "0", "9", "10", "9", "0", "7", "1", "5", "3"], "time": [769, 803, 819, 1285, 1352, 1784, 2566, 2683, 3116, 14781]}, "edge": {"target": [], "time": []}}}, "displayed_time": "9.63", "trialTime": 15700, "trial_type": "mouselab-mdp", "trial_index": 57, "time_elapsed": 832831, "internal_node_id": "0.0-4.0-3.0-17.0"}}, {"uniqueid": "w67473409:a11392863", "current_trial": 58, "dateTime": 1664368660200, "trialdata": {"revealed_states": [], "num_clicks_accrued": [0, 0, 0, 0, 0, 0, 0, 0, 0, 0, 0, 0, 0], "stateRewards": ["", 2, -8, 24, -24, -2, 8, -48, -48, 2, -8, -24, -48], "withholdReward": true, "trial_id": "mdp_744278669205", "block": "test2", "trialIndex": 50, "score": 21.5, "costs": -1.5, "simulationMode": [null, null, null], "rewards": [2, -8, 24], "path": ["0", "0", "1", "2", "3"], "rt": [4995, 39, 43], "actions": ["up", "up", "right"], "actionTimes": [6046, 6593, 7163], "queries": {"click": {"state": {"target": ["7", "4", "3", "11", "12", "8"], "time": [1675, 2272, 2644, 3133, 3476, 4188]}, "edge": {"target": [], "time": []}}, "mouseover": {"state": {"target": ["5", "7", "7", "6", "5", "1", "4", "2", "3", "1", "11", "10", "12", "8"], "time": [1162, 1245, 1578, 1878, 1944, 2011, 2177, 2460, 2560, 2859, 2993, 3292, 3392, 3976]}, "edge": {"target": [], "time": []}}, "mouseout": {"state": {"target": ["3", "0", "5", "7", "7", "6", "5", "1", "4", "2", "3", "1", "11", "10", "12", "8"], "time": [596, 1145, 1179, 1296, 1844, 1895, 1978, 2027, 2427, 2510, 2826, 2892, 3259, 3342, 3608, 4407]}, "edge": {"target": [], "time": []}}}, "displayed_time": "10.05", "trialTime": 12064, "trial_type": "mouselab-mdp", "trial_index": 58, "time_elapsed": 844942, "internal_node_id": "0.0-4.0-3.0-18.0"}}, {"uniqueid": "w67473409:a11392863", "current_trial": 59, "dateTime": 1664368683495, "trialdata": {"revealed_states": [], "num_clicks_accrued": [0, 0, 0, 0, 0, 0, 0, 0, 0, 0, 0, 0, 0], "stateRewards": ["", 2, -4, -48, 24, 4, 4, 48, -48, -2, -4, -24, -48], "withholdReward": true, "trial_id": "mdp_858916930936", "block": "test2", "trialIndex": 51, "score": 60.75, "costs": -0.25, "simulationMode": [null, null, null], "rewards": [4, 4, 48], "path": ["0", "0", "5", "6", "7"], "rt": [1556, 127, 71], "actions": ["right", "right", "up"], "actionTimes": [2591, 3234, 3810], "queries": {"click": {"state": {"target": ["7"], "time": [1420]}, "edge": {"target": [], "time": []}}, "mouseover": {"state": {"target": ["7", "1"], "time": [1360, 1692]}, "edge": {"target": [], "time": []}}, "mouseout": {"state": {"target": ["0", "7", "1", "6"], "time": [1144, 1593, 1959, 22410]}, "edge": {"target": [], "time": []}}}, "displayed_time": "10.04", "trialTime": 23243, "trial_type": "mouselab-mdp", "trial_index": 59, "time_elapsed": 868237, "internal_node_id": "0.0-4.0-3.0-19.0"}}, {"uniqueid": "w67473409:a11392863", "current_trial": 60, "dateTime": 1664368698697, "trialdata": {"revealed_states": [], "num_clicks_accrued": [0, 0, 0, 0, 0, 0, 0, 0, 0, 0, 0, 0, 0], "stateRewards": ["", -2, 4, -24, -48, -4, 8, -24, 48, 4, 4, -48, 24], "withholdReward": true, "trial_id": "mdp_341117665701", "block": "test2", "trialIndex": 52, "score": 55.5, "costs": -1.5, "simulationMode": [null, null, null], "rewards": [-4, 8, 48], "path": ["0", "0", "5", "6", "8"], "rt": [3626, 331, 81], "actions": ["right", "right", "down"], "actionTimes": [5062, 5895, 6493], "queries": {"click": {"state": {"target": ["4", "3", "11", "7", "8", "12"], "time": [2029, 2376, 2951, 3388, 3815, 4276]}, "edge": {"target": [], "time": []}}, "mouseover": {"state": {"target": ["1", "4", "2", "3", "1", "11", "7", "6", "8", "12"], "time": [1769, 1952, 2152, 2235, 2651, 2851, 3300, 3550, 3733, 4199]}, "edge": {"target": [], "time": []}}, "mouseout": {"state": {"target": ["10", "9", "0", "1", "4", "2", "3", "3", "1", "11", "7", "6", "8", "12", "8"], "time": [937, 970, 1719, 1786, 2135, 2185, 2402, 2501, 2701, 3067, 3500, 3566, 3949, 4365, 14632]}, "edge": {"target": [], "time": []}}}, "displayed_time": "9.44", "trialTime": 15141, "trial_type": "mouselab-mdp", "trial_index": 60, "time_elapsed": 883439, "internal_node_id": "0.0-4.0-3.0-20.0"}}, {"uniqueid": "w67473409:a11392863", "current_trial": 61, "dateTime": 1664368714063, "trialdata": {"revealed_states": [], "num_clicks_accrued": [0, 0, 0, 0, 0, 0, 0, 0, 0, 0, 0, 0, 0], "stateRewards": ["", -2, -8, -24, 24, -2, -8, -48, 24, -2, -8, 24, 24], "withholdReward": true, "trial_id": "mdp_336617436097", "block": "test2", "trialIndex": 53, "score": 16, "costs": -3, "simulationMode": [null, null, null], "rewards": [-2, -8, 24], "path": ["0", "0", "1", "2", "4"], "rt": [11765, 15, 40], "actions": ["up", "up", "left"], "actionTimes": [12679, 13201, 13758], "queries": {"click": {"state": {"target": ["7", "8", "11", "12", "4", "3", "10", "6", "2", "9", "5", "1"], "time": [1304, 2115, 2665, 3011, 3525, 4223, 6571, 7064, 9309, 10341, 10685, 11390]}, "edge": {"target": [], "time": []}}, "mouseover": {"state": {"target": ["5", "7", "6", "8", "8", "8", "10", "11", "10", "12", "9", "4", "2", "3", "10", "9", "0", "5", "6", "2", "9", "0", "5", "1", "1"], "time": [1037, 1171, 1470, 1570, 1831, 2019, 2485, 2602, 2834, 2934, 3217, 3417, 3683, 4166, 6495, 6712, 6779, 6828, 6978, 9209, 10206, 10455, 10506, 10938, 11288]}, "edge": {"target": [], "time": []}}, "mouseout": {"state": {"target": ["0", "5", "7", "6", "8", "8", "8", "10", "11", "10", "12", "9", "4", "2", "3", "7", "11", "10", "9", "0", "5", "6", "7", "3", "2", "3", "7", "9", "0", "5", "1", "1", "1", "1"], "time": [1021, 1054, 1437, 1520, 1687, 1936, 2252, 2518, 2785, 2884, 3167, 3234, 3650, 3733, 4365, 6080, 6346, 6678, 6753, 6811, 6911, 7244, 8991, 9158, 9441, 9474, 10023, 10439, 10489, 10838, 10971, 11521, 14666, 14749]}, "edge": {"target": [], "time": []}}}, "displayed_time": "14.28", "trialTime": 15315, "trial_type": "mouselab-mdp", "trial_index": 61, "time_elapsed": 898804, "internal_node_id": "0.0-4.0-3.0-21.0"}}, {"uniqueid": "w67473409:a11392863", "current_trial": 62, "dateTime": 1664368731561, "trialdata": {"revealed_states": [], "num_clicks_accrued": [0, 0, 0, 0, 0, 0, 0, 0, 0, 0, 0, 0, 0], "stateRewards": ["", -4, 8, 24, -24, -2, 4, -24, 48, -2, 8, -48, -24], "withholdReward": true, "trial_id": "mdp_799359103169", "block": "test2", "trialIndex": 54, "score": 54.5, "costs": -0.5, "simulationMode": [null, null, null], "rewards": [-2, 4, 48], "path": ["0", "0", "5", "6", "8"], "rt": [2096, 51, 123], "actions": ["right", "right", "down"], "actionTimes": [3366, 3928, 4566], "queries": {"click": {"state": {"target": ["7", "8"], "time": [1853, 2219]}, "edge": {"target": [], "time": []}}, "mouseover": {"state": {"target": ["5", "7", "6", "8", "1"], "time": [1430, 1630, 2047, 2146, 2562]}, "edge": {"target": [], "time": []}}, "mouseout": {"state": {"target": ["6", "0", "0", "5", "7", "6", "8", "1", "5", "5", "0", "1", "5"], "time": [631, 765, 1397, 1480, 1997, 2113, 2412, 2695, 5724, 15874, 16007, 16173, 16856]}, "edge": {"target": [], "time": []}}}, "displayed_time": "9.27", "trialTime": 17449, "trial_type": "mouselab-mdp", "trial_index": 62, "time_elapsed": 916303, "internal_node_id": "0.0-4.0-3.0-22.0"}}, {"uniqueid": "w67473409:a11392863", "current_trial": 63, "dateTime": 1664368741695, "trialdata": {"revealed_states": [], "num_clicks_accrued": [0, 0, 0, 0, 0, 0, 0, 0, 0, 0, 0, 0, 0], "stateRewards": ["", -4, -4, 24, -48, 2, 4, -24, -48, -2, -8, -24, 24], "withholdReward": false, "trial_id": "mdp_565569130486", "block": "test2", "trialIndex": 55, "score": 19, "costs": -2, "simulationMode": [null, null, null], "rewards": [-4, -4, 24], "path": ["0", "0", "1", "2", "3"], "rt": [6037, 164, 98], "actions": ["up", "up", "right"], "actionTimes": [7047, 7724, 8324], "queries": {"click": {"state": {"target": ["7", "8", "4", "3", "11", "12", "2", "10"], "time": [1436, 1883, 2598, 2908, 3443, 3694, 5192, 5642]}, "edge": {"target": [], "time": []}}, "mouseover": {"state": {"target": ["5", "7", "6", "8", "4", "2", "3", "11", "10", "12", "9", "2", "2", "10", "9", "1"], "time": [1169, 1370, 1685, 1802, 2551, 2750, 2834, 3333, 3582, 3649, 3965, 4683, 5097, 5563, 5812, 6195]}, "edge": {"target": [], "time": []}}, "mouseout": {"state": {"target": ["9", "5", "7", "6", "8", "4", "2", "3", "11", "10", "12", "9", "2", "2", "10", "9", "1", "2"], "time": [770, 1219, 1635, 1752, 2102, 2734, 2800, 3050, 3549, 3616, 3849, 4032, 4830, 5313, 5779, 5829, 6412, 9290]}, "edge": {"target": [], "time": []}}}, "displayed_time": "9.01", "trialTime": 10083, "trial_type": "mouselab-mdp", "trial_index": 63, "time_elapsed": 926437, "internal_node_id": "0.0-4.0-3.0-23.0"}}, {"uniqueid": "w67473409:a11392863", "current_trial": 64, "dateTime": 1664368759606, "trialdata": {"revealed_states": [], "num_clicks_accrued": [0, 0, 0, 0, 0, 0, 0, 0, 0, 0, 0, 0, 0], "stateRewards": ["", 2, 4, 48, -48, 2, -4, 48, 24, -2, -8, -24, 48], "withholdReward": true, "trial_id": "mdp_962424406744", "block": "test2", "trialIndex": 56, "score": 50.5, "costs": -0.5, "simulationMode": [null, null, null], "rewards": [2, -4, 48], "path": ["0", "0", "5", "6", "7"], "rt": [1665, 291, 71], "actions": ["right", "right", "up"], "actionTimes": [2728, 3536, 4115], "queries": {"click": {"state": {"target": ["7", "8"], "time": [1467, 1881]}, "edge": {"target": [], "time": []}}, "mouseover": {"state": {"target": ["5", "7", "6", "8", "6"], "time": [1181, 1347, 1696, 1797, 2112]}, "edge": {"target": [], "time": []}}, "mouseout": {"state": {"target": ["5", "0", "5", "7", "6", "8", "6", "6"], "time": [864, 1147, 1214, 1647, 1746, 2013, 2279, 4941]}, "edge": {"target": [], "time": []}}}, "displayed_time": "9.06", "trialTime": 17855, "trial_type": "mouselab-mdp", "trial_index": 64, "time_elapsed": 944348, "internal_node_id": "0.0-4.0-3.0-24.0"}}, {"uniqueid": "w67473409:a11392863", "current_trial": 65, "dateTime": 1664368771252, "trialdata": {"revealed_states": [], "num_clicks_accrued": [0, 0, 0, 0, 0, 0, 0, 0, 0, 0, 0, 0, 0], "stateRewards": ["", 4, 4, -24, -48, 2, 4, 24, -48, 2, 4, 24, 24], "withholdReward": false, "trial_id": "mdp_223558518218", "block": "test2", "trialIndex": 57, "score": 32.75, "costs": -2.25, "simulationMode": [null, null, null], "rewards": [2, 4, 24], "path": ["0", "0", "5", "6", "7"], "rt": [7374, 91, 175], "actions": ["right", "right", "up"], "actionTimes": [8569, 9172, 9855], "queries": {"click": {"state": {"target": ["7", "4", "11", "12", "3", "8", "6", "10", "2"], "time": [1854, 2340, 2777, 3133, 3952, 4621, 6434, 7096, 7600]}, "edge": {"target": [], "time": []}}, "mouseover": {"state": {"target": ["5", "7", "1", "4", "11", "10", "12", "9", "1", "3", "3", "6", "8", "6", "5", "9", "10", "9", "1", "2"], "time": [1510, 1676, 2108, 2276, 2674, 2940, 3040, 3290, 3373, 3522, 3839, 4205, 4521, 6268, 6767, 6817, 7002, 7233, 7383, 7533]}, "edge": {"target": [], "time": []}}, "mouseout": {"state": {"target": ["0", "9", "0", "5", "7", "1", "4", "11", "10", "12", "9", "1", "3", "3", "6", "8", "6", "6", "5", "9", "10", "9", "1", "2", "7", "8"], "time": [777, 994, 1509, 1559, 2008, 2175, 2458, 2923, 2990, 3256, 3323, 3423, 3606, 4122, 4238, 4722, 6585, 6751, 6784, 6851, 7217, 7250, 7466, 7749, 8032, 10844]}, "edge": {"target": [], "time": []}}}, "displayed_time": "10.36", "trialTime": 11591, "trial_type": "mouselab-mdp", "trial_index": 65, "time_elapsed": 955993, "internal_node_id": "0.0-4.0-3.0-25.0"}}, {"uniqueid": "w67473409:a11392863", "current_trial": 66, "dateTime": 1664368787775, "trialdata": {"revealed_states": [], "num_clicks_accrued": [0, 0, 0, 0, 0, 0, 0, 0, 0, 0, 0, 0, 0], "stateRewards": ["", 2, 8, 24, 24, 2, -8, -24, -48, 2, 8, -48, 48], "withholdReward": true, "trial_id": "mdp_745175888812", "block": "test2", "trialIndex": 58, "score": 61.75, "costs": -1.25, "simulationMode": [null, null, null], "rewards": [2, 8, 48], "path": ["0", "0", "9", "10", "12"], "rt": [3505, 79, 119], "actions": ["left", "left", "down"], "actionTimes": [4492, 5078, 5700], "queries": {"click": {"state": {"target": ["7", "4", "3", "11", "12"], "time": [1507, 2052, 2389, 2852, 3254]}, "edge": {"target": [], "time": []}}, "mouseover": {"state": {"target": ["5", "6", "7", "6", "1", "4", "2", "3", "11", "10", "12", "8"], "time": [1221, 1338, 1437, 1703, 1870, 1986, 2202, 2302, 2735, 3018, 3101, 3617]}, "edge": {"target": [], "time": []}}, "mouseout": {"state": {"target": ["0", "5", "6", "7", "6", "1", "4", "2", "3", "11", "10", "12", "8", "8"], "time": [1204, 1287, 1354, 1654, 1786, 1919, 2186, 2253, 2518, 2984, 3051, 3400, 3683, 6579]}, "edge": {"target": [], "time": []}}}, "displayed_time": "9.99", "trialTime": 16478, "trial_type": "mouselab-mdp", "trial_index": 66, "time_elapsed": 972517, "internal_node_id": "0.0-4.0-3.0-26.0"}}, {"uniqueid": "w67473409:a11392863", "current_trial": 67, "dateTime": 1664368798824, "trialdata": {"revealed_states": [], "num_clicks_accrued": [0, 0, 0, 0, 0, 0, 0, 0, 0, 0, 0, 0, 0], "stateRewards": ["", 2, -8, -24, 48, -4, -8, 24, -48, 4, -8, -24, -24], "withholdReward": false, "trial_id": "mdp_928911266656", "block": "test2", "trialIndex": 59, "score": 46.25, "costs": -0.75, "simulationMode": [null, null, null], "rewards": [2, -8, 48], "path": ["0", "0", "1", "2", "4"], "rt": [3074, 36, 7], "actions": ["up", "up", "left"], "actionTimes": [4503, 5047, 5583], "queries": {"click": {"state": {"target": ["7", "8", "4"], "time": [2247, 2754, 3349]}, "edge": {"target": [], "time": []}}, "mouseover": {"state": {"target": ["5", "6", "7", "6", "8", "5", "1", "4", "2", "3"], "time": [1649, 1682, 2082, 2431, 2514, 3014, 3080, 3230, 3496, 3613]}, "edge": {"target": [], "time": []}}, "mouseout": {"state": {"target": ["0", "0", "5", "6", "7", "6", "8", "5", "1", "4", "2", "3"], "time": [1149, 1632, 1665, 1749, 2398, 2464, 2980, 3030, 3146, 3462, 3529, 6508]}, "edge": {"target": [], "time": []}}}, "displayed_time": "9.43", "trialTime": 10999, "trial_type": "mouselab-mdp", "trial_index": 67, "time_elapsed": 983566, "internal_node_id": "0.0-4.0-3.0-27.0"}}, {"uniqueid": "w67473409:a11392863", "current_trial": 68, "dateTime": 1664368813286, "trialdata": {"revealed_states": [], "num_clicks_accrued": [0, 0, 0, 0, 0, 0, 0, 0, 0, 0, 0, 0, 0], "stateRewards": ["", 4, -8, 48, 48, 2, 4, 48, -48, 4, -4, -48, 48], "withholdReward": false, "trial_id": "mdp_519605841135", "block": "test2", "trialIndex": 60, "score": 58.75, "costs": -0.25, "simulationMode": [null, null, null], "rewards": [2, 4, 48], "path": ["0", "0", "5", "6", "7"], "rt": [1799, 1364, 617], "actions": ["right", "right", "up"], "actionTimes": [3422, 5292, 6425], "queries": {"click": {"state": {"target": ["7"], "time": [2158]}, "edge": {"target": [], "time": []}}, "mouseover": {"state": {"target": ["7", "1", "6"], "time": [2014, 2430, 2830]}, "edge": {"target": [], "time": []}}, "mouseout": {"state": {"target": ["0", "7", "1", "6", "6", "5"], "time": [1315, 2347, 2446, 2929, 7255, 7305]}, "edge": {"target": [], "time": []}}}, "displayed_time": "11.62", "trialTime": 14410, "trial_type": "mouselab-mdp", "trial_index": 68, "time_elapsed": 998028, "internal_node_id": "0.0-4.0-3.0-28.0"}}, {"uniqueid": "w67473409:a11392863", "current_trial": 69, "dateTime": 1664368826418, "trialdata": {"revealed_states": [], "num_clicks_accrued": [0, 0, 0, 0, 0, 0, 0, 0, 0, 0, 0, 0, 0], "stateRewards": ["", 2, 4, 48, 24, -2, -8, 24, 24, -2, 4, -48, 24], "withholdReward": true, "trial_id": "mdp_130849500124", "block": "test2", "trialIndex": 61, "score": 58.25, "costs": -0.75, "simulationMode": [null, null, null], "rewards": [2, 4, 48], "path": ["0", "0", "1", "2", "3"], "rt": [2567, 283, 21], "actions": ["up", "up", "right"], "actionTimes": [3943, 4739, 5275], "queries": {"click": {"state": {"target": ["7", "4", "3"], "time": [1798, 2377, 2784]}, "edge": {"target": [], "time": []}}, "mouseover": {"state": {"target": ["5", "7", "5", "1", "4", "2", "3", "5", "8", "5"], "time": [1526, 1726, 2043, 2142, 2292, 2575, 2691, 3074, 3157, 3323]}, "edge": {"target": [], "time": []}}, "mouseout": {"state": {"target": ["0", "5", "7", "5", "1", "4", "2", "3", "5", "8", "5"], "time": [1476, 1543, 1959, 2092, 2208, 2541, 2657, 2908, 3107, 3273, 3390]}, "edge": {"target": [], "time": []}}}, "displayed_time": "10.38", "trialTime": 13077, "trial_type": "mouselab-mdp", "trial_index": 69, "time_elapsed": 1011160, "internal_node_id": "0.0-4.0-3.0-29.0"}}, {"uniqueid": "w67473409:a11392863", "current_trial": 70, "dateTime": 1664368852137, "trialdata": {"rt": 25715, "stimulus": "<h1> End of block! </h1>\n\nYou have reached the end of the block 2/4. If you need a short break, feel free to take one now before moving on.\n\n<br><br>\nIn the next block, you will complete another 30 rounds of this game.\n\n<br><br>\n<div style='text-align: center;'>Press <code>space</code> to begin.</div>\n<br><br>\n<div style='text-align: center;'>(If the experiment doesn't continue, try clicking on the text and then pressing <code>space</code>.)</div>", "response": " ", "trial_id": "mdp_ready_3", "trial_type": "html-keyboard-response", "trial_index": 70, "time_elapsed": 1036879, "internal_node_id": "0.0-4.0-4.0"}}, {"uniqueid": "w67473409:a11392863", "current_trial": 71, "dateTime": 1664368862970, "trialdata": {"revealed_states": [], "num_clicks_accrued": [0, 0, 0, 0, 0, 0, 0, 0, 0, 0, 0, 0, 0], "stateRewards": ["", -2, -8, -48, 24, 2, -4, -48, 48, 2, 4, 24, -24], "withholdReward": true, "trial_id": "mdp_849341543762", "block": "test3", "trialIndex": 62, "score": 49.5, "costs": -1.5, "simulationMode": [null, null, null], "rewards": [2, -4, 48], "path": ["0", "0", "5", "6", "8"], "rt": [5113, 59, 104], "actions": ["right", "right", "down"], "actionTimes": [7813, 8383, 8994], "queries": {"click": {"state": {"target": ["4", "3", "7", "11", "12", "8"], "time": [3527, 3979, 4406, 5147, 6066, 6553]}, "edge": {"target": [], "time": []}}, "mouseover": {"state": {"target": ["2", "4", "2", "3", "7", "6", "9", "10", "11", "10", "12", "12", "12", "8", "5"], "time": [3265, 3432, 3698, 3848, 4214, 4580, 4862, 4946, 5046, 5346, 5495, 5661, 5994, 6395, 7259]}, "edge": {"target": [], "time": []}}, "mouseout": {"state": {"target": ["0", "2", "4", "2", "3", "7", "6", "9", "10", "11", "10", "12", "12", "12", "8", "8"], "time": [2633, 3382, 3665, 3781, 4130, 4546, 4630, 4879, 4963, 5295, 5428, 5512, 5744, 6177, 6693, 7026]}, "edge": {"target": [], "time": []}}}, "displayed_time": "10.70", "trialTime": 10784, "trial_type": "mouselab-mdp", "trial_index": 71, "time_elapsed": 1047712, "internal_node_id": "0.0-4.0-5.0-0.0"}}, {"uniqueid": "w67473409:a11392863", "current_trial": 72, "dateTime": 1664368886281, "trialdata": {"revealed_states": [], "num_clicks_accrued": [0, 0, 0, 0, 0, 0, 0, 0, 0, 0, 0, 0, 0], "stateRewards": ["", -2, -4, 48, -24, -4, -4, -24, -24, -2, 4, -48, -24], "withholdReward": true, "trial_id": "mdp_410467837196", "block": "test3", "trialIndex": 63, "score": 45.5, "costs": -1.5, "simulationMode": [null, null, null], "rewards": [-2, -4, 48], "path": ["0", "0", "1", "2", "3"], "rt": [4487, 63, 178], "actions": ["up", "up", "right"], "actionTimes": [5441, 6020, 6701], "queries": {"click": {"state": {"target": ["7", "4", "11", "12", "8", "3"], "time": [1366, 1901, 2367, 3118, 3614, 4394]}, "edge": {"target": [], "time": []}}, "mouseover": {"state": {"target": ["5", "7", "1", "4", "11", "9", "12", "8", "5", "3"], "time": [1132, 1332, 1697, 1797, 2313, 2529, 3078, 3511, 3810, 4128]}, "edge": {"target": [], "time": []}}, "mouseout": {"state": {"target": ["5", "0", "5", "7", "1", "4", "11", "9", "12", "8", "5", "3"], "time": [649, 1082, 1148, 1514, 1732, 2097, 2479, 2596, 3262, 3761, 3844, 4510]}, "edge": {"target": [], "time": []}}}, "displayed_time": "9.96", "trialTime": 23258, "trial_type": "mouselab-mdp", "trial_index": 72, "time_elapsed": 1071023, "internal_node_id": "0.0-4.0-5.0-1.0"}}, {"uniqueid": "w67473409:a11392863", "current_trial": 73, "dateTime": 1664368897728, "trialdata": {"revealed_states": [], "num_clicks_accrued": [0, 0, 0, 0, 0, 0, 0, 0, 0, 0, 0, 0, 0], "stateRewards": ["", -2, -4, -24, -48, 2, -8, -24, -24, 4, -8, 48, 48], "withholdReward": true, "trial_id": "mdp_950599994674", "block": "test3", "trialIndex": 64, "score": 47.75, "costs": -1.25, "simulationMode": [null, null, null], "rewards": [4, -8, 48], "path": ["0", "0", "9", "10", "11"], "rt": [3240, 7, 108], "actions": ["left", "left", "up"], "actionTimes": [4778, 5319, 5952], "queries": {"click": {"state": {"target": ["7", "4", "3", "11", "12"], "time": [2156, 2647, 3016, 3469, 3749]}, "edge": {"target": [], "time": []}}, "mouseover": {"state": {"target": ["7", "4", "2", "3", "11", "10", "12", "9", "0"], "time": [2067, 2616, 2849, 2949, 3381, 3599, 3681, 3997, 4080]}, "edge": {"target": [], "time": []}}, "mouseout": {"state": {"target": ["0", "7", "4", "2", "3", "11", "10", "12", "9", "0", "0", "5", "6"], "time": [1651, 2300, 2816, 2915, 3132, 3581, 3648, 3931, 4030, 4214, 6610, 6643, 10636]}, "edge": {"target": [], "time": []}}}, "displayed_time": "9.54", "trialTime": 11396, "trial_type": "mouselab-mdp", "trial_index": 73, "time_elapsed": 1082470, "internal_node_id": "0.0-4.0-5.0-2.0"}}, {"uniqueid": "w67473409:a11392863", "current_trial": 74, "dateTime": 1664368908044, "trialdata": {"revealed_states": [], "num_clicks_accrued": [0, 0, 0, 0, 0, 0, 0, 0, 0, 0, 0, 0, 0], "stateRewards": ["", -2, -4, -48, 48, -4, 4, -48, 24, -4, -8, 24, 48], "withholdReward": true, "trial_id": "mdp_264482284450", "block": "test3", "trialIndex": 65, "score": 46.5, "costs": -0.5, "simulationMode": [null, null, null], "rewards": [-2, -4, 48], "path": ["0", "0", "1", "2", "4"], "rt": [2392, 49, 26], "actions": ["up", "up", "left"], "actionTimes": [3737, 4297, 4839], "queries": {"click": {"state": {"target": ["7", "4"], "time": [1820, 2419]}, "edge": {"target": [], "time": []}}, "mouseover": {"state": {"target": ["5", "7", "1", "4", "1"], "time": [1551, 1668, 2117, 2384, 2751]}, "edge": {"target": [], "time": []}}, "mouseout": {"state": {"target": ["8", "0", "9", "10", "9", "0", "5", "7", "1", "4", "1", "4"], "time": [519, 553, 569, 753, 935, 1519, 1585, 2017, 2268, 2566, 2766, 5795]}, "edge": {"target": [], "time": []}}}, "displayed_time": "9.35", "trialTime": 10264, "trial_type": "mouselab-mdp", "trial_index": 74, "time_elapsed": 1092786, "internal_node_id": "0.0-4.0-5.0-3.0"}}, {"uniqueid": "w67473409:a11392863", "current_trial": 75, "dateTime": 1664368922844, "trialdata": {"revealed_states": [], "num_clicks_accrued": [0, 0, 0, 0, 0, 0, 0, 0, 0, 0, 0, 0, 0], "stateRewards": ["", 2, 4, 48, -48, 2, -4, 48, 24, -2, -8, -24, 48], "withholdReward": true, "trial_id": "mdp_962424406744", "block": "test3", "trialIndex": 66, "score": 50.75, "costs": -0.25, "simulationMode": [null, null, null], "rewards": [2, -4, 48], "path": ["0", "0", "5", "6", "7"], "rt": [1588, 31, 125], "actions": ["right", "right", "up"], "actionTimes": [3054, 3593, 4220], "queries": {"click": {"state": {"target": ["7"], "time": [2029]}, "edge": {"target": [], "time": []}}, "mouseover": {"state": {"target": ["7"], "time": [1848]}, "edge": {"target": [], "time": []}}, "mouseout": {"state": {"target": ["11", "9", "0", "7"], "time": [949, 1199, 1765, 2248]}, "edge": {"target": [], "time": []}}}, "displayed_time": "10.47", "trialTime": 14744, "trial_type": "mouselab-mdp", "trial_index": 75, "time_elapsed": 1107586, "internal_node_id": "0.0-4.0-5.0-4.0"}}, {"uniqueid": "w67473409:a11392863", "current_trial": 76, "dateTime": 1664368933565, "trialdata": {"revealed_states": [], "num_clicks_accrued": [0, 0, 0, 0, 0, 0, 0, 0, 0, 0, 0, 0, 0], "stateRewards": ["", 2, 8, 48, 24, 2, 8, 48, 48, -2, -4, -24, -48], "withholdReward": true, "trial_id": "mdp_717636349175", "block": "test3", "trialIndex": 67, "score": 62.75, "costs": -0.25, "simulationMode": [null, null, null], "rewards": [2, 8, 48], "path": ["0", "0", "5", "6", "7"], "rt": [1387, 28, 104], "actions": ["right", "right", "up"], "actionTimes": [2643, 3174, 3798], "queries": {"click": {"state": {"target": ["7"], "time": [1685]}, "edge": {"target": [], "time": []}}, "mouseover": {"state": {"target": ["7", "6"], "time": [1580, 1897]}, "edge": {"target": [], "time": []}}, "mouseout": {"state": {"target": ["1", "0", "7", "6", "7"], "time": [532, 1332, 1830, 1946, 4633]}, "edge": {"target": [], "time": []}}}, "displayed_time": "10.26", "trialTime": 10671, "trial_type": "mouselab-mdp", "trial_index": 76, "time_elapsed": 1118307, "internal_node_id": "0.0-4.0-5.0-5.0"}}, {"uniqueid": "w67473409:a11392863", "current_trial": 77, "dateTime": 1664368944808, "trialdata": {"revealed_states": [], "num_clicks_accrued": [0, 0, 0, 0, 0, 0, 0, 0, 0, 0, 0, 0, 0], "stateRewards": ["", -4, -8, -24, 24, 4, 4, -48, -48, -4, -4, 24, -48], "withholdReward": true, "trial_id": "mdp_431592223624", "block": "test3", "trialIndex": 68, "score": 19, "costs": -2, "simulationMode": [null, null, null], "rewards": [-4, -4, 24], "path": ["0", "0", "9", "10", "11"], "rt": [7346, 47, 150], "actions": ["left", "left", "up"], "actionTimes": [8513, 9075, 9744], "queries": {"click": {"state": {"target": ["8", "7", "4", "3", "11", "12", "10", "2"], "time": [1743, 2433, 3403, 3728, 4621, 5022, 6459, 6885]}, "edge": {"target": [], "time": []}}, "mouseover": {"state": {"target": ["5", "8", "7", "1", "4", "4", "2", "3", "9", "10", "11", "10", "12", "1", "1", "10", "2"], "time": [1323, 1406, 2272, 2721, 3022, 3337, 3569, 3636, 3985, 4052, 4320, 4784, 4918, 5550, 5949, 6332, 6748]}, "edge": {"target": [], "time": []}}, "mouseout": {"state": {"target": ["7", "0", "5", "8", "7", "1", "4", "4", "2", "3", "9", "10", "11", "10", "12", "1", "1", "10", "2"], "time": [574, 1290, 1340, 2089, 2588, 2754, 3154, 3553, 3603, 3869, 4019, 4085, 4751, 4884, 5234, 5666, 6199, 6565, 7014]}, "edge": {"target": [], "time": []}}}, "displayed_time": "10.26", "trialTime": 11189, "trial_type": "mouselab-mdp", "trial_index": 77, "time_elapsed": 1129550, "internal_node_id": "0.0-4.0-5.0-6.0"}}, {"uniqueid": "w67473409:a11392863", "current_trial": 78, "dateTime": 1664368968030, "trialdata": {"revealed_states": [], "num_clicks_accrued": [0, 0, 0, 0, 0, 0, 0, 0, 0, 0, 0, 0, 0], "stateRewards": ["", 2, 4, 48, 24, -4, 8, 48, 48, 2, -4, -48, -24], "withholdReward": true, "trial_id": "mdp_822099887466", "block": "test3", "trialIndex": 69, "score": 56.75, "costs": -0.25, "simulationMode": [null, null, null], "rewards": [-4, 8, 48], "path": ["0", "0", "5", "6", "7"], "rt": [1443, 41, 126], "actions": ["right", "right", "up"], "actionTimes": [2700, 3250, 3901], "queries": {"click": {"state": {"target": ["7"], "time": [1669]}, "edge": {"target": [], "time": []}}, "mouseover": {"state": {"target": ["7", "1"], "time": [1563, 2061]}, "edge": {"target": [], "time": []}}, "mouseout": {"state": {"target": ["2", "4", "4", "1", "7", "1", "7", "8", "8", "8"], "time": [564, 597, 813, 962, 1861, 2111, 4605, 21763, 22096, 22429]}, "edge": {"target": [], "time": []}}}, "displayed_time": "10.26", "trialTime": 23169, "trial_type": "mouselab-mdp", "trial_index": 78, "time_elapsed": 1152772, "internal_node_id": "0.0-4.0-5.0-7.0"}}, {"uniqueid": "w67473409:a11392863", "current_trial": 79, "dateTime": 1664368982366, "trialdata": {"revealed_states": [], "num_clicks_accrued": [0, 0, 0, 0, 0, 0, 0, 0, 0, 0, 0, 0, 0], "stateRewards": ["", -2, -8, 48, 24, 2, 4, 24, -24, -2, -4, 48, -48], "withholdReward": false, "trial_id": "mdp_411152402386", "block": "test3", "trialIndex": 70, "score": 42.25, "costs": -0.75, "simulationMode": [null, null, null], "rewards": [-2, -8, 48], "path": ["0", "0", "1", "2", "3"], "rt": [2699, 15, 231], "actions": ["up", "up", "right"], "actionTimes": [4096, 4616, 5365], "queries": {"click": {"state": {"target": ["7", "4", "3"], "time": [1887, 2522, 2881]}, "edge": {"target": [], "time": []}}, "mouseover": {"state": {"target": ["7", "1", "4", "3", "1"], "time": [1755, 2121, 2471, 2821, 3037]}, "edge": {"target": [], "time": []}}, "mouseout": {"state": {"target": ["12", "0", "7", "1", "4", "3", "1", "5", "5"], "time": [574, 1489, 2039, 2271, 2671, 3003, 3103, 12638, 12821]}, "edge": {"target": [], "time": []}}}, "displayed_time": "10.40", "trialTime": 14285, "trial_type": "mouselab-mdp", "trial_index": 79, "time_elapsed": 1167107, "internal_node_id": "0.0-4.0-5.0-8.0"}}, {"uniqueid": "w67473409:a11392863", "current_trial": 80, "dateTime": 1664369006650, "trialdata": {"revealed_states": [], "num_clicks_accrued": [0, 0, 0, 0, 0, 0, 0, 0, 0, 0, 0, 0, 0], "stateRewards": ["", -4, -4, -48, 48, -4, -8, -24, -48, -2, 8, 48, 24], "withholdReward": true, "trial_id": "mdp_365393526663", "block": "test3", "trialIndex": 71, "score": 44.5, "costs": -0.5, "simulationMode": [null, null, null], "rewards": [-4, -4, 48], "path": ["0", "0", "1", "2", "4"], "rt": [2413, 78, 37], "actions": ["up", "up", "left"], "actionTimes": [3481, 4065, 4606], "queries": {"click": {"state": {"target": ["7", "4"], "time": [1811, 2307]}, "edge": {"target": [], "time": []}}, "mouseover": {"state": {"target": ["5", "7", "1", "4", "11"], "time": [1240, 1706, 2072, 2239, 2638]}, "edge": {"target": [], "time": []}}, "mouseout": {"state": {"target": ["0", "5", "7", "1", "4", "11", "0"], "time": [1207, 1291, 1989, 2106, 2472, 2721, 23422]}, "edge": {"target": [], "time": []}}}, "displayed_time": "10.07", "trialTime": 24228, "trial_type": "mouselab-mdp", "trial_index": 80, "time_elapsed": 1191392, "internal_node_id": "0.0-4.0-5.0-9.0"}}, {"uniqueid": "w67473409:a11392863", "current_trial": 81, "dateTime": 1664369021270, "trialdata": {"revealed_states": [], "num_clicks_accrued": [0, 0, 0, 0, 0, 0, 0, 0, 0, 0, 0, 0, 0], "stateRewards": ["", 2, -4, -24, -24, -2, -8, -48, 24, -4, -8, 24, 24], "withholdReward": true, "trial_id": "mdp_521351546461", "block": "test3", "trialIndex": 72, "score": -23, "costs": -2, "simulationMode": [null, null, null], "rewards": [2, -4, -24], "path": ["0", "0", "1", "2", "4"], "rt": [8059, 104, 80], "actions": ["up", "up", "left"], "actionTimes": [10216, 10826, 11418], "queries": {"click": {"state": {"target": ["7", "8", "4", "3", "11", "12", "10", "2"], "time": [4864, 5366, 5869, 6240, 6751, 7581, 8826, 9378]}, "edge": {"target": [], "time": []}}, "mouseover": {"state": {"target": ["5", "6", "5", "7", "6", "8", "5", "1", "4", "2", "3", "1",