{"condition": 0, "counterbalance": 0, "assignmentId": "a89452757", "workerId": "w23605410", "hitId": "h97635651", "currenttrial": 971, "bonus": 0, "data": [{"uniqueid": "w23605410:a89452757", "current_trial": 0, "dateTime": 1664367908133, "trialdata": {"success": true, "trial_type": "fullscreen", "trial_index": 0, "time_elapsed": 5126, "internal_node_id": "0.0-0.0"}}, {"uniqueid": "w23605410:a89452757", "current_trial": 1, "dateTime": 1664367929830, "trialdata": {"view_history": [{"page_index": 0, "viewing_time": 21685}], "rt": 21687, "trial_id": "exp_instructions_distractor", "trial_type": "instructions", "trial_index": 1, "time_elapsed": 26823, "internal_node_id": "0.0-1.0"}}, {"uniqueid": "w23605410:a89452757", "current_trial": 2, "dateTime": 1664367980543, "trialdata": {"view_history": [{"page_index": 0, "viewing_time": 50707}], "rt": 50708, "trial_id": "color_game_instructions", "trial_type": "instructions", "trial_index": 2, "time_elapsed": 77537, "internal_node_id": "0.0-2.0"}}, {"uniqueid": "w23605410:a89452757", "current_trial": 3, "dateTime": 1664367984072, "trialdata": {"rt": 3523, "stimulus": "<h1> Get ready to start the game! </h1>\n\nThank you for reading the instructions. Get ready start with the first of 5 block(s) of this game.\n<br><br>\nIn this first block, you will complete 90 rounds of this game before moving on.\n<br><br>\nRemember, the better you perform, the bigger your bonus will be!\n<br><br>\n<div style='text-align: center;'>Press <code>space</code> to begin.</div>", "response": " ", "trial_id": "stroop_1_ready_1", "trial_type": "html-keyboard-response", "trial_index": 3, "time_elapsed": 81066, "internal_node_id": "0.0-3.0"}}, {"uniqueid": "w23605410:a89452757", "current_trial": 4, "dateTime": 1664367985289, "trialdata": {"rt": 1206, "stimulus": "<p id='stroop-text' class='stroop-blue'>BLUE</p>", "response": "b", "stimulus-type": "congruent", "word": "blue", "color": "blue", "correct_response": "b", "trial_id": "stroop-trial-1-congruent-19", "trial_type": "html-keyboard-response", "trial_index": 4, "time_elapsed": 82282, "internal_node_id": "0.0-4.0-0.0"}}, {"uniqueid": "w23605410:a89452757", "current_trial": 5, "dateTime": 1664367986694, "trialdata": {"rt": 902, "stimulus": "<p id='stroop-text' class='stroop-blue'>BRAIN</p>", "response": "b", "stimulus-type": "unrelated", "word": "BRAIN", "color": "blue", "correct_response": "b", "trial_id": "stroop-trial-1-unrelated-23", "trial_type": "html-keyboard-response", "trial_index": 5, "time_elapsed": 83688, "internal_node_id": "0.0-4.0-1.0"}}, {"uniqueid": "w23605410:a89452757", "current_trial": 6, "dateTime": 1664367988203, "trialdata": {"rt": 1005, "stimulus": "<p id='stroop-text' class='stroop-red'>GREEN</p>", "response": "r", "stimulus-type": "incongruent", "word": "green", "color": "red", "correct_response": "r", "trial_id": "stroop-trial-1-incongruent-5", "trial_type": "html-keyboard-response", "trial_index": 6, "time_elapsed": 85197, "internal_node_id": "0.0-4.0-2.0"}}, {"uniqueid": "w23605410:a89452757", "current_trial": 7, "dateTime": 1664367990260, "trialdata": {"rt": 1554, "stimulus": "<p id='stroop-text' class='stroop-yellow'>WINDOW</p>", "response": "y", "stimulus-type": "unrelated", "word": "WINDOW", "color": "yellow", "correct_response": "y", "trial_id": "stroop-trial-1-unrelated-22", "trial_type": "html-keyboard-response", "trial_index": 7, "time_elapsed": 87254, "internal_node_id": "0.0-4.0-3.0"}}, {"uniqueid": "w23605410:a89452757", "current_trial": 8, "dateTime": 1664367991853, "trialdata": {"rt": 1088, "stimulus": "<p id='stroop-text' class='stroop-yellow'>WINDOW</p>", "response": "y", "stimulus-type": "unrelated", "word": "WINDOW", "color": "yellow", "correct_response": "y", "trial_id": "stroop-trial-1-unrelated-18", "trial_type": "html-keyboard-response", "trial_index": 8, "time_elapsed": 88846, "internal_node_id": "0.0-4.0-4.0"}}, {"uniqueid": "w23605410:a89452757", "current_trial": 9, "dateTime": 1664367993385, "trialdata": {"rt": 1028, "stimulus": "<p id='stroop-text' class='stroop-yellow'>GREEN</p>", "response": "y", "stimulus-type": "incongruent", "word": "green", "color": "yellow", "correct_response": "y", "trial_id": "stroop-trial-1-incongruent-1", "trial_type": "html-keyboard-response", "trial_index": 9, "time_elapsed": 90379, "internal_node_id": "0.0-4.0-5.0"}}, {"uniqueid": "w23605410:a89452757", "current_trial": 10, "dateTime": 1664367994933, "trialdata": {"rt": 1045, "stimulus": "<p id='stroop-text' class='stroop-red'>RED</p>", "response": "r", "stimulus-type": "congruent", "word": "red", "color": "red", "correct_response": "r", "trial_id": "stroop-trial-1-congruent-5", "trial_type": "html-keyboard-response", "trial_index": 10, "time_elapsed": 91927, "internal_node_id": "0.0-4.0-6.0"}}, {"uniqueid": "w23605410:a89452757", "current_trial": 11, "dateTime": 1664367996600, "trialdata": {"rt": 1162, "stimulus": "<p id='stroop-text' class='stroop-yellow'>RED</p>", "response": "y", "stimulus-type": "incongruent", "word": "red", "color": "yellow", "correct_response": "y", "trial_id": "stroop-trial-1-incongruent-14", "trial_type": "html-keyboard-response", "trial_index": 11, "time_elapsed": 93593, "internal_node_id": "0.0-4.0-7.0"}}, {"uniqueid": "w23605410:a89452757", "current_trial": 12, "dateTime": 1664367998070, "trialdata": {"rt": 966, "stimulus": "<p id='stroop-text' class='stroop-blue'>YELLOW</p>", "response": "b", "stimulus-type": "incongruent", "word": "yellow", "color": "blue", "correct_response": "b", "trial_id": "stroop-trial-1-incongruent-30", "trial_type": "html-keyboard-response", "trial_index": 12, "time_elapsed": 95063, "internal_node_id": "0.0-4.0-8.0"}}, {"uniqueid": "w23605410:a89452757", "current_trial": 13, "dateTime": 1664368000008, "trialdata": {"rt": 1435, "stimulus": "<p id='stroop-text' class='stroop-yellow'>YELLOW</p>", "response": "y", "stimulus-type": "congruent", "word": "yellow", "color": "yellow", "correct_response": "y", "trial_id": "stroop-trial-1-congruent-30", "trial_type": "html-keyboard-response", "trial_index": 13, "time_elapsed": 97002, "internal_node_id": "0.0-4.0-9.0"}}, {"uniqueid": "w23605410:a89452757", "current_trial": 14, "dateTime": 1664368001747, "trialdata": {"rt": 1235, "stimulus": "<p id='stroop-text' class='stroop-green'>GREEN</p>", "response": "g", "stimulus-type": "congruent", "word": "green", "color": "green", "correct_response": "g", "trial_id": "stroop-trial-1-congruent-21", "trial_type": "html-keyboard-response", "trial_index": 14, "time_elapsed": 98740, "internal_node_id": "0.0-4.0-10.0"}}, {"uniqueid": "w23605410:a89452757", "current_trial": 15, "dateTime": 1664368003485, "trialdata": {"rt": 1235, "stimulus": "<p id='stroop-text' class='stroop-yellow'>RED</p>", "response": "y", "stimulus-type": "incongruent", "word": "red", "color": "yellow", "correct_response": "y", "trial_id": "stroop-trial-1-incongruent-4", "trial_type": "html-keyboard-response", "trial_index": 15, "time_elapsed": 100478, "internal_node_id": "0.0-4.0-11.0"}}, {"uniqueid": "w23605410:a89452757", "current_trial": 16, "dateTime": 1664368004957, "trialdata": {"rt": 968, "stimulus": "<p id='stroop-text' class='stroop-red'>BLUE</p>", "response": "r", "stimulus-type": "incongruent", "word": "blue", "color": "red", "correct_response": "r", "trial_id": "stroop-trial-1-incongruent-20", "trial_type": "html-keyboard-response", "trial_index": 16, "time_elapsed": 101950, "internal_node_id": "0.0-4.0-12.0"}}, {"uniqueid": "w23605410:a89452757", "current_trial": 17, "dateTime": 1664368006578, "trialdata": {"rt": 1116, "stimulus": "<p id='stroop-text' class='stroop-yellow'>BOTTLE</p>", "response": "y", "stimulus-type": "unrelated", "word": "BOTTLE", "color": "yellow", "correct_response": "y", "trial_id": "stroop-trial-1-unrelated-12", "trial_type": "html-keyboard-response", "trial_index": 17, "time_elapsed": 103571, "internal_node_id": "0.0-4.0-13.0"}}, {"uniqueid": "w23605410:a89452757", "current_trial": 18, "dateTime": 1664368008568, "trialdata": {"rt": 1485, "stimulus": "<p id='stroop-text' class='stroop-blue'>BLUE</p>", "response": "b", "stimulus-type": "congruent", "word": "blue", "color": "blue", "correct_response": "b", "trial_id": "stroop-trial-1-congruent-4", "trial_type": "html-keyboard-response", "trial_index": 18, "time_elapsed": 105562, "internal_node_id": "0.0-4.0-14.0"}}, {"uniqueid": "w23605410:a89452757", "current_trial": 19, "dateTime": 1664368009952, "trialdata": {"rt": 881, "stimulus": "<p id='stroop-text' class='stroop-blue'>MONKEY</p>", "response": "b", "stimulus-type": "unrelated", "word": "MONKEY", "color": "blue", "correct_response": "b", "trial_id": "stroop-trial-1-unrelated-5", "trial_type": "html-keyboard-response", "trial_index": 19, "time_elapsed": 106945, "internal_node_id": "0.0-4.0-15.0"}}, {"uniqueid": "w23605410:a89452757", "current_trial": 20, "dateTime": 1664368011324, "trialdata": {"rt": 869, "stimulus": "<p id='stroop-text' class='stroop-red'>RED</p>", "response": "r", "stimulus-type": "congruent", "word": "red", "color": "red", "correct_response": "r", "trial_id": "stroop-trial-1-congruent-6", "trial_type": "html-keyboard-response", "trial_index": 20, "time_elapsed": 108318, "internal_node_id": "0.0-4.0-16.0"}}, {"uniqueid": "w23605410:a89452757", "current_trial": 21, "dateTime": 1664368012817, "trialdata": {"rt": 990, "stimulus": "<p id='stroop-text' class='stroop-green'>GREEN</p>", "response": "g", "stimulus-type": "congruent", "word": "green", "color": "green", "correct_response": "g", "trial_id": "stroop-trial-1-congruent-7", "trial_type": "html-keyboard-response", "trial_index": 21, "time_elapsed": 109811, "internal_node_id": "0.0-4.0-17.0"}}, {"uniqueid": "w23605410:a89452757", "current_trial": 22, "dateTime": 1664368014309, "trialdata": {"rt": 989, "stimulus": "<p id='stroop-text' class='stroop-yellow'>CHAIR</p>", "response": "y", "stimulus-type": "unrelated", "word": "CHAIR", "color": "yellow", "correct_response": "y", "trial_id": "stroop-trial-1-unrelated-15", "trial_type": "html-keyboard-response", "trial_index": 22, "time_elapsed": 111303, "internal_node_id": "0.0-4.0-18.0"}}, {"uniqueid": "w23605410:a89452757", "current_trial": 23, "dateTime": 1664368016110, "trialdata": {"rt": 1296, "stimulus": "<p id='stroop-text' class='stroop-green'>BOAT</p>", "response": "g", "stimulus-type": "unrelated", "word": "BOAT", "color": "green", "correct_response": "g", "trial_id": "stroop-trial-1-unrelated-30", "trial_type": "html-keyboard-response", "trial_index": 23, "time_elapsed": 113103, "internal_node_id": "0.0-4.0-19.0"}}, {"uniqueid": "w23605410:a89452757", "current_trial": 24, "dateTime": 1664368017484, "trialdata": {"rt": 868, "stimulus": "<p id='stroop-text' class='stroop-red'>RED</p>", "response": "r", "stimulus-type": "congruent", "word": "red", "color": "red", "correct_response": "r", "trial_id": "stroop-trial-1-congruent-12", "trial_type": "html-keyboard-response", "trial_index": 24, "time_elapsed": 114477, "internal_node_id": "0.0-4.0-20.0"}}, {"uniqueid": "w23605410:a89452757", "current_trial": 25, "dateTime": 1664368018928, "trialdata": {"rt": 941, "stimulus": "<p id='stroop-text' class='stroop-red'>YELLOW</p>", "response": "r", "stimulus-type": "incongruent", "word": "yellow", "color": "red", "correct_response": "r", "trial_id": "stroop-trial-1-incongruent-2", "trial_type": "html-keyboard-response", "trial_index": 25, "time_elapsed": 115922, "internal_node_id": "0.0-4.0-21.0"}}, {"uniqueid": "w23605410:a89452757", "current_trial": 26, "dateTime": 1664368020100, "trialdata": {"rt": 669, "stimulus": "<p id='stroop-text' class='stroop-red'>RED</p>", "response": "r", "stimulus-type": "congruent", "word": "red", "color": "red", "correct_response": "r", "trial_id": "stroop-trial-1-congruent-2", "trial_type": "html-keyboard-response", "trial_index": 26, "time_elapsed": 117093, "internal_node_id": "0.0-4.0-22.0"}}, {"uniqueid": "w23605410:a89452757", "current_trial": 27, "dateTime": 1664368021280, "trialdata": {"rt": 677, "stimulus": "<p id='stroop-text' class='stroop-red'>GREEN</p>", "response": "r", "stimulus-type": "incongruent", "word": "green", "color": "red", "correct_response": "r", "trial_id": "stroop-trial-1-incongruent-26", "trial_type": "html-keyboard-response", "trial_index": 27, "time_elapsed": 118274, "internal_node_id": "0.0-4.0-23.0"}}, {"uniqueid": "w23605410:a89452757", "current_trial": 28, "dateTime": 1664368022648, "trialdata": {"rt": 864, "stimulus": "<p id='stroop-text' class='stroop-blue'>BLUE</p>", "response": "b", "stimulus-type": "congruent", "word": "blue", "color": "blue", "correct_response": "b", "trial_id": "stroop-trial-1-congruent-3", "trial_type": "html-keyboard-response", "trial_index": 28, "time_elapsed": 119642, "internal_node_id": "0.0-4.0-24.0"}}, {"uniqueid": "w23605410:a89452757", "current_trial": 29, "dateTime": 1664368024645, "trialdata": {"rt": 1493, "stimulus": "<p id='stroop-text' class='stroop-green'>STONE</p>", "response": "g", "stimulus-type": "unrelated", "word": "STONE", "color": "green", "correct_response": "g", "trial_id": "stroop-trial-1-unrelated-24", "trial_type": "html-keyboard-response", "trial_index": 29, "time_elapsed": 121638, "internal_node_id": "0.0-4.0-25.0"}}, {"uniqueid": "w23605410:a89452757", "current_trial": 30, "dateTime": 1664368026002, "trialdata": {"rt": 853, "stimulus": "<p id='stroop-text' class='stroop-red'>RED</p>", "response": "r", "stimulus-type": "congruent", "word": "red", "color": "red", "correct_response": "r", "trial_id": "stroop-trial-1-congruent-28", "trial_type": "html-keyboard-response", "trial_index": 30, "time_elapsed": 122995, "internal_node_id": "0.0-4.0-26.0"}}, {"uniqueid": "w23605410:a89452757", "current_trial": 31, "dateTime": 1664368027374, "trialdata": {"rt": 867, "stimulus": "<p id='stroop-text' class='stroop-green'>GREEN</p>", "response": "g", "stimulus-type": "congruent", "word": "green", "color": "green", "correct_response": "g", "trial_id": "stroop-trial-1-congruent-18", "trial_type": "html-keyboard-response", "trial_index": 31, "time_elapsed": 124368, "internal_node_id": "0.0-4.0-27.0"}}, {"uniqueid": "w23605410:a89452757", "current_trial": 32, "dateTime": 1664368028732, "trialdata": {"rt": 851, "stimulus": "<p id='stroop-text' class='stroop-red'>RED</p>", "response": "r", "stimulus-type": "congruent", "word": "red", "color": "red", "correct_response": "r", "trial_id": "stroop-trial-1-congruent-29", "trial_type": "html-keyboard-response", "trial_index": 32, "time_elapsed": 125725, "internal_node_id": "0.0-4.0-28.0"}}, {"uniqueid": "w23605410:a89452757", "current_trial": 33, "dateTime": 1664368030140, "trialdata": {"rt": 905, "stimulus": "<p id='stroop-text' class='stroop-yellow'>RED</p>", "response": "y", "stimulus-type": "incongruent", "word": "red", "color": "yellow", "correct_response": "y", "trial_id": "stroop-trial-1-incongruent-12", "trial_type": "html-keyboard-response", "trial_index": 33, "time_elapsed": 127134, "internal_node_id": "0.0-4.0-29.0"}}, {"uniqueid": "w23605410:a89452757", "current_trial": 34, "dateTime": 1664368031497, "trialdata": {"rt": 853, "stimulus": "<p id='stroop-text' class='stroop-red'>RED</p>", "response": "r", "stimulus-type": "congruent", "word": "red", "color": "red", "correct_response": "r", "trial_id": "stroop-trial-1-congruent-1", "trial_type": "html-keyboard-response", "trial_index": 34, "time_elapsed": 128491, "internal_node_id": "0.0-4.0-30.0"}}, {"uniqueid": "w23605410:a89452757", "current_trial": 35, "dateTime": 1664368032879, "trialdata": {"rt": 879, "stimulus": "<p id='stroop-text' class='stroop-blue'>CHAIR</p>", "response": "b", "stimulus-type": "unrelated", "word": "CHAIR", "color": "blue", "correct_response": "b", "trial_id": "stroop-trial-1-unrelated-10", "trial_type": "html-keyboard-response", "trial_index": 35, "time_elapsed": 129873, "internal_node_id": "0.0-4.0-31.0"}}, {"uniqueid": "w23605410:a89452757", "current_trial": 36, "dateTime": 1664368034036, "trialdata": {"rt": 652, "stimulus": "<p id='stroop-text' class='stroop-blue'>RED</p>", "response": "b", "stimulus-type": "incongruent", "word": "red", "color": "blue", "correct_response": "b", "trial_id": "stroop-trial-1-incongruent-13", "trial_type": "html-keyboard-response", "trial_index": 36, "time_elapsed": 131029, "internal_node_id": "0.0-4.0-32.0"}}, {"uniqueid": "w23605410:a89452757", "current_trial": 37, "dateTime": 1664368035522, "trialdata": {"rt": 980, "stimulus": "<p id='stroop-text' class='stroop-blue'>GREEN</p>", "response": "b", "stimulus-type": "incongruent", "word": "green", "color": "blue", "correct_response": "b", "trial_id": "stroop-trial-1-incongruent-17", "trial_type": "html-keyboard-response", "trial_index": 37, "time_elapsed": 132515, "internal_node_id": "0.0-4.0-33.0"}}, {"uniqueid": "w23605410:a89452757", "current_trial": 38, "dateTime": 1664368037037, "trialdata": {"rt": 1012, "stimulus": "<p id='stroop-text' class='stroop-red'>BLUE</p>", "response": "r", "stimulus-type": "incongruent", "word": "blue", "color": "red", "correct_response": "r", "trial_id": "stroop-trial-1-incongruent-23", "trial_type": "html-keyboard-response", "trial_index": 38, "time_elapsed": 134031, "internal_node_id": "0.0-4.0-34.0"}}, {"uniqueid": "w23605410:a89452757", "current_trial": 39, "dateTime": 1664368038319, "trialdata": {"rt": 776, "stimulus": "<p id='stroop-text' class='stroop-red'>FORK</p>", "response": "r", "stimulus-type": "unrelated", "word": "FORK", "color": "red", "correct_response": "r", "trial_id": "stroop-trial-1-unrelated-11", "trial_type": "html-keyboard-response", "trial_index": 39, "time_elapsed": 135313, "internal_node_id": "0.0-4.0-35.0"}}, {"uniqueid": "w23605410:a89452757", "current_trial": 40, "dateTime": 1664368039598, "trialdata": {"rt": 775, "stimulus": "<p id='stroop-text' class='stroop-red'>RED</p>", "response": "r", "stimulus-type": "congruent", "word": "red", "color": "red", "correct_response": "r", "trial_id": "stroop-trial-1-congruent-8", "trial_type": "html-keyboard-response", "trial_index": 40, "time_elapsed": 136591, "internal_node_id": "0.0-4.0-36.0"}}, {"uniqueid": "w23605410:a89452757", "current_trial": 41, "dateTime": 1664368040850, "trialdata": {"rt": 747, "stimulus": "<p id='stroop-text' class='stroop-red'>WINDOW</p>", "response": "r", "stimulus-type": "unrelated", "word": "WINDOW", "color": "red", "correct_response": "r", "trial_id": "stroop-trial-1-unrelated-29", "trial_type": "html-keyboard-response", "trial_index": 41, "time_elapsed": 137844, "internal_node_id": "0.0-4.0-37.0"}}, {"uniqueid": "w23605410:a89452757", "current_trial": 42, "dateTime": 1664368042068, "trialdata": {"rt": 715, "stimulus": "<p id='stroop-text' class='stroop-red'>WINDOW</p>", "response": "r", "stimulus-type": "unrelated", "word": "WINDOW", "color": "red", "correct_response": "r", "trial_id": "stroop-trial-1-unrelated-7", "trial_type": "html-keyboard-response", "trial_index": 42, "time_elapsed": 139062, "internal_node_id": "0.0-4.0-38.0"}}, {"uniqueid": "w23605410:a89452757", "current_trial": 43, "dateTime": 1664368043352, "trialdata": {"rt": 780, "stimulus": "<p id='stroop-text' class='stroop-red'>FORK</p>", "response": "r", "stimulus-type": "unrelated", "word": "FORK", "color": "red", "correct_response": "r", "trial_id": "stroop-trial-1-unrelated-3", "trial_type": "html-keyboard-response", "trial_index": 43, "time_elapsed": 140345, "internal_node_id": "0.0-4.0-39.0"}}, {"uniqueid": "w23605410:a89452757", "current_trial": 44, "dateTime": 1664368044645, "trialdata": {"rt": 790, "stimulus": "<p id='stroop-text' class='stroop-red'>RED</p>", "response": "r", "stimulus-type": "congruent", "word": "red", "color": "red", "correct_response": "r", "trial_id": "stroop-trial-1-congruent-25", "trial_type": "html-keyboard-response", "trial_index": 44, "time_elapsed": 141639, "internal_node_id": "0.0-4.0-40.0"}}, {"uniqueid": "w23605410:a89452757", "current_trial": 45, "dateTime": 1664368045985, "trialdata": {"rt": 836, "stimulus": "<p id='stroop-text' class='stroop-yellow'>GREEN</p>", "response": "y", "stimulus-type": "incongruent", "word": "green", "color": "yellow", "correct_response": "y", "trial_id": "stroop-trial-1-incongruent-18", "trial_type": "html-keyboard-response", "trial_index": 45, "time_elapsed": 142978, "internal_node_id": "0.0-4.0-41.0"}}, {"uniqueid": "w23605410:a89452757", "current_trial": 46, "dateTime": 1664368047206, "trialdata": {"rt": 716, "stimulus": "<p id='stroop-text' class='stroop-yellow'>FORK</p>", "response": "y", "stimulus-type": "unrelated", "word": "FORK", "color": "yellow", "correct_response": "y", "trial_id": "stroop-trial-1-unrelated-28", "trial_type": "html-keyboard-response", "trial_index": 46, "time_elapsed": 144199, "internal_node_id": "0.0-4.0-42.0"}}, {"uniqueid": "w23605410:a89452757", "current_trial": 47, "dateTime": 1664368048623, "trialdata": {"rt": 912, "stimulus": "<p id='stroop-text' class='stroop-red'>FORK</p>", "response": "r", "stimulus-type": "unrelated", "word": "FORK", "color": "red", "correct_response": "r", "trial_id": "stroop-trial-1-unrelated-4", "trial_type": "html-keyboard-response", "trial_index": 47, "time_elapsed": 145617, "internal_node_id": "0.0-4.0-43.0"}}, {"uniqueid": "w23605410:a89452757", "current_trial": 48, "dateTime": 1664368050168, "trialdata": {"rt": 1041, "stimulus": "<p id='stroop-text' class='stroop-blue'>YELLOW</p>", "response": "b", "stimulus-type": "incongruent", "word": "yellow", "color": "blue", "correct_response": "b", "trial_id": "stroop-trial-1-incongruent-11", "trial_type": "html-keyboard-response", "trial_index": 48, "time_elapsed": 147161, "internal_node_id": "0.0-4.0-44.0"}}, {"uniqueid": "w23605410:a89452757", "current_trial": 49, "dateTime": 1664368051624, "trialdata": {"rt": 951, "stimulus": "<p id='stroop-text' class='stroop-red'>BRAIN</p>", "response": "r", "stimulus-type": "unrelated", "word": "BRAIN", "color": "red", "correct_response": "r", "trial_id": "stroop-trial-1-unrelated-6", "trial_type": "html-keyboard-response", "trial_index": 49, "time_elapsed": 148617, "internal_node_id": "0.0-4.0-45.0"}}, {"uniqueid": "w23605410:a89452757", "current_trial": 50, "dateTime": 1664368052876, "trialdata": {"rt": 746, "stimulus": "<p id='stroop-text' class='stroop-yellow'>BOAT</p>", "response": "y", "stimulus-type": "unrelated", "word": "BOAT", "color": "yellow", "correct_response": "y", "trial_id": "stroop-trial-1-unrelated-13", "trial_type": "html-keyboard-response", "trial_index": 50, "time_elapsed": 149869, "internal_node_id": "0.0-4.0-46.0"}}, {"uniqueid": "w23605410:a89452757", "current_trial": 51, "dateTime": 1664368054597, "trialdata": {"rt": 1218, "stimulus": "<p id='stroop-text' class='stroop-red'>GREEN</p>", "response": "r", "stimulus-type": "incongruent", "word": "green", "color": "red", "correct_response": "r", "trial_id": "stroop-trial-1-incongruent-28", "trial_type": "html-keyboard-response", "trial_index": 51, "time_elapsed": 151591, "internal_node_id": "0.0-4.0-47.0"}}, {"uniqueid": "w23605410:a89452757", "current_trial": 52, "dateTime": 1664368055854, "trialdata": {"rt": 754, "stimulus": "<p id='stroop-text' class='stroop-blue'>BRIDGE</p>", "response": "b", "stimulus-type": "unrelated", "word": "BRIDGE", "color": "blue", "correct_response": "b", "trial_id": "stroop-trial-1-unrelated-17", "trial_type": "html-keyboard-response", "trial_index": 52, "time_elapsed": 152848, "internal_node_id": "0.0-4.0-48.0"}}, {"uniqueid": "w23605410:a89452757", "current_trial": 53, "dateTime": 1664368057097, "trialdata": {"rt": 738, "stimulus": "<p id='stroop-text' class='stroop-yellow'>STONE</p>", "response": "y", "stimulus-type": "unrelated", "word": "STONE", "color": "yellow", "correct_response": "y", "trial_id": "stroop-trial-1-unrelated-1", "trial_type": "html-keyboard-response", "trial_index": 53, "time_elapsed": 154090, "internal_node_id": "0.0-4.0-49.0"}}, {"uniqueid": "w23605410:a89452757", "current_trial": 54, "dateTime": 1664368058706, "trialdata": {"rt": 1103, "stimulus": "<p id='stroop-text' class='stroop-red'>FORK</p>", "response": "r", "stimulus-type": "unrelated", "word": "FORK", "color": "red", "correct_response": "r", "trial_id": "stroop-trial-1-unrelated-25", "trial_type": "html-keyboard-response", "trial_index": 54, "time_elapsed": 155700, "internal_node_id": "0.0-4.0-50.0"}}, {"uniqueid": "w23605410:a89452757", "current_trial": 55, "dateTime": 1664368060053, "trialdata": {"rt": 842, "stimulus": "<p id='stroop-text' class='stroop-blue'>BLUE</p>", "response": "b", "stimulus-type": "congruent", "word": "blue", "color": "blue", "correct_response": "b", "trial_id": "stroop-trial-1-congruent-13", "trial_type": "html-keyboard-response", "trial_index": 55, "time_elapsed": 157047, "internal_node_id": "0.0-4.0-51.0"}}, {"uniqueid": "w23605410:a89452757", "current_trial": 56, "dateTime": 1664368061371, "trialdata": {"rt": 813, "stimulus": "<p id='stroop-text' class='stroop-green'>GREEN</p>", "response": "g", "stimulus-type": "congruent", "word": "green", "color": "green", "correct_response": "g", "trial_id": "stroop-trial-1-congruent-16", "trial_type": "html-keyboard-response", "trial_index": 56, "time_elapsed": 158364, "internal_node_id": "0.0-4.0-52.0"}}, {"uniqueid": "w23605410:a89452757", "current_trial": 57, "dateTime": 1664368062789, "trialdata": {"rt": 915, "stimulus": "<p id='stroop-text' class='stroop-yellow'>WINDOW</p>", "response": "y", "stimulus-type": "unrelated", "word": "WINDOW", "color": "yellow", "correct_response": "y", "trial_id": "stroop-trial-1-unrelated-2", "trial_type": "html-keyboard-response", "trial_index": 57, "time_elapsed": 159783, "internal_node_id": "0.0-4.0-53.0"}}, {"uniqueid": "w23605410:a89452757", "current_trial": 58, "dateTime": 1664368064213, "trialdata": {"rt": 918, "stimulus": "<p id='stroop-text' class='stroop-blue'>BRAIN</p>", "response": "b", "stimulus-type": "unrelated", "word": "BRAIN", "color": "blue", "correct_response": "b", "trial_id": "stroop-trial-1-unrelated-19", "trial_type": "html-keyboard-response", "trial_index": 58, "time_elapsed": 161206, "internal_node_id": "0.0-4.0-54.0"}}, {"uniqueid": "w23605410:a89452757", "current_trial": 59, "dateTime": 1664368065537, "trialdata": {"rt": 820, "stimulus": "<p id='stroop-text' class='stroop-yellow'>YELLOW</p>", "response": "y", "stimulus-type": "congruent", "word": "yellow", "color": "yellow", "correct_response": "y", "trial_id": "stroop-trial-1-congruent-10", "trial_type": "html-keyboard-response", "trial_index": 59, "time_elapsed": 162530, "internal_node_id": "0.0-4.0-55.0"}}, {"uniqueid": "w23605410:a89452757", "current_trial": 60, "dateTime": 1664368066907, "trialdata": {"rt": 866, "stimulus": "<p id='stroop-text' class='stroop-blue'>BLUE</p>", "response": "b", "stimulus-type": "congruent", "word": "blue", "color": "blue", "correct_response": "b", "trial_id": "stroop-trial-1-congruent-23", "trial_type": "html-keyboard-response", "trial_index": 60, "time_elapsed": 163900, "internal_node_id": "0.0-4.0-56.0"}}, {"uniqueid": "w23605410:a89452757", "current_trial": 61, "dateTime": 1664368068229, "trialdata": {"rt": 818, "stimulus": "<p id='stroop-text' class='stroop-yellow'>RED</p>", "response": "y", "stimulus-type": "incongruent", "word": "red", "color": "yellow", "correct_response": "y", "trial_id": "stroop-trial-1-incongruent-7", "trial_type": "html-keyboard-response", "trial_index": 61, "time_elapsed": 165223, "internal_node_id": "0.0-4.0-57.0"}}, {"uniqueid": "w23605410:a89452757", "current_trial": 62, "dateTime": 1664368069461, "trialdata": {"rt": 727, "stimulus": "<p id='stroop-text' class='stroop-yellow'>GREEN</p>", "response": "y", "stimulus-type": "incongruent", "word": "green", "color": "yellow", "correct_response": "y", "trial_id": "stroop-trial-1-incongruent-6", "trial_type": "html-keyboard-response", "trial_index": 62, "time_elapsed": 166454, "internal_node_id": "0.0-4.0-58.0"}}, {"uniqueid": "w23605410:a89452757", "current_trial": 63, "dateTime": 1664368070792, "trialdata": {"rt": 827, "stimulus": "<p id='stroop-text' class='stroop-green'>YELLOW</p>", "response": "g", "stimulus-type": "incongruent", "word": "yellow", "color": "green", "correct_response": "g", "trial_id": "stroop-trial-1-incongruent-3", "trial_type": "html-keyboard-response", "trial_index": 63, "time_elapsed": 167786, "internal_node_id": "0.0-4.0-59.0"}}, {"uniqueid": "w23605410:a89452757", "current_trial": 64, "dateTime": 1664368072014, "trialdata": {"rt": 717, "stimulus": "<p id='stroop-text' class='stroop-green'>GREEN</p>", "response": "g", "stimulus-type": "congruent", "word": "green", "color": "green", "correct_response": "g", "trial_id": "stroop-trial-1-congruent-9", "trial_type": "html-keyboard-response", "trial_index": 64, "time_elapsed": 169007, "internal_node_id": "0.0-4.0-60.0"}}, {"uniqueid": "w23605410:a89452757", "current_trial": 65, "dateTime": 1664368073600, "trialdata": {"rt": 1081, "stimulus": "<p id='stroop-text' class='stroop-red'>BLUE</p>", "response": "r", "stimulus-type": "incongruent", "word": "blue", "color": "red", "correct_response": "r", "trial_id": "stroop-trial-1-incongruent-21", "trial_type": "html-keyboard-response", "trial_index": 65, "time_elapsed": 170594, "internal_node_id": "0.0-4.0-61.0"}}, {"uniqueid": "w23605410:a89452757", "current_trial": 66, "dateTime": 1664368075093, "trialdata": {"rt": 989, "stimulus": "<p id='stroop-text' class='stroop-blue'>YELLOW</p>", "response": "b", "stimulus-type": "incongruent", "word": "yellow", "color": "blue", "correct_response": "b", "trial_id": "stroop-trial-1-incongruent-8", "trial_type": "html-keyboard-response", "trial_index": 66, "time_elapsed": 172087, "internal_node_id": "0.0-4.0-62.0"}}, {"uniqueid": "w23605410:a89452757", "current_trial": 67, "dateTime": 1664368076937, "trialdata": {"rt": 1338, "stimulus": "<p id='stroop-text' class='stroop-green'>RED</p>", "response": "g", "stimulus-type": "incongruent", "word": "red", "color": "green", "correct_response": "g", "trial_id": "stroop-trial-1-incongruent-24", "trial_type": "html-keyboard-response", "trial_index": 67, "time_elapsed": 173931, "internal_node_id": "0.0-4.0-63.0"}}, {"uniqueid": "w23605410:a89452757", "current_trial": 68, "dateTime": 1664368078413, "trialdata": {"rt": 971, "stimulus": "<p id='stroop-text' class='stroop-red'>YELLOW</p>", "response": "r", "stimulus-type": "incongruent", "word": "yellow", "color": "red", "correct_response": "r", "trial_id": "stroop-trial-1-incongruent-29", "trial_type": "html-keyboard-response", "trial_index": 68, "time_elapsed": 175407, "internal_node_id": "0.0-4.0-64.0"}}, {"uniqueid": "w23605410:a89452757", "current_trial": 69, "dateTime": 1664368079640, "trialdata": {"rt": 723, "stimulus": "<p id='stroop-text' class='stroop-yellow'>YELLOW</p>", "response": "y", "stimulus-type": "congruent", "word": "yellow", "color": "yellow", "correct_response": "y", "trial_id": "stroop-trial-1-congruent-24", "trial_type": "html-keyboard-response", "trial_index": 69, "time_elapsed": 176634, "internal_node_id": "0.0-4.0-65.0"}}, {"uniqueid": "w23605410:a89452757", "current_trial": 70, "dateTime": 1664368081119, "trialdata": {"rt": 975, "stimulus": "<p id='stroop-text' class='stroop-red'>YELLOW</p>", "response": "r", "stimulus-type": "incongruent", "word": "yellow", "color": "red", "correct_response": "r", "trial_id": "stroop-trial-1-incongruent-15", "trial_type": "html-keyboard-response", "trial_index": 70, "time_elapsed": 178113, "internal_node_id": "0.0-4.0-66.0"}}, {"uniqueid": "w23605410:a89452757", "current_trial": 71, "dateTime": 1664368082325, "trialdata": {"rt": 700, "stimulus": "<p id='stroop-text' class='stroop-red'>RED</p>", "response": "r", "stimulus-type": "congruent", "word": "red", "color": "red", "correct_response": "r", "trial_id": "stroop-trial-1-congruent-27", "trial_type": "html-keyboard-response", "trial_index": 71, "time_elapsed": 179319, "internal_node_id": "0.0-4.0-67.0"}}, {"uniqueid": "w23605410:a89452757", "current_trial": 72, "dateTime": 1664368083561, "trialdata": {"rt": 730, "stimulus": "<p id='stroop-text' class='stroop-green'>GREEN</p>", "response": "g", "stimulus-type": "congruent", "word": "green", "color": "green", "correct_response": "g", "trial_id": "stroop-trial-1-congruent-17", "trial_type": "html-keyboard-response", "trial_index": 72, "time_elapsed": 180555, "internal_node_id": "0.0-4.0-68.0"}}, {"uniqueid": "w23605410:a89452757", "current_trial": 73, "dateTime": 1664368084815, "trialdata": {"rt": 750, "stimulus": "<p id='stroop-text' class='stroop-blue'>BLUE</p>", "response": "b", "stimulus-type": "congruent", "word": "blue", "color": "blue", "correct_response": "b", "trial_id": "stroop-trial-1-congruent-22", "trial_type": "html-keyboard-response", "trial_index": 73, "time_elapsed": 181809, "internal_node_id": "0.0-4.0-69.0"}}, {"uniqueid": "w23605410:a89452757", "current_trial": 74, "dateTime": 1664368086120, "trialdata": {"rt": 801, "stimulus": "<p id='stroop-text' class='stroop-yellow'>CHAIR</p>", "response": "y", "stimulus-type": "unrelated", "word": "CHAIR", "color": "yellow", "correct_response": "y", "trial_id": "stroop-trial-1-unrelated-8", "trial_type": "html-keyboard-response", "trial_index": 74, "time_elapsed": 183113, "internal_node_id": "0.0-4.0-70.0"}}, {"uniqueid": "w23605410:a89452757", "current_trial": 75, "dateTime": 1664368088117, "trialdata": {"rt": 1491, "stimulus": "<p id='stroop-text' class='stroop-green'>RED</p>", "response": "g", "stimulus-type": "incongruent", "word": "red", "color": "green", "correct_response": "g", "trial_id": "stroop-trial-1-incongruent-16", "trial_type": "html-keyboard-response", "trial_index": 75, "time_elapsed": 185110, "internal_node_id": "0.0-4.0-71.0"}}, {"uniqueid": "w23605410:a89452757", "current_trial": 76, "dateTime": 1664368089552, "trialdata": {"rt": 930, "stimulus": "<p id='stroop-text' class='stroop-red'>RED</p>", "response": "r", "stimulus-type": "congruent", "word": "red", "color": "red", "correct_response": "r", "trial_id": "stroop-trial-1-congruent-26", "trial_type": "html-keyboard-response", "trial_index": 76, "time_elapsed": 186546, "internal_node_id": "0.0-4.0-72.0"}}, {"uniqueid": "w23605410:a89452757", "current_trial": 77, "dateTime": 1664368091143, "trialdata": {"rt": 1085, "stimulus": "<p id='stroop-text' class='stroop-blue'>BOAT</p>", "response": "b", "stimulus-type": "unrelated", "word": "BOAT", "color": "blue", "correct_response": "b", "trial_id": "stroop-trial-1-unrelated-20", "trial_type": "html-keyboard-response", "trial_index": 77, "time_elapsed": 188136, "internal_node_id": "0.0-4.0-73.0"}}, {"uniqueid": "w23605410:a89452757", "current_trial": 78, "dateTime": 1664368092328, "trialdata": {"rt": 681, "stimulus": "<p id='stroop-text' class='stroop-yellow'>CHAIR</p>", "response": "y", "stimulus-type": "unrelated", "word": "CHAIR", "color": "yellow", "correct_response": "y", "trial_id": "stroop-trial-1-unrelated-26", "trial_type": "html-keyboard-response", "trial_index": 78, "time_elapsed": 189322, "internal_node_id": "0.0-4.0-74.0"}}, {"uniqueid": "w23605410:a89452757", "current_trial": 79, "dateTime": 1664368093594, "trialdata": {"rt": 761, "stimulus": "<p id='stroop-text' class='stroop-yellow'>BLUE</p>", "response": "y", "stimulus-type": "incongruent", "word": "blue", "color": "yellow", "correct_response": "y", "trial_id": "stroop-trial-1-incongruent-22", "trial_type": "html-keyboard-response", "trial_index": 79, "time_elapsed": 190587, "internal_node_id": "0.0-4.0-75.0"}}, {"uniqueid": "w23605410:a89452757", "current_trial": 80, "dateTime": 1664368094712, "trialdata": {"rt": 615, "stimulus": "<p id='stroop-text' class='stroop-yellow'>BOAT</p>", "response": "y", "stimulus-type": "unrelated", "word": "BOAT", "color": "yellow", "correct_response": "y", "trial_id": "stroop-trial-1-unrelated-14", "trial_type": "html-keyboard-response", "trial_index": 80, "time_elapsed": 191706, "internal_node_id": "0.0-4.0-76.0"}}, {"uniqueid": "w23605410:a89452757", "current_trial": 81, "dateTime": 1664368095859, "trialdata": {"rt": 642, "stimulus": "<p id='stroop-text' class='stroop-yellow'>STONE</p>", "response": "y", "stimulus-type": "unrelated", "word": "STONE", "color": "yellow", "correct_response": "y", "trial_id": "stroop-trial-1-unrelated-21", "trial_type": "html-keyboard-response", "trial_index": 81, "time_elapsed": 192853, "internal_node_id": "0.0-4.0-77.0"}}, {"uniqueid": "w23605410:a89452757", "current_trial": 82, "dateTime": 1664368097443, "trialdata": {"rt": 1078, "stimulus": "<p id='stroop-text' class='stroop-blue'>YELLOW</p>", "response": "b", "stimulus-type": "incongruent", "word": "yellow", "color": "blue", "correct_response": "b", "trial_id": "stroop-trial-1-incongruent-27", "trial_type": "html-keyboard-response", "trial_index": 82, "time_elapsed": 194437, "internal_node_id": "0.0-4.0-78.0"}}, {"uniqueid": "w23605410:a89452757", "current_trial": 83, "dateTime": 1664368098767, "trialdata": {"rt": 818, "stimulus": "<p id='stroop-text' class='stroop-blue'>BRAIN</p>", "response": "b", "stimulus-type": "unrelated", "word": "BRAIN", "color": "blue", "correct_response": "b", "trial_id": "stroop-trial-1-unrelated-16", "trial_type": "html-keyboard-response", "trial_index": 83, "time_elapsed": 195760, "internal_node_id": "0.0-4.0-79.0"}}, {"uniqueid": "w23605410:a89452757", "current_trial": 84, "dateTime": 1664368100013, "trialdata": {"rt": 741, "stimulus": "<p id='stroop-text' class='stroop-green'>BLUE</p>", "response": "g", "stimulus-type": "incongruent", "word": "blue", "color": "green", "correct_response": "g", "trial_id": "stroop-trial-1-incongruent-9", "trial_type": "html-keyboard-response", "trial_index": 84, "time_elapsed": 197007, "internal_node_id": "0.0-4.0-80.0"}}, {"uniqueid": "w23605410:a89452757", "current_trial": 85, "dateTime": 1664368101288, "trialdata": {"rt": 772, "stimulus": "<p id='stroop-text' class='stroop-blue'>BLUE</p>", "response": "b", "stimulus-type": "congruent", "word": "blue", "color": "blue", "correct_response": "b", "trial_id": "stroop-trial-1-congruent-15", "trial_type": "html-keyboard-response", "trial_index": 85, "time_elapsed": 198282, "internal_node_id": "0.0-4.0-81.0"}}, {"uniqueid": "w23605410:a89452757", "current_trial": 86, "dateTime": 1664368102576, "trialdata": {"rt": 784, "stimulus": "<p id='stroop-text' class='stroop-red'>BRAIN</p>", "response": "r", "stimulus-type": "unrelated", "word": "BRAIN", "color": "red", "correct_response": "r", "trial_id": "stroop-trial-1-unrelated-9", "trial_type": "html-keyboard-response", "trial_index": 86, "time_elapsed": 199570, "internal_node_id": "0.0-4.0-82.0"}}, {"uniqueid": "w23605410:a89452757", "current_trial": 87, "dateTime": 1664368104020, "trialdata": {"rt": 938, "stimulus": "<p id='stroop-text' class='stroop-blue'>BLUE</p>", "response": "b", "stimulus-type": "congruent", "word": "blue", "color": "blue", "correct_response": "b", "trial_id": "stroop-trial-1-congruent-14", "trial_type": "html-keyboard-response", "trial_index": 87, "time_elapsed": 201014, "internal_node_id": "0.0-4.0-83.0"}}, {"uniqueid": "w23605410:a89452757", "current_trial": 88, "dateTime": 1664368105269, "trialdata": {"rt": 745, "stimulus": "<p id='stroop-text' class='stroop-green'>MONKEY</p>", "response": "g", "stimulus-type": "unrelated", "word": "MONKEY", "color": "green", "correct_response": "g", "trial_id": "stroop-trial-1-unrelated-27", "trial_type": "html-keyboard-response", "trial_index": 88, "time_elapsed": 202263, "internal_node_id": "0.0-4.0-84.0"}}, {"uniqueid": "w23605410:a89452757", "current_trial": 89, "dateTime": 1664368106383, "trialdata": {"rt": 611, "stimulus": "<p id='stroop-text' class='stroop-green'>RED</p>", "response": "g", "stimulus-type": "incongruent", "word": "red", "color": "green", "correct_response": "g", "trial_id": "stroop-trial-1-incongruent-25", "trial_type": "html-keyboard-response", "trial_index": 89, "time_elapsed": 203377, "internal_node_id": "0.0-4.0-85.0"}}, {"uniqueid": "w23605410:a89452757", "current_trial": 90, "dateTime": 1664368107693, "trialdata": {"rt": 804, "stimulus": "<p id='stroop-text' class='stroop-red'>RED</p>", "response": "r", "stimulus-type": "congruent", "word": "red", "color": "red", "correct_response": "r", "trial_id": "stroop-trial-1-congruent-20", "trial_type": "html-keyboard-response", "trial_index": 90, "time_elapsed": 204687, "internal_node_id": "0.0-4.0-86.0"}}, {"uniqueid": "w23605410:a89452757", "current_trial": 91, "dateTime": 1664368109015, "trialdata": {"rt": 818, "stimulus": "<p id='stroop-text' class='stroop-yellow'>BLUE</p>", "response": "y", "stimulus-type": "incongruent", "word": "blue", "color": "yellow", "correct_response": "y", "trial_id": "stroop-trial-1-incongruent-10", "trial_type": "html-keyboard-response", "trial_index": 91, "time_elapsed": 206009, "internal_node_id": "0.0-4.0-87.0"}}, {"uniqueid": "w23605410:a89452757", "current_trial": 92, "dateTime": 1664368110392, "trialdata": {"rt": 871, "stimulus": "<p id='stroop-text' class='stroop-red'>RED</p>", "response": "r", "stimulus-type": "congruent", "word": "red", "color": "red", "correct_response": "r", "trial_id": "stroop-trial-1-congruent-11", "trial_type": "html-keyboard-response", "trial_index": 92, "time_elapsed": 207385, "internal_node_id": "0.0-4.0-88.0"}}, {"uniqueid": "w23605410:a89452757", "current_trial": 93, "dateTime": 1664368111756, "trialdata": {"rt": 859, "stimulus": "<p id='stroop-text' class='stroop-red'>BLUE</p>", "response": "r", "stimulus-type": "incongruent", "word": "blue", "color": "red", "correct_response": "r", "trial_id": "stroop-trial-1-incongruent-19", "trial_type": "html-keyboard-response", "trial_index": 93, "time_elapsed": 208750, "internal_node_id": "0.0-4.0-89.0"}}, {"uniqueid": "w23605410:a89452757", "current_trial": 94, "dateTime": 1664368122118, "trialdata": {"rt": 9855, "stimulus": "  <h1> End of block! </h1>\n\n  You have reached the end of the block 1/5. If you need a short break, feel free to take one now before moving on.\n\n  <br><br>\n  In the next block, you will complete another 90 rounds of this game.\n\n  <br><br>\n  <div style='text-align: center;'>Press <code>space</code> to begin.</div>\n  <br><br>\n<div style='text-align: center;'>(If the experiment doesn't continue, try clicking on the text and then pressing <code>space</code>.)</div>", "response": " ", "trial_id": "stroop_1_ready_2", "trial_type": "html-keyboard-response", "trial_index": 94, "time_elapsed": 219112, "internal_node_id": "0.0-5.0"}}, {"uniqueid": "w23605410:a89452757", "current_trial": 95, "dateTime": 1664368123136, "trialdata": {"rt": 1011, "stimulus": "<p id='stroop-text' class='stroop-yellow'>GREEN</p>", "response": "y", "stimulus-type": "incongruent", "word": "green", "color": "yellow", "correct_response": "y", "trial_id": "stroop-trial-1-incongruent-30", "trial_type": "html-keyboard-response", "trial_index": 95, "time_elapsed": 220130, "internal_node_id": "0.0-6.0-0.0"}}, {"uniqueid": "w23605410:a89452757", "current_trial": 96, "dateTime": 1664368124675, "trialdata": {"rt": 1035, "stimulus": "<p id='stroop-text' class='stroop-red'>RED</p>", "response": "r", "stimulus-type": "congruent", "word": "red", "color": "red", "correct_response": "r", "trial_id": "stroop-trial-1-congruent-2", "trial_type": "html-keyboard-response", "trial_index": 96, "time_elapsed": 221668, "internal_node_id": "0.0-6.0-1.0"}}, {"uniqueid": "w23605410:a89452757", "current_trial": 97, "dateTime": 1664368126098, "trialdata": {"rt": 917, "stimulus": "<p id='stroop-text' class='stroop-yellow'>GREEN</p>", "response": "y", "stimulus-type": "incongruent", "word": "green", "color": "yellow", "correct_response": "y", "trial_id": "stroop-trial-1-incongruent-8", "trial_type": "html-keyboard-response", "trial_index": 97, "time_elapsed": 223092, "internal_node_id": "0.0-6.0-2.0"}}, {"uniqueid": "w23605410:a89452757", "current_trial": 98, "dateTime": 1664368127635, "trialdata": {"rt": 1031, "stimulus": "<p id='stroop-text' class='stroop-green'>SHIP</p>", "response": "g", "stimulus-type": "unrelated", "word": "SHIP", "color": "green", "correct_response": "g", "trial_id": "stroop-trial-1-unrelated-16", "trial_type": "html-keyboard-response", "trial_index": 98, "time_elapsed": 224628, "internal_node_id": "0.0-6.0-3.0"}}, {"uniqueid": "w23605410:a89452757", "current_trial": 99, "dateTime": 1664368128809, "trialdata": {"rt": 671, "stimulus": "<p id='stroop-text' class='stroop-blue'>RED</p>", "response": "b", "stimulus-type": "incongruent", "word": "red", "color": "blue", "correct_response": "b", "trial_id": "stroop-trial-1-incongruent-5", "trial_type": "html-keyboard-response", "trial_index": 99, "time_elapsed": 225802, "internal_node_id": "0.0-6.0-4.0"}}, {"uniqueid": "w23605410:a89452757", "current_trial": 100, "dateTime": 1664368130029, "trialdata": {"rt": 713, "stimulus": "<p id='stroop-text' class='stroop-yellow'>GREEN</p>", "response": "y", "stimulus-type": "incongruent", "word": "green", "color": "yellow", "correct_response": "y", "trial_id": "stroop-trial-1-incongruent-15", "trial_type": "html-keyboard-response", "trial_index": 100, "time_elapsed": 227022, "internal_node_id": "0.0-6.0-5.0"}}, {"uniqueid": "w23605410:a89452757", "current_trial": 101, "dateTime": 1664368131182, "trialdata": {"rt": 649, "stimulus": "<p id='stroop-text' class='stroop-red'>GREEN</p>", "response": "r", "stimulus-type": "incongruent", "word": "green", "color": "red", "correct_response": "r", "trial_id": "stroop-trial-1-incongruent-11", "trial_type": "html-keyboard-response", "trial_index": 101, "time_elapsed": 228175, "internal_node_id": "0.0-6.0-6.0"}}, {"uniqueid": "w23605410:a89452757", "current_trial": 102, "dateTime": 1664368132496, "trialdata": {"rt": 809, "stimulus": "<p id='stroop-text' class='stroop-blue'>MONKEY</p>", "response": "b", "stimulus-type": "unrelated", "word": "MONKEY", "color": "blue", "correct_response": "b", "trial_id": "stroop-trial-1-unrelated-22", "trial_type": "html-keyboard-response", "trial_index": 102, "time_elapsed": 229490, "internal_node_id": "0.0-6.0-7.0"}}, {"uniqueid": "w23605410:a89452757", "current_trial": 103, "dateTime": 1664368133920, "trialdata": {"rt": 920, "stimulus": "<p id='stroop-text' class='stroop-red'>RED</p>", "response": "r", "stimulus-type": "congruent", "word": "red", "color": "red", "correct_response": "r", "trial_id": "stroop-trial-1-congruent-8", "trial_type": "html-keyboard-response", "trial_index": 103, "time_elapsed": 230913, "internal_node_id": "0.0-6.0-8.0"}}, {"uniqueid": "w23605410:a89452757", "current_trial": 104, "dateTime": 1664368135304, "trialdata": {"rt": 879, "stimulus": "<p id='stroop-text' class='stroop-blue'>SHIP</p>", "response": "b", "stimulus-type": "unrelated", "word": "SHIP", "color": "blue", "correct_response": "b", "trial_id": "stroop-trial-1-unrelated-23", "trial_type": "html-keyboard-response", "trial_index": 104, "time_elapsed": 232298, "internal_node_id": "0.0-6.0-9.0"}}, {"uniqueid": "w23605410:a89452757", "current_trial": 105, "dateTime": 1664368136556, "trialdata": {"rt": 744, "stimulus": "<p id='stroop-text' class='stroop-yellow'>RED</p>", "response": "y", "stimulus-type": "incongruent", "word": "red", "color": "yellow", "correct_response": "y", "trial_id": "stroop-trial-1-incongruent-16", "trial_type": "html-keyboard-response", "trial_index": 105, "time_elapsed": 233549, "internal_node_id": "0.0-6.0-10.0"}}, {"uniqueid": "w23605410:a89452757", "current_trial": 106, "dateTime": 1664368138037, "trialdata": {"rt": 976, "stimulus": "<p id='stroop-text' class='stroop-green'>YELLOW</p>", "response": "g", "stimulus-type": "incongruent", "word": "yellow", "color": "green", "correct_response": "g", "trial_id": "stroop-trial-1-incongruent-29", "trial_type": "html-keyboard-response", "trial_index": 106, "time_elapsed": 235030, "internal_node_id": "0.0-6.0-11.0"}}, {"uniqueid": "w23605410:a89452757", "current_trial": 107, "dateTime": 1664368139687, "trialdata": {"rt": 1145, "stimulus": "<p id='stroop-text' class='stroop-red'>BRIDGE</p>", "response": "r", "stimulus-type": "unrelated", "word": "BRIDGE", "color": "red", "correct_response": "r", "trial_id": "stroop-trial-1-unrelated-5", "trial_type": "html-keyboard-response", "trial_index": 107, "time_elapsed": 236681, "internal_node_id": "0.0-6.0-12.0"}}, {"uniqueid": "w23605410:a89452757", "current_trial": 108, "dateTime": 1664368141299, "trialdata": {"rt": 1108, "stimulus": "<p id='stroop-text' class='stroop-red'>BLUE</p>", "response": "b", "stimulus-type": "incongruent", "word": "blue", "color": "red", "correct_response": "r", "trial_id": "stroop-trial-1-incongruent-3", "trial_type": "html-keyboard-response", "trial_index": 108, "time_elapsed": 238293, "internal_node_id": "0.0-6.0-13.0"}}, {"uniqueid": "w23605410:a89452757", "current_trial": 109, "dateTime": 1664368144597, "trialdata": {"rt": 2791, "stimulus": "<p id='stroop-text' class='stroop-green'>BRAIN</p>", "response": "g", "stimulus-type": "unrelated", "word": "BRAIN", "color": "green", "correct_response": "g", "trial_id": "stroop-trial-1-unrelated-26", "trial_type": "html-keyboard-response", "trial_index": 109, "time_elapsed": 241590, "internal_node_id": "0.0-6.0-14.0"}}, {"uniqueid": "w23605410:a89452757", "current_trial": 110, "dateTime": 1664368145940, "trialdata": {"rt": 839, "stimulus": "<p id='stroop-text' class='stroop-red'>GREEN</p>", "response": "r", "stimulus-type": "incongruent", "word": "green", "color": "red", "correct_response": "r", "trial_id": "stroop-trial-1-incongruent-22", "trial_type": "html-keyboard-response", "trial_index": 110, "time_elapsed": 242933, "internal_node_id": "0.0-6.0-15.0"}}, {"uniqueid": "w23605410:a89452757", "current_trial": 111, "dateTime": 1664368147260, "trialdata": {"rt": 814, "stimulus": "<p id='stroop-text' class='stroop-red'>GREEN</p>", "response": "r", "stimulus-type": "incongruent", "word": "green", "color": "red", "correct_response": "r", "trial_id": "stroop-trial-1-incongruent-28", "trial_type": "html-keyboard-response", "trial_index": 111, "time_elapsed": 244253, "internal_node_id": "0.0-6.0-16.0"}}, {"uniqueid": "w23605410:a89452757", "current_trial": 112, "dateTime": 1664368148260, "trialdata": {"rt": 497, "stimulus": "<p id='stroop-text' class='stroop-red'>GREEN</p>", "response": "r", "stimulus-type": "incongruent", "word": "green", "color": "red", "correct_response": "r", "trial_id": "stroop-trial-1-incongruent-6", "trial_type": "html-keyboard-response", "trial_index": 112, "time_elapsed": 245253, "internal_node_id": "0.0-6.0-17.0"}}, {"uniqueid": "w23605410:a89452757", "current_trial": 113, "dateTime": 1664368149744, "trialdata": {"rt": 980, "stimulus": "<p id='stroop-text' class='stroop-blue'>BLUE</p>", "response": "b", "stimulus-type": "congruent", "word": "blue", "color": "blue", "correct_response": "b", "trial_id": "stroop-trial-1-congruent-27", "trial_type": "html-keyboard-response", "trial_index": 113, "time_elapsed": 246737, "internal_node_id": "0.0-6.0-18.0"}}, {"uniqueid": "w23605410:a89452757", "current_trial": 114, "dateTime": 1664368151065, "trialdata": {"rt": 816, "stimulus": "<p id='stroop-text' class='stroop-blue'>YELLOW</p>", "response": "b", "stimulus-type": "incongruent", "word": "yellow", "color": "blue", "correct_response": "b", "trial_id": "stroop-trial-1-incongruent-20", "trial_type": "html-keyboard-response", "trial_index": 114, "time_elapsed": 248059, "internal_node_id": "0.0-6.0-19.0"}}, {"uniqueid": "w23605410:a89452757", "current_trial": 115, "dateTime": 1664368151961, "trialdata": {"rt": 389, "stimulus": "<p id='stroop-text' class='stroop-blue'>RED</p>", "response": "b", "stimulus-type": "incongruent", "word": "red", "color": "blue", "correct_response": "b", "trial_id": "stroop-trial-1-incongruent-17", "trial_type": "html-keyboard-response", "trial_index": 115, "time_elapsed": 248954, "internal_node_id": "0.0-6.0-20.0"}}, {"uniqueid": "w23605410:a89452757", "current_trial": 116, "dateTime": 1664368153181, "trialdata": {"rt": 714, "stimulus": "<p id='stroop-text' class='stroop-yellow'>YELLOW</p>", "response": "y", "stimulus-type": "congruent", "word": "yellow", "color": "yellow", "correct_response": "y", "trial_id": "stroop-trial-1-congruent-29", "trial_type": "html-keyboard-response", "trial_index": 116, "time_elapsed": 250174, "internal_node_id": "0.0-6.0-21.0"}}, {"uniqueid": "w23605410:a89452757", "current_trial": 117, "dateTime": 1664368154066, "trialdata": {"rt": 379, "stimulus": "<p id='stroop-text' class='stroop-yellow'>YELLOW</p>", "response": "y", "stimulus-type": "congruent", "word": "yellow", "color": "yellow", "correct_response": "y", "trial_id": "stroop-trial-1-congruent-18", "trial_type": "html-keyboard-response", "trial_index": 117, "time_elapsed": 251059, "internal_node_id": "0.0-6.0-22.0"}}, {"uniqueid": "w23605410:a89452757", "current_trial": 118, "dateTime": 1664368155295, "trialdata": {"rt": 725, "stimulus": "<p id='stroop-text' class='stroop-red'>BRIDGE</p>", "response": "r", "stimulus-type": "unrelated", "word": "BRIDGE", "color": "red", "correct_response": "r", "trial_id": "stroop-trial-1-unrelated-11", "trial_type": "html-keyboard-response", "trial_index": 118, "time_elapsed": 252288, "internal_node_id": "0.0-6.0-23.0"}}, {"uniqueid": "w23605410:a89452757", "current_trial": 119, "dateTime": 1664368156625, "trialdata": {"rt": 824, "stimulus": "<p id='stroop-text' class='stroop-blue'>FORK</p>", "response": "b", "stimulus-type": "unrelated", "word": "FORK", "color": "blue", "correct_response": "b", "trial_id": "stroop-trial-1-unrelated-4", "trial_type": "html-keyboard-response", "trial_index": 119, "time_elapsed": 253619, "internal_node_id": "0.0-6.0-24.0"}}, {"uniqueid": "w23605410:a89452757", "current_trial": 120, "dateTime": 1664368157861, "trialdata": {"rt": 732, "stimulus": "<p id='stroop-text' class='stroop-green'>GREEN</p>", "response": "g", "stimulus-type": "congruent", "word": "green", "color": "green", "correct_response": "g", "trial_id": "stroop-trial-1-congruent-3", "trial_type": "html-keyboard-response", "trial_index": 120, "time_elapsed": 254855, "internal_node_id": "0.0-6.0-25.0"}}, {"uniqueid": "w23605410:a89452757", "current_trial": 121, "dateTime": 1664368159132, "trialdata": {"rt": 766, "stimulus": "<p id='stroop-text' class='stroop-yellow'>YELLOW</p>", "response": "y", "stimulus-type": "congruent", "word": "yellow", "color": "yellow", "correct_response": "y", "trial_id": "stroop-trial-1-congruent-13", "trial_type": "html-keyboard-response", "trial_index": 121, "time_elapsed": 256125, "internal_node_id": "0.0-6.0-26.0"}}, {"uniqueid": "w23605410:a89452757", "current_trial": 122, "dateTime": 1664368160629, "trialdata": {"rt": 991, "stimulus": "<p id='stroop-text' class='stroop-blue'>WINDOW</p>", "response": "b", "stimulus-type": "unrelated", "word": "WINDOW", "color": "blue", "correct_response": "b", "trial_id": "stroop-trial-1-unrelated-19", "trial_type": "html-keyboard-response", "trial_index": 122, "time_elapsed": 257622, "internal_node_id": "0.0-6.0-27.0"}}, {"uniqueid": "w23605410:a89452757", "current_trial": 123, "dateTime": 1664368162182, "trialdata": {"rt": 1047, "stimulus": "<p id='stroop-text' class='stroop-red'>RED</p>", "response": "r", "stimulus-type": "congruent", "word": "red", "color": "red", "correct_response": "r", "trial_id": "stroop-trial-1-congruent-28", "trial_type": "html-keyboard-response", "trial_index": 123, "time_elapsed": 259176, "internal_node_id": "0.0-6.0-28.0"}}, {"uniqueid": "w23605410:a89452757", "current_trial": 124, "dateTime": 1664368164017, "trialdata": {"rt": 1329, "stimulus": "<p id='stroop-text' class='stroop-blue'>RED</p>", "response": "b", "stimulus-type": "incongruent", "word": "red", "color": "blue", "correct_response": "b", "trial_id": "stroop-trial-1-incongruent-1", "trial_type": "html-keyboard-response", "trial_index": 124, "time_elapsed": 261010, "internal_node_id": "0.0-6.0-29.0"}}, {"uniqueid": "w23605410:a89452757", "current_trial": 125, "dateTime": 1664368165314, "trialdata": {"rt": 790, "stimulus": "<p id='stroop-text' class='stroop-green'>GREEN</p>", "response": "g", "stimulus-type": "congruent", "word": "green", "color": "green", "correct_response": "g", "trial_id": "stroop-trial-1-congruent-15", "trial_type": "html-keyboard-response", "trial_index": 125, "time_elapsed": 262307, "internal_node_id": "0.0-6.0-30.0"}}, {"uniqueid": "w23605410:a89452757", "current_trial": 126, "dateTime": 1664368166548, "trialdata": {"rt": 729, "stimulus": "<p id='stroop-text' class='stroop-green'>STONE</p>", "response": "g", "stimulus-type": "unrelated", "word": "STONE", "color": "green", "correct_response": "g", "trial_id": "stroop-trial-1-unrelated-10", "trial_type": "html-keyboard-response", "trial_index": 126, "time_elapsed": 263542, "internal_node_id": "0.0-6.0-31.0"}}, {"uniqueid": "w23605410:a89452757", "current_trial": 127, "dateTime": 1664368167684, "trialdata": {"rt": 632, "stimulus": "<p id='stroop-text' class='stroop-green'>BRAIN</p>", "response": "g", "stimulus-type": "unrelated", "word": "BRAIN", "color": "green", "correct_response": "g", "trial_id": "stroop-trial-1-unrelated-27", "trial_type": "html-keyboard-response", "trial_index": 127, "time_elapsed": 264678, "internal_node_id": "0.0-6.0-32.0"}}, {"uniqueid": "w23605410:a89452757", "current_trial": 128, "dateTime": 1664368169229, "trialdata": {"rt": 1041, "stimulus": "<p id='stroop-text' class='stroop-red'>WINDOW</p>", "response": "r", "stimulus-type": "unrelated", "word": "WINDOW", "color": "red", "correct_response": "r", "trial_id": "stroop-trial-1-unrelated-17", "trial_type": "html-keyboard-response", "trial_index": 128, "time_elapsed": 266222, "internal_node_id": "0.0-6.0-33.0"}}, {"uniqueid": "w23605410:a89452757", "current_trial": 129, "dateTime": 1664368170383, "trialdata": {"rt": 648, "stimulus": "<p id='stroop-text' class='stroop-yellow'>BRAIN</p>", "response": "y", "stimulus-type": "unrelated", "word": "BRAIN", "color": "yellow", "correct_response": "y", "trial_id": "stroop-trial-1-unrelated-15", "trial_type": "html-keyboard-response", "trial_index": 129, "time_elapsed": 267377, "internal_node_id": "0.0-6.0-34.0"}}, {"uniqueid": "w23605410:a89452757", "current_trial": 130, "dateTime": 1664368171650, "trialdata": {"rt": 761, "stimulus": "<p id='stroop-text' class='stroop-blue'>MONKEY</p>", "response": "b", "stimulus-type": "unrelated", "word": "MONKEY", "color": "blue", "correct_response": "b", "trial_id": "stroop-trial-1-unrelated-3", "trial_type": "html-keyboard-response", "trial_index": 130, "time_elapsed": 268644, "internal_node_id": "0.0-6.0-35.0"}}, {"uniqueid": "w23605410:a89452757", "current_trial": 131, "dateTime": 1664368172925, "trialdata": {"rt": 771, "stimulus": "<p id='stroop-text' class='stroop-red'>YELLOW</p>", "response": "r", "stimulus-type": "incongruent", "word": "yellow", "color": "red", "correct_response": "r", "trial_id": "stroop-trial-1-incongruent-23", "trial_type": "html-keyboard-response", "trial_index": 131, "time_elapsed": 269919, "internal_node_id": "0.0-6.0-36.0"}}, {"uniqueid": "w23605410:a89452757", "current_trial": 132, "dateTime": 1664368174314, "trialdata": {"rt": 883, "stimulus": "<p id='stroop-text' class='stroop-blue'>BLUE</p>", "response": "b", "stimulus-type": "congruent", "word": "blue", "color": "blue", "correct_response": "b", "trial_id": "stroop-trial-1-congruent-22", "trial_type": "html-keyboard-response", "trial_index": 132, "time_elapsed": 271307, "internal_node_id": "0.0-6.0-37.0"}}, {"uniqueid": "w23605410:a89452757", "current_trial": 133, "dateTime": 1664368176210, "trialdata": {"rt": 1391, "stimulus": "<p id='stroop-text' class='stroop-green'>RED</p>", "response": "g", "stimulus-type": "incongruent", "word": "red", "color": "green", "correct_response": "g", "trial_id": "stroop-trial-1-incongruent-26", "trial_type": "html-keyboard-response", "trial_index": 133, "time_elapsed": 273204, "internal_node_id": "0.0-6.0-38.0"}}, {"uniqueid": "w23605410:a89452757", "current_trial": 134, "dateTime": 1664368177595, "trialdata": {"rt": 879, "stimulus": "<p id='stroop-text' class='stroop-red'>YELLOW</p>", "response": "r", "stimulus-type": "incongruent", "word": "yellow", "color": "red", "correct_response": "r", "trial_id": "stroop-trial-1-incongruent-9", "trial_type": "html-keyboard-response", "trial_index": 134, "time_elapsed": 274589, "internal_node_id": "0.0-6.0-39.0"}}, {"uniqueid": "w23605410:a89452757", "current_trial": 135, "dateTime": 1664368179163, "trialdata": {"rt": 1062, "stimulus": "<p id='stroop-text' class='stroop-blue'>RED</p>", "response": "b", "stimulus-type": "incongruent", "word": "red", "color": "blue", "correct_response": "b", "trial_id": "stroop-trial-1-incongruent-25", "trial_type": "html-keyboard-response", "trial_index": 135, "time_elapsed": 276157, "internal_node_id": "0.0-6.0-40.0"}}, {"uniqueid": "w23605410:a89452757", "current_trial": 136, "dateTime": 1664368180455, "trialdata": {"rt": 788, "stimulus": "<p id='stroop-text' class='stroop-green'>BRIDGE</p>", "response": "g", "stimulus-type": "unrelated", "word": "BRIDGE", "color": "green", "correct_response": "g", "trial_id": "stroop-trial-1-unrelated-8", "trial_type": "html-keyboard-response", "trial_index": 136, "time_elapsed": 277449, "internal_node_id": "0.0-6.0-41.0"}}, {"uniqueid": "w23605410:a89452757", "current_trial": 137, "dateTime": 1664368181680, "trialdata": {"rt": 718, "stimulus": "<p id='stroop-text' class='stroop-yellow'>YELLOW</p>", "response": "y", "stimulus-type": "congruent", "word": "yellow", "color": "yellow", "correct_response": "y", "trial_id": "stroop-trial-1-congruent-4", "trial_type": "html-keyboard-response", "trial_index": 137, "time_elapsed": 278674, "internal_node_id": "0.0-6.0-42.0"}}, {"uniqueid": "w23605410:a89452757", "current_trial": 138, "dateTime": 1664368182953, "trialdata": {"rt": 769, "stimulus": "<p id='stroop-text' class='stroop-blue'>BLUE</p>", "response": "b", "stimulus-type": "congruent", "word": "blue", "color": "blue", "correct_response": "b", "trial_id": "stroop-trial-1-congruent-7", "trial_type": "html-keyboard-response", "trial_index": 138, "time_elapsed": 279947, "internal_node_id": "0.0-6.0-43.0"}}, {"uniqueid": "w23605410:a89452757", "current_trial": 139, "dateTime": 1664368184217, "trialdata": {"rt": 758, "stimulus": "<p id='stroop-text' class='stroop-red'>SHIP</p>", "response": "r", "stimulus-type": "unrelated", "word": "SHIP", "color": "red", "correct_response": "r", "trial_id": "stroop-trial-1-unrelated-2", "trial_type": "html-keyboard-response", "trial_index": 139, "time_elapsed": 281211, "internal_node_id": "0.0-6.0-44.0"}}, {"uniqueid": "w23605410:a89452757", "current_trial": 140, "dateTime": 1664368185342, "trialdata": {"rt": 620, "stimulus": "<p id='stroop-text' class='stroop-red'>YELLOW</p>", "response": "r", "stimulus-type": "incongruent", "word": "yellow", "color": "red", "correct_response": "r", "trial_id": "stroop-trial-1-incongruent-12", "trial_type": "html-keyboard-response", "trial_index": 140, "time_elapsed": 282335, "internal_node_id": "0.0-6.0-45.0"}}, {"uniqueid": "w23605410:a89452757", "current_trial": 141, "dateTime": 1664368186218, "trialdata": {"rt": 369, "stimulus": "<p id='stroop-text' class='stroop-red'>RED</p>", "response": "r", "stimulus-type": "congruent", "word": "red", "color": "red", "correct_response": "r", "trial_id": "stroop-trial-1-congruent-9", "trial_type": "html-keyboard-response", "trial_index": 141, "time_elapsed": 283212, "internal_node_id": "0.0-6.0-46.0"}}, {"uniqueid": "w23605410:a89452757", "current_trial": 142, "dateTime": 1664368187511, "trialdata": {"rt": 787, "stimulus": "<p id='stroop-text' class='stroop-yellow'>SHIP</p>", "response": "y", "stimulus-type": "unrelated", "word": "SHIP", "color": "yellow", "correct_response": "y", "trial_id": "stroop-trial-1-unrelated-29", "trial_type": "html-keyboard-response", "trial_index": 142, "time_elapsed": 284505, "internal_node_id": "0.0-6.0-47.0"}}, {"uniqueid": "w23605410:a89452757", "current_trial": 143, "dateTime": 1664368189267, "trialdata": {"rt": 1248, "stimulus": "<p id='stroop-text' class='stroop-green'>YELLOW</p>", "response": "g", "stimulus-type": "incongruent", "word": "yellow", "color": "green", "correct_response": "g", "trial_id": "stroop-trial-1-incongruent-7", "trial_type": "html-keyboard-response", "trial_index": 143, "time_elapsed": 286260, "internal_node_id": "0.0-6.0-48.0"}}, {"uniqueid": "w23605410:a89452757", "current_trial": 144, "dateTime": 1664368190549, "trialdata": {"rt": 779, "stimulus": "<p id='stroop-text' class='stroop-red'>RED</p>", "response": "r", "stimulus-type": "congruent", "word": "red", "color": "red", "correct_response": "r", "trial_id": "stroop-trial-1-congruent-5", "trial_type": "html-keyboard-response", "trial_index": 144, "time_elapsed": 287543, "internal_node_id": "0.0-6.0-49.0"}}, {"uniqueid": "w23605410:a89452757", "current_trial": 145, "dateTime": 1664368191669, "trialdata": {"rt": 613, "stimulus": "<p id='stroop-text' class='stroop-blue'>BLUE</p>", "response": "b", "stimulus-type": "congruent", "word": "blue", "color": "blue", "correct_response": "b", "trial_id": "stroop-trial-1-congruent-11", "trial_type": "html-keyboard-response", "trial_index": 145, "time_elapsed": 288663, "internal_node_id": "0.0-6.0-50.0"}}, {"uniqueid": "w23605410:a89452757", "current_trial": 146, "dateTime": 1664368193000, "trialdata": {"rt": 825, "stimulus": "<p id='stroop-text' class='stroop-yellow'>YELLOW</p>", "response": "y", "stimulus-type": "congruent", "word": "yellow", "color": "yellow", "correct_response": "y", "trial_id": "stroop-trial-1-congruent-14", "trial_type": "html-keyboard-response", "trial_index": 146, "time_elapsed": 289993, "internal_node_id": "0.0-6.0-51.0"}}, {"uniqueid": "w23605410:a89452757", "current_trial": 147, "dateTime": 1664368194291, "trialdata": {"rt": 785, "stimulus": "<p id='stroop-text' class='stroop-green'>GREEN</p>", "response": "g", "stimulus-type": "congruent", "word": "green", "color": "green", "correct_response": "g", "trial_id": "stroop-trial-1-congruent-26", "trial_type": "html-keyboard-response", "trial_index": 147, "time_elapsed": 291285, "internal_node_id": "0.0-6.0-52.0"}}, {"uniqueid": "w23605410:a89452757", "current_trial": 148, "dateTime": 1664368195583, "trialdata": {"rt": 788, "stimulus": "<p id='stroop-text' class='stroop-yellow'>BLUE</p>", "response": "y", "stimulus-type": "incongruent", "word": "blue", "color": "yellow", "correct_response": "y", "trial_id": "stroop-trial-1-incongruent-4", "trial_type": "html-keyboard-response", "trial_index": 148, "time_elapsed": 292577, "internal_node_id": "0.0-6.0-53.0"}}, {"uniqueid": "w23605410:a89452757", "current_trial": 149, "dateTime": 1664368196801, "trialdata": {"rt": 713, "stimulus": "<p id='stroop-text' class='stroop-red'>CHAIR</p>", "response": "r", "stimulus-type": "unrelated", "word": "CHAIR", "color": "red", "correct_response": "r", "trial_id": "stroop-trial-1-unrelated-6", "trial_type": "html-keyboard-response", "trial_index": 149, "time_elapsed": 293795, "internal_node_id": "0.0-6.0-54.0"}}, {"uniqueid": "w23605410:a89452757", "current_trial": 150, "dateTime": 1664368197892, "trialdata": {"rt": 585, "stimulus": "<p id='stroop-text' class='stroop-red'>SHIP</p>", "response": "r", "stimulus-type": "unrelated", "word": "SHIP", "color": "red", "correct_response": "r", "trial_id": "stroop-trial-1-unrelated-24", "trial_type": "html-keyboard-response", "trial_index": 150, "time_elapsed": 294886, "internal_node_id": "0.0-6.0-55.0"}}, {"uniqueid": "w23605410:a89452757", "current_trial": 151, "dateTime": 1664368198754, "trialdata": {"rt": 358, "stimulus": "<p id='stroop-text' class='stroop-red'>BRIDGE</p>", "response": "r", "stimulus-type": "unrelated", "word": "BRIDGE", "color": "red", "correct_response": "r", "trial_id": "stroop-trial-1-unrelated-25", "trial_type": "html-keyboard-response", "trial_index": 151, "time_elapsed": 295748, "internal_node_id": "0.0-6.0-56.0"}}, {"uniqueid": "w23605410:a89452757", "current_trial": 152, "dateTime": 1664368200181, "trialdata": {"rt": 922, "stimulus": "<p id='stroop-text' class='stroop-green'>FORK</p>", "response": "g", "stimulus-type": "unrelated", "word": "FORK", "color": "green", "correct_response": "g", "trial_id": "stroop-trial-1-unrelated-28", "trial_type": "html-keyboard-response", "trial_index": 152, "time_elapsed": 297174, "internal_node_id": "0.0-6.0-57.0"}}, {"uniqueid": "w23605410:a89452757", "current_trial": 153, "dateTime": 1664368201152, "trialdata": {"rt": 467, "stimulus": "<p id='stroop-text' class='stroop-green'>BLUE</p>", "response": "g", "stimulus-type": "incongruent", "word": "blue", "color": "green", "correct_response": "g", "trial_id": "stroop-trial-1-incongruent-10", "trial_type": "html-keyboard-response", "trial_index": 153, "time_elapsed": 298145, "internal_node_id": "0.0-6.0-58.0"}}, {"uniqueid": "w23605410:a89452757", "current_trial": 154, "dateTime": 1664368202492, "trialdata": {"rt": 834, "stimulus": "<p id='stroop-text' class='stroop-red'>RED</p>", "response": "r", "stimulus-type": "congruent", "word": "red", "color": "red", "correct_response": "r", "trial_id": "stroop-trial-1-congruent-21", "trial_type": "html-keyboard-response", "trial_index": 154, "time_elapsed": 299485, "internal_node_id": "0.0-6.0-59.0"}}, {"uniqueid": "w23605410:a89452757", "current_trial": 155, "dateTime": 1664368203559, "trialdata": {"rt": 563, "stimulus": "<p id='stroop-text' class='stroop-red'>YELLOW</p>", "response": "r", "stimulus-type": "incongruent", "word": "yellow", "color": "red", "correct_response": "r", "trial_id": "stroop-trial-1-incongruent-2", "trial_type": "html-keyboard-response", "trial_index": 155, "time_elapsed": 300552, "internal_node_id": "0.0-6.0-60.0"}}, {"uniqueid": "w23605410:a89452757", "current_trial": 156, "dateTime": 1664368204457, "trialdata": {"rt": 393, "stimulus": "<p id='stroop-text' class='stroop-red'>BLUE</p>", "response": "r", "stimulus-type": "incongruent", "word": "blue", "color": "red", "correct_response": "r", "trial_id": "stroop-trial-1-incongruent-14", "trial_type": "html-keyboard-response", "trial_index": 156, "time_elapsed": 301450, "internal_node_id": "0.0-6.0-61.0"}}, {"uniqueid": "w23605410:a89452757", "current_trial": 157, "dateTime": 1664368205309, "trialdata": {"rt": 346, "stimulus": "<p id='stroop-text' class='stroop-red'>YELLOW</p>", "response": "r", "stimulus-type": "incongruent", "word": "yellow", "color": "red", "correct_response": "r", "trial_id": "stroop-trial-1-incongruent-24", "trial_type": "html-keyboard-response", "trial_index": 157, "time_elapsed": 302303, "internal_node_id": "0.0-6.0-62.0"}}, {"uniqueid": "w23605410:a89452757", "current_trial": 158, "dateTime": 1664368206575, "trialdata": {"rt": 761, "stimulus": "<p id='stroop-text' class='stroop-blue'>BLUE</p>", "response": "b", "stimulus-type": "congruent", "word": "blue", "color": "blue", "correct_response": "b", "trial_id": "stroop-trial-1-congruent-6", "trial_type": "html-keyboard-response", "trial_index": 158, "time_elapsed": 303569, "internal_node_id": "0.0-6.0-63.0"}}, {"uniqueid": "w23605410:a89452757", "current_trial": 159, "dateTime": 1664368207919, "trialdata": {"rt": 840, "stimulus": "<p id='stroop-text' class='stroop-yellow'>CHAIR</p>", "response": "y", "stimulus-type": "unrelated", "word": "CHAIR", "color": "yellow", "correct_response": "y", "trial_id": "stroop-trial-1-unrelated-7", "trial_type": "html-keyboard-response", "trial_index": 159, "time_elapsed": 304912, "internal_node_id": "0.0-6.0-64.0"}}, {"uniqueid": "w23605410:a89452757", "current_trial": 160, "dateTime": 1664368209404, "trialdata": {"rt": 978, "stimulus": "<p id='stroop-text' class='stroop-blue'>BLUE</p>", "response": "b", "stimulus-type": "congruent", "word": "blue", "color": "blue", "correct_response": "b", "trial_id": "stroop-trial-1-congruent-20", "trial_type": "html-keyboard-response", "trial_index": 160, "time_elapsed": 306398, "internal_node_id": "0.0-6.0-65.0"}}, {"uniqueid": "w23605410:a89452757", "current_trial": 161, "dateTime": 1664368210689, "trialdata": {"rt": 780, "stimulus": "<p id='stroop-text' class='stroop-red'>MONKEY</p>", "response": "r", "stimulus-type": "unrelated", "word": "MONKEY", "color": "red", "correct_response": "r", "trial_id": "stroop-trial-1-unrelated-14", "trial_type": "html-keyboard-response", "trial_index": 161, "time_elapsed": 307682, "internal_node_id": "0.0-6.0-66.0"}}, {"uniqueid": "w23605410:a89452757", "current_trial": 162, "dateTime": 1664368211553, "trialdata": {"rt": 360, "stimulus": "<p id='stroop-text' class='stroop-red'>RED</p>", "response": "r", "stimulus-type": "congruent", "word": "red", "color": "red", "correct_response": "r", "trial_id": "stroop-trial-1-congruent-16", "trial_type": "html-keyboard-response", "trial_index": 162, "time_elapsed": 308547, "internal_node_id": "0.0-6.0-67.0"}}, {"uniqueid": "w23605410:a89452757", "current_trial": 163, "dateTime": 1664368212743, "trialdata": {"rt": 685, "stimulus": "<p id='stroop-text' class='stroop-yellow'>YELLOW</p>", "response": "y", "stimulus-type": "congruent", "word": "yellow", "color": "yellow", "correct_response": "y", "trial_id": "stroop-trial-1-congruent-23", "trial_type": "html-keyboard-response", "trial_index": 163, "time_elapsed": 309737, "internal_node_id": "0.0-6.0-68.0"}}, {"uniqueid": "w23605410:a89452757", "current_trial": 164, "dateTime": 1664368214047, "trialdata": {"rt": 796, "stimulus": "<p id='stroop-text' class='stroop-blue'>SHIP</p>", "response": "b", "stimulus-type": "unrelated", "word": "SHIP", "color": "blue", "correct_response": "b", "trial_id": "stroop-trial-1-unrelated-13", "trial_type": "html-keyboard-response", "trial_index": 164, "time_elapsed": 311040, "internal_node_id": "0.0-6.0-69.0"}}, {"uniqueid": "w23605410:a89452757", "current_trial": 165, "dateTime": 1664368215585, "trialdata": {"rt": 1033, "stimulus": "<p id='stroop-text' class='stroop-green'>BRAIN</p>", "response": "g", "stimulus-type": "unrelated", "word": "BRAIN", "color": "green", "correct_response": "g", "trial_id": "stroop-trial-1-unrelated-21", "trial_type": "html-keyboard-response", "trial_index": 165, "time_elapsed": 312579, "internal_node_id": "0.0-6.0-70.0"}}, {"uniqueid": "w23605410:a89452757", "current_trial": 166, "dateTime": 1664368216813, "trialdata": {"rt": 723, "stimulus": "<p id='stroop-text' class='stroop-yellow'>DOG</p>", "response": "y", "stimulus-type": "unrelated", "word": "DOG", "color": "yellow", "correct_response": "y", "trial_id": "stroop-trial-1-unrelated-12", "trial_type": "html-keyboard-response", "trial_index": 166, "time_elapsed": 313807, "internal_node_id": "0.0-6.0-71.0"}}, {"uniqueid": "w23605410:a89452757", "current_trial": 167, "dateTime": 1664368217968, "trialdata": {"rt": 649, "stimulus": "<p id='stroop-text' class='stroop-red'>CHAIR</p>", "response": "r", "stimulus-type": "unrelated", "word": "CHAIR", "color": "red", "correct_response": "r", "trial_id": "stroop-trial-1-unrelated-20", "trial_type": "html-keyboard-response", "trial_index": 167, "time_elapsed": 314962, "internal_node_id": "0.0-6.0-72.0"}}, {"uniqueid": "w23605410:a89452757", "current_trial": 168, "dateTime": 1664368219394, "trialdata": {"rt": 921, "stimulus": "<p id='stroop-text' class='stroop-red'>BLUE</p>", "response": "r", "stimulus-type": "incongruent", "word": "blue", "color": "red", "correct_response": "r", "trial_id": "stroop-trial-1-incongruent-19", "trial_type": "html-keyboard-response", "trial_index": 168, "time_elapsed": 316388, "internal_node_id": "0.0-6.0-73.0"}}, {"uniqueid": "w23605410:a89452757", "current_trial": 169, "dateTime": 1664368220503, "trialdata": {"rt": 604, "stimulus": "<p id='stroop-text' class='stroop-yellow'>YELLOW</p>", "response": "y", "stimulus-type": "congruent", "word": "yellow", "color": "yellow", "correct_response": "y", "trial_id": "stroop-trial-1-congruent-17", "trial_type": "html-keyboard-response", "trial_index": 169, "time_elapsed": 317497, "internal_node_id": "0.0-6.0-74.0"}}, {"uniqueid": "w23605410:a89452757", "current_trial": 170, "dateTime": 1664368221394, "trialdata": {"rt": 385, "stimulus": "<p id='stroop-text' class='stroop-yellow'>CHAIR</p>", "response": "y", "stimulus-type": "unrelated", "word": "CHAIR", "color": "yellow", "correct_response": "y", "trial_id": "stroop-trial-1-unrelated-18", "trial_type": "html-keyboard-response", "trial_index": 170, "time_elapsed": 318387, "internal_node_id": "0.0-6.0-75.0"}}, {"uniqueid": "w23605410:a89452757", "current_trial": 171, "dateTime": 1664368222659, "trialdata": {"rt": 761, "stimulus": "<p id='stroop-text' class='stroop-red'>RED</p>", "response": "r", "stimulus-type": "congruent", "word": "red", "color": "red", "correct_response": "r", "trial_id": "stroop-trial-1-congruent-19", "trial_type": "html-keyboard-response", "trial_index": 171, "time_elapsed": 319652, "internal_node_id": "0.0-6.0-76.0"}}, {"uniqueid": "w23605410:a89452757", "current_trial": 172, "dateTime": 1664368223801, "trialdata": {"rt": 635, "stimulus": "<p id='stroop-text' class='stroop-green'>GREEN</p>", "response": "g", "stimulus-type": "congruent", "word": "green", "color": "green", "correct_response": "g", "trial_id": "stroop-trial-1-congruent-12", "trial_type": "html-keyboard-response", "trial_index": 172, "time_elapsed": 320795, "internal_node_id": "0.0-6.0-77.0"}}, {"uniqueid": "w23605410:a89452757", "current_trial": 173, "dateTime": 1664368224726, "trialdata": {"rt": 558, "stimulus": "<p id='stroop-text' class='stroop-green'>BLUE</p>", "response": "g", "stimulus-type": "incongruent", "word": "blue", "color": "green", "correct_response": "g", "trial_id": "stroop-trial-1-incongruent-18", "trial_type": "html-keyboard-response", "trial_index": 173, "time_elapsed": 321720, "internal_node_id": "0.0-6.0-78.0"}}, {"uniqueid": "w23605410:a89452757", "current_trial": 174, "dateTime": 1664368226238, "trialdata": {"rt": 1007, "stimulus": "<p id='stroop-text' class='stroop-blue'>RED</p>", "response": "b", "stimulus-type": "incongruent", "word": "red", "color": "blue", "correct_response": "b", "trial_id": "stroop-trial-1-incongruent-27", "trial_type": "html-keyboard-response", "trial_index": 174, "time_elapsed": 323231, "internal_node_id": "0.0-6.0-79.0"}}, {"uniqueid": "w23605410:a89452757", "current_trial": 175, "dateTime": 1664368227361, "trialdata": {"rt": 616, "stimulus": "<p id='stroop-text' class='stroop-yellow'>YELLOW</p>", "response": "y", "stimulus-type": "congruent", "word": "yellow", "color": "yellow", "correct_response": "y", "trial_id": "stroop-trial-1-congruent-10", "trial_type": "html-keyboard-response", "trial_index": 175, "time_elapsed": 324355, "internal_node_id": "0.0-6.0-80.0"}}, {"uniqueid": "w23605410:a89452757", "current_trial": 176, "dateTime": 1664368229934, "trialdata": {"rt": 2067, "stimulus": "<p id='stroop-text' class='stroop-blue'>BLUE</p>", "response": "b", "stimulus-type": "congruent", "word": "blue", "color": "blue", "correct_response": "b", "trial_id": "stroop-trial-1-congruent-24", "trial_type": "html-keyboard-response", "trial_index": 176, "time_elapsed": 326927, "internal_node_id": "0.0-6.0-81.0"}}, {"uniqueid": "w23605410:a89452757", "current_trial": 177, "dateTime": 1664368231093, "trialdata": {"rt": 654, "stimulus": "<p id='stroop-text' class='stroop-red'>RED</p>", "response": "r", "stimulus-type": "congruent", "word": "red", "color": "red", "correct_response": "r", "trial_id": "stroop-trial-1-congruent-25", "trial_type": "html-keyboard-response", "trial_index": 177, "time_elapsed": 328087, "internal_node_id": "0.0-6.0-82.0"}}, {"uniqueid": "w23605410:a89452757", "current_trial": 178, "dateTime": 1664368232277, "trialdata": {"rt": 680, "stimulus": "<p id='stroop-text' class='stroop-green'>GREEN</p>", "response": "g", "stimulus-type": "congruent", "word": "green", "color": "green", "correct_response": "g", "trial_id": "stroop-trial-1-congruent-30", "trial_type": "html-keyboard-response", "trial_index": 178, "time_elapsed": 329271, "internal_node_id": "0.0-6.0-83.0"}}, {"uniqueid": "w23605410:a89452757", "current_trial": 179, "dateTime": 1664368233691, "trialdata": {"rt": 907, "stimulus": "<p id='stroop-text' class='stroop-blue'>BLUE</p>", "response": "b", "stimulus-type": "congruent", "word": "blue", "color": "blue", "correct_response": "b", "trial_id": "stroop-trial-1-congruent-1", "trial_type": "html-keyboard-response", "trial_index": 179, "time_elapsed": 330684, "internal_node_id": "0.0-6.0-84.0"}}, {"uniqueid": "w23605410:a89452757", "current_trial": 180, "dateTime": 1664368234785, "trialdata": {"rt": 589, "stimulus": "<p id='stroop-text' class='stroop-yellow'>DOG</p>", "response": "y", "stimulus-type": "unrelated", "word": "DOG", "color": "yellow", "correct_response": "y", "trial_id": "stroop-trial-1-unrelated-30", "trial_type": "html-keyboard-response", "trial_index": 180, "time_elapsed": 331778, "internal_node_id": "0.0-6.0-85.0"}}, {"uniqueid": "w23605410:a89452757", "current_trial": 181, "dateTime": 1664368236502, "trialdata": {"rt": 1212, "stimulus": "<p id='stroop-text' class='stroop-blue'>BOAT</p>", "response": "b", "stimulus-type": "unrelated", "word": "BOAT", "color": "blue", "correct_response": "b", "trial_id": "stroop-trial-1-unrelated-9", "trial_type": "html-keyboard-response", "trial_index": 181, "time_elapsed": 333496, "internal_node_id": "0.0-6.0-86.0"}}, {"uniqueid": "w23605410:a89452757", "current_trial": 182, "dateTime": 1664368237344, "trialdata": {"rt": 336, "stimulus": "<p id='stroop-text' class='stroop-blue'>BOTTLE</p>", "response": "b", "stimulus-type": "unrelated", "word": "BOTTLE", "color": "blue", "correct_response": "b", "trial_id": "stroop-trial-1-unrelated-1", "trial_type": "html-keyboard-response", "trial_index": 182, "time_elapsed": 334338, "internal_node_id": "0.0-6.0-87.0"}}, {"uniqueid": "w23605410:a89452757", "current_trial": 183, "dateTime": 1664368238223, "trialdata": {"rt": 374, "stimulus": "<p id='stroop-text' class='stroop-blue'>YELLOW</p>", "response": "b", "stimulus-type": "incongruent", "word": "yellow", "color": "blue", "correct_response": "b", "trial_id": "stroop-trial-1-incongruent-21", "trial_type": "html-keyboard-response", "trial_index": 183, "time_elapsed": 335216, "internal_node_id": "0.0-6.0-88.0"}}, {"uniqueid": "w23605410:a89452757", "current_trial": 184, "dateTime": 1664368239453, "trialdata": {"rt": 725, "stimulus": "<p id='stroop-text' class='stroop-yellow'>GREEN</p>", "response": "y", "stimulus-type": "incongruent", "word": "green", "color": "yellow", "correct_response": "y", "trial_id": "stroop-trial-1-incongruent-13", "trial_type": "html-keyboard-response", "trial_index": 184, "time_elapsed": 336446, "internal_node_id": "0.0-6.0-89.0"}}, {"uniqueid": "w23605410:a89452757", "current_trial": 185, "dateTime": 1664368241987, "trialdata": {"rt": 2030, "stimulus": "  <h1> End of block! </h1>\n\n  You have reached the end of the block 2/5. If you need a short break, feel free to take one now before moving on.\n\n  <br><br>\n  In the next block, you will complete another 90 rounds of this game.\n\n  <br><br>\n  <div style='text-align: center;'>Press <code>space</code> to begin.</div>\n  <br><br>\n<div style='text-align: center;'>(If the experiment doesn't continue, try clicking on the text and then pressing <code>space</code>.)</div>", "response": " ", "trial_id": "stroop_1_ready_3", "trial_type": "html-keyboard-response", "trial_index": 185, "time_elapsed": 338981, "internal_node_id": "0.0-7.0"}}, {"uniqueid": "w23605410:a89452757", "current_trial": 186, "dateTime": 1664368242893, "trialdata": {"rt": 899, "stimulus": "<p id='stroop-text' class='stroop-green'>SHIP</p>", "response": "g", "stimulus-type": "unrelated", "word": "SHIP", "color": "green", "correct_response": "g", "trial_id": "stroop-trial-1-unrelated-22", "trial_type": "html-keyboard-response", "trial_index": 186, "time_elapsed": 339887, "internal_node_id": "0.0-8.0-0.0"}}, {"uniqueid": "w23605410:a89452757", "current_trial": 187, "dateTime": 1664368244987, "trialdata": {"rt": 1589, "stimulus": "<p id='stroop-text' class='stroop-red'>MONKEY</p>", "response": "r", "stimulus-type": "unrelated", "word": "MONKEY", "color": "red", "correct_response": "r", "trial_id": "stroop-trial-1-unrelated-3", "trial_type": "html-keyboard-response", "trial_index": 187, "time_elapsed": 341981, "internal_node_id": "0.0-8.0-1.0"}}, {"uniqueid": "w23605410:a89452757", "current_trial": 188, "dateTime": 1664368246328, "trialdata": {"rt": 836, "stimulus": "<p id='stroop-text' class='stroop-blue'>YELLOW</p>", "response": "b", "stimulus-type": "incongruent", "word": "yellow", "color": "blue", "correct_response": "b", "trial_id": "stroop-trial-1-incongruent-28", "trial_type": "html-keyboard-response", "trial_index": 188, "time_elapsed": 343322, "internal_node_id": "0.0-8.0-2.0"}}, {"uniqueid": "w23605410:a89452757", "current_trial": 189, "dateTime": 1664368247527, "trialdata": {"rt": 693, "stimulus": "<p id='stroop-text' class='stroop-yellow'>RED</p>", "response": "y", "stimulus-type": "incongruent", "word": "red", "color": "yellow", "correct_response": "y", "trial_id": "stroop-trial-1-incongruent-10", "trial_type": "html-keyboard-response", "trial_index": 189, "time_elapsed": 344521, "internal_node_id": "0.0-8.0-3.0"}}, {"uniqueid": "w23605410:a89452757", "current_trial": 190, "dateTime": 1664368248843, "trialdata": {"rt": 811, "stimulus": "<p id='stroop-text' class='stroop-blue'>BLUE</p>", "response": "b", "stimulus-type": "congruent", "word": "blue", "color": "blue", "correct_response": "b", "trial_id": "stroop-trial-1-congruent-5", "trial_type": "html-keyboard-response", "trial_index": 190, "time_elapsed": 345837, "internal_node_id": "0.0-8.0-4.0"}}, {"uniqueid": "w23605410:a89452757", "current_trial": 191, "dateTime": 1664368250103, "trialdata": {"rt": 755, "stimulus": "<p id='stroop-text' class='stroop-green'>SHIP</p>", "response": "g", "stimulus-type": "unrelated", "word": "SHIP", "color": "green", "correct_response": "g", "trial_id": "stroop-trial-1-unrelated-12", "trial_type": "html-keyboard-response", "trial_index": 191, "time_elapsed": 347097, "internal_node_id": "0.0-8.0-5.0"}}, {"uniqueid": "w23605410:a89452757", "current_trial": 192, "dateTime": 1664368251162, "trialdata": {"rt": 552, "stimulus": "<p id='stroop-text' class='stroop-green'>BOAT</p>", "response": "g", "stimulus-type": "unrelated", "word": "BOAT", "color": "green", "correct_response": "g", "trial_id": "stroop-trial-1-unrelated-13", "trial_type": "html-keyboard-response", "trial_index": 192, "time_elapsed": 348156, "internal_node_id": "0.0-8.0-6.0"}}, {"uniqueid": "w23605410:a89452757", "current_trial": 193, "dateTime": 1664368252496, "trialdata": {"rt": 829, "stimulus": "<p id='stroop-text' class='stroop-red'>YELLOW</p>", "response": "r", "stimulus-type": "incongruent", "word": "yellow", "color": "red", "correct_response": "r", "trial_id": "stroop-trial-1-incongruent-14", "trial_type": "html-keyboard-response", "trial_index": 193, "time_elapsed": 349490, "internal_node_id": "0.0-8.0-7.0"}}, {"uniqueid": "w23605410:a89452757", "current_trial": 194, "dateTime": 1664368253950, "trialdata": {"rt": 948, "stimulus": "<p id='stroop-text' class='stroop-green'>YELLOW</p>", "response": "g", "stimulus-type": "incongruent", "word": "yellow", "color": "green", "correct_response": "g", "trial_id": "stroop-trial-1-incongruent-30", "trial_type": "html-keyboard-response", "trial_index": 194, "time_elapsed": 350943, "internal_node_id": "0.0-8.0-8.0"}}, {"uniqueid": "w23605410:a89452757", "current_trial": 195, "dateTime": 1664368255180, "trialdata": {"rt": 722, "stimulus": "<p id='stroop-text' class='stroop-yellow'>BRIDGE</p>", "response": "y", "stimulus-type": "unrelated", "word": "BRIDGE", "color": "yellow", "correct_response": "y", "trial_id": "stroop-trial-1-unrelated-18", "trial_type": "html-keyboard-response", "trial_index": 195, "time_elapsed": 352174, "internal_node_id": "0.0-8.0-9.0"}}, {"uniqueid": "w23605410:a89452757", "current_trial": 196, "dateTime": 1664368256557, "trialdata": {"rt": 871, "stimulus": "<p id='stroop-text' class='stroop-blue'>RED</p>", "response": "b", "stimulus-type": "incongruent", "word": "red", "color": "blue", "correct_response": "b", "trial_id": "stroop-trial-1-incongruent-2", "trial_type": "html-keyboard-response", "trial_index": 196, "time_elapsed": 353550, "internal_node_id": "0.0-8.0-10.0"}}, {"uniqueid": "w23605410:a89452757", "current_trial": 197, "dateTime": 1664368257781, "trialdata": {"rt": 718, "stimulus": "<p id='stroop-text' class='stroop-blue'>BLUE</p>", "response": "b", "stimulus-type": "congruent", "word": "blue", "color": "blue", "correct_response": "b", "trial_id": "stroop-trial-1-congruent-28", "trial_type": "html-keyboard-response", "trial_index": 197, "time_elapsed": 354774, "internal_node_id": "0.0-8.0-11.0"}}, {"uniqueid": "w23605410:a89452757", "current_trial": 198, "dateTime": 1664368258778, "trialdata": {"rt": 490, "stimulus": "<p id='stroop-text' class='stroop-blue'>BLUE</p>", "response": "b", "stimulus-type": "congruent", "word": "blue", "color": "blue", "correct_response": "b", "trial_id": "stroop-trial-1-congruent-26", "trial_type": "html-keyboard-response", "trial_index": 198, "time_elapsed": 355772, "internal_node_id": "0.0-8.0-12.0"}}, {"uniqueid": "w23605410:a89452757", "current_trial": 199, "dateTime": 1664368260055, "trialdata": {"rt": 772, "stimulus": "<p id='stroop-text' class='stroop-yellow'>RED</p>", "response": "y", "stimulus-type": "incongruent", "word": "red", "color": "yellow", "correct_response": "y", "trial_id": "stroop-trial-1-incongruent-21", "trial_type": "html-keyboard-response", "trial_index": 199, "time_elapsed": 357048, "internal_node_id": "0.0-8.0-13.0"}}, {"uniqueid": "w23605410:a89452757", "current_trial": 200, "dateTime": 1664368261356, "trialdata": {"rt": 796, "stimulus": "<p id='stroop-text' class='stroop-red'>CHAIR</p>", "response": "r", "stimulus-type": "unrelated", "word": "CHAIR", "color": "red", "correct_response": "r", "trial_id": "stroop-trial-1-unrelated-5", "trial_type": "html-keyboard-response", "trial_index": 200, "time_elapsed": 358349, "internal_node_id": "0.0-8.0-14.0"}}, {"uniqueid": "w23605410:a89452757", "current_trial": 201, "dateTime": 1664368263211, "trialdata": {"rt": 1348, "stimulus": "<p id='stroop-text' class='stroop-green'>BOTTLE</p>", "response": "g", "stimulus-type": "unrelated", "word": "BOTTLE", "color": "green", "correct_response": "g", "trial_id": "stroop-trial-1-unrelated-4", "trial_type": "html-keyboard-response", "trial_index": 201, "time_elapsed": 360204, "internal_node_id": "0.0-8.0-15.0"}}, {"uniqueid": "w23605410:a89452757", "current_trial": 202, "dateTime": 1664368264169, "trialdata": {"rt": 452, "stimulus": "<p id='stroop-text' class='stroop-green'>YELLOW</p>", "response": "g", "stimulus-type": "incongruent", "word": "yellow", "color": "green", "correct_response": "g", "trial_id": "stroop-trial-1-incongruent-3", "trial_type": "html-keyboard-response", "trial_index": 202, "time_elapsed": 361162, "internal_node_id": "0.0-8.0-16.0"}}, {"uniqueid": "w23605410:a89452757", "current_trial": 203, "dateTime": 1664368265374, "trialdata": {"rt": 701, "stimulus": "<p id='stroop-text' class='stroop-yellow'>YELLOW</p>", "response": "y", "stimulus-type": "congruent", "word": "yellow", "color": "yellow", "correct_response": "y", "trial_id": "stroop-trial-1-congruent-2", "trial_type": "html-keyboard-response", "trial_index": 203, "time_elapsed": 362368, "internal_node_id": "0.0-8.0-17.0"}}, {"uniqueid": "w23605410:a89452757", "current_trial": 204, "dateTime": 1664368266519, "trialdata": {"rt": 637, "stimulus": "<p id='stroop-text' class='stroop-yellow'>RED</p>", "response": "y", "stimulus-type": "incongruent", "word": "red", "color": "yellow", "correct_response": "y", "trial_id": "stroop-trial-1-incongruent-6", "trial_type": "html-keyboard-response", "trial_index": 204, "time_elapsed": 363512, "internal_node_id": "0.0-8.0-18.0"}}, {"uniqueid": "w23605410:a89452757", "current_trial": 205, "dateTime": 1664368268309, "trialdata": {"rt": 1285, "stimulus": "<p id='stroop-text' class='stroop-blue'>RED</p>", "response": "b", "stimulus-type": "incongruent", "word": "red", "color": "blue", "correct_response": "b", "trial_id": "stroop-trial-1-incongruent-13", "trial_type": "html-keyboard-response", "trial_index": 205, "time_elapsed": 365302, "internal_node_id": "0.0-8.0-19.0"}}, {"uniqueid": "w23605410:a89452757", "current_trial": 206, "dateTime": 1664368269451, "trialdata": {"rt": 636, "stimulus": "<p id='stroop-text' class='stroop-red'>GREEN</p>", "response": "r", "stimulus-type": "incongruent", "word": "green", "color": "red", "correct_response": "r", "trial_id": "stroop-trial-1-incongruent-27", "trial_type": "html-keyboard-response", "trial_index": 206, "time_elapsed": 366445, "internal_node_id": "0.0-8.0-20.0"}}, {"uniqueid": "w23605410:a89452757", "current_trial": 207, "dateTime": 1664368271213, "trialdata": {"rt": 1258, "stimulus": "<p id='stroop-text' class='stroop-blue'>FORK</p>", "response": "b", "stimulus-type": "unrelated", "word": "FORK", "color": "blue", "correct_response": "b", "trial_id": "stroop-trial-1-unrelated-7", "trial_type": "html-keyboard-response", "trial_index": 207, "time_elapsed": 368206, "internal_node_id": "0.0-8.0-21.0"}}, {"uniqueid": "w23605410:a89452757", "current_trial": 208, "dateTime": 1664368272509, "trialdata": {"rt": 790, "stimulus": "<p id='stroop-text' class='stroop-yellow'>GREEN</p>", "response": "y", "stimulus-type": "incongruent", "word": "green", "color": "yellow", "correct_response": "y", "trial_id": "stroop-trial-1-incongruent-24", "trial_type": "html-keyboard-response", "trial_index": 208, "time_elapsed": 369502, "internal_node_id": "0.0-8.0-22.0"}}, {"uniqueid": "w23605410:a89452757", "current_trial": 209, "dateTime": 1664368274295, "trialdata": {"rt": 1282, "stimulus": "<p id='stroop-text' class='stroop-red'>BRAIN</p>", "response": "r", "stimulus-type": "unrelated", "word": "BRAIN", "color": "red", "correct_response": "r", "trial_id": "stroop-trial-1-unrelated-19", "trial_type": "html-keyboard-response", "trial_index": 209, "time_elapsed": 371289, "internal_node_id": "0.0-8.0-23.0"}}, {"uniqueid": "w23605410:a89452757", "current_trial": 210, "dateTime": 1664368276407, "trialdata": {"rt": 1605, "stimulus": "<p id='stroop-text' class='stroop-red'>YELLOW</p>", "response": "r", "stimulus-type": "incongruent", "word": "yellow", "color": "red", "correct_response": "r", "trial_id": "stroop-trial-1-incongruent-5", "trial_type": "html-keyboard-response", "trial_index": 210, "time_elapsed": 373401, "internal_node_id": "0.0-8.0-24.0"}}, {"uniqueid": "w23605410:a89452757", "current_trial": 211, "dateTime": 1664368277579, "trialdata": {"rt": 666, "stimulus": "<p id='stroop-text' class='stroop-red'>BLUE</p>", "response": "r", "stimulus-type": "incongruent", "word": "blue", "color": "red", "correct_response": "r", "trial_id": "stroop-trial-1-incongruent-25", "trial_type": "html-keyboard-response", "trial_index": 211, "time_elapsed": 374573, "internal_node_id": "0.0-8.0-25.0"}}, {"uniqueid": "w23605410:a89452757", "current_trial": 212, "dateTime": 1664368279065, "trialdata": {"rt": 981, "stimulus": "<p id='stroop-text' class='stroop-blue'>YELLOW</p>", "response": "b", "stimulus-type": "incongruent", "word": "yellow", "color": "blue", "correct_response": "b", "trial_id": "stroop-trial-1-incongruent-16", "trial_type": "html-keyboard-response", "trial_index": 212, "time_elapsed": 376058, "internal_node_id": "0.0-8.0-26.0"}}, {"uniqueid": "w23605410:a89452757", "current_trial": 213, "dateTime": 1664368280148, "trialdata": {"rt": 578, "stimulus": "<p id='stroop-text' class='stroop-blue'>BLUE</p>", "response": "b", "stimulus-type": "congruent", "word": "blue", "color": "blue", "correct_response": "b", "trial_id": "stroop-trial-1-congruent-14", "trial_type": "html-keyboard-response", "trial_index": 213, "time_elapsed": 377142, "internal_node_id": "0.0-8.0-27.0"}}, {"uniqueid": "w23605410:a89452757", "current_trial": 214, "dateTime": 1664368281517, "trialdata": {"rt": 863, "stimulus": "<p id='stroop-text' class='stroop-red'>RED</p>", "response": "r", "stimulus-type": "congruent", "word": "red", "color": "red", "correct_response": "r", "trial_id": "stroop-trial-1-congruent-18", "trial_type": "html-keyboard-response", "trial_index": 214, "time_elapsed": 378510, "internal_node_id": "0.0-8.0-28.0"}}, {"uniqueid": "w23605410:a89452757", "current_trial": 215, "dateTime": 1664368282864, "trialdata": {"rt": 841, "stimulus": "<p id='stroop-text' class='stroop-green'>DOG</p>", "response": "g", "stimulus-type": "unrelated", "word": "DOG", "color": "green", "correct_response": "g", "trial_id": "stroop-trial-1-unrelated-10", "trial_type": "html-keyboard-response", "trial_index": 215, "time_elapsed": 379858, "internal_node_id": "0.0-8.0-29.0"}}, {"uniqueid": "w23605410:a89452757", "current_trial": 216, "dateTime": 1664368284489, "trialdata": {"rt": 1117, "stimulus": "<p id='stroop-text' class='stroop-red'>FORK</p>", "response": "r", "stimulus-type": "unrelated", "word": "FORK", "color": "red", "correct_response": "r", "trial_id": "stroop-trial-1-unrelated-14", "trial_type": "html-keyboard-response", "trial_index": 216, "time_elapsed": 381482, "internal_node_id": "0.0-8.0-30.0"}}, {"uniqueid": "w23605410:a89452757", "current_trial": 217, "dateTime": 1664368286367, "trialdata": {"rt": 1374, "stimulus": "<p id='stroop-text' class='stroop-yellow'>RED</p>", "response": "y", "stimulus-type": "incongruent", "word": "red", "color": "yellow", "correct_response": "y", "trial_id": "stroop-trial-1-incongruent-22", "trial_type": "html-keyboard-response", "trial_index": 217, "time_elapsed": 383361, "internal_node_id": "0.0-8.0-31.0"}}, {"uniqueid": "w23605410:a89452757", "current_trial": 218, "dateTime": 1664368287392, "trialdata": {"rt": 519, "stimulus": "<p id='stroop-text' class='stroop-yellow'>BRAIN</p>", "response": "y", "stimulus-type": "unrelated", "word": "BRAIN", "color": "yellow", "correct_response": "y", "trial_id": "stroop-trial-1-unrelated-30", "trial_type": "html-keyboard-response", "trial_index": 218, "time_elapsed": 384385, "internal_node_id": "0.0-8.0-32.0"}}, {"uniqueid": "w23605410:a89452757", "current_trial": 219, "dateTime": 1664368288320, "trialdata": {"rt": 422, "stimulus": "<p id='stroop-text' class='stroop-yellow'>GREEN</p>", "response": "y", "stimulus-type": "incongruent", "word": "green", "color": "yellow", "correct_response": "y", "trial_id": "stroop-trial-1-incongruent-20", "trial_type": "html-keyboard-response", "trial_index": 219, "time_elapsed": 385313, "internal_node_id": "0.0-8.0-33.0"}}, {"uniqueid": "w23605410:a89452757", "current_trial": 220, "dateTime": 1664368289525, "trialdata": {"rt": 700, "stimulus": "<p id='stroop-text' class='stroop-red'>BRAIN</p>", "response": "r", "stimulus-type": "unrelated", "word": "BRAIN", "color": "red", "correct_response": "r", "trial_id": "stroop-trial-1-unrelated-1", "trial_type": "html-keyboard-response", "trial_index": 220, "time_elapsed": 386519, "internal_node_id": "0.0-8.0-34.0"}}, {"uniqueid": "w23605410:a89452757", "current_trial": 221, "dateTime": 1664368290767, "trialdata": {"rt": 735, "stimulus": "<p id='stroop-text' class='stroop-red'>RED</p>", "response": "r", "stimulus-type": "congruent", "word": "red", "color": "red", "correct_response": "r", "trial_id": "stroop-trial-1-congruent-8", "trial_type": "html-keyboard-response", "trial_index": 221, "time_elapsed": 387760, "internal_node_id": "0.0-8.0-35.0"}}, {"uniqueid": "w23605410:a89452757", "current_trial": 222, "dateTime": 1664368292120, "trialdata": {"rt": 849, "stimulus": "<p id='stroop-text' class='stroop-blue'>BLUE</p>", "response": "b", "stimulus-type": "congruent", "word": "blue", "color": "blue", "correct_response": "b", "trial_id": "stroop-trial-1-congruent-19", "trial_type": "html-keyboard-response", "trial_index": 222, "time_elapsed": 389114, "internal_node_id": "0.0-8.0-36.0"}}, {"uniqueid