{"condition": 0, "counterbalance": 0, "assignmentId": "a16248958", "workerId": "w83722045", "hitId": "h34911198", "currenttrial": 959, "bonus": 0, "data": [{"uniqueid": "w83722045:a16248958", "current_trial": 0, "dateTime": 1664464070503, "trialdata": {"success": true, "trial_type": "fullscreen", "trial_index": 0, "time_elapsed": 3213, "internal_node_id": "0.0-0.0"}}, {"uniqueid": "w83722045:a16248958", "current_trial": 1, "dateTime": 1664464099081, "trialdata": {"view_history": [{"page_index": 0, "viewing_time": 28573}], "rt": 28574, "trial_id": "exp_instructions_distractor", "trial_type": "instructions", "trial_index": 1, "time_elapsed": 31791, "internal_node_id": "0.0-1.0"}}, {"uniqueid": "w83722045:a16248958", "current_trial": 2, "dateTime": 1664464126732, "trialdata": {"view_history": [{"page_index": 0, "viewing_time": 27650}], "rt": 27650, "trial_id": "color_game_instructions", "trial_type": "instructions", "trial_index": 2, "time_elapsed": 59442, "internal_node_id": "0.0-2.0"}}, {"uniqueid": "w83722045:a16248958", "current_trial": 3, "dateTime": 1664464129524, "trialdata": {"rt": 2791, "stimulus": "<h1> Get ready to start the game! </h1>\n\nThank you for reading the instructions. Get ready start with the first of 5 block(s) of this game.\n<br><br>\nIn this first block, you will complete 90 rounds of this game before moving on.\n<br><br>\nRemember, the better you perform, the bigger your bonus will be!\n<br><br>\n<div style='text-align: center;'>Press <code>space</code> to begin.</div>", "response": " ", "trial_id": "stroop_1_ready_1", "trial_type": "html-keyboard-response", "trial_index": 3, "time_elapsed": 62234, "internal_node_id": "0.0-3.0"}}, {"uniqueid": "w83722045:a16248958", "current_trial": 4, "dateTime": 1664464130948, "trialdata": {"rt": 1420, "stimulus": "<p id='stroop-text' class='stroop-red'>RED</p>", "response": "r", "stimulus-type": "congruent", "word": "red", "color": "red", "correct_response": "r", "trial_id": "stroop-trial-1-congruent-22", "trial_type": "html-keyboard-response", "trial_index": 4, "time_elapsed": 63657, "internal_node_id": "0.0-4.0-0.0"}}, {"uniqueid": "w83722045:a16248958", "current_trial": 5, "dateTime": 1664464132435, "trialdata": {"rt": 987, "stimulus": "<p id='stroop-text' class='stroop-yellow'>BLUE</p>", "response": "y", "stimulus-type": "incongruent", "word": "blue", "color": "yellow", "correct_response": "y", "trial_id": "stroop-trial-1-incongruent-27", "trial_type": "html-keyboard-response", "trial_index": 5, "time_elapsed": 65145, "internal_node_id": "0.0-4.0-1.0"}}, {"uniqueid": "w83722045:a16248958", "current_trial": 6, "dateTime": 1664464134036, "trialdata": {"rt": 1097, "stimulus": "<p id='stroop-text' class='stroop-blue'>GREEN</p>", "response": "b", "stimulus-type": "incongruent", "word": "green", "color": "blue", "correct_response": "b", "trial_id": "stroop-trial-1-incongruent-16", "trial_type": "html-keyboard-response", "trial_index": 6, "time_elapsed": 66745, "internal_node_id": "0.0-4.0-2.0"}}, {"uniqueid": "w83722045:a16248958", "current_trial": 7, "dateTime": 1664464135291, "trialdata": {"rt": 753, "stimulus": "<p id='stroop-text' class='stroop-blue'>BLUE</p>", "response": "b", "stimulus-type": "congruent", "word": "blue", "color": "blue", "correct_response": "b", "trial_id": "stroop-trial-1-congruent-29", "trial_type": "html-keyboard-response", "trial_index": 7, "time_elapsed": 68001, "internal_node_id": "0.0-4.0-3.0"}}, {"uniqueid": "w83722045:a16248958", "current_trial": 8, "dateTime": 1664464137156, "trialdata": {"rt": 1363, "stimulus": "<p id='stroop-text' class='stroop-red'>BRIDGE</p>", "response": "r", "stimulus-type": "unrelated", "word": "BRIDGE", "color": "red", "correct_response": "r", "trial_id": "stroop-trial-1-unrelated-5", "trial_type": "html-keyboard-response", "trial_index": 8, "time_elapsed": 69865, "internal_node_id": "0.0-4.0-4.0"}}, {"uniqueid": "w83722045:a16248958", "current_trial": 9, "dateTime": 1664464138276, "trialdata": {"rt": 618, "stimulus": "<p id='stroop-text' class='stroop-red'>DOG</p>", "response": "r", "stimulus-type": "unrelated", "word": "DOG", "color": "red", "correct_response": "r", "trial_id": "stroop-trial-1-unrelated-17", "trial_type": "html-keyboard-response", "trial_index": 9, "time_elapsed": 70985, "internal_node_id": "0.0-4.0-5.0"}}, {"uniqueid": "w83722045:a16248958", "current_trial": 10, "dateTime": 1664464140068, "trialdata": {"rt": 1290, "stimulus": "<p id='stroop-text' class='stroop-green'>CHAIR</p>", "response": "g", "stimulus-type": "unrelated", "word": "CHAIR", "color": "green", "correct_response": "g", "trial_id": "stroop-trial-1-unrelated-21", "trial_type": "html-keyboard-response", "trial_index": 10, "time_elapsed": 72777, "internal_node_id": "0.0-4.0-6.0"}}, {"uniqueid": "w83722045:a16248958", "current_trial": 11, "dateTime": 1664464141140, "trialdata": {"rt": 571, "stimulus": "<p id='stroop-text' class='stroop-red'>RED</p>", "response": "r", "stimulus-type": "congruent", "word": "red", "color": "red", "correct_response": "r", "trial_id": "stroop-trial-1-congruent-30", "trial_type": "html-keyboard-response", "trial_index": 11, "time_elapsed": 73849, "internal_node_id": "0.0-4.0-7.0"}}, {"uniqueid": "w83722045:a16248958", "current_trial": 12, "dateTime": 1664464142531, "trialdata": {"rt": 889, "stimulus": "<p id='stroop-text' class='stroop-yellow'>GREEN</p>", "response": "y", "stimulus-type": "incongruent", "word": "green", "color": "yellow", "correct_response": "y", "trial_id": "stroop-trial-1-incongruent-21", "trial_type": "html-keyboard-response", "trial_index": 12, "time_elapsed": 75241, "internal_node_id": "0.0-4.0-8.0"}}, {"uniqueid": "w83722045:a16248958", "current_trial": 13, "dateTime": 1664464143716, "trialdata": {"rt": 683, "stimulus": "<p id='stroop-text' class='stroop-red'>BLUE</p>", "response": "r", "stimulus-type": "incongruent", "word": "blue", "color": "red", "correct_response": "r", "trial_id": "stroop-trial-1-incongruent-8", "trial_type": "html-keyboard-response", "trial_index": 13, "time_elapsed": 76426, "internal_node_id": "0.0-4.0-9.0"}}, {"uniqueid": "w83722045:a16248958", "current_trial": 14, "dateTime": 1664464144675, "trialdata": {"rt": 458, "stimulus": "<p id='stroop-text' class='stroop-red'>STONE</p>", "response": "r", "stimulus-type": "unrelated", "word": "STONE", "color": "red", "correct_response": "r", "trial_id": "stroop-trial-1-unrelated-15", "trial_type": "html-keyboard-response", "trial_index": 14, "time_elapsed": 77385, "internal_node_id": "0.0-4.0-10.0"}}, {"uniqueid": "w83722045:a16248958", "current_trial": 15, "dateTime": 1664464145588, "trialdata": {"rt": 411, "stimulus": "<p id='stroop-text' class='stroop-red'>RED</p>", "response": "r", "stimulus-type": "congruent", "word": "red", "color": "red", "correct_response": "r", "trial_id": "stroop-trial-1-congruent-17", "trial_type": "html-keyboard-response", "trial_index": 15, "time_elapsed": 78297, "internal_node_id": "0.0-4.0-11.0"}}, {"uniqueid": "w83722045:a16248958", "current_trial": 16, "dateTime": 1664464146812, "trialdata": {"rt": 723, "stimulus": "<p id='stroop-text' class='stroop-yellow'>CHAIR</p>", "response": "y", "stimulus-type": "unrelated", "word": "CHAIR", "color": "yellow", "correct_response": "y", "trial_id": "stroop-trial-1-unrelated-27", "trial_type": "html-keyboard-response", "trial_index": 16, "time_elapsed": 79521, "internal_node_id": "0.0-4.0-12.0"}}, {"uniqueid": "w83722045:a16248958", "current_trial": 17, "dateTime": 1664464148003, "trialdata": {"rt": 690, "stimulus": "<p id='stroop-text' class='stroop-blue'>SHIP</p>", "response": "b", "stimulus-type": "unrelated", "word": "SHIP", "color": "blue", "correct_response": "b", "trial_id": "stroop-trial-1-unrelated-19", "trial_type": "html-keyboard-response", "trial_index": 17, "time_elapsed": 80713, "internal_node_id": "0.0-4.0-13.0"}}, {"uniqueid": "w83722045:a16248958", "current_trial": 18, "dateTime": 1664464149276, "trialdata": {"rt": 769, "stimulus": "<p id='stroop-text' class='stroop-green'>BLUE</p>", "response": "g", "stimulus-type": "incongruent", "word": "blue", "color": "green", "correct_response": "g", "trial_id": "stroop-trial-1-incongruent-13", "trial_type": "html-keyboard-response", "trial_index": 18, "time_elapsed": 81985, "internal_node_id": "0.0-4.0-14.0"}}, {"uniqueid": "w83722045:a16248958", "current_trial": 19, "dateTime": 1664464150331, "trialdata": {"rt": 554, "stimulus": "<p id='stroop-text' class='stroop-blue'>RED</p>", "response": "b", "stimulus-type": "incongruent", "word": "red", "color": "blue", "correct_response": "b", "trial_id": "stroop-trial-1-incongruent-29", "trial_type": "html-keyboard-response", "trial_index": 19, "time_elapsed": 83041, "internal_node_id": "0.0-4.0-15.0"}}, {"uniqueid": "w83722045:a16248958", "current_trial": 20, "dateTime": 1664464151651, "trialdata": {"rt": 819, "stimulus": "<p id='stroop-text' class='stroop-yellow'>BRAIN</p>", "response": "y", "stimulus-type": "unrelated", "word": "BRAIN", "color": "yellow", "correct_response": "y", "trial_id": "stroop-trial-1-unrelated-29", "trial_type": "html-keyboard-response", "trial_index": 20, "time_elapsed": 84361, "internal_node_id": "0.0-4.0-16.0"}}, {"uniqueid": "w83722045:a16248958", "current_trial": 21, "dateTime": 1664464152701, "trialdata": {"rt": 547, "stimulus": "<p id='stroop-text' class='stroop-yellow'>YELLOW</p>", "response": "y", "stimulus-type": "congruent", "word": "yellow", "color": "yellow", "correct_response": "y", "trial_id": "stroop-trial-1-congruent-7", "trial_type": "html-keyboard-response", "trial_index": 21, "time_elapsed": 85410, "internal_node_id": "0.0-4.0-17.0"}}, {"uniqueid": "w83722045:a16248958", "current_trial": 22, "dateTime": 1664464153605, "trialdata": {"rt": 401, "stimulus": "<p id='stroop-text' class='stroop-yellow'>BOTTLE</p>", "response": "y", "stimulus-type": "unrelated", "word": "BOTTLE", "color": "yellow", "correct_response": "y", "trial_id": "stroop-trial-1-unrelated-28", "trial_type": "html-keyboard-response", "trial_index": 22, "time_elapsed": 86314, "internal_node_id": "0.0-4.0-18.0"}}, {"uniqueid": "w83722045:a16248958", "current_trial": 23, "dateTime": 1664464155052, "trialdata": {"rt": 946, "stimulus": "<p id='stroop-text' class='stroop-green'>SHIP</p>", "response": "g", "stimulus-type": "unrelated", "word": "SHIP", "color": "green", "correct_response": "g", "trial_id": "stroop-trial-1-unrelated-10", "trial_type": "html-keyboard-response", "trial_index": 23, "time_elapsed": 87762, "internal_node_id": "0.0-4.0-19.0"}}, {"uniqueid": "w83722045:a16248958", "current_trial": 24, "dateTime": 1664464156108, "trialdata": {"rt": 555, "stimulus": "<p id='stroop-text' class='stroop-blue'>SHIP</p>", "response": "b", "stimulus-type": "unrelated", "word": "SHIP", "color": "blue", "correct_response": "b", "trial_id": "stroop-trial-1-unrelated-1", "trial_type": "html-keyboard-response", "trial_index": 24, "time_elapsed": 88818, "internal_node_id": "0.0-4.0-20.0"}}, {"uniqueid": "w83722045:a16248958", "current_trial": 25, "dateTime": 1664464157181, "trialdata": {"rt": 571, "stimulus": "<p id='stroop-text' class='stroop-blue'>YELLOW</p>", "response": "b", "stimulus-type": "incongruent", "word": "yellow", "color": "blue", "correct_response": "b", "trial_id": "stroop-trial-1-incongruent-18", "trial_type": "html-keyboard-response", "trial_index": 25, "time_elapsed": 89890, "internal_node_id": "0.0-4.0-21.0"}}, {"uniqueid": "w83722045:a16248958", "current_trial": 26, "dateTime": 1664464158621, "trialdata": {"rt": 937, "stimulus": "<p id='stroop-text' class='stroop-green'>GREEN</p>", "response": "g", "stimulus-type": "congruent", "word": "green", "color": "green", "correct_response": "g", "trial_id": "stroop-trial-1-congruent-19", "trial_type": "html-keyboard-response", "trial_index": 26, "time_elapsed": 91330, "internal_node_id": "0.0-4.0-22.0"}}, {"uniqueid": "w83722045:a16248958", "current_trial": 27, "dateTime": 1664464159685, "trialdata": {"rt": 561, "stimulus": "<p id='stroop-text' class='stroop-blue'>GREEN</p>", "response": "b", "stimulus-type": "incongruent", "word": "green", "color": "blue", "correct_response": "b", "trial_id": "stroop-trial-1-incongruent-12", "trial_type": "html-keyboard-response", "trial_index": 27, "time_elapsed": 92394, "internal_node_id": "0.0-4.0-23.0"}}, {"uniqueid": "w83722045:a16248958", "current_trial": 28, "dateTime": 1664464160860, "trialdata": {"rt": 675, "stimulus": "<p id='stroop-text' class='stroop-yellow'>BOAT</p>", "response": "y", "stimulus-type": "unrelated", "word": "BOAT", "color": "yellow", "correct_response": "y", "trial_id": "stroop-trial-1-unrelated-24", "trial_type": "html-keyboard-response", "trial_index": 28, "time_elapsed": 93570, "internal_node_id": "0.0-4.0-24.0"}}, {"uniqueid": "w83722045:a16248958", "current_trial": 29, "dateTime": 1664464162020, "trialdata": {"rt": 651, "stimulus": "<p id='stroop-text' class='stroop-green'>BLUE</p>", "response": "g", "stimulus-type": "incongruent", "word": "blue", "color": "green", "correct_response": "g", "trial_id": "stroop-trial-1-incongruent-14", "trial_type": "html-keyboard-response", "trial_index": 29, "time_elapsed": 94730, "internal_node_id": "0.0-4.0-25.0"}}, {"uniqueid": "w83722045:a16248958", "current_trial": 30, "dateTime": 1664464163037, "trialdata": {"rt": 513, "stimulus": "<p id='stroop-text' class='stroop-blue'>WINDOW</p>", "response": "b", "stimulus-type": "unrelated", "word": "WINDOW", "color": "blue", "correct_response": "b", "trial_id": "stroop-trial-1-unrelated-25", "trial_type": "html-keyboard-response", "trial_index": 30, "time_elapsed": 95746, "internal_node_id": "0.0-4.0-26.0"}}, {"uniqueid": "w83722045:a16248958", "current_trial": 31, "dateTime": 1664464164036, "trialdata": {"rt": 497, "stimulus": "<p id='stroop-text' class='stroop-yellow'>YELLOW</p>", "response": "y", "stimulus-type": "congruent", "word": "yellow", "color": "yellow", "correct_response": "y", "trial_id": "stroop-trial-1-congruent-12", "trial_type": "html-keyboard-response", "trial_index": 31, "time_elapsed": 96746, "internal_node_id": "0.0-4.0-27.0"}}, {"uniqueid": "w83722045:a16248958", "current_trial": 32, "dateTime": 1664464165084, "trialdata": {"rt": 545, "stimulus": "<p id='stroop-text' class='stroop-green'>GREEN</p>", "response": "g", "stimulus-type": "congruent", "word": "green", "color": "green", "correct_response": "g", "trial_id": "stroop-trial-1-congruent-15", "trial_type": "html-keyboard-response", "trial_index": 32, "time_elapsed": 97794, "internal_node_id": "0.0-4.0-28.0"}}, {"uniqueid": "w83722045:a16248958", "current_trial": 33, "dateTime": 1664464166269, "trialdata": {"rt": 683, "stimulus": "<p id='stroop-text' class='stroop-red'>RED</p>", "response": "r", "stimulus-type": "congruent", "word": "red", "color": "red", "correct_response": "r", "trial_id": "stroop-trial-1-congruent-11", "trial_type": "html-keyboard-response", "trial_index": 33, "time_elapsed": 98978, "internal_node_id": "0.0-4.0-29.0"}}, {"uniqueid": "w83722045:a16248958", "current_trial": 34, "dateTime": 1664464167493, "trialdata": {"rt": 722, "stimulus": "<p id='stroop-text' class='stroop-yellow'>YELLOW</p>", "response": "y", "stimulus-type": "congruent", "word": "yellow", "color": "yellow", "correct_response": "y", "trial_id": "stroop-trial-1-congruent-28", "trial_type": "html-keyboard-response", "trial_index": 34, "time_elapsed": 100202, "internal_node_id": "0.0-4.0-30.0"}}, {"uniqueid": "w83722045:a16248958", "current_trial": 35, "dateTime": 1664464168597, "trialdata": {"rt": 602, "stimulus": "<p id='stroop-text' class='stroop-green'>GREEN</p>", "response": "g", "stimulus-type": "congruent", "word": "green", "color": "green", "correct_response": "g", "trial_id": "stroop-trial-1-congruent-21", "trial_type": "html-keyboard-response", "trial_index": 35, "time_elapsed": 101306, "internal_node_id": "0.0-4.0-31.0"}}, {"uniqueid": "w83722045:a16248958", "current_trial": 36, "dateTime": 1664464170068, "trialdata": {"rt": 969, "stimulus": "<p id='stroop-text' class='stroop-yellow'>RED</p>", "response": "y", "stimulus-type": "incongruent", "word": "red", "color": "yellow", "correct_response": "y", "trial_id": "stroop-trial-1-incongruent-3", "trial_type": "html-keyboard-response", "trial_index": 36, "time_elapsed": 102778, "internal_node_id": "0.0-4.0-32.0"}}, {"uniqueid": "w83722045:a16248958", "current_trial": 37, "dateTime": 1664464171180, "trialdata": {"rt": 609, "stimulus": "<p id='stroop-text' class='stroop-yellow'>SHIP</p>", "response": "y", "stimulus-type": "unrelated", "word": "SHIP", "color": "yellow", "correct_response": "y", "trial_id": "stroop-trial-1-unrelated-7", "trial_type": "html-keyboard-response", "trial_index": 37, "time_elapsed": 103890, "internal_node_id": "0.0-4.0-33.0"}}, {"uniqueid": "w83722045:a16248958", "current_trial": 38, "dateTime": 1664464172348, "trialdata": {"rt": 667, "stimulus": "<p id='stroop-text' class='stroop-green'>BLUE</p>", "response": "g", "stimulus-type": "incongruent", "word": "blue", "color": "green", "correct_response": "g", "trial_id": "stroop-trial-1-incongruent-10", "trial_type": "html-keyboard-response", "trial_index": 38, "time_elapsed": 105058, "internal_node_id": "0.0-4.0-34.0"}}, {"uniqueid": "w83722045:a16248958", "current_trial": 39, "dateTime": 1664464173388, "trialdata": {"rt": 538, "stimulus": "<p id='stroop-text' class='stroop-green'>BRAIN</p>", "response": "g", "stimulus-type": "unrelated", "word": "BRAIN", "color": "green", "correct_response": "g", "trial_id": "stroop-trial-1-unrelated-6", "trial_type": "html-keyboard-response", "trial_index": 39, "time_elapsed": 106098, "internal_node_id": "0.0-4.0-35.0"}}, {"uniqueid": "w83722045:a16248958", "current_trial": 40, "dateTime": 1664464174293, "trialdata": {"rt": 403, "stimulus": "<p id='stroop-text' class='stroop-green'>GREEN</p>", "response": "g", "stimulus-type": "congruent", "word": "green", "color": "green", "correct_response": "g", "trial_id": "stroop-trial-1-congruent-25", "trial_type": "html-keyboard-response", "trial_index": 40, "time_elapsed": 107002, "internal_node_id": "0.0-4.0-36.0"}}, {"uniqueid": "w83722045:a16248958", "current_trial": 41, "dateTime": 1664464175292, "trialdata": {"rt": 499, "stimulus": "<p id='stroop-text' class='stroop-blue'>BLUE</p>", "response": "b", "stimulus-type": "congruent", "word": "blue", "color": "blue", "correct_response": "b", "trial_id": "stroop-trial-1-congruent-26", "trial_type": "html-keyboard-response", "trial_index": 41, "time_elapsed": 108002, "internal_node_id": "0.0-4.0-37.0"}}, {"uniqueid": "w83722045:a16248958", "current_trial": 42, "dateTime": 1664464176621, "trialdata": {"rt": 825, "stimulus": "<p id='stroop-text' class='stroop-yellow'>YELLOW</p>", "response": "y", "stimulus-type": "congruent", "word": "yellow", "color": "yellow", "correct_response": "y", "trial_id": "stroop-trial-1-congruent-6", "trial_type": "html-keyboard-response", "trial_index": 42, "time_elapsed": 109330, "internal_node_id": "0.0-4.0-38.0"}}, {"uniqueid": "w83722045:a16248958", "current_trial": 43, "dateTime": 1664464177916, "trialdata": {"rt": 794, "stimulus": "<p id='stroop-text' class='stroop-yellow'>YELLOW</p>", "response": "y", "stimulus-type": "congruent", "word": "yellow", "color": "yellow", "correct_response": "y", "trial_id": "stroop-trial-1-congruent-16", "trial_type": "html-keyboard-response", "trial_index": 43, "time_elapsed": 110626, "internal_node_id": "0.0-4.0-39.0"}}, {"uniqueid": "w83722045:a16248958", "current_trial": 44, "dateTime": 1664464178908, "trialdata": {"rt": 491, "stimulus": "<p id='stroop-text' class='stroop-yellow'>BLUE</p>", "response": "y", "stimulus-type": "incongruent", "word": "blue", "color": "yellow", "correct_response": "y", "trial_id": "stroop-trial-1-incongruent-22", "trial_type": "html-keyboard-response", "trial_index": 44, "time_elapsed": 111618, "internal_node_id": "0.0-4.0-40.0"}}, {"uniqueid": "w83722045:a16248958", "current_trial": 45, "dateTime": 1664464180388, "trialdata": {"rt": 978, "stimulus": "<p id='stroop-text' class='stroop-green'>WINDOW</p>", "response": "g", "stimulus-type": "unrelated", "word": "WINDOW", "color": "green", "correct_response": "g", "trial_id": "stroop-trial-1-unrelated-14", "trial_type": "html-keyboard-response", "trial_index": 45, "time_elapsed": 113098, "internal_node_id": "0.0-4.0-41.0"}}, {"uniqueid": "w83722045:a16248958", "current_trial": 46, "dateTime": 1664464181548, "trialdata": {"rt": 658, "stimulus": "<p id='stroop-text' class='stroop-blue'>GREEN</p>", "response": "b", "stimulus-type": "incongruent", "word": "green", "color": "blue", "correct_response": "b", "trial_id": "stroop-trial-1-incongruent-1", "trial_type": "html-keyboard-response", "trial_index": 46, "time_elapsed": 114258, "internal_node_id": "0.0-4.0-42.0"}}, {"uniqueid": "w83722045:a16248958", "current_trial": 47, "dateTime": 1664464182516, "trialdata": {"rt": 465, "stimulus": "<p id='stroop-text' class='stroop-yellow'>YELLOW</p>", "response": "y", "stimulus-type": "congruent", "word": "yellow", "color": "yellow", "correct_response": "y", "trial_id": "stroop-trial-1-congruent-3", "trial_type": "html-keyboard-response", "trial_index": 47, "time_elapsed": 115226, "internal_node_id": "0.0-4.0-43.0"}}, {"uniqueid": "w83722045:a16248958", "current_trial": 48, "dateTime": 1664464183908, "trialdata": {"rt": 889, "stimulus": "<p id='stroop-text' class='stroop-blue'>STONE</p>", "response": "b", "stimulus-type": "unrelated", "word": "STONE", "color": "blue", "correct_response": "b", "trial_id": "stroop-trial-1-unrelated-23", "trial_type": "html-keyboard-response", "trial_index": 48, "time_elapsed": 116618, "internal_node_id": "0.0-4.0-44.0"}}, {"uniqueid": "w83722045:a16248958", "current_trial": 49, "dateTime": 1664464185292, "trialdata": {"rt": 881, "stimulus": "<p id='stroop-text' class='stroop-green'>WINDOW</p>", "response": "g", "stimulus-type": "unrelated", "word": "WINDOW", "color": "green", "correct_response": "g", "trial_id": "stroop-trial-1-unrelated-11", "trial_type": "html-keyboard-response", "trial_index": 49, "time_elapsed": 118002, "internal_node_id": "0.0-4.0-45.0"}}, {"uniqueid": "w83722045:a16248958", "current_trial": 50, "dateTime": 1664464186388, "trialdata": {"rt": 595, "stimulus": "<p id='stroop-text' class='stroop-red'>GREEN</p>", "response": "r", "stimulus-type": "incongruent", "word": "green", "color": "red", "correct_response": "r", "trial_id": "stroop-trial-1-incongruent-5", "trial_type": "html-keyboard-response", "trial_index": 50, "time_elapsed": 119098, "internal_node_id": "0.0-4.0-46.0"}}, {"uniqueid": "w83722045:a16248958", "current_trial": 51, "dateTime": 1664464187332, "trialdata": {"rt": 442, "stimulus": "<p id='stroop-text' class='stroop-red'>CHAIR</p>", "response": "r", "stimulus-type": "unrelated", "word": "CHAIR", "color": "red", "correct_response": "r", "trial_id": "stroop-trial-1-unrelated-4", "trial_type": "html-keyboard-response", "trial_index": 51, "time_elapsed": 120042, "internal_node_id": "0.0-4.0-47.0"}}, {"uniqueid": "w83722045:a16248958", "current_trial": 52, "dateTime": 1664464188332, "trialdata": {"rt": 499, "stimulus": "<p id='stroop-text' class='stroop-green'>GREEN</p>", "response": "g", "stimulus-type": "congruent", "word": "green", "color": "green", "correct_response": "g", "trial_id": "stroop-trial-1-congruent-8", "trial_type": "html-keyboard-response", "trial_index": 52, "time_elapsed": 121042, "internal_node_id": "0.0-4.0-48.0"}}, {"uniqueid": "w83722045:a16248958", "current_trial": 53, "dateTime": 1664464189292, "trialdata": {"rt": 458, "stimulus": "<p id='stroop-text' class='stroop-green'>SHIP</p>", "response": "g", "stimulus-type": "unrelated", "word": "SHIP", "color": "green", "correct_response": "g", "trial_id": "stroop-trial-1-unrelated-3", "trial_type": "html-keyboard-response", "trial_index": 53, "time_elapsed": 122002, "internal_node_id": "0.0-4.0-49.0"}}, {"uniqueid": "w83722045:a16248958", "current_trial": 54, "dateTime": 1664464190301, "trialdata": {"rt": 507, "stimulus": "<p id='stroop-text' class='stroop-green'>STONE</p>", "response": "g", "stimulus-type": "unrelated", "word": "STONE", "color": "green", "correct_response": "g", "trial_id": "stroop-trial-1-unrelated-13", "trial_type": "html-keyboard-response", "trial_index": 54, "time_elapsed": 123010, "internal_node_id": "0.0-4.0-50.0"}}, {"uniqueid": "w83722045:a16248958", "current_trial": 55, "dateTime": 1664464191133, "trialdata": {"rt": 329, "stimulus": "<p id='stroop-text' class='stroop-blue'>BLUE</p>", "response": "b", "stimulus-type": "congruent", "word": "blue", "color": "blue", "correct_response": "b", "trial_id": "stroop-trial-1-congruent-10", "trial_type": "html-keyboard-response", "trial_index": 55, "time_elapsed": 123842, "internal_node_id": "0.0-4.0-51.0"}}, {"uniqueid": "w83722045:a16248958", "current_trial": 56, "dateTime": 1664464192012, "trialdata": {"rt": 379, "stimulus": "<p id='stroop-text' class='stroop-blue'>BLUE</p>", "response": "b", "stimulus-type": "congruent", "word": "blue", "color": "blue", "correct_response": "b", "trial_id": "stroop-trial-1-congruent-18", "trial_type": "html-keyboard-response", "trial_index": 56, "time_elapsed": 124722, "internal_node_id": "0.0-4.0-52.0"}}, {"uniqueid": "w83722045:a16248958", "current_trial": 57, "dateTime": 1664464192900, "trialdata": {"rt": 387, "stimulus": "<p id='stroop-text' class='stroop-blue'>GREEN</p>", "response": "b", "stimulus-type": "incongruent", "word": "green", "color": "blue", "correct_response": "b", "trial_id": "stroop-trial-1-incongruent-11", "trial_type": "html-keyboard-response", "trial_index": 57, "time_elapsed": 125610, "internal_node_id": "0.0-4.0-53.0"}}, {"uniqueid": "w83722045:a16248958", "current_trial": 58, "dateTime": 1664464193804, "trialdata": {"rt": 403, "stimulus": "<p id='stroop-text' class='stroop-green'>GREEN</p>", "response": "g", "stimulus-type": "congruent", "word": "green", "color": "green", "correct_response": "g", "trial_id": "stroop-trial-1-congruent-9", "trial_type": "html-keyboard-response", "trial_index": 58, "time_elapsed": 126514, "internal_node_id": "0.0-4.0-54.0"}}, {"uniqueid": "w83722045:a16248958", "current_trial": 59, "dateTime": 1664464195284, "trialdata": {"rt": 979, "stimulus": "<p id='stroop-text' class='stroop-blue'>RED</p>", "response": "b", "stimulus-type": "incongruent", "word": "red", "color": "blue", "correct_response": "b", "trial_id": "stroop-trial-1-incongruent-26", "trial_type": "html-keyboard-response", "trial_index": 59, "time_elapsed": 127994, "internal_node_id": "0.0-4.0-55.0"}}, {"uniqueid": "w83722045:a16248958", "current_trial": 60, "dateTime": 1664464196228, "trialdata": {"rt": 443, "stimulus": "<p id='stroop-text' class='stroop-yellow'>YELLOW</p>", "response": "y", "stimulus-type": "congruent", "word": "yellow", "color": "yellow", "correct_response": "y", "trial_id": "stroop-trial-1-congruent-1", "trial_type": "html-keyboard-response", "trial_index": 60, "time_elapsed": 128938, "internal_node_id": "0.0-4.0-56.0"}}, {"uniqueid": "w83722045:a16248958", "current_trial": 61, "dateTime": 1664464197860, "trialdata": {"rt": 1130, "stimulus": "<p id='stroop-text' class='stroop-blue'>YELLOW</p>", "response": "b", "stimulus-type": "incongruent", "word": "yellow", "color": "blue", "correct_response": "b", "trial_id": "stroop-trial-1-incongruent-25", "trial_type": "html-keyboard-response", "trial_index": 61, "time_elapsed": 130570, "internal_node_id": "0.0-4.0-57.0"}}, {"uniqueid": "w83722045:a16248958", "current_trial": 62, "dateTime": 1664464198828, "trialdata": {"rt": 467, "stimulus": "<p id='stroop-text' class='stroop-blue'>BRIDGE</p>", "response": "b", "stimulus-type": "unrelated", "word": "BRIDGE", "color": "blue", "correct_response": "b", "trial_id": "stroop-trial-1-unrelated-8", "trial_type": "html-keyboard-response", "trial_index": 62, "time_elapsed": 131538, "internal_node_id": "0.0-4.0-58.0"}}, {"uniqueid": "w83722045:a16248958", "current_trial": 63, "dateTime": 1664464199828, "trialdata": {"rt": 499, "stimulus": "<p id='stroop-text' class='stroop-red'>YELLOW</p>", "response": "r", "stimulus-type": "incongruent", "word": "yellow", "color": "red", "correct_response": "r", "trial_id": "stroop-trial-1-incongruent-2", "trial_type": "html-keyboard-response", "trial_index": 63, "time_elapsed": 132538, "internal_node_id": "0.0-4.0-59.0"}}, {"uniqueid": "w83722045:a16248958", "current_trial": 64, "dateTime": 1664464200820, "trialdata": {"rt": 490, "stimulus": "<p id='stroop-text' class='stroop-yellow'>YELLOW</p>", "response": "y", "stimulus-type": "congruent", "word": "yellow", "color": "yellow", "correct_response": "y", "trial_id": "stroop-trial-1-congruent-2", "trial_type": "html-keyboard-response", "trial_index": 64, "time_elapsed": 133530, "internal_node_id": "0.0-4.0-60.0"}}, {"uniqueid": "w83722045:a16248958", "current_trial": 65, "dateTime": 1664464201965, "trialdata": {"rt": 643, "stimulus": "<p id='stroop-text' class='stroop-blue'>RED</p>", "response": "b", "stimulus-type": "incongruent", "word": "red", "color": "blue", "correct_response": "b", "trial_id": "stroop-trial-1-incongruent-7", "trial_type": "html-keyboard-response", "trial_index": 65, "time_elapsed": 134674, "internal_node_id": "0.0-4.0-61.0"}}, {"uniqueid": "w83722045:a16248958", "current_trial": 66, "dateTime": 1664464203069, "trialdata": {"rt": 597, "stimulus": "<p id='stroop-text' class='stroop-yellow'>RED</p>", "response": "y", "stimulus-type": "incongruent", "word": "red", "color": "yellow", "correct_response": "y", "trial_id": "stroop-trial-1-incongruent-15", "trial_type": "html-keyboard-response", "trial_index": 66, "time_elapsed": 135778, "internal_node_id": "0.0-4.0-62.0"}}, {"uniqueid": "w83722045:a16248958", "current_trial": 67, "dateTime": 1664464204100, "trialdata": {"rt": 531, "stimulus": "<p id='stroop-text' class='stroop-blue'>BLUE</p>", "response": "b", "stimulus-type": "congruent", "word": "blue", "color": "blue", "correct_response": "b", "trial_id": "stroop-trial-1-congruent-24", "trial_type": "html-keyboard-response", "trial_index": 67, "time_elapsed": 136810, "internal_node_id": "0.0-4.0-63.0"}}, {"uniqueid": "w83722045:a16248958", "current_trial": 68, "dateTime": 1664464205156, "trialdata": {"rt": 553, "stimulus": "<p id='stroop-text' class='stroop-yellow'>STONE</p>", "response": "y", "stimulus-type": "unrelated", "word": "STONE", "color": "yellow", "correct_response": "y", "trial_id": "stroop-trial-1-unrelated-20", "trial_type": "html-keyboard-response", "trial_index": 68, "time_elapsed": 137866, "internal_node_id": "0.0-4.0-64.0"}}, {"uniqueid": "w83722045:a16248958", "current_trial": 69, "dateTime": 1664464206116, "trialdata": {"rt": 458, "stimulus": "<p id='stroop-text' class='stroop-blue'>FORK</p>", "response": "b", "stimulus-type": "unrelated", "word": "FORK", "color": "blue", "correct_response": "b", "trial_id": "stroop-trial-1-unrelated-26", "trial_type": "html-keyboard-response", "trial_index": 69, "time_elapsed": 138826, "internal_node_id": "0.0-4.0-65.0"}}, {"uniqueid": "w83722045:a16248958", "current_trial": 70, "dateTime": 1664464207069, "trialdata": {"rt": 451, "stimulus": "<p id='stroop-text' class='stroop-blue'>GREEN</p>", "response": "b", "stimulus-type": "incongruent", "word": "green", "color": "blue", "correct_response": "b", "trial_id": "stroop-trial-1-incongruent-9", "trial_type": "html-keyboard-response", "trial_index": 70, "time_elapsed": 139778, "internal_node_id": "0.0-4.0-66.0"}}, {"uniqueid": "w83722045:a16248958", "current_trial": 71, "dateTime": 1664464208068, "trialdata": {"rt": 499, "stimulus": "<p id='stroop-text' class='stroop-green'>BOTTLE</p>", "response": "g", "stimulus-type": "unrelated", "word": "BOTTLE", "color": "green", "correct_response": "g", "trial_id": "stroop-trial-1-unrelated-22", "trial_type": "html-keyboard-response", "trial_index": 71, "time_elapsed": 140778, "internal_node_id": "0.0-4.0-67.0"}}, {"uniqueid": "w83722045:a16248958", "current_trial": 72, "dateTime": 1664464209068, "trialdata": {"rt": 498, "stimulus": "<p id='stroop-text' class='stroop-red'>GREEN</p>", "response": "r", "stimulus-type": "incongruent", "word": "green", "color": "red", "correct_response": "r", "trial_id": "stroop-trial-1-incongruent-24", "trial_type": "html-keyboard-response", "trial_index": 72, "time_elapsed": 141778, "internal_node_id": "0.0-4.0-68.0"}}, {"uniqueid": "w83722045:a16248958", "current_trial": 73, "dateTime": 1664464210548, "trialdata": {"rt": 977, "stimulus": "<p id='stroop-text' class='stroop-blue'>YELLOW</p>", "response": "b", "stimulus-type": "incongruent", "word": "yellow", "color": "blue", "correct_response": "b", "trial_id": "stroop-trial-1-incongruent-4", "trial_type": "html-keyboard-response", "trial_index": 73, "time_elapsed": 143258, "internal_node_id": "0.0-4.0-69.0"}}, {"uniqueid": "w83722045:a16248958", "current_trial": 74, "dateTime": 1664464211436, "trialdata": {"rt": 386, "stimulus": "<p id='stroop-text' class='stroop-blue'>GREEN</p>", "response": "b", "stimulus-type": "incongruent", "word": "green", "color": "blue", "correct_response": "b", "trial_id": "stroop-trial-1-incongruent-28", "trial_type": "html-keyboard-response", "trial_index": 74, "time_elapsed": 144146, "internal_node_id": "0.0-4.0-70.0"}}, {"uniqueid": "w83722045:a16248958", "current_trial": 75, "dateTime": 1664464212302, "trialdata": {"rt": 362, "stimulus": "<p id='stroop-text' class='stroop-blue'>GREEN</p>", "response": "b", "stimulus-type": "incongruent", "word": "green", "color": "blue", "correct_response": "b", "trial_id": "stroop-trial-1-incongruent-30", "trial_type": "html-keyboard-response", "trial_index": 75, "time_elapsed": 145012, "internal_node_id": "0.0-4.0-71.0"}}, {"uniqueid": "w83722045:a16248958", "current_trial": 76, "dateTime": 1664464213230, "trialdata": {"rt": 424, "stimulus": "<p id='stroop-text' class='stroop-blue'>RED</p>", "response": "b", "stimulus-type": "incongruent", "word": "red", "color": "blue", "correct_response": "b", "trial_id": "stroop-trial-1-incongruent-23", "trial_type": "html-keyboard-response", "trial_index": 76, "time_elapsed": 145939, "internal_node_id": "0.0-4.0-72.0"}}, {"uniqueid": "w83722045:a16248958", "current_trial": 77, "dateTime": 1664464214174, "trialdata": {"rt": 441, "stimulus": "<p id='stroop-text' class='stroop-red'>RED</p>", "response": "r", "stimulus-type": "congruent", "word": "red", "color": "red", "correct_response": "r", "trial_id": "stroop-trial-1-congruent-5", "trial_type": "html-keyboard-response", "trial_index": 77, "time_elapsed": 146883, "internal_node_id": "0.0-4.0-73.0"}}, {"uniqueid": "w83722045:a16248958", "current_trial": 78, "dateTime": 1664464215142, "trialdata": {"rt": 465, "stimulus": "<p id='stroop-text' class='stroop-red'>RED</p>", "response": "r", "stimulus-type": "congruent", "word": "red", "color": "red", "correct_response": "r", "trial_id": "stroop-trial-1-congruent-20", "trial_type": "html-keyboard-response", "trial_index": 78, "time_elapsed": 147851, "internal_node_id": "0.0-4.0-74.0"}}, {"uniqueid": "w83722045:a16248958", "current_trial": 79, "dateTime": 1664464216094, "trialdata": {"rt": 450, "stimulus": "<p id='stroop-text' class='stroop-blue'>BLUE</p>", "response": "b", "stimulus-type": "congruent", "word": "blue", "color": "blue", "correct_response": "b", "trial_id": "stroop-trial-1-congruent-27", "trial_type": "html-keyboard-response", "trial_index": 79, "time_elapsed": 148804, "internal_node_id": "0.0-4.0-75.0"}}, {"uniqueid": "w83722045:a16248958", "current_trial": 80, "dateTime": 1664464217070, "trialdata": {"rt": 474, "stimulus": "<p id='stroop-text' class='stroop-yellow'>BOAT</p>", "response": "y", "stimulus-type": "unrelated", "word": "BOAT", "color": "yellow", "correct_response": "y", "trial_id": "stroop-trial-1-unrelated-16", "trial_type": "html-keyboard-response", "trial_index": 80, "time_elapsed": 149779, "internal_node_id": "0.0-4.0-76.0"}}, {"uniqueid": "w83722045:a16248958", "current_trial": 81, "dateTime": 1664464217973, "trialdata": {"rt": 401, "stimulus": "<p id='stroop-text' class='stroop-yellow'>FORK</p>", "response": "y", "stimulus-type": "unrelated", "word": "FORK", "color": "yellow", "correct_response": "y", "trial_id": "stroop-trial-1-unrelated-12", "trial_type": "html-keyboard-response", "trial_index": 81, "time_elapsed": 150683, "internal_node_id": "0.0-4.0-77.0"}}, {"uniqueid": "w83722045:a16248958", "current_trial": 82, "dateTime": 1664464219573, "trialdata": {"rt": 1099, "stimulus": "<p id='stroop-text' class='stroop-blue'>GREEN</p>", "response": "b", "stimulus-type": "incongruent", "word": "green", "color": "blue", "correct_response": "b", "trial_id": "stroop-trial-1-incongruent-17", "trial_type": "html-keyboard-response", "trial_index": 82, "time_elapsed": 152283, "internal_node_id": "0.0-4.0-78.0"}}, {"uniqueid": "w83722045:a16248958", "current_trial": 83, "dateTime": 1664464220558, "trialdata": {"rt": 483, "stimulus": "<p id='stroop-text' class='stroop-red'>RED</p>", "response": "r", "stimulus-type": "congruent", "word": "red", "color": "red", "correct_response": "r", "trial_id": "stroop-trial-1-congruent-14", "trial_type": "html-keyboard-response", "trial_index": 83, "time_elapsed": 153267, "internal_node_id": "0.0-4.0-79.0"}}, {"uniqueid": "w83722045:a16248958", "current_trial": 84, "dateTime": 1664464221925, "trialdata": {"rt": 867, "stimulus": "<p id='stroop-text' class='stroop-blue'>BLUE</p>", "response": "b", "stimulus-type": "congruent", "word": "blue", "color": "blue", "correct_response": "b", "trial_id": "stroop-trial-1-congruent-13", "trial_type": "html-keyboard-response", "trial_index": 84, "time_elapsed": 154635, "internal_node_id": "0.0-4.0-80.0"}}, {"uniqueid": "w83722045:a16248958", "current_trial": 85, "dateTime": 1664464222893, "trialdata": {"rt": 466, "stimulus": "<p id='stroop-text' class='stroop-blue'>YELLOW</p>", "response": "b", "stimulus-type": "incongruent", "word": "yellow", "color": "blue", "correct_response": "b", "trial_id": "stroop-trial-1-incongruent-20", "trial_type": "html-keyboard-response", "trial_index": 85, "time_elapsed": 155603, "internal_node_id": "0.0-4.0-81.0"}}, {"uniqueid": "w83722045:a16248958", "current_trial": 86, "dateTime": 1664464223733, "trialdata": {"rt": 338, "stimulus": "<p id='stroop-text' class='stroop-blue'>YELLOW</p>", "response": "b", "stimulus-type": "incongruent", "word": "yellow", "color": "blue", "correct_response": "b", "trial_id": "stroop-trial-1-incongruent-19", "trial_type": "html-keyboard-response", "trial_index": 86, "time_elapsed": 156443, "internal_node_id": "0.0-4.0-82.0"}}, {"uniqueid": "w83722045:a16248958", "current_trial": 87, "dateTime": 1664464224670, "trialdata": {"rt": 434, "stimulus": "<p id='stroop-text' class='stroop-red'>BRIDGE</p>", "response": "r", "stimulus-type": "unrelated", "word": "BRIDGE", "color": "red", "correct_response": "r", "trial_id": "stroop-trial-1-unrelated-30", "trial_type": "html-keyboard-response", "trial_index": 87, "time_elapsed": 157379, "internal_node_id": "0.0-4.0-83.0"}}, {"uniqueid": "w83722045:a16248958", "current_trial": 88, "dateTime": 1664464225597, "trialdata": {"rt": 425, "stimulus": "<p id='stroop-text' class='stroop-blue'>BOAT</p>", "response": "b", "stimulus-type": "unrelated", "word": "BOAT", "color": "blue", "correct_response": "b", "trial_id": "stroop-trial-1-unrelated-18", "trial_type": "html-keyboard-response", "trial_index": 88, "time_elapsed": 158307, "internal_node_id": "0.0-4.0-84.0"}}, {"uniqueid": "w83722045:a16248958", "current_trial": 89, "dateTime": 1664464226702, "trialdata": {"rt": 603, "stimulus": "<p id='stroop-text' class='stroop-green'>GREEN</p>", "response": "g", "stimulus-type": "congruent", "word": "green", "color": "green", "correct_response": "g", "trial_id": "stroop-trial-1-congruent-23", "trial_type": "html-keyboard-response", "trial_index": 89, "time_elapsed": 159411, "internal_node_id": "0.0-4.0-85.0"}}, {"uniqueid": "w83722045:a16248958", "current_trial": 90, "dateTime": 1664464227845, "trialdata": {"rt": 642, "stimulus": "<p id='stroop-text' class='stroop-yellow'>BLUE</p>", "response": "y", "stimulus-type": "incongruent", "word": "blue", "color": "yellow", "correct_response": "y", "trial_id": "stroop-trial-1-incongruent-6", "trial_type": "html-keyboard-response", "trial_index": 90, "time_elapsed": 160555, "internal_node_id": "0.0-4.0-86.0"}}, {"uniqueid": "w83722045:a16248958", "current_trial": 91, "dateTime": 1664464228789, "trialdata": {"rt": 443, "stimulus": "<p id='stroop-text' class='stroop-yellow'>YELLOW</p>", "response": "y", "stimulus-type": "congruent", "word": "yellow", "color": "yellow", "correct_response": "y", "trial_id": "stroop-trial-1-congruent-4", "trial_type": "html-keyboard-response", "trial_index": 91, "time_elapsed": 161499, "internal_node_id": "0.0-4.0-87.0"}}, {"uniqueid": "w83722045:a16248958", "current_trial": 92, "dateTime": 1664464229741, "trialdata": {"rt": 451, "stimulus": "<p id='stroop-text' class='stroop-blue'>BRAIN</p>", "response": "b", "stimulus-type": "unrelated", "word": "BRAIN", "color": "blue", "correct_response": "b", "trial_id": "stroop-trial-1-unrelated-2", "trial_type": "html-keyboard-response", "trial_index": 92, "time_elapsed": 162451, "internal_node_id": "0.0-4.0-88.0"}}, {"uniqueid": "w83722045:a16248958", "current_trial": 93, "dateTime": 1664464230750, "trialdata": {"rt": 506, "stimulus": "<p id='stroop-text' class='stroop-green'>BRIDGE</p>", "response": "g", "stimulus-type": "unrelated", "word": "BRIDGE", "color": "green", "correct_response": "g", "trial_id": "stroop-trial-1-unrelated-9", "trial_type": "html-keyboard-response", "trial_index": 93, "time_elapsed": 163459, "internal_node_id": "0.0-4.0-89.0"}}, {"uniqueid": "w83722045:a16248958", "current_trial": 94, "dateTime": 1664464270677, "trialdata": {"rt": 39424, "stimulus": "  <h1> End of block! </h1>\n\n  You have reached the end of the block 1/5. If you need a short break, feel free to take one now before moving on.\n\n  <br><br>\n  In the next block, you will complete another 90 rounds of this game.\n\n  <br><br>\n  <div style='text-align: center;'>Press <code>space</code> to begin.</div>\n  <br><br>\n<div style='text-align: center;'>(If the experiment doesn't continue, try clicking on the text and then pressing <code>space</code>.)</div>", "response": " ", "trial_id": "stroop_1_ready_2", "trial_type": "html-keyboard-response", "trial_index": 94, "time_elapsed": 203387, "internal_node_id": "0.0-5.0"}}, {"uniqueid": "w83722045:a16248958", "current_trial": 95, "dateTime": 1664464271493, "trialdata": {"rt": 815, "stimulus": "<p id='stroop-text' class='stroop-red'>BOAT</p>", "response": "r", "stimulus-type": "unrelated", "word": "BOAT", "color": "red", "correct_response": "r", "trial_id": "stroop-trial-1-unrelated-8", "trial_type": "html-keyboard-response", "trial_index": 95, "time_elapsed": 204203, "internal_node_id": "0.0-6.0-0.0"}}, {"uniqueid": "w83722045:a16248958", "current_trial": 96, "dateTime": 1664464272407, "trialdata": {"rt": 409, "stimulus": "<p id='stroop-text' class='stroop-red'>WINDOW</p>", "response": "r", "stimulus-type": "unrelated", "word": "WINDOW", "color": "red", "correct_response": "r", "trial_id": "stroop-trial-1-unrelated-30", "trial_type": "html-keyboard-response", "trial_index": 96, "time_elapsed": 205116, "internal_node_id": "0.0-6.0-1.0"}}, {"uniqueid": "w83722045:a16248958", "current_trial": 97, "dateTime": 1664464273774, "trialdata": {"rt": 861, "stimulus": "<p id='stroop-text' class='stroop-yellow'>BRIDGE</p>", "response": "y", "stimulus-type": "unrelated", "word": "BRIDGE", "color": "yellow", "correct_response": "y", "trial_id": "stroop-trial-1-unrelated-21", "trial_type": "html-keyboard-response", "trial_index": 97, "time_elapsed": 206484, "internal_node_id": "0.0-6.0-2.0"}}, {"uniqueid": "w83722045:a16248958", "current_trial": 98, "dateTime": 1664464274774, "trialdata": {"rt": 493, "stimulus": "<p id='stroop-text' class='stroop-yellow'>RED</p>", "response": "y", "stimulus-type": "incongruent", "word": "red", "color": "yellow", "correct_response": "y", "trial_id": "stroop-trial-1-incongruent-20", "trial_type": "html-keyboard-response", "trial_index": 98, "time_elapsed": 207484, "internal_node_id": "0.0-6.0-3.0"}}, {"uniqueid": "w83722045:a16248958", "current_trial": 99, "dateTime": 1664464275887, "trialdata": {"rt": 611, "stimulus": "<p id='stroop-text' class='stroop-blue'>STONE</p>", "response": "b", "stimulus-type": "unrelated", "word": "STONE", "color": "blue", "correct_response": "b", "trial_id": "stroop-trial-1-unrelated-26", "trial_type": "html-keyboard-response", "trial_index": 99, "time_elapsed": 208596, "internal_node_id": "0.0-6.0-4.0"}}, {"uniqueid": "w83722045:a16248958", "current_trial": 100, "dateTime": 1664464276751, "trialdata": {"rt": 363, "stimulus": "<p id='stroop-text' class='stroop-green'>GREEN</p>", "response": "g", "stimulus-type": "congruent", "word": "green", "color": "green", "correct_response": "g", "trial_id": "stroop-trial-1-congruent-26", "trial_type": "html-keyboard-response", "trial_index": 100, "time_elapsed": 209461, "internal_node_id": "0.0-6.0-5.0"}}, {"uniqueid": "w83722045:a16248958", "current_trial": 101, "dateTime": 1664464277655, "trialdata": {"rt": 401, "stimulus": "<p id='stroop-text' class='stroop-green'>GREEN</p>", "response": "g", "stimulus-type": "congruent", "word": "green", "color": "green", "correct_response": "g", "trial_id": "stroop-trial-1-congruent-7", "trial_type": "html-keyboard-response", "trial_index": 101, "time_elapsed": 210364, "internal_node_id": "0.0-6.0-6.0"}}, {"uniqueid": "w83722045:a16248958", "current_trial": 102, "dateTime": 1664464278511, "trialdata": {"rt": 353, "stimulus": "<p id='stroop-text' class='stroop-green'>BLUE</p>", "response": "g", "stimulus-type": "incongruent", "word": "blue", "color": "green", "correct_response": "g", "trial_id": "stroop-trial-1-incongruent-24", "trial_type": "html-keyboard-response", "trial_index": 102, "time_elapsed": 211221, "internal_node_id": "0.0-6.0-7.0"}}, {"uniqueid": "w83722045:a16248958", "current_trial": 103, "dateTime": 1664464279487, "trialdata": {"rt": 475, "stimulus": "<p id='stroop-text' class='stroop-yellow'>YELLOW</p>", "response": "y", "stimulus-type": "congruent", "word": "yellow", "color": "yellow", "correct_response": "y", "trial_id": "stroop-trial-1-congruent-4", "trial_type": "html-keyboard-response", "trial_index": 103, "time_elapsed": 212197, "internal_node_id": "0.0-6.0-8.0"}}, {"uniqueid": "w83722045:a16248958", "current_trial": 104, "dateTime": 1664464280423, "trialdata": {"rt": 431, "stimulus": "<p id='stroop-text' class='stroop-red'>YELLOW</p>", "response": "r", "stimulus-type": "incongruent", "word": "yellow", "color": "red", "correct_response": "r", "trial_id": "stroop-trial-1-incongruent-1", "trial_type": "html-keyboard-response", "trial_index": 104, "time_elapsed": 213132, "internal_node_id": "0.0-6.0-9.0"}}, {"uniqueid": "w83722045:a16248958", "current_trial": 105, "dateTime": 1664464281911, "trialdata": {"rt": 987, "stimulus": "<p id='stroop-text' class='stroop-yellow'>WINDOW</p>", "response": "y", "stimulus-type": "unrelated", "word": "WINDOW", "color": "yellow", "correct_response": "y", "trial_id": "stroop-trial-1-unrelated-11", "trial_type": "html-keyboard-response", "trial_index": 105, "time_elapsed": 214621, "internal_node_id": "0.0-6.0-10.0"}}, {"uniqueid": "w83722045:a16248958", "current_trial": 106, "dateTime": 1664464282750, "trialdata": {"rt": 337, "stimulus": "<p id='stroop-text' class='stroop-green'>YELLOW</p>", "response": "y", "stimulus-type": "incongruent", "word": "yellow", "color": "green", "correct_response": "g", "trial_id": "stroop-trial-1-incongruent-5", "trial_type": "html-keyboard-response", "trial_index": 106, "time_elapsed": 215460, "internal_node_id": "0.0-6.0-11.0"}}, {"uniqueid": "w83722045:a16248958", "current_trial": 107, "dateTime": 1664464284967, "trialdata": {"rt": 1715, "stimulus": "<p id='stroop-text' class='stroop-blue'>GREEN</p>", "response": "b", "stimulus-type": "incongruent", "word": "green", "color": "blue", "correct_response": "b", "trial_id": "stroop-trial-1-incongruent-28", "trial_type": "html-keyboard-response", "trial_index": 107, "time_elapsed": 217677, "internal_node_id": "0.0-6.0-12.0"}}, {"uniqueid": "w83722045:a16248958", "current_trial": 108, "dateTime": 1664464285974, "trialdata": {"rt": 506, "stimulus": "<p id='stroop-text' class='stroop-yellow'>YELLOW</p>", "response": "y", "stimulus-type": "congruent", "word": "yellow", "color": "yellow", "correct_response": "y", "trial_id": "stroop-trial-1-congruent-25", "trial_type": "html-keyboard-response", "trial_index": 108, "time_elapsed": 218684, "internal_node_id": "0.0-6.0-13.0"}}, {"uniqueid": "w83722045:a16248958", "current_trial": 109, "dateTime": 1664464287342, "trialdata": {"rt": 865, "stimulus": "<p id='stroop-text' class='stroop-yellow'>BLUE</p>", "response": "y", "stimulus-type": "incongruent", "word": "blue", "color": "yellow", "correct_response": "y", "trial_id": "stroop-trial-1-incongruent-14", "trial_type": "html-keyboard-response", "trial_index": 109, "time_elapsed": 220052, "internal_node_id": "0.0-6.0-14.0"}}, {"uniqueid": "w83722045:a16248958", "current_trial": 110, "dateTime": 1664464288431, "trialdata": {"rt": 586, "stimulus": "<p id='stroop-text' class='stroop-green'>BRIDGE</p>", "response": "g", "stimulus-type": "unrelated", "word": "BRIDGE", "color": "green", "correct_response": "g", "trial_id": "stroop-trial-1-unrelated-13", "trial_type": "html-keyboard-response", "trial_index": 110, "time_elapsed": 221140, "internal_node_id": "0.0-6.0-15.0"}}, {"uniqueid": "w83722045:a16248958", "current_trial": 111, "dateTime": 1664464290007, "trialdata": {"rt": 1074, "stimulus": "<p id='stroop-text' class='stroop-yellow'>RED</p>", "response": "y", "stimulus-type": "incongruent", "word": "red", "color": "yellow", "correct_response": "y", "trial_id": "stroop-trial-1-incongruent-3", "trial_type": "html-keyboard-response", "trial_index": 111, "time_elapsed": 222716, "internal_node_id": "0.0-6.0-16.0"}}, {"uniqueid": "w83722045:a16248958", "current_trial": 112, "dateTime": 1664464291095, "trialdata": {"rt": 587, "stimulus": "<p id='stroop-text' class='stroop-blue'>YELLOW</p>", "response": "b", "stimulus-type": "incongruent", "word": "yellow", "color": "blue", "correct_response": "b", "trial_id": "stroop-trial-1-incongruent-26", "trial_type": "html-keyboard-response", "trial_index": 112, "time_elapsed": 223804, "internal_node_id": "0.0-6.0-17.0"}}, {"uniqueid": "w83722045:a16248958", "current_trial": 113, "dateTime": 1664464292351, "trialdata": {"rt": 755, "stimulus": "<p id='stroop-text' class='stroop-green'>BOAT</p>", "response": "g", "stimulus-type": "unrelated", "word": "BOAT", "color": "green", "correct_response": "g", "trial_id": "stroop-trial-1-unrelated-14", "trial_type": "html-keyboard-response", "trial_index": 113, "time_elapsed": 225061, "internal_node_id": "0.0-6.0-18.0"}}, {"uniqueid": "w83722045:a16248958", "current_trial": 114, "dateTime": 1664464293951, "trialdata": {"rt": 1098, "stimulus": "<p id='stroop-text' class='stroop-blue'>BRIDGE</p>", "response": "b", "stimulus-type": "unrelated", "word": "BRIDGE", "color": "blue", "correct_response": "b", "trial_id": "stroop-trial-1-unrelated-24", "trial_type": "html-keyboard-response", "trial_index": 114, "time_elapsed": 226660, "internal_node_id": "0.0-6.0-19.0"}}, {"uniqueid": "w83722045:a16248958", "current_trial": 115, "dateTime": 1664464295311, "trialdata": {"rt": 858, "stimulus": "<p id='stroop-text' class='stroop-blue'>YELLOW</p>", "response": "b", "stimulus-type": "incongruent", "word": "yellow", "color": "blue", "correct_response": "b", "trial_id": "stroop-trial-1-incongruent-6", "trial_type": "html-keyboard-response", "trial_index": 115, "time_elapsed": 228021, "internal_node_id": "0.0-6.0-20.0"}}, {"uniqueid": "w83722045:a16248958", "current_trial": 116, "dateTime": 1664464296231, "trialdata": {"rt": 417, "stimulus": "<p id='stroop-text' class='stroop-blue'>BLUE</p>", "response": "b", "stimulus-type": "congruent", "word": "blue", "color": "blue", "correct_response": "b", "trial_id": "stroop-trial-1-congruent-13", "trial_type": "html-keyboard-response", "trial_index": 116, "time_elapsed": 228941, "internal_node_id": "0.0-6.0-21.0"}}, {"uniqueid": "w83722045:a16248958", "current_trial": 117, "dateTime": 1664464297279, "trialdata": {"rt": 545, "stimulus": "<p id='stroop-text' class='stroop-green'>CHAIR</p>", "response": "g", "stimulus-type": "unrelated", "word": "CHAIR", "color": "green", "correct_response": "g", "trial_id": "stroop-trial-1-unrelated-7", "trial_type": "html-keyboard-response", "trial_index": 117, "time_elapsed": 229988, "internal_node_id": "0.0-6.0-22.0"}}, {"uniqueid": "w83722045:a16248958", "current_trial": 118, "dateTime": 1664464298254, "trialdata": {"rt": 462, "stimulus": "<p id='stroop-text' class='stroop-green'>GREEN</p>", "response": "g", "stimulus-type": "congruent", "word": "green", "color": "green", "correct_response": "g", "trial_id": "stroop-trial-1-congruent-28", "trial_type": "html-keyboard-response", "trial_index": 118, "time_elapsed": 230964, "internal_node_id": "0.0-6.0-23.0"}}, {"uniqueid": "w83722045:a16248958", "current_trial": 119, "dateTime": 1664464299230, "trialdata": {"rt": 474, "stimulus": "<p id='stroop-text' class='stroop-yellow'>BRIDGE</p>", "response": "y", "stimulus-type": "unrelated", "word": "BRIDGE", "color": "yellow", "correct_response": "y", "trial_id": "stroop-trial-1-unrelated-5", "trial_type": "html-keyboard-response", "trial_index": 119, "time_elapsed": 231940, "internal_node_id": "0.0-6.0-24.0"}}, {"uniqueid": "w83722045:a16248958", "current_trial": 120, "dateTime": 1664464300207, "trialdata": {"rt": 473, "stimulus": "<p id='stroop-text' class='stroop-red'>WINDOW</p>", "response": "r", "stimulus-type": "unrelated", "word": "WINDOW", "color": "red", "correct_response": "r", "trial_id": "stroop-trial-1-unrelated-17", "trial_type": "html-keyboard-response", "trial_index": 120, "time_elapsed": 232916, "internal_node_id": "0.0-6.0-25.0"}}, {"uniqueid": "w83722045:a16248958", "current_trial": 121, "dateTime": 1664464301615, "trialdata": {"rt": 907, "stimulus": "<p id='stroop-text' class='stroop-blue'>CHAIR</p>", "response": "b", "stimulus-type": "unrelated", "word": "CHAIR", "color": "blue", "correct_response": "b", "trial_id": "stroop-trial-1-unrelated-4", "trial_type": "html-keyboard-response", "trial_index": 121, "time_elapsed": 234325, "internal_node_id": "0.0-6.0-26.0"}}, {"uniqueid": "w83722045:a16248958", "current_trial": 122, "dateTime": 1664464302567, "trialdata": {"rt": 449, "stimulus": "<p id='stroop-text' class='stroop-green'>GREEN</p>", "response": "g", "stimulus-type": "congruent", "word": "green", "color": "green", "correct_response": "g", "trial_id": "stroop-trial-1-congruent-24", "trial_type": "html-keyboard-response", "trial_index": 122, "time_elapsed": 235276, "internal_node_id": "0.0-6.0-27.0"}}, {"uniqueid": "w83722045:a16248958", "current_trial": 123, "dateTime": 1664464303559, "trialdata": {"rt": 490, "stimulus": "<p id='stroop-text' class='stroop-blue'>BLUE</p>", "response": "b", "stimulus-type": "congruent", "word": "blue", "color": "blue", "correct_response": "b", "trial_id": "stroop-trial-1-congruent-27", "trial_type": "html-keyboard-response", "trial_index": 123, "time_elapsed": 236269, "internal_node_id": "0.0-6.0-28.0"}}, {"uniqueid": "w83722045:a16248958", "current_trial": 124, "dateTime": 1664464304518, "trialdata": {"rt": 457, "stimulus": "<p id='stroop-text' class='stroop-red'>BLUE</p>", "response": "r", "stimulus-type": "incongruent", "word": "blue", "color": "red", "correct_response": "r", "trial_id": "stroop-trial-1-incongruent-30", "trial_type": "html-keyboard-response", "trial_index": 124, "time_elapsed": 237228, "internal_node_id": "0.0-6.0-29.0"}}, {"uniqueid": "w83722045:a16248958", "current_trial": 125, "dateTime": 1664464305438, "trialdata": {"rt": 418, "stimulus": "<p id='stroop-text' class='stroop-blue'>BLUE</p>", "response": "b", "stimulus-type": "congruent", "word": "blue", "color": "blue", "correct_response": "b", "trial_id": "stroop-trial-1-congruent-21", "trial_type": "html-keyboard-response", "trial_index": 125, "time_elapsed": 238148, "internal_node_id": "0.0-6.0-30.0"}}, {"uniqueid": "w83722045:a16248958", "current_trial": 126, "dateTime": 1664464306407, "trialdata": {"rt": 466, "stimulus": "<p id='stroop-text' class='stroop-red'>RED</p>", "response": "r", "stimulus-type": "congruent", "word": "red", "color": "red", "correct_response": "r", "trial_id": "stroop-trial-1-congruent-19", "trial_type": "html-keyboard-response", "trial_index": 126, "time_elapsed": 239117, "internal_node_id": "0.0-6.0-31.0"}}, {"uniqueid": "w83722045:a16248958", "current_trial": 127, "dateTime": 1664464307671, "trialdata": {"rt": 761, "stimulus": "<p id='stroop-text' class='stroop-red'>RED</p>", "response": "r", "stimulus-type": "congruent", "word": "red", "color": "red", "correct_response": "r", "trial_id": "stroop-trial-1-congruent-18", "trial_type": "html-keyboard-response", "trial_index": 127, "time_elapsed": 240381, "internal_node_id": "0.0-6.0-32.0"}}, {"uniqueid": "w83722045:a16248958", "current_trial": 128, "dateTime": 1664464308518, "trialdata": {"rt": 346, "stimulus": "<p id='stroop-text' class='stroop-red'>WINDOW</p>", "response": "r", "stimulus-type": "unrelated", "word": "WINDOW", "color": "red", "correct_response": "r", "trial_id": "stroop-trial-1-unrelated-6", "trial_type": "html-keyboard-response", "trial_index": 128, "time_elapsed": 241228, "internal_node_id": "0.0-6.0-33.0"}}, {"uniqueid": "w83722045:a16248958", "current_trial": 129, "dateTime": 1664464309982, "trialdata": {"rt": 962, "stimulus": "<p id='stroop-text' class='stroop-blue'>RED</p>", "response": "b", "stimulus-type": "incongruent", "word": "red", "color": "blue", "correct_response": "b", "trial_id": "stroop-trial-1-incongruent-10", "trial_type": "html-keyboard-response", "trial_index": 129, "time_elapsed": 242692, "internal_node_id": "0.0-6.0-34.0"}}, {"uniqueid": "w83722045:a16248958", "current_trial": 130, "dateTime": 1664464310879, "trialdata": {"rt": 391, "stimulus": "<p id='stroop-text' class='stroop-blue'>BRIDGE</p>", "response": "b", "stimulus-type": "unrelated", "word": "BRIDGE", "color": "blue", "correct_response": "b", "trial_id": "stroop-trial-1-unrelated-25", "trial_type": "html-keyboard-response", "trial_index": 130, "time_elapsed": 243589, "internal_node_id": "0.0-6.0-35.0"}}, {"uniqueid": "w83722045:a16248958", "current_trial": 131, "dateTime": 1664464311902, "trialdata": {"rt": 521, "stimulus": "<p id='stroop-text' class='stroop-yellow'>YELLOW</p>", "response": "y", "stimulus-type": "congruent", "word": "yellow", "color": "yellow", "correct_response": "y", "trial_id": "stroop-trial-1-congruent-16", "trial_type": "html-keyboard-response", "trial_index": 131, "time_elapsed": 244612, "internal_node_id": "0.0-6.0-36.0"}}, {"uniqueid": "w83722045:a16248958", "current_trial": 132, "dateTime": 1664464312871, "trialdata": {"rt": 465, "stimulus": "<p id='stroop-text' class='stroop-red'>RED</p>", "response": "r", "stimulus-type": "congruent", "word": "red", "color": "red", "correct_response": "r", "trial_id": "stroop-trial-1-congruent-3", "trial_type": "html-keyboard-response", "trial_index": 132, "time_elapsed": 245581, "internal_node_id": "0.0-6.0-37.0"}}, {"uniqueid": "w83722045:a16248958", "current_trial": 133, "dateTime": 1664464314039, "trialdata": {"rt": 654, "stimulus": "<p id='stroop-text' class='stroop-blue'>BLUE</p>", "response": "b", "stimulus-type": "congruent", "word": "blue", "color": "blue", "correct_response": "b", "trial_id": "stroop-trial-1-congruent-20", "trial_type": "html-keyboard-response", "trial_index": 133, "time_elapsed": 246749, "internal_node_id": "0.0-6.0-38.0"}}, {"uniqueid": "w83722045:a16248958", "current_trial": 134, "dateTime": 1664464315087, "trialdata": {"rt": 546, "stimulus": "<p id='stroop-text' class='stroop-green'>WINDOW</p>", "response": "b", "stimulus-type": "unrelated", "word": "WINDOW", "color": "green", "correct_response": "g", "trial_id": "stroop-trial-1-unrelated-18", "trial_type": "html-keyboard-response", "trial_index": 134, "time_elapsed": 247797, "internal_node_id": "0.0-6.0-39.0"}}, {"uniqueid": "w83722045:a16248958", "current_trial": 135, "dateTime": 1664464316959, "trialdata": {"rt": 1370, "stimulus": "<p id='stroop-text' class='stroop-blue'>RED</p>", "response": "b", "stimulus-type": "incongruent", "word": "red", "color": "blue", "correct_response": "b", "trial_id": "stroop-trial-1-incongruent-27", "trial_type": "html-keyboard-response", "trial_index": 135, "time_elapsed": 249668, "internal_node_id": "0.0-6.0-40.0"}}, {"uniqueid": "w83722045:a16248958", "current_trial": 136, "dateTime": 1664464317967, "trialdata": {"rt": 505, "stimulus": "<p id='stroop-text' class='stroop-yellow'>WINDOW</p>", "response": "y", "stimulus-type": "unrelated", "word": "WINDOW", "color": "yellow", "correct_response": "y", "trial_id": "stroop-trial-1-unrelated-23", "trial_type": "html-keyboard-response", "trial_index": 136, "time_elapsed": 250676, "internal_node_id": "0.0-6.0-41.0"}}, {"uniqueid": "w83722045:a16248958", "current_trial": 137, "dateTime": 1664464319134, "trialdata": {"rt": 665, "stimulus": "<p id='stroop-text' class='stroop-blue'>BLUE</p>", "response": "b", "stimulus-type": "congruent", "word": "blue", "color": "blue", "correct_response": "b", "trial_id": "stroop-trial-1-congruent-14", "trial_type": "html-keyboard-response", "trial_index": 137, "time_elapsed": 251844, "internal_node_id": "0.0-6.0-42.0"}}, {"uniqueid": "w83722045:a16248958", "current_trial": 138, "dateTime": 1664464320103, "trialdata": {"rt": 465, "stimulus": "<p id='stroop-text' class='stroop-yellow'>YELLOW</p>", "response": "y", "stimulus-type": "congruent", "word": "yellow", "color": "yellow", "correct_response": "y", "trial_id": "stroop-trial-1-congruent-8", "trial_type": "html-keyboard-response", "trial_index": 138, "time_elapsed": 252812, "internal_node_id": "0.0-6.0-43.0"}}, {"uniqueid": "w83722045:a16248958", "current_trial": 139, "dateTime": 1664464321054, "trialdata": {"rt": 450, "stimulus": "<p id='stroop-text' class='stroop-yellow'>WINDOW</p>", "response": "y", "stimulus-type": "unrelated", "word": "WINDOW", "color": "yellow", "correct_response": "y", "trial_id": "stroop-trial-1-unrelated-2", "trial_type": "html-keyboard-response", "trial_index": 139, "time_elapsed": 253764, "internal_node_id": "0.0-6.0-44.0"}}, {"uniqueid": "w83722045:a16248958", "current_trial": 140, "dateTime": 1664464322031, "trialdata": {"rt": 473, "stimulus": "<p id='stroop-text' class='stroop-green'>GREEN</p>", "response": "g", "stimulus-type": "congruent", "word": "green", "color": "green", "correct_response": "g", "trial_id": "stroop-trial-1-congruent-10", "trial_type": "html-keyboard-response", "trial_index": 140, "time_elapsed": 254740, "internal_node_id": "0.0-6.0-45.0"}}, {"uniqueid": "w83722045:a16248958", "current_trial": 141, "dateTime": 1664464322935, "trialdata": {"rt": 402, "stimulus": "<p id='stroop-text' class='stroop-green'>GREEN</p>", "response": "g", "stimulus-type": "congruent", "word": "green", "color": "green", "correct_response": "g", "trial_id": "stroop-trial-1-congruent-12", "trial_type": "html-keyboard-response", "trial_index": 141, "time_elapsed": 255645, "internal_node_id": "0.0-6.0-46.0"}}, {"uniqueid": "w83722045:a16248958", "current_trial": 142, "dateTime": 1664464324271, "trialdata": {"rt": 821, "stimulus": "<p id='stroop-text' class='stroop-blue'>YELLOW</p>", "response": "b", "stimulus-type": "incongruent", "word": "yellow", "color": "blue", "correct_response": "b", "trial_id": "stroop-trial-1-incongruent-2", "trial_type": "html-keyboard-response", "trial_index": 142, "time_elapsed": 256981, "internal_node_id": "0.0-6.0-47.0"}}, {"uniqueid": "w83722045:a16248958", "current_trial": 143, "dateTime": 1664464325790, "trialdata": {"rt": 1018, "stimulus": "<p id='stroop-text' class='stroop-red'>FORK</p>", "response": "r", "stimulus-type": "unrelated", "word": "FORK", "color": "red", "correct_response": "r", "trial_id": "stroop-trial-1-unrelated-1", "trial_type": "html-keyboard-response", "trial_index": 143, "time_elapsed": 258500, "internal_node_id": "0.0-6.0-48.0"}}, {"uniqueid": "w83722045:a16248958", "current_trial": 144, "dateTime": 1664464327023, "trialdata": {"rt": 729, "stimulus": "<p id='stroop-text' class='stroop-blue'>BRIDGE</p>", "response": "b", "stimulus-type": "unrelated", "word": "BRIDGE", "color": "blue", "correct_response": "b", "trial_id": "stroop-trial-1-unrelated-3", "trial_type": "html-keyboard-response", "trial_index": 144, "time_elapsed": 259732, "internal_node_id": "0.0-6.0-49.0"}}, {"uniqueid": "w83722045:a16248958", "current_trial": 145, "dateTime": 1664464328319, "trialdata": {"rt": 793, "stimulus": "<p id='stroop-text' class='stroop-yellow'>WINDOW</p>", "response": "y", "stimulus-type": "unrelated", "word": "WINDOW", "color": "yellow", "correct_response": "y", "trial_id": "stroop-trial-1-unrelated-29", "trial_type": "html-keyboard-response", "trial_index": 145, "time_elapsed": 261029, "internal_node_id": "0.0-6.0-50.0"}}, {"uniqueid": "w83722045:a16248958", "current_trial": 146, "dateTime": 1664464329399, "trialdata": {"rt": 567, "stimulus": "<p id='stroop-text' class='stroop-green'>GREEN</p>", "response": "g", "stimulus-type": "congruent", "word": "green", "color": "green", "correct_response": "g", "trial_id": "stroop-trial-1-congruent-9", "trial_type": "html-keyboard-response", "trial_index": 146, "time_elapsed": 262108, "internal_node_id": "0.0-6.0-51.0"}}, {"uniqueid": "w83722045:a16248958", "current_trial": 147, "dateTime": 1664464330503, "trialdata": {"rt": 598, "stimulus": "<p id='stroop-text' class='stroop-red'>GREEN</p>", "response": "r", "stimulus-type": "incongruent", "word": "green", "color": "red", "correct_response": "r", "trial_id": "stroop-trial-1-incongruent-13", "trial_type": "html-keyboard-response", "trial_index": 147, "time_elapsed": 263212, "internal_node_id": "0.0-6.0-52.0"}}, {"uniqueid": "w83722045:a16248958", "current_trial": 148, "dateTime": 1664464331495, "trialdata": {"rt": 489, "stimulus": "<p id='stroop-text' class='stroop-red'>RED</p>", "response": "r", "stimulus-type": "congruent", "word": "red", "color": "red", "correct_response": "r", "trial_id": "stroop-trial-1-congruent-22", "trial_type": "html-keyboard-response", "trial_index": 148, "time_elapsed": 264204, "internal_node_id": "0.0-6.0-53.0"}}, {"uniqueid": "w83722045:a16248958", "current_trial": 149, "dateTime": 1664464333041, "trialdata": {"rt": 1042, "stimulus": "<p id='stroop-text' class='stroop-yellow'>YELLOW</p>", "response": "y", "stimulus-type": "congruent", "word": "yellow", "color": "yellow", "correct_response": "y", "trial_id": "stroop-trial-1-congruent-2", "trial_type": "html-keyboard-response", "trial_index": 149, "time_elapsed": 265751, "internal_node_id": "0.0-6.0-54.0"}}, {"uniqueid": "w83722045:a16248958", "current_trial": 150, "dateTime": 1664464334168, "trialdata": {"rt": 624, "stimulus": "<p id='stroop-text' class='stroop-red'>BLUE</p>", "response": "r", "stimulus-type": "incongruent", "word": "blue", "color": "red", "correct_response": "r", "trial_id": "stroop-trial-1-incongruent-15", "trial_type": "html-keyboard-response", "trial_index": 150, "time_elapsed": 266878, "internal_node_id": "0.0-6.0-55.0"}}, {"uniqueid": "w83722045:a16248958", "current_trial": 151, "dateTime": 1664464335855, "trialdata": {"rt": 1185, "stimulus": "<p id='stroop-text' class='stroop-green'>RED</p>", "response": "g", "stimulus-type": "incongruent", "word": "red", "color": "green", "correct_response": "g", "trial_id": "stroop-trial-1-incongruent-23", "trial_type": "html-keyboard-response", "trial_index": 151, "time_elapsed": 268565, "internal_node_id": "0.0-6.0-56.0"}}, {"uniqueid": "w83722045:a16248958", "current_trial": 152, "dateTime": 1664464336855, "trialdata": {"rt": 498, "stimulus": "<p id='stroop-text' class='stroop-green'>BLUE</p>", "response": "g", "stimulus-type": "incongruent", "word": "blue", "color": "green", "correct_response": "g", "trial_id": "stroop-trial-1-incongruent-25", "trial_type": "html-keyboard-response", "trial_index": 152, "time_elapsed": 269565, "internal_node_id": "0.0-6.0-57.0"}}, {"uniqueid": "w83722045:a16248958", "current_trial": 153, "dateTime": 1664464337808, "trialdata": {"rt": 449, "stimulus": "<p id='stroop-text' class='stroop-green'>BOAT</p>", "response": "g", "stimulus-type": "unrelated", "word": "BOAT", "color": "green", "correct_response": "g", "trial_id": "stroop-trial-1-unrelated-15", "trial_type": "html-keyboard-response", "trial_index": 153, "time_elapsed": 270517, "internal_node_id": "0.0-6.0-58.0"}}, {"uniqueid": "w83722045:a16248958", "current_trial": 154, "dateTime": 1664464338776, "trialdata": {"rt": 460, "stimulus": "<p id='stroop-text' class='stroop-red'>RED</p>", "response": "r", "stimulus-type": "congruent", "word": "red", "color": "red", "correct_response": "r", "trial_id": "stroop-trial-1-congruent-15", "trial_type": "html-keyboard-response", "trial_index": 154, "time_elapsed": 271485, "internal_node_id": "0.0-6.0-59.0"}}, {"uniqueid": "w83722045:a16248958", "current_trial": 155, "dateTime": 1664464339744, "trialdata": {"rt": 465, "stimulus": "<p id='stroop-text' class='stroop-green'>BLUE</p>", "response": "g", "stimulus-type": "incongruent", "word": "blue", "color": "green", "correct_response": "g", "trial_id": "stroop-trial-1-incongruent-19", "trial_type": "html-keyboard-response", "trial_index": 155, "time_elapsed": 272453, "internal_node_id": "0.0-6.0-60.0"}}, {"uniqueid": "w83722045:a16248958", "current_trial": 156, "dateTime": 1664464340783, "trialdata": {"rt": 537, "stimulus": "<p id='stroop-text' class='stroop-yellow'>MONKEY</p>", "response": "y", "stimulus-type": "unrelated", "word": "MONKEY", "color": "yellow", "correct_response": "y", "trial_id": "stroop-trial-1-unrelated-28", "trial_type": "html-keyboard-response", "trial_index": 156, "time_elapsed": 273493, "internal_node_id": "0.0-6.0-61.0"}}, {"uniqueid": "w83722045:a16248958", "current_trial": 157, "dateTime": 1664464341744, "trialdata": {"rt": 457, "stimulus": "<p id='stroop-text' class='stroop-red'>BOAT</p>", "response": "r", "stimulus-type": "unrelated", "word": "BOAT", "color": "red", "correct_response": "r", "trial_id": "stroop-trial-1-unrelated-9", "trial_type": "html-keyboard-response", "trial_index": 157, "time_elapsed": 274454, "internal_node_id": "0.0-6.0-62.0"}}, {"uniqueid": "w83722045:a16248958", "current_trial": 158, "dateTime": 1664464342976, "trialdata": {"rt": 729, "stimulus": "<p id='stroop-text' class='stroop-blue'>WINDOW</p>", "response": "b", "stimulus-type": "unrelated", "word": "WINDOW", "color": "blue", "correct_response": "b", "trial_id": "stroop-trial-1-unrelated-20", "trial_type": "html-keyboard-response", "trial_index": 158, "time_elapsed": 275685, "internal_node_id": "0.0-6.0-63.0"}}, {"uniqueid": "w83722045:a16248958", "current_trial": 159, "dateTime": 1664464344320, "trialdata": {"rt": 841, "stimulus": "<p id='stroop-text' class='stroop-blue'>GREEN</p>", "response": "g", "stimulus-type": "incongruent", "word": "green", "color": "blue", "correct_response": "b", "trial_id": "stroop-trial-1-incongruent-11", "trial_type": "html-keyboard-response", "trial_index": 159, "time_elapsed": 277029, "internal_node_id": "0.0-6.0-64.0"}}, {"uniqueid": "w83722045:a16248958", "current_trial": 160, "dateTime": 1664464346104, "trialdata": {"rt": 1281, "stimulus": "<p id='stroop-text' class='stroop-green'>RED</p>", "response": "g", "stimulus-type": "incongruent", "word": "red", "color": "green", "correct_response": "g", "trial_id": "stroop-trial-1-incongruent-8", "trial_type": "html-keyboard-response", "trial_index": 160, "time_elapsed": 278814, "internal_node_id": "0.0-6.0-65.0"}}, {"uniqueid": "w83722045:a16248958", "current_trial": 161, "dateTime": 1664464347456, "trialdata": {"rt": 849, "stimulus": "<p id='stroop-text' class='stroop-blue'>YELLOW</p>", "response": "b", "stimulus-type": "incongruent", "word": "yellow", "color": "blue", "correct_response": "b", "trial_id": "stroop-trial-1-incongruent-7", "trial_type": "html-keyboard-response", "trial_index": 161, "time_elapsed": 280166, "internal_node_id": "0.0-6.0-66.0"}}, {"uniqueid": "w83722045:a16248958", "current_trial": 162, "dateTime": 1664464348552, "trialdata": {"rt": 594, "stimulus": "<p id='stroop-text' class='stroop-blue'>MONKEY</p>", "response": "b", "stimulus-type": "unrelated", "word": "MONKEY", "color": "blue", "correct_response": "b", "trial_id": "stroop-trial-1-unrelated-12", "trial_type": "html-keyboard-response", "trial_index": 162, "time_elapsed": 281262, "internal_node_id": "0.0-6.0-67.0"}}, {"uniqueid": "w83722045:a16248958", "current_trial": 163, "dateTime": 1664464349488, "trialdata": {"rt": 432, "stimulus": "<p id='stroop-text' class='stroop-red'>RED</p>", "response": "r", "stimulus-type": "congruent", "word": "red", "color": "red", "correct_response": "r", "trial_id": "stroop-trial-1-congruent-23", "trial_type": "html-keyboard-response", "trial_index": 163, "time_elapsed": 282197, "internal_node_id": "0.0-6.0-68.0"}}, {"uniqueid": "w83722045:a16248958", "current_trial": 164, "dateTime": 1664464350440, "trialdata": {"rt": 450, "stimulus": "<p id='stroop-text' class='stroop-blue'>BRIDGE</p>", "response": "b", "stimulus-type": "unrelated", "word": "BRIDGE", "color": "blue", "correct_response": "b", "trial_id": "stroop-trial-1-unrelated-10", "trial_type": "html-keyboard-response", "trial_index": 164, "time_elapsed": 283149, "internal_node_id": "0.0-6.0-69.0"}}, {"uniqueid": "w83722045:a16248958", "current_trial": 165, "dateTime": 1664464351440, "trialdata": {"rt": 497, "stimulus": "<p id='stroop-text' class='stroop-green'>GREEN</p>", "response": "g", "stimulus-type": "congruent", "word": "green", "color": "green", "correct_response": "g", "trial_id": "stroop-trial-1-congruent-5", "trial_type": "html-keyboard-response", "trial_index": 165, "time_elapsed": 284149, "internal_node_id": "0.0-6.0-70.0"}}, {"uniqueid": "w83722045:a16248958", "current_trial": 166, "dateTime": 1664464352480, "trialdata": {"rt": 537, "stimulus": "<p id='stroop-text' class='stroop-blue'>BLUE</p>", "response": "b", "stimulus-type": "congruent", "word": "blue", "color": "blue", "correct_response": "b", "trial_id": "stroop-trial-1-congruent-29", "trial_type": "html-keyboard-response", "trial_index": 166, "time_elapsed": 285190, "internal_node_id": "0.0-6.0-71.0"}}, {"uniqueid": "w83722045:a16248958", "current_trial": 167, "dateTime": 1664464353559, "trialdata": {"rt": 577, "stimulus": "<p id='stroop-text' class='stroop-blue'>YELLOW</p>", "response": "y", "stimulus-type": "incongruent", "word": "yellow", "color": "blue", "correct_response": "b", "trial_id": "stroop-trial-1-incongruent-17", "trial_type": "html-keyboard-response", "trial_index": 167, "time_elapsed": 286269, "internal_node_id": "0.0-6.0-72.0"}}, {"uniqueid": "w83722045:a16248958", "current_trial": 168, "dateTime": 1664464355280, "trialdata": {"rt": 1219, "stimulus": "<p id='stroop-text' class='stroop-green'>BLUE</p>", "response": "g", "stimulus-type": "incongruent", "word": "blue", "color": "green", "correct_response": "g", "trial_id": "stroop-trial-1-incongruent-4", "trial_type": "html-keyboard-response", "trial_index": 168, "time_elapsed": 287990, "internal_node_id": "0.0-6.0-73.0"}}, {"uniqueid": "w83722045:a16248958", "current_trial": 169, "dateTime": 1664464356688, "trialdata": {"rt": 906, "stimulus": "<p id='stroop-text' class='stroop-blue'>BLUE</p>", "response": "b", "stimulus-type": "congruent", "word": "blue", "color": "blue", "correct_response": "b", "trial_id": "stroop-trial-1-congruent-30", "trial_type": "html-keyboard-response", "trial_index": 169, "time_elapsed": 289398, "internal_node_id": "0.0-6.0-74.0"}}, {"uniqueid": "w83722045:a16248958", "current_trial": 170, "dateTime": 1664464358199, "trialdata": {"rt": 1008, "stimulus": "<p id='stroop-text' class='stroop-blue'>GREEN</p>", "response": "b", "stimulus-type": "incongruent", "word": "green", "color": "blue", "correct_response": "b", "trial_id": "stroop-trial-1-incongruent-29", "trial_type": "html-keyboard-response", "trial_index": 170, "time_elapsed": 290909, "internal_node_id": "0.0-6.0-75.0"}}, {"uniqueid": "w83722045:a16248958", "current_trial": 171, "dateTime": 1664464359296, "trialdata": {"rt": 594, "stimulus": "<p id='stroop-text' class='stroop-yellow'>BLUE</p>", "response": "y", "stimulus-type": "incongruent", "word": "blue", "color": "yellow", "correct_response": "y", "trial_id": "stroop-trial-1-incongruent-21", "trial_type": "html-keyboard-response", "trial_index": 171, "time_elapsed": 292005, "internal_node_id": "0.0-6.0-76.0"}}, {"uniqueid": "w83722045:a16248958", "current_trial": 172, "dateTime": 1664464360864, "trialdata": {"rt": 1060, "stimulus": "<p id='stroop-text' class='stroop-green'>YELLOW</p>", "response": "g", "stimulus-type": "incongruent", "word": "yellow", "color": "green", "correct_response": "g", "trial_id": "stroop-trial-1-incongruent-22", "trial_type": "html-keyboard-response", "trial_index": 172, "time_elapsed": 293573, "internal_node_id": "0.0-6.0-77.0"}}, {"uniqueid": "w83722045:a16248958", "current_trial": 173, "dateTime": 1664464362016, "trialdata": {"rt": 649, "stimulus": "<p id='stroop-text' class='stroop-blue'>RED</p>", "response": "b", "stimulus-type": "incongruent", "word": "red", "color": "blue", "correct_response": "b", "trial_id": "stroop-trial-1-incongruent-16", "trial_type": "html-keyboard-response", "trial_index": 173, "time_elapsed": 294725, "internal_node_id": "0.0-6.0-78.0"}}, {"uniqueid": "w83722045:a16248958", "current_trial": 174, "dateTime": 1664464363015, "trialdata": {"rt": 498, "stimulus": "<p id='stroop-text' class='stroop-yellow'>YELLOW</p>", "response": "y", "stimulus-type": "congruent", "word": "yellow", "color": "yellow", "correct_response": "y", "trial_id": "stroop-trial-1-congruent-1", "trial_type": "html-keyboard-response", "trial_index": 174, "time_elapsed": 295725, "internal_node_id": "0.0-6.0-79.0"}}, {"uniqueid": "w83722045:a16248958", "current_trial": 175, "dateTime": 1664464363911, "trialdata": {"rt": 394, "stimulus": "<p id='stroop-text' class='stroop-yellow'>YELLOW</p>", "response": "y", "stimulus-type": "congruent", "word": "yellow", "color": "yellow", "correct_response": "y", "trial_id": "stroop-trial-1-congruent-17", "trial_type": "html-keyboard-response", "trial_index": 175, "time_elapsed": 296621, "internal_node_id": "0.0-6.0-80.0"}}, {"uniqueid": "w83722045:a16248958", "current_trial": 176, "dateTime": 1664464364880, "trialdata": {"rt": 466, "stimulus": "<p id='stroop-text' class='stroop-green'>YELLOW</p>", "response": "b", "stimulus-type": "incongruent", "word": "yellow", "color": "green", "correct_response": "g", "trial_id": "stroop-trial-1-incongruent-18", "trial_type": "html-keyboard-response", "trial_index": 176, "time_elapsed": 297590, "internal_node_id": "0.0-6.0-81.0"}}, {"uniqueid": "w83722045:a16248958", "current_trial": 177, "dateTime": 1664464366208, "trialdata": {"rt": 825, "stimulus": "<p id='stroop-text' class='stroop-red'>SHIP</p>", "response": "r", "stimulus-type": "unrelated", "word": "SHIP", "color": "red", "correct_response": "r", "trial_id": "stroop-trial-1-unrelated-22", "trial_type": "html-keyboard-response", "trial_index": 177, "time_elapsed": 298918, "internal_node_id": "0.0-6.0-82.0"}}, {"uniqueid": "w83722045:a16248958", "current_trial": 178, "dateTime": 1664464367576, "trialdata": {"rt": 865, "stimulus": "<p id='stroop-text' class='stroop-red'>BLUE</p>", "response": "r", "stimulus-type": "incongruent", "word": "blue", "color": "red", "correct_response": "r", "trial_id": "stroop-trial-1-incongruent-9", "trial_type": "html-keyboard-response", "trial_index": 178, "time_elapsed": 300285, "internal_node_id": "0.0-6.0-83.0"}}, {"uniqueid": "w83722045:a16248958", "current_trial": 179, "dateTime": 1664464368824, "trialdata": {"rt": 745, "stimulus": "<p id='stroop-text' class='stroop-yellow'>BLUE</p>", "response": "y", "stimulus-type": "incongruent", "word": "blue", "color": "yellow", "correct_response": "y", "trial_id": "stroop-trial-1-incongruent-12", "trial_type": "html-keyboard-response", "trial_index": 179, "time_elapsed": 301533, "internal_node_id": "0.0-6.0-84.0"}}, {"uniqueid": "w83722045:a16248958", "current_trial": 180, "dateTime": 1664464369776, "trialdata": {"rt": 450, "stimulus": "<p id='stroop-text' class='stroop-red'>RED</p>", "response": "r", "stimulus-type": "congruent", "word": "red", "color": "red", "correct_response": "r", "trial_id": "stroop-trial-1-congruent-6", "trial_type": "html-keyboard-response", "trial_index": 180, "time_elapsed": 302485, "internal_node_id": "0.0-6.0-85.0"}}, {"uniqueid": "w83722045:a16248958", "current_trial": 181, "dateTime": 1664464370783, "trialdata": {"rt": 506, "stimulus": "<p id='stroop-text' class='stroop-red'>BRAIN</p>", "response": "r", "stimulus-type": "unrelated", "word": "BRAIN", "color": "red", "correct_response": "r", "trial_id": "stroop-trial-1-unrelated-27", "trial_type": "html-keyboard-response", "trial_index": 181, "time_elapsed": 303493, "internal_node_id": "0.0-6.0-86.0"}}, {"uniqueid": "w83722045:a16248958", "current_trial": 182, "dateTime": 1664464372127, "trialdata": {"rt": 841, "stimulus": "<p id='stroop-text' class='stroop-red'>BRIDGE</p>", "response": "r", "stimulus-type": "unrelated", "word": "BRIDGE", "color": "red", "correct_response": "r", "trial_id": "stroop-trial-1-unrelated-16", "trial_type": "html-keyboard-response", "trial_index": 182, "time_elapsed": 304837, "internal_node_id": "0.0-6.0-87.0"}}, {"uniqueid": "w83722045:a16248958", "current_trial": 183, "dateTime": 1664464373312, "trialdata": {"rt": 682, "stimulus": "<p id='stroop-text' class='stroop-blue'>BLUE</p>", "response": "b", "stimulus-type": "congruent", "word": "blue", "color": "blue", "correct_response": "b", "trial_id": "stroop-trial-1-congruent-11", "trial_type": "html-keyboard-response", "trial_index": 183, "time_elapsed": 306022, "internal_node_id": "0.0-6.0-88.0"}}, {"uniqueid": "w83722045:a16248958", "current_trial": 184, "dateTime": 1664464374264, "trialdata": {"rt": 450, "stimulus": "<p id='stroop-text' class='stroop-red'>WINDOW</p>", "response": "r", "stimulus-type": "unrelated", "word": "WINDOW", "color": "red", "correct_response": "r", "trial_id": "stroop-trial-1-unrelated-19", "trial_type": "html-keyboard-response", "trial_index": 184, "time_elapsed": 306974, "internal_node_id": "0.0-6.0-89.0"}}, {"uniqueid": "w83722045:a16248958", "current_trial": 185, "dateTime": 1664464490635, "trialdata": {"rt": 115863, "stimulus": "  <h1> End of block! </h1>\n\n  You have reached the end of the block 2/5. If you need a short break, feel free to take one now before moving on.\n\n  <br><br>\n  In the next block, you will complete another 90 rounds of this game.\n\n  <br><br>\n  <div style='text-align: center;'>Press <code>space</code> to begin.</div>\n  <br><br>\n<div style='text-align: center;'>(If the experiment doesn't continue, try clicking on the text and then pressing <code>space</code>.)</div>", "response": " ", "trial_id": "stroop_1_ready_3", "trial_type": "html-keyboard-response", "trial_index": 185, "time_elapsed": 423345, "internal_node_id": "0.0-7.0"}}, {"uniqueid": "w83722045:a16248958", "current_trial": 186, "dateTime": 1664464491915, "trialdata": {"rt": 1278, "stimulus": "<p id='stroop-text' class='stroop-green'>YELLOW</p>", "response": "g", "stimulus-type": "incongruent", "word": "yellow", "color": "green", "correct_response": "g", "trial_id": "stroop-trial-1-incongruent-30", "trial_type": "html-keyboard-response", "trial_index": 186, "time_elapsed": 424625, "internal_node_id": "0.0-8.0-0.0"}}, {"uniqueid": "w83722045:a16248958", "current_trial": 187, "dateTime": 1664464492979, "trialdata": {"rt": 562, "stimulus": "<p id='stroop-text' class='stroop-blue'>BLUE</p>", "response": "b", "stimulus-type": "congruent", "word": "blue", "color": "blue", "correct_response": "b", "trial_id": "stroop-trial-1-congruent-23", "trial_type": "html-keyboard-response", "trial_index": 187, "time_elapsed": 425689, "internal_node_id": "0.0-8.0-1.0"}}, {"uniqueid": "w83722045:a16248958", "current_trial": 188, "dateTime": 1664464494259, "trialdata": {"rt": 776, "stimulus": "<p id='stroop-text' class='stroop-yellow'>YELLOW</p>", "response": "y", "stimulus-type": "congruent", "word": "yellow", "color": "yellow", "correct_response": "y", "trial_id": "stroop-trial-1-congruent-11", "trial_type": "html-keyboard-response", "trial_index": 188, "time_elapsed": 426969, "internal_node_id": "0.0-8.0-2.0"}}, {"uniqueid": "w83722045:a16248958", "current_trial": 189, "dateTime": 1664464496011, "trialdata": {"rt": 1248, "stimulus": "<p id='stroop-text' class='stroop-red'>BRAIN</p>", "response": "r", "stimulus-type": "unrelated", "word": "BRAIN", "color": "red", "correct_response": "r", "trial_id": "stroop-trial-1-unrelated-8", "trial_type": "html-keyboard-response", "trial_index": 189, "time_elapsed": 428721, "internal_node_id": "0.0-8.0-3.0"}}, {"uniqueid": "w83722045:a16248958", "current_trial": 190, "dateTime": 1664464497027, "trialdata": {"rt": 503, "stimulus": "<p id='stroop-text' class='stroop-blue'>CHAIR</p>", "response": "b", "stimulus-type": "unrelated", "word": "CHAIR", "color": "blue", "correct_response": "b", "trial_id": "stroop-trial-1-unrelated-28", "trial_type": "html-keyboard-response", "trial_index": 190, "time_elapsed": 429737, "internal_node_id": "0.0-8.0-4.0"}}, {"uniqueid": "w83722045:a16248958", "current_trial": 191, "dateTime": 1664464497827, "trialdata": {"rt": 297, "stimulus": "<p id='stroop-text' class='stroop-blue'>BLUE</p>", "response": "b", "stimulus-type": "congruent", "word": "blue", "color": "blue", "correct_response": "b", "trial_id": "stroop-trial-1-congruent-22", "trial_type": "html-keyboard-response", "trial_index": 191, "time_elapsed": 430537, "internal_node_id": "0.0-8.0-5.0"}}, {"uniqueid": "w83722045:a16248958", "current_trial": 192, "dateTime": 1664464499068, "trialdata": {"rt": 737, "stimulus": "<p id='stroop-text' class='stroop-yellow'>CHAIR</p>", "response": "y", "stimulus-type": "unrelated", "word": "CHAIR", "color": "yellow", "correct_response": "y", "trial_id": "stroop-trial-1-unrelated-4", "trial_type": "html-keyboard-response", "trial_index": 192, "time_elapsed": 431778, "internal_node_id": "0.0-8.0-6.0"}}, {"uniqueid": "w83722045:a16248958", "current_trial": 193, "dateTime": 1664464500219, "trialdata": {"rt": 648, "stimulus": "<p id='stroop-text' class='stroop-yellow'>FORK</p>", "response": "y", "stimulus-type": "unrelated", "word": "FORK", "color": "yellow", "correct_response": "y", "trial_id": "stroop-trial-1-unrelated-26", "trial_type": "html-keyboard-response", "trial_index": 193, "time_elapsed": 432929, "internal_node_id": "0.0-8.0-7.0"}}, {"uniqueid": "w83722045:a16248958", "current_trial": 194, "dateTime": 1664464501267, "trialdata": {"rt": 546, "stimulus": "<p id='stroop-text' class='stroop-blue'>BLUE</p>", "response": "b", "stimulus-type": "congruent", "word": "blue", "color": "blue", "correct_response": "b", "trial_id": "stroop-trial-1-congruent-2", "trial_type": "html-keyboard-response", "trial_index": 194, "time_elapsed": 433977, "internal_node_id": "0.0-8.0-8.0"}}, {"uniqueid": "w83722045:a16248958", "current_trial": 195, "dateTime": 1664464502291, "trialdata": {"rt": 522, "stimulus": "<p id='stroop-text' class='stroop-red'>BOAT</p>", "response": "r", "stimulus-type": "unrelated", "word": "BOAT", "color": "red", "correct_response": "r", "trial_id": "stroop-trial-1-unrelated-29", "trial_type": "html-keyboard-response", "trial_index": 195, "time_elapsed": 435001, "internal_node_id": "0.0-8.0-9.0"}}, {"uniqueid": "w83722045:a16248958", "current_trial": 196, "dateTime": 1664464503355, "trialdata": {"rt": 563, "stimulus": "<p id='stroop-text' class='stroop-blue'>WINDOW</p>", "response": "b", "stimulus-type": "unrelated", "word": "WINDOW", "color": "blue", "correct_response": "b", "trial_id": "stroop-trial-1-unrelated-12", "trial_type": "html-keyboard-response", "trial_index": 196, "time_elapsed": 436065, "internal_node_id": "0.0-8.0-10.0"}}, {"uniqueid": "w83722045:a16248958", "current_trial": 197, "dateTime": 1664464504459, "trialdata": {"rt": 601, "stimulus": "<p id='stroop-text' class='stroop-red'>GREEN</p>", "response": "g", "stimulus-type": "incongruent", "word": "green", "color": "red", "correct_response": "r", "trial_id": "stroop-trial-1-incongruent-8", "trial_type": "html-keyboard-response", "trial_index": 197, "time_elapsed": 437169, "internal_node_id": "0.0-8.0-11.0"}}, {"uniqueid": "w83722045:a16248958", "current_trial": 198, "dateTime": 1664464506763, "trialdata": {"rt": 1801, "stimulus": "<p id='stroop-text' class='stroop-yellow'>SHIP</p>", "response": "y", "stimulus-type": "unrelated", "word": "SHIP", "color": "yellow", "correct_response": "y", "trial_id": "stroop-trial-1-unrelated-5", "trial_type": "html-keyboard-response", "trial_index": 198, "time_elapsed": 439473, "internal_node_id": "0.0-8.0-12.0"}}, {"uniqueid": "w83722045:a16248958", "current_trial": 199, "dateTime": 1664464507867, "trialdata": {"rt": 602, "stimulus": "<p id='stroop-text' class='stroop-yellow'>YELLOW</p>", "response": "y", "stimulus-type": "congruent", "word": "yellow", "color": "yellow", "correct_response": "y", "trial_id": "stroop-trial-1-congruent-19", "trial_type": "html-keyboard-response", "trial_index": 199, "time_elapsed": 440577, "internal_node_id": "0.0-8.0-13.0"}}, {"uniqueid": "w83722045:a16248958", "current_trial": 200, "dateTime": 1664464508795, "trialdata": {"rt": 426, "stimulus": "<p id='stroop-text' class='stroop-yellow'>GREEN</p>", "response": "y", "stimulus-type": "incongruent", "word": "green", "color": "yellow", "correct_response": "y", "trial_id": "stroop-trial-1-incongruent-9", "trial_type": "html-keyboard-response", "trial_index": 200, "time_elapsed": 441505, "internal_node_id": "0.0-8.0-14.0"}}, {"uniqueid": "w83722045:a16248958", "current_trial": 201, "dateTime": 1664464509667, "trialdata": {"rt": 369, "stimulus": "<p id='stroop-text' class='stroop-yellow'>BLUE</p>", "response": "y", "stimulus-type": "incongruent", "word": "blue", "color": "yellow", "correct_response": "y", "trial_id": "stroop-trial-1-incongruent-11", "trial_type": "html-keyboard-response", "trial_index": 201, "time_elapsed": 442377, "internal_node_id": "0.0-8.0-15.0"}}, {"uniqueid": "w83722045:a16248958", "current_trial": 202, "dateTime": 1664464510515, "trialdata": {"rt": 346, "stimulus": "<p id='stroop-text' class='stroop-yellow'>GREEN</p>", "response": "y", "stimulus-type": "incongruent", "word": "green", "color": "yellow", "correct_response": "y", "trial_id": "stroop-trial-1-incongruent-3", "trial_type": "html-keyboard-response", "trial_index": 202, "time_elapsed": 443225, "internal_node_id": "0.0-8.0-16.0"}}, {"uniqueid": "w83722045:a16248958", "current_trial": 203, "dateTime": 1664464511684, "trialdata": {"rt": 666, "stimulus": "<p id='stroop-text' class='stroop-red'>RED</p>", "response": "r", "stimulus-type": "congruent", "word": "red", "color": "red", "correct_response": "r", "trial_id": "stroop-trial-1-congruent-18", "trial_type": "html-keyboard-response", "trial_index": 203, "time_elapsed": 444393, "internal_node_id": "0.0-8.0-17.0"}}, {"uniqueid": "w83722045:a16248958", "current_trial": 204, "dateTime": 1664464512707, "trialdata": {"rt": 521, "stimulus": "<p id='stroop-text' class='stroop-yellow'>YELLOW</p>", "response": "y", "stimulus-type": "congruent", "word": "yellow", "color": "yellow", "correct_response": "y", "trial_id": "stroop-trial-1-congruent-3", "trial_type": "html-keyboard-response", "trial_index": 204, "time_elapsed": 445417, "internal_node_id": "0.0-8.0-18.0"}}, {"uniqueid": "w83722045:a16248958", "current_trial": 205, "dateTime": 1664464513843, "trialdata": {"rt": 634, "stimulus": "<p id='stroop-text' class='stroop-green'>DOG</p>", "response": "g", "stimulus-type": "unrelated", "word": "DOG", "color": "green", "correct_response": "g", "trial_id": "stroop-trial-1-unrelated-20", "trial_type": "html-keyboard-response", "trial_index": 205, "time_elapsed": 446553, "internal_node_id": "0.0-8.0-19.0"}}, {"uniqueid": "w83722045:a16248958", "current_trial": 206, "dateTime": 1664464514819, "trialdata": {"rt": 474, "stimulus": "<p id='stroop-text' class='stroop-blue'>BLUE</p>", "response": "b", "stimulus-type": "congruent", "word": "blue", "color": "blue", "correct_response": "b", "trial_id": "stroop-trial-1-congruent-30", "trial_type": "html-keyboard-response", "trial_index": 206, "time_elapsed": 447529, "internal_node_id": "0.0-8.0-20.0"}}, {"uniqueid": "w83722045:a16248958", "current_trial": 207, "dateTime": 1664464515891, "trialdata": {"rt": 569, "stimulus": "<p id='stroop-text' class='stroop-yellow'>BOAT</p>", "response": "y", "stimulus-type": "unrelated", "word": "BOAT", "color": "yellow", "correct_response": "y", "trial_id": "stroop-trial-1-unrelated-3", "trial_type": "html-keyboard-response", "trial_index": 207, "time_elapsed": 448601, "internal_node_id": "0.0-8.0-21.0"}}, {"uniqueid": "w83722045:a16248958", "current_trial": 208, "dateTime": 1664464517076, "trialdata": {"rt": 681, "stimulus": "<p id='stroop-text' class='stroop-yellow'>GREEN</p>", "response": "y", "stimulus-type": "incongruent", "word": "green", "color": "yellow", "correct_response": "y", "trial_id": "stroop-trial-1-incongruent-4", "trial_type": "html-keyboard-response", "trial_index": 208, "time_elapsed": 449786, "internal_node_id": "0.0-8.0-22.0"}}, {"uniqueid": "w83722045:a16248958", "current_trial": 209, "dateTime": 1664464518203, "trialdata": {"rt": 625, "stimulus": "<p id='stroop-text' class='stroop-green'>FORK</p>", "response": "g", "stimulus-type": "unrelated", "word": "FORK", "color": "green", "correct_response": "g", "trial_id": "stroop-trial-1-unrelated-23", "trial_type": "html-keyboard-response", "trial_index": 209, "time_elapsed": 450913, "internal_node_id": "0.0-8.0-23.0"}}, {"uniqueid": "w83722045:a16248958", "current_trial": 210, "dateTime": 1664464519411, "trialdata": {"rt": 705, "stimulus": "<p id='stroop-text' class='stroop-yellow'>GREEN</p>", "response": "y", "stimulus-type": "incongruent", "word": "green", "color": "yellow", "correct_response": "y", "trial_id": "stroop-trial-1-incongruent-12", "trial_type": "html-keyboard-response", "trial_index": 210, "time_elapsed": 452121, "internal_node_id": "0.0-8.0-24.0"}}, {"uniqueid": "w83722045:a16248958", "current_trial": 211, "dateTime": 1664464521131, "trialdata": {"rt": 1217, "stimulus": "<p id='stroop-text' class='stroop-green'>YELLOW</p>", "response": "g", "stimulus-type": "incongruent", "word": "yellow", "color": "green", "correct_response": "g", "trial_id": "stroop-trial-1-incongruent-26", "trial_type": "html-keyboard-response", "trial_index": 211, "time_elapsed": 453841, "internal_node_id": "0.0-8.0-25.0"}}, {"uniqueid": "w83722045:a16248958", "current_trial": 212, "dateTime": 1664464522099, "trialdata": {"rt": 465, "stimulus": "<p id='stroop-text' class='stroop-green'>GREEN</p>", "response": "g", "stimulus-type": "congruent", "word": "green", "color": "green", "correct_response": "g", "trial_id": "stroop-trial-1-congruent-26", "trial_type": "html-keyboard-response", "trial_index": 212, "time_elapsed": 454809, "internal_node_id": "0.0-8.0-26.0"}}, {"uniqueid": "w83722045:a16248958", "current_trial": 213, "dateTime": 1664464523451, "trialdata": {"rt": 850, "stimulus": "<p id='stroop-text' class='stroop-yellow'>WINDOW</p>", "response": "y", "stimulus-type": "unrelated", "word": "WINDOW", "color": "yellow", "correct_response": "y", "trial_id": "stroop-trial-1-unrelated-1", "trial_type": "html-keyboard-response", "trial_index": 213, "time_elapsed": 456161, "internal_node_id": "0.0-8.0-27.0"}}, {"uniqueid": "w83722045:a16248958", "current_trial": 214, "dateTime": 1664464524507, "trialdata": {"rt": 553, "stimulus": "<p id='stroop-text' class='stroop-yellow'>RED</p>", "response": "y", "stimulus-type": "incongruent", "word": "red", "color": "yellow", "correct_response": "y", "trial_id": "stroop-trial-1-incongruent-16", "trial_type": "html-keyboard-response", "trial_index": 214, "time_elapsed": 457217, "internal_node_id": "0.0-8.0-28.0"}}, {"uniqueid": "w83722045:a16248958", "current_trial": 215, "dateTime": 1664464525595, "trialdata": {"rt": 585, "stimulus": "<p id='stroop-text' class='stroop-blue'>MONKEY</p>", "response": "b", "stimulus-type": "unrelated", "word": "MONKEY", "color": "blue", "correct_response": "b", "trial_id": "stroop-trial-1-unrelated-18", "trial_type": "html-keyboard-response", "trial_index": 215, "time_elapsed": 458305, "internal_node_id": "0.0-8.0-29.0"}}, {"uniqueid": "w83722045:a16248958", "current_trial": 216, "dateTime": 1664464526595, "trialdata": {"rt": 499, "stimulus": "<p id='stroop-text' class='stroop-red'>RED</p>", "response": "r", "stimulus-type": "congruent", "word": "red", "color": "red", "correct_response": "r", "trial_id": "stroop-trial-1-congruent-5", "trial_type": "html-keyboard-response", "trial_index": 216, "time_elapsed": 459305, "internal_node_id": "0.0-8.0-30.0"}}, {"uniqueid": "w83722045:a16248958", "current_trial": 217, "dateTime": 1664464527955, "trialdata": {"rt": 857, "stimulus": "<p id='stroop-text' class='stroop-yellow'>RED</p>", "response": "y", "stimulus-type": "incongruent", "word": "red", "color": "yellow", "correct_response": "y", "trial_id": "stroop-trial-1-incongruent-23", "trial_type": "html-keyboard-response", "trial_index": 217, "time_elapsed": 460665, "internal_node_id": "0.0-8.0-31.0"}}, {"uniqueid": "w83722045:a16248958", "current_trial": 218, "dateTime": 1664464529179, "trialdata": {"rt": 720, "stimulus": "<p id='stroop-text' class='stroop-green'>BLUE</p>", "response": "g", "stimulus-type": "incongruent", "word": "blue", "color": "green", "correct_response": "g", "trial_id": "stroop-trial-1-incongruent-7", "trial_type": "html-keyboard-response", "trial_index": 218, "time_elapsed": 461889, "internal_node_id": "0.0-8.0-32.0"}}, {"uniqueid": "w83722045:a16248958", "current_trial": 219, "dateTime": 1664464530619, "trialdata": {"rt": 937, "stimulus": "<p id='stroop-text' class='stroop-yellow'>YELLOW</p>", "response": "y", "stimulus-type": "congruent", "word": "yellow", "color": "yellow", "correct_response": "y", "trial_id": "stroop-trial-1-congruent-16", "trial_type": "html-keyboard-response", "trial_index": 219, "time_elapsed": 463329, "internal_node_id": "0.0-8.0-33.0"}}, {"uniqueid": "w83722045:a16248958", "current_trial": 220, "dateTime": 1664464531547, "trialdata": {"rt": 426, "stimulus": "<p id='stroop-text' class='stroop-blue'>GREEN</p>", "response": "b", "stimulus-type": "incongruent", "word": "green", "color": "blue", "correct_response": "b", "trial_id": "stroop-trial-1-incongruent-18", "trial_type": "html-keyboard-response", "trial_index": 220, "time_elapsed": 464257, "internal_node_id": "0.0-8.0-34.0"}}, {"uniqueid": "w83722045:a16248958", "current_trial": 221, "dateTime": 1664464532556, "trialdata": {"rt": 506, "stimulus": "<p id='stroop-text' class='stroop-yellow'>YELLOW</p>", "response": "y", "stimulus-type": "congruent", "word": "yellow", "color": "yellow", "correct_response": "y", "trial_id": "stroop-trial-1-congruent-9", "trial_type": "html-keyboard-response", "trial_index": 221, "time_elapsed": 465265, "internal_node_id": "0.0-8.0-35.0"}}, {"uniqueid": "w83722045:a16248958", "current_trial": 222, "dateTime": 1664464533579, "trialdata": {"rt": 517, "stimulus": "<p id='stroop-text' class='stroop-red'>CHAIR</p>", "response": "r", "stimulus-type": "unrelated", "word": "CHAIR", "color": "red", "correct_response": "r", "trial_id": "stroop-trial-1-unrelated-10", "trial_typ