{"condition": 0, "counterbalance": 0, "assignmentId": "a59973374", "workerId": "w60361778", "hitId": "h80017469", "currenttrial": 959, "bonus": 0, "data": [{"uniqueid": "w60361778:a59973374", "current_trial": 0, "dateTime": 1664558918325, "trialdata": {"success": true, "trial_type": "fullscreen", "trial_index": 0, "time_elapsed": 3032, "internal_node_id": "0.0-0.0"}}, {"uniqueid": "w60361778:a59973374", "current_trial": 1, "dateTime": 1664558967977, "trialdata": {"view_history": [{"page_index": 0, "viewing_time": 49647}], "rt": 49648, "trial_id": "exp_instructions_distractor", "trial_type": "instructions", "trial_index": 1, "time_elapsed": 52685, "internal_node_id": "0.0-1.0"}}, {"uniqueid": "w60361778:a59973374", "current_trial": 2, "dateTime": 1664559006348, "trialdata": {"view_history": [{"page_index": 0, "viewing_time": 38368}], "rt": 38368, "trial_id": "color_game_instructions", "trial_type": "instructions", "trial_index": 2, "time_elapsed": 91056, "internal_node_id": "0.0-2.0"}}, {"uniqueid": "w60361778:a59973374", "current_trial": 3, "dateTime": 1664559025521, "trialdata": {"rt": 19171, "stimulus": "<h1> Get ready to start the game! </h1>\n\nThank you for reading the instructions. Get ready start with the first of 5 block(s) of this game.\n<br><br>\nIn this first block, you will complete 90 rounds of this game before moving on.\n<br><br>\nRemember, the better you perform, the bigger your bonus will be!\n<br><br>\n<div style='text-align: center;'>Press <code>space</code> to begin.</div>", "response": " ", "trial_id": "stroop_1_ready_1", "trial_type": "html-keyboard-response", "trial_index": 3, "time_elapsed": 110229, "internal_node_id": "0.0-3.0"}}, {"uniqueid": "w60361778:a59973374", "current_trial": 4, "dateTime": 1664559027016, "trialdata": {"rt": 1490, "stimulus": "<p id='stroop-text' class='stroop-green'>GREEN</p>", "response": "g", "stimulus-type": "congruent", "word": "green", "color": "green", "correct_response": "g", "trial_id": "stroop-trial-1-congruent-29", "trial_type": "html-keyboard-response", "trial_index": 4, "time_elapsed": 111724, "internal_node_id": "0.0-4.0-0.0"}}, {"uniqueid": "w60361778:a59973374", "current_trial": 5, "dateTime": 1664559028486, "trialdata": {"rt": 966, "stimulus": "<p id='stroop-text' class='stroop-red'>GREEN</p>", "response": "g", "stimulus-type": "incongruent", "word": "green", "color": "red", "correct_response": "r", "trial_id": "stroop-trial-1-incongruent-8", "trial_type": "html-keyboard-response", "trial_index": 5, "time_elapsed": 113193, "internal_node_id": "0.0-4.0-1.0"}}, {"uniqueid": "w60361778:a59973374", "current_trial": 6, "dateTime": 1664559030399, "trialdata": {"rt": 1409, "stimulus": "<p id='stroop-text' class='stroop-blue'>RED</p>", "response": "b", "stimulus-type": "incongruent", "word": "red", "color": "blue", "correct_response": "b", "trial_id": "stroop-trial-1-incongruent-12", "trial_type": "html-keyboard-response", "trial_index": 6, "time_elapsed": 115106, "internal_node_id": "0.0-4.0-2.0"}}, {"uniqueid": "w60361778:a59973374", "current_trial": 7, "dateTime": 1664559031780, "trialdata": {"rt": 877, "stimulus": "<p id='stroop-text' class='stroop-green'>GREEN</p>", "response": "g", "stimulus-type": "congruent", "word": "green", "color": "green", "correct_response": "g", "trial_id": "stroop-trial-1-congruent-21", "trial_type": "html-keyboard-response", "trial_index": 7, "time_elapsed": 116487, "internal_node_id": "0.0-4.0-3.0"}}, {"uniqueid": "w60361778:a59973374", "current_trial": 8, "dateTime": 1664559033275, "trialdata": {"rt": 992, "stimulus": "<p id='stroop-text' class='stroop-yellow'>YELLOW</p>", "response": "y", "stimulus-type": "congruent", "word": "yellow", "color": "yellow", "correct_response": "y", "trial_id": "stroop-trial-1-congruent-12", "trial_type": "html-keyboard-response", "trial_index": 8, "time_elapsed": 117982, "internal_node_id": "0.0-4.0-4.0"}}, {"uniqueid": "w60361778:a59973374", "current_trial": 9, "dateTime": 1664559035376, "trialdata": {"rt": 1597, "stimulus": "<p id='stroop-text' class='stroop-red'>GREEN</p>", "response": "r", "stimulus-type": "incongruent", "word": "green", "color": "red", "correct_response": "r", "trial_id": "stroop-trial-1-incongruent-18", "trial_type": "html-keyboard-response", "trial_index": 9, "time_elapsed": 120083, "internal_node_id": "0.0-4.0-5.0"}}, {"uniqueid": "w60361778:a59973374", "current_trial": 10, "dateTime": 1664559037013, "trialdata": {"rt": 1133, "stimulus": "<p id='stroop-text' class='stroop-green'>RED</p>", "response": "g", "stimulus-type": "incongruent", "word": "red", "color": "green", "correct_response": "g", "trial_id": "stroop-trial-1-incongruent-28", "trial_type": "html-keyboard-response", "trial_index": 10, "time_elapsed": 121720, "internal_node_id": "0.0-4.0-6.0"}}, {"uniqueid": "w60361778:a59973374", "current_trial": 11, "dateTime": 1664559038468, "trialdata": {"rt": 950, "stimulus": "<p id='stroop-text' class='stroop-red'>RED</p>", "response": "r", "stimulus-type": "congruent", "word": "red", "color": "red", "correct_response": "r", "trial_id": "stroop-trial-1-congruent-18", "trial_type": "html-keyboard-response", "trial_index": 11, "time_elapsed": 123175, "internal_node_id": "0.0-4.0-7.0"}}, {"uniqueid": "w60361778:a59973374", "current_trial": 12, "dateTime": 1664559040130, "trialdata": {"rt": 1157, "stimulus": "<p id='stroop-text' class='stroop-yellow'>CHAIR</p>", "response": "y", "stimulus-type": "unrelated", "word": "CHAIR", "color": "yellow", "correct_response": "y", "trial_id": "stroop-trial-1-unrelated-15", "trial_type": "html-keyboard-response", "trial_index": 12, "time_elapsed": 124837, "internal_node_id": "0.0-4.0-8.0"}}, {"uniqueid": "w60361778:a59973374", "current_trial": 13, "dateTime": 1664559041231, "trialdata": {"rt": 597, "stimulus": "<p id='stroop-text' class='stroop-blue'>STONE</p>", "response": "b", "stimulus-type": "unrelated", "word": "STONE", "color": "blue", "correct_response": "b", "trial_id": "stroop-trial-1-unrelated-14", "trial_type": "html-keyboard-response", "trial_index": 13, "time_elapsed": 125938, "internal_node_id": "0.0-4.0-9.0"}}, {"uniqueid": "w60361778:a59973374", "current_trial": 14, "dateTime": 1664559042545, "trialdata": {"rt": 811, "stimulus": "<p id='stroop-text' class='stroop-yellow'>BRIDGE</p>", "response": "y", "stimulus-type": "unrelated", "word": "BRIDGE", "color": "yellow", "correct_response": "y", "trial_id": "stroop-trial-1-unrelated-16", "trial_type": "html-keyboard-response", "trial_index": 14, "time_elapsed": 127252, "internal_node_id": "0.0-4.0-10.0"}}, {"uniqueid": "w60361778:a59973374", "current_trial": 15, "dateTime": 1664559043673, "trialdata": {"rt": 622, "stimulus": "<p id='stroop-text' class='stroop-green'>GREEN</p>", "response": "g", "stimulus-type": "congruent", "word": "green", "color": "green", "correct_response": "g", "trial_id": "stroop-trial-1-congruent-9", "trial_type": "html-keyboard-response", "trial_index": 15, "time_elapsed": 128380, "internal_node_id": "0.0-4.0-11.0"}}, {"uniqueid": "w60361778:a59973374", "current_trial": 16, "dateTime": 1664559044780, "trialdata": {"rt": 603, "stimulus": "<p id='stroop-text' class='stroop-blue'>BLUE</p>", "response": "b", "stimulus-type": "congruent", "word": "blue", "color": "blue", "correct_response": "b", "trial_id": "stroop-trial-1-congruent-2", "trial_type": "html-keyboard-response", "trial_index": 16, "time_elapsed": 129487, "internal_node_id": "0.0-4.0-12.0"}}, {"uniqueid": "w60361778:a59973374", "current_trial": 17, "dateTime": 1664559046083, "trialdata": {"rt": 797, "stimulus": "<p id='stroop-text' class='stroop-yellow'>RED</p>", "response": "y", "stimulus-type": "incongruent", "word": "red", "color": "yellow", "correct_response": "y", "trial_id": "stroop-trial-1-incongruent-5", "trial_type": "html-keyboard-response", "trial_index": 17, "time_elapsed": 130790, "internal_node_id": "0.0-4.0-13.0"}}, {"uniqueid": "w60361778:a59973374", "current_trial": 18, "dateTime": 1664559047163, "trialdata": {"rt": 577, "stimulus": "<p id='stroop-text' class='stroop-yellow'>BRIDGE</p>", "response": "y", "stimulus-type": "unrelated", "word": "BRIDGE", "color": "yellow", "correct_response": "y", "trial_id": "stroop-trial-1-unrelated-22", "trial_type": "html-keyboard-response", "trial_index": 18, "time_elapsed": 131871, "internal_node_id": "0.0-4.0-14.0"}}, {"uniqueid": "w60361778:a59973374", "current_trial": 19, "dateTime": 1664559048097, "trialdata": {"rt": 430, "stimulus": "<p id='stroop-text' class='stroop-yellow'>FORK</p>", "response": "y", "stimulus-type": "unrelated", "word": "FORK", "color": "yellow", "correct_response": "y", "trial_id": "stroop-trial-1-unrelated-5", "trial_type": "html-keyboard-response", "trial_index": 19, "time_elapsed": 132804, "internal_node_id": "0.0-4.0-15.0"}}, {"uniqueid": "w60361778:a59973374", "current_trial": 20, "dateTime": 1664559049677, "trialdata": {"rt": 1075, "stimulus": "<p id='stroop-text' class='stroop-blue'>GREEN</p>", "response": "b", "stimulus-type": "incongruent", "word": "green", "color": "blue", "correct_response": "b", "trial_id": "stroop-trial-1-incongruent-15", "trial_type": "html-keyboard-response", "trial_index": 20, "time_elapsed": 134384, "internal_node_id": "0.0-4.0-16.0"}}, {"uniqueid": "w60361778:a59973374", "current_trial": 21, "dateTime": 1664559051127, "trialdata": {"rt": 946, "stimulus": "<p id='stroop-text' class='stroop-green'>BLUE</p>", "response": "g", "stimulus-type": "incongruent", "word": "blue", "color": "green", "correct_response": "g", "trial_id": "stroop-trial-1-incongruent-25", "trial_type": "html-keyboard-response", "trial_index": 21, "time_elapsed": 135834, "internal_node_id": "0.0-4.0-17.0"}}, {"uniqueid": "w60361778:a59973374", "current_trial": 22, "dateTime": 1664559053098, "trialdata": {"rt": 1466, "stimulus": "<p id='stroop-text' class='stroop-yellow'>RED</p>", "response": "y", "stimulus-type": "incongruent", "word": "red", "color": "yellow", "correct_response": "y", "trial_id": "stroop-trial-1-incongruent-13", "trial_type": "html-keyboard-response", "trial_index": 22, "time_elapsed": 137805, "internal_node_id": "0.0-4.0-18.0"}}, {"uniqueid": "w60361778:a59973374", "current_trial": 23, "dateTime": 1664559054638, "trialdata": {"rt": 1037, "stimulus": "<p id='stroop-text' class='stroop-green'>SHIP</p>", "response": "b", "stimulus-type": "unrelated", "word": "SHIP", "color": "green", "correct_response": "g", "trial_id": "stroop-trial-1-unrelated-30", "trial_type": "html-keyboard-response", "trial_index": 23, "time_elapsed": 139345, "internal_node_id": "0.0-4.0-19.0"}}, {"uniqueid": "w60361778:a59973374", "current_trial": 24, "dateTime": 1664559055899, "trialdata": {"rt": 757, "stimulus": "<p id='stroop-text' class='stroop-yellow'>YELLOW</p>", "response": "y", "stimulus-type": "congruent", "word": "yellow", "color": "yellow", "correct_response": "y", "trial_id": "stroop-trial-1-congruent-17", "trial_type": "html-keyboard-response", "trial_index": 24, "time_elapsed": 140606, "internal_node_id": "0.0-4.0-20.0"}}, {"uniqueid": "w60361778:a59973374", "current_trial": 25, "dateTime": 1664559057137, "trialdata": {"rt": 734, "stimulus": "<p id='stroop-text' class='stroop-green'>GREEN</p>", "response": "g", "stimulus-type": "congruent", "word": "green", "color": "green", "correct_response": "g", "trial_id": "stroop-trial-1-congruent-8", "trial_type": "html-keyboard-response", "trial_index": 25, "time_elapsed": 141844, "internal_node_id": "0.0-4.0-21.0"}}, {"uniqueid": "w60361778:a59973374", "current_trial": 26, "dateTime": 1664559058698, "trialdata": {"rt": 1057, "stimulus": "<p id='stroop-text' class='stroop-yellow'>RED</p>", "response": "y", "stimulus-type": "incongruent", "word": "red", "color": "yellow", "correct_response": "y", "trial_id": "stroop-trial-1-incongruent-21", "trial_type": "html-keyboard-response", "trial_index": 26, "time_elapsed": 143405, "internal_node_id": "0.0-4.0-22.0"}}, {"uniqueid": "w60361778:a59973374", "current_trial": 27, "dateTime": 1664559059698, "trialdata": {"rt": 496, "stimulus": "<p id='stroop-text' class='stroop-yellow'>YELLOW</p>", "response": "y", "stimulus-type": "congruent", "word": "yellow", "color": "yellow", "correct_response": "y", "trial_id": "stroop-trial-1-congruent-15", "trial_type": "html-keyboard-response", "trial_index": 27, "time_elapsed": 144405, "internal_node_id": "0.0-4.0-23.0"}}, {"uniqueid": "w60361778:a59973374", "current_trial": 28, "dateTime": 1664559061038, "trialdata": {"rt": 835, "stimulus": "<p id='stroop-text' class='stroop-blue'>BRAIN</p>", "response": "b", "stimulus-type": "unrelated", "word": "BRAIN", "color": "blue", "correct_response": "b", "trial_id": "stroop-trial-1-unrelated-4", "trial_type": "html-keyboard-response", "trial_index": 28, "time_elapsed": 145745, "internal_node_id": "0.0-4.0-24.0"}}, {"uniqueid": "w60361778:a59973374", "current_trial": 29, "dateTime": 1664559062239, "trialdata": {"rt": 697, "stimulus": "<p id='stroop-text' class='stroop-blue'>BOTTLE</p>", "response": "b", "stimulus-type": "unrelated", "word": "BOTTLE", "color": "blue", "correct_response": "b", "trial_id": "stroop-trial-1-unrelated-3", "trial_type": "html-keyboard-response", "trial_index": 29, "time_elapsed": 146946, "internal_node_id": "0.0-4.0-25.0"}}, {"uniqueid": "w60361778:a59973374", "current_trial": 30, "dateTime": 1664559063353, "trialdata": {"rt": 611, "stimulus": "<p id='stroop-text' class='stroop-green'>RED</p>", "response": "g", "stimulus-type": "incongruent", "word": "red", "color": "green", "correct_response": "g", "trial_id": "stroop-trial-1-incongruent-22", "trial_type": "html-keyboard-response", "trial_index": 30, "time_elapsed": 148061, "internal_node_id": "0.0-4.0-26.0"}}, {"uniqueid": "w60361778:a59973374", "current_trial": 31, "dateTime": 1664559064518, "trialdata": {"rt": 662, "stimulus": "<p id='stroop-text' class='stroop-yellow'>STONE</p>", "response": "y", "stimulus-type": "unrelated", "word": "STONE", "color": "yellow", "correct_response": "y", "trial_id": "stroop-trial-1-unrelated-6", "trial_type": "html-keyboard-response", "trial_index": 31, "time_elapsed": 149226, "internal_node_id": "0.0-4.0-27.0"}}, {"uniqueid": "w60361778:a59973374", "current_trial": 32, "dateTime": 1664559065689, "trialdata": {"rt": 666, "stimulus": "<p id='stroop-text' class='stroop-red'>RED</p>", "response": "r", "stimulus-type": "congruent", "word": "red", "color": "red", "correct_response": "r", "trial_id": "stroop-trial-1-congruent-16", "trial_type": "html-keyboard-response", "trial_index": 32, "time_elapsed": 150397, "internal_node_id": "0.0-4.0-28.0"}}, {"uniqueid": "w60361778:a59973374", "current_trial": 33, "dateTime": 1664559066811, "trialdata": {"rt": 618, "stimulus": "<p id='stroop-text' class='stroop-blue'>BLUE</p>", "response": "b", "stimulus-type": "congruent", "word": "blue", "color": "blue", "correct_response": "b", "trial_id": "stroop-trial-1-congruent-11", "trial_type": "html-keyboard-response", "trial_index": 33, "time_elapsed": 151519, "internal_node_id": "0.0-4.0-29.0"}}, {"uniqueid": "w60361778:a59973374", "current_trial": 34, "dateTime": 1664559068199, "trialdata": {"rt": 884, "stimulus": "<p id='stroop-text' class='stroop-yellow'>BOAT</p>", "response": "y", "stimulus-type": "unrelated", "word": "BOAT", "color": "yellow", "correct_response": "y", "trial_id": "stroop-trial-1-unrelated-27", "trial_type": "html-keyboard-response", "trial_index": 34, "time_elapsed": 152907, "internal_node_id": "0.0-4.0-30.0"}}, {"uniqueid": "w60361778:a59973374", "current_trial": 35, "dateTime": 1664559070120, "trialdata": {"rt": 1416, "stimulus": "<p id='stroop-text' class='stroop-blue'>YELLOW</p>", "response": "b", "stimulus-type": "incongruent", "word": "yellow", "color": "blue", "correct_response": "b", "trial_id": "stroop-trial-1-incongruent-1", "trial_type": "html-keyboard-response", "trial_index": 35, "time_elapsed": 154827, "internal_node_id": "0.0-4.0-31.0"}}, {"uniqueid": "w60361778:a59973374", "current_trial": 36, "dateTime": 1664559071360, "trialdata": {"rt": 736, "stimulus": "<p id='stroop-text' class='stroop-green'>BLUE</p>", "response": "g", "stimulus-type": "incongruent", "word": "blue", "color": "green", "correct_response": "g", "trial_id": "stroop-trial-1-incongruent-29", "trial_type": "html-keyboard-response", "trial_index": 36, "time_elapsed": 156068, "internal_node_id": "0.0-4.0-32.0"}}, {"uniqueid": "w60361778:a59973374", "current_trial": 37, "dateTime": 1664559072352, "trialdata": {"rt": 488, "stimulus": "<p id='stroop-text' class='stroop-green'>YELLOW</p>", "response": "g", "stimulus-type": "incongruent", "word": "yellow", "color": "green", "correct_response": "g", "trial_id": "stroop-trial-1-incongruent-17", "trial_type": "html-keyboard-response", "trial_index": 37, "time_elapsed": 157060, "internal_node_id": "0.0-4.0-33.0"}}, {"uniqueid": "w60361778:a59973374", "current_trial": 38, "dateTime": 1664559074152, "trialdata": {"rt": 1296, "stimulus": "<p id='stroop-text' class='stroop-red'>WINDOW</p>", "response": "r", "stimulus-type": "unrelated", "word": "WINDOW", "color": "red", "correct_response": "r", "trial_id": "stroop-trial-1-unrelated-8", "trial_type": "html-keyboard-response", "trial_index": 38, "time_elapsed": 158859, "internal_node_id": "0.0-4.0-34.0"}}, {"uniqueid": "w60361778:a59973374", "current_trial": 39, "dateTime": 1664559075659, "trialdata": {"rt": 1002, "stimulus": "<p id='stroop-text' class='stroop-green'>BLUE</p>", "response": "g", "stimulus-type": "incongruent", "word": "blue", "color": "green", "correct_response": "g", "trial_id": "stroop-trial-1-incongruent-19", "trial_type": "html-keyboard-response", "trial_index": 39, "time_elapsed": 160366, "internal_node_id": "0.0-4.0-35.0"}}, {"uniqueid": "w60361778:a59973374", "current_trial": 40, "dateTime": 1664559077059, "trialdata": {"rt": 896, "stimulus": "<p id='stroop-text' class='stroop-yellow'>DOG</p>", "response": "y", "stimulus-type": "unrelated", "word": "DOG", "color": "yellow", "correct_response": "y", "trial_id": "stroop-trial-1-unrelated-19", "trial_type": "html-keyboard-response", "trial_index": 40, "time_elapsed": 161766, "internal_node_id": "0.0-4.0-36.0"}}, {"uniqueid": "w60361778:a59973374", "current_trial": 41, "dateTime": 1664559078281, "trialdata": {"rt": 718, "stimulus": "<p id='stroop-text' class='stroop-yellow'>YELLOW</p>", "response": "y", "stimulus-type": "congruent", "word": "yellow", "color": "yellow", "correct_response": "y", "trial_id": "stroop-trial-1-congruent-4", "trial_type": "html-keyboard-response", "trial_index": 41, "time_elapsed": 162988, "internal_node_id": "0.0-4.0-37.0"}}, {"uniqueid": "w60361778:a59973374", "current_trial": 42, "dateTime": 1664559079524, "trialdata": {"rt": 738, "stimulus": "<p id='stroop-text' class='stroop-green'>BRIDGE</p>", "response": "g", "stimulus-type": "unrelated", "word": "BRIDGE", "color": "green", "correct_response": "g", "trial_id": "stroop-trial-1-unrelated-24", "trial_type": "html-keyboard-response", "trial_index": 42, "time_elapsed": 164231, "internal_node_id": "0.0-4.0-38.0"}}, {"uniqueid": "w60361778:a59973374", "current_trial": 43, "dateTime": 1664559080739, "trialdata": {"rt": 710, "stimulus": "<p id='stroop-text' class='stroop-yellow'>YELLOW</p>", "response": "y", "stimulus-type": "congruent", "word": "yellow", "color": "yellow", "correct_response": "y", "trial_id": "stroop-trial-1-congruent-30", "trial_type": "html-keyboard-response", "trial_index": 43, "time_elapsed": 165446, "internal_node_id": "0.0-4.0-39.0"}}, {"uniqueid": "w60361778:a59973374", "current_trial": 44, "dateTime": 1664559082198, "trialdata": {"rt": 955, "stimulus": "<p id='stroop-text' class='stroop-red'>RED</p>", "response": "r", "stimulus-type": "congruent", "word": "red", "color": "red", "correct_response": "r", "trial_id": "stroop-trial-1-congruent-10", "trial_type": "html-keyboard-response", "trial_index": 44, "time_elapsed": 166905, "internal_node_id": "0.0-4.0-40.0"}}, {"uniqueid": "w60361778:a59973374", "current_trial": 45, "dateTime": 1664559083335, "trialdata": {"rt": 634, "stimulus": "<p id='stroop-text' class='stroop-red'>BRIDGE</p>", "response": "r", "stimulus-type": "unrelated", "word": "BRIDGE", "color": "red", "correct_response": "r", "trial_id": "stroop-trial-1-unrelated-2", "trial_type": "html-keyboard-response", "trial_index": 45, "time_elapsed": 168042, "internal_node_id": "0.0-4.0-41.0"}}, {"uniqueid": "w60361778:a59973374", "current_trial": 46, "dateTime": 1664559084909, "trialdata": {"rt": 1069, "stimulus": "<p id='stroop-text' class='stroop-yellow'>GREEN</p>", "response": "y", "stimulus-type": "incongruent", "word": "green", "color": "yellow", "correct_response": "y", "trial_id": "stroop-trial-1-incongruent-26", "trial_type": "html-keyboard-response", "trial_index": 46, "time_elapsed": 169616, "internal_node_id": "0.0-4.0-42.0"}}, {"uniqueid": "w60361778:a59973374", "current_trial": 47, "dateTime": 1664559086212, "trialdata": {"rt": 798, "stimulus": "<p id='stroop-text' class='stroop-blue'>RED</p>", "response": "b", "stimulus-type": "incongruent", "word": "red", "color": "blue", "correct_response": "b", "trial_id": "stroop-trial-1-incongruent-14", "trial_type": "html-keyboard-response", "trial_index": 47, "time_elapsed": 170919, "internal_node_id": "0.0-4.0-43.0"}}, {"uniqueid": "w60361778:a59973374", "current_trial": 48, "dateTime": 1664559087169, "trialdata": {"rt": 453, "stimulus": "<p id='stroop-text' class='stroop-blue'>BLUE</p>", "response": "b", "stimulus-type": "congruent", "word": "blue", "color": "blue", "correct_response": "b", "trial_id": "stroop-trial-1-congruent-20", "trial_type": "html-keyboard-response", "trial_index": 48, "time_elapsed": 171876, "internal_node_id": "0.0-4.0-44.0"}}, {"uniqueid": "w60361778:a59973374", "current_trial": 49, "dateTime": 1664559088413, "trialdata": {"rt": 740, "stimulus": "<p id='stroop-text' class='stroop-red'>RED</p>", "response": "r", "stimulus-type": "congruent", "word": "red", "color": "red", "correct_response": "r", "trial_id": "stroop-trial-1-congruent-1", "trial_type": "html-keyboard-response", "trial_index": 49, "time_elapsed": 173120, "internal_node_id": "0.0-4.0-45.0"}}, {"uniqueid": "w60361778:a59973374", "current_trial": 50, "dateTime": 1664559089982, "trialdata": {"rt": 1064, "stimulus": "<p id='stroop-text' class='stroop-yellow'>GREEN</p>", "response": "y", "stimulus-type": "incongruent", "word": "green", "color": "yellow", "correct_response": "y", "trial_id": "stroop-trial-1-incongruent-7", "trial_type": "html-keyboard-response", "trial_index": 50, "time_elapsed": 174689, "internal_node_id": "0.0-4.0-46.0"}}, {"uniqueid": "w60361778:a59973374", "current_trial": 51, "dateTime": 1664559091344, "trialdata": {"rt": 858, "stimulus": "<p id='stroop-text' class='stroop-blue'>BLUE</p>", "response": "b", "stimulus-type": "congruent", "word": "blue", "color": "blue", "correct_response": "b", "trial_id": "stroop-trial-1-congruent-7", "trial_type": "html-keyboard-response", "trial_index": 51, "time_elapsed": 176051, "internal_node_id": "0.0-4.0-47.0"}}, {"uniqueid": "w60361778:a59973374", "current_trial": 52, "dateTime": 1664559092293, "trialdata": {"rt": 446, "stimulus": "<p id='stroop-text' class='stroop-blue'>RED</p>", "response": "b", "stimulus-type": "incongruent", "word": "red", "color": "blue", "correct_response": "b", "trial_id": "stroop-trial-1-incongruent-16", "trial_type": "html-keyboard-response", "trial_index": 52, "time_elapsed": 177000, "internal_node_id": "0.0-4.0-48.0"}}, {"uniqueid": "w60361778:a59973374", "current_trial": 53, "dateTime": 1664559093561, "trialdata": {"rt": 763, "stimulus": "<p id='stroop-text' class='stroop-yellow'>GREEN</p>", "response": "y", "stimulus-type": "incongruent", "word": "green", "color": "yellow", "correct_response": "y", "trial_id": "stroop-trial-1-incongruent-10", "trial_type": "html-keyboard-response", "trial_index": 53, "time_elapsed": 178268, "internal_node_id": "0.0-4.0-49.0"}}, {"uniqueid": "w60361778:a59973374", "current_trial": 54, "dateTime": 1664559094750, "trialdata": {"rt": 686, "stimulus": "<p id='stroop-text' class='stroop-blue'>BOTTLE</p>", "response": "b", "stimulus-type": "unrelated", "word": "BOTTLE", "color": "blue", "correct_response": "b", "trial_id": "stroop-trial-1-unrelated-10", "trial_type": "html-keyboard-response", "trial_index": 54, "time_elapsed": 179458, "internal_node_id": "0.0-4.0-50.0"}}, {"uniqueid": "w60361778:a59973374", "current_trial": 55, "dateTime": 1664559096449, "trialdata": {"rt": 1195, "stimulus": "<p id='stroop-text' class='stroop-green'>GREEN</p>", "response": "g", "stimulus-type": "congruent", "word": "green", "color": "green", "correct_response": "g", "trial_id": "stroop-trial-1-congruent-25", "trial_type": "html-keyboard-response", "trial_index": 55, "time_elapsed": 181157, "internal_node_id": "0.0-4.0-51.0"}}, {"uniqueid": "w60361778:a59973374", "current_trial": 56, "dateTime": 1664559097589, "trialdata": {"rt": 635, "stimulus": "<p id='stroop-text' class='stroop-blue'>GREEN</p>", "response": "b", "stimulus-type": "incongruent", "word": "green", "color": "blue", "correct_response": "b", "trial_id": "stroop-trial-1-incongruent-3", "trial_type": "html-keyboard-response", "trial_index": 56, "time_elapsed": 182297, "internal_node_id": "0.0-4.0-52.0"}}, {"uniqueid": "w60361778:a59973374", "current_trial": 57, "dateTime": 1664559098698, "trialdata": {"rt": 606, "stimulus": "<p id='stroop-text' class='stroop-yellow'>WINDOW</p>", "response": "y", "stimulus-type": "unrelated", "word": "WINDOW", "color": "yellow", "correct_response": "y", "trial_id": "stroop-trial-1-unrelated-13", "trial_type": "html-keyboard-response", "trial_index": 57, "time_elapsed": 183406, "internal_node_id": "0.0-4.0-53.0"}}, {"uniqueid": "w60361778:a59973374", "current_trial": 58, "dateTime": 1664559099893, "trialdata": {"rt": 692, "stimulus": "<p id='stroop-text' class='stroop-red'>MONKEY</p>", "response": "r", "stimulus-type": "unrelated", "word": "MONKEY", "color": "red", "correct_response": "r", "trial_id": "stroop-trial-1-unrelated-17", "trial_type": "html-keyboard-response", "trial_index": 58, "time_elapsed": 184601, "internal_node_id": "0.0-4.0-54.0"}}, {"uniqueid": "w60361778:a59973374", "current_trial": 59, "dateTime": 1664559100833, "trialdata": {"rt": 436, "stimulus": "<p id='stroop-text' class='stroop-red'>BOTTLE</p>", "response": "r", "stimulus-type": "unrelated", "word": "BOTTLE", "color": "red", "correct_response": "r", "trial_id": "stroop-trial-1-unrelated-25", "trial_type": "html-keyboard-response", "trial_index": 59, "time_elapsed": 185540, "internal_node_id": "0.0-4.0-55.0"}}, {"uniqueid": "w60361778:a59973374", "current_trial": 60, "dateTime": 1664559101905, "trialdata": {"rt": 568, "stimulus": "<p id='stroop-text' class='stroop-blue'>BLUE</p>", "response": "b", "stimulus-type": "congruent", "word": "blue", "color": "blue", "correct_response": "b", "trial_id": "stroop-trial-1-congruent-26", "trial_type": "html-keyboard-response", "trial_index": 60, "time_elapsed": 186612, "internal_node_id": "0.0-4.0-56.0"}}, {"uniqueid": "w60361778:a59973374", "current_trial": 61, "dateTime": 1664559103461, "trialdata": {"rt": 1052, "stimulus": "<p id='stroop-text' class='stroop-yellow'>GREEN</p>", "response": "y", "stimulus-type": "incongruent", "word": "green", "color": "yellow", "correct_response": "y", "trial_id": "stroop-trial-1-incongruent-23", "trial_type": "html-keyboard-response", "trial_index": 61, "time_elapsed": 188168, "internal_node_id": "0.0-4.0-57.0"}}, {"uniqueid": "w60361778:a59973374", "current_trial": 62, "dateTime": 1664559104521, "trialdata": {"rt": 557, "stimulus": "<p id='stroop-text' class='stroop-blue'>BLUE</p>", "response": "b", "stimulus-type": "congruent", "word": "blue", "color": "blue", "correct_response": "b", "trial_id": "stroop-trial-1-congruent-28", "trial_type": "html-keyboard-response", "trial_index": 62, "time_elapsed": 189229, "internal_node_id": "0.0-4.0-58.0"}}, {"uniqueid": "w60361778:a59973374", "current_trial": 63, "dateTime": 1664559105471, "trialdata": {"rt": 446, "stimulus": "<p id='stroop-text' class='stroop-blue'>BLUE</p>", "response": "b", "stimulus-type": "congruent", "word": "blue", "color": "blue", "correct_response": "b", "trial_id": "stroop-trial-1-congruent-24", "trial_type": "html-keyboard-response", "trial_index": 63, "time_elapsed": 190179, "internal_node_id": "0.0-4.0-59.0"}}, {"uniqueid": "w60361778:a59973374", "current_trial": 64, "dateTime": 1664559106822, "trialdata": {"rt": 848, "stimulus": "<p id='stroop-text' class='stroop-green'>YELLOW</p>", "response": "g", "stimulus-type": "incongruent", "word": "yellow", "color": "green", "correct_response": "g", "trial_id": "stroop-trial-1-incongruent-11", "trial_type": "html-keyboard-response", "trial_index": 64, "time_elapsed": 191529, "internal_node_id": "0.0-4.0-60.0"}}, {"uniqueid": "w60361778:a59973374", "current_trial": 65, "dateTime": 1664559108136, "trialdata": {"rt": 810, "stimulus": "<p id='stroop-text' class='stroop-red'>BLUE</p>", "response": "r", "stimulus-type": "incongruent", "word": "blue", "color": "red", "correct_response": "r", "trial_id": "stroop-trial-1-incongruent-30", "trial_type": "html-keyboard-response", "trial_index": 65, "time_elapsed": 192844, "internal_node_id": "0.0-4.0-61.0"}}, {"uniqueid": "w60361778:a59973374", "current_trial": 66, "dateTime": 1664559109380, "trialdata": {"rt": 740, "stimulus": "<p id='stroop-text' class='stroop-green'>GREEN</p>", "response": "g", "stimulus-type": "congruent", "word": "green", "color": "green", "correct_response": "g", "trial_id": "stroop-trial-1-congruent-6", "trial_type": "html-keyboard-response", "trial_index": 66, "time_elapsed": 194087, "internal_node_id": "0.0-4.0-62.0"}}, {"uniqueid": "w60361778:a59973374", "current_trial": 67, "dateTime": 1664559110518, "trialdata": {"rt": 635, "stimulus": "<p id='stroop-text' class='stroop-green'>GREEN</p>", "response": "g", "stimulus-type": "congruent", "word": "green", "color": "green", "correct_response": "g", "trial_id": "stroop-trial-1-congruent-5", "trial_type": "html-keyboard-response", "trial_index": 67, "time_elapsed": 195226, "internal_node_id": "0.0-4.0-63.0"}}, {"uniqueid": "w60361778:a59973374", "current_trial": 68, "dateTime": 1664559111797, "trialdata": {"rt": 775, "stimulus": "<p id='stroop-text' class='stroop-green'>BRIDGE</p>", "response": "g", "stimulus-type": "unrelated", "word": "BRIDGE", "color": "green", "correct_response": "g", "trial_id": "stroop-trial-1-unrelated-21", "trial_type": "html-keyboard-response", "trial_index": 68, "time_elapsed": 196504, "internal_node_id": "0.0-4.0-64.0"}}, {"uniqueid": "w60361778:a59973374", "current_trial": 69, "dateTime": 1664559112707, "trialdata": {"rt": 407, "stimulus": "<p id='stroop-text' class='stroop-green'>BLUE</p>", "response": "g", "stimulus-type": "incongruent", "word": "blue", "color": "green", "correct_response": "g", "trial_id": "stroop-trial-1-incongruent-9", "trial_type": "html-keyboard-response", "trial_index": 69, "time_elapsed": 197415, "internal_node_id": "0.0-4.0-65.0"}}, {"uniqueid": "w60361778:a59973374", "current_trial": 70, "dateTime": 1664559113825, "trialdata": {"rt": 613, "stimulus": "<p id='stroop-text' class='stroop-yellow'>STONE</p>", "response": "y", "stimulus-type": "unrelated", "word": "STONE", "color": "yellow", "correct_response": "y", "trial_id": "stroop-trial-1-unrelated-12", "trial_type": "html-keyboard-response", "trial_index": 70, "time_elapsed": 198532, "internal_node_id": "0.0-4.0-66.0"}}, {"uniqueid": "w60361778:a59973374", "current_trial": 71, "dateTime": 1664559115086, "trialdata": {"rt": 757, "stimulus": "<p id='stroop-text' class='stroop-red'>FORK</p>", "response": "r", "stimulus-type": "unrelated", "word": "FORK", "color": "red", "correct_response": "r", "trial_id": "stroop-trial-1-unrelated-28", "trial_type": "html-keyboard-response", "trial_index": 71, "time_elapsed": 199793, "internal_node_id": "0.0-4.0-67.0"}}, {"uniqueid": "w60361778:a59973374", "current_trial": 72, "dateTime": 1664559116630, "trialdata": {"rt": 1040, "stimulus": "<p id='stroop-text' class='stroop-red'>GREEN</p>", "response": "r", "stimulus-type": "incongruent", "word": "green", "color": "red", "correct_response": "r", "trial_id": "stroop-trial-1-incongruent-2", "trial_type": "html-keyboard-response", "trial_index": 72, "time_elapsed": 201337, "internal_node_id": "0.0-4.0-68.0"}}, {"uniqueid": "w60361778:a59973374", "current_trial": 73, "dateTime": 1664559117945, "trialdata": {"rt": 809, "stimulus": "<p id='stroop-text' class='stroop-blue'>SHIP</p>", "response": "b", "stimulus-type": "unrelated", "word": "SHIP", "color": "blue", "correct_response": "b", "trial_id": "stroop-trial-1-unrelated-11", "trial_type": "html-keyboard-response", "trial_index": 73, "time_elapsed": 202652, "internal_node_id": "0.0-4.0-69.0"}}, {"uniqueid": "w60361778:a59973374", "current_trial": 74, "dateTime": 1664559119110, "trialdata": {"rt": 661, "stimulus": "<p id='stroop-text' class='stroop-green'>BRAIN</p>", "response": "g", "stimulus-type": "unrelated", "word": "BRAIN", "color": "green", "correct_response": "g", "trial_id": "stroop-trial-1-unrelated-29", "trial_type": "html-keyboard-response", "trial_index": 74, "time_elapsed": 203817, "internal_node_id": "0.0-4.0-70.0"}}, {"uniqueid": "w60361778:a59973374", "current_trial": 75, "dateTime": 1664559120086, "trialdata": {"rt": 472, "stimulus": "<p id='stroop-text' class='stroop-green'>GREEN</p>", "response": "g", "stimulus-type": "congruent", "word": "green", "color": "green", "correct_response": "g", "trial_id": "stroop-trial-1-congruent-23", "trial_type": "html-keyboard-response", "trial_index": 75, "time_elapsed": 204793, "internal_node_id": "0.0-4.0-71.0"}}, {"uniqueid": "w60361778:a59973374", "current_trial": 76, "dateTime": 1664559121397, "trialdata": {"rt": 807, "stimulus": "<p id='stroop-text' class='stroop-yellow'>MONKEY</p>", "response": "y", "stimulus-type": "unrelated", "word": "MONKEY", "color": "yellow", "correct_response": "y", "trial_id": "stroop-trial-1-unrelated-7", "trial_type": "html-keyboard-response", "trial_index": 76, "time_elapsed": 206104, "internal_node_id": "0.0-4.0-72.0"}}, {"uniqueid": "w60361778:a59973374", "current_trial": 77, "dateTime": 1664559122587, "trialdata": {"rt": 687, "stimulus": "<p id='stroop-text' class='stroop-green'>YELLOW</p>", "response": "y", "stimulus-type": "incongruent", "word": "yellow", "color": "green", "correct_response": "g", "trial_id": "stroop-trial-1-incongruent-20", "trial_type": "html-keyboard-response", "trial_index": 77, "time_elapsed": 207295, "internal_node_id": "0.0-4.0-73.0"}}, {"uniqueid": "w60361778:a59973374", "current_trial": 78, "dateTime": 1664559124031, "trialdata": {"rt": 941, "stimulus": "<p id='stroop-text' class='stroop-yellow'>BRAIN</p>", "response": "y", "stimulus-type": "unrelated", "word": "BRAIN", "color": "yellow", "correct_response": "y", "trial_id": "stroop-trial-1-unrelated-18", "trial_type": "html-keyboard-response", "trial_index": 78, "time_elapsed": 208738, "internal_node_id": "0.0-4.0-74.0"}}, {"uniqueid": "w60361778:a59973374", "current_trial": 79, "dateTime": 1664559125265, "trialdata": {"rt": 731, "stimulus": "<p id='stroop-text' class='stroop-blue'>BLUE</p>", "response": "b", "stimulus-type": "congruent", "word": "blue", "color": "blue", "correct_response": "b", "trial_id": "stroop-trial-1-congruent-14", "trial_type": "html-keyboard-response", "trial_index": 79, "time_elapsed": 209973, "internal_node_id": "0.0-4.0-75.0"}}, {"uniqueid": "w60361778:a59973374", "current_trial": 80, "dateTime": 1664559126397, "trialdata": {"rt": 626, "stimulus": "<p id='stroop-text' class='stroop-red'>RED</p>", "response": "r", "stimulus-type": "congruent", "word": "red", "color": "red", "correct_response": "r", "trial_id": "stroop-trial-1-congruent-3", "trial_type": "html-keyboard-response", "trial_index": 80, "time_elapsed": 211104, "internal_node_id": "0.0-4.0-76.0"}}, {"uniqueid": "w60361778:a59973374", "current_trial": 81, "dateTime": 1664559127460, "trialdata": {"rt": 558, "stimulus": "<p id='stroop-text' class='stroop-green'>GREEN</p>", "response": "g", "stimulus-type": "congruent", "word": "green", "color": "green", "correct_response": "g", "trial_id": "stroop-trial-1-congruent-22", "trial_type": "html-keyboard-response", "trial_index": 81, "time_elapsed": 212167, "internal_node_id": "0.0-4.0-77.0"}}, {"uniqueid": "w60361778:a59973374", "current_trial": 82, "dateTime": 1664559128885, "trialdata": {"rt": 921, "stimulus": "<p id='stroop-text' class='stroop-red'>BLUE</p>", "response": "r", "stimulus-type": "incongruent", "word": "blue", "color": "red", "correct_response": "r", "trial_id": "stroop-trial-1-incongruent-6", "trial_type": "html-keyboard-response", "trial_index": 82, "time_elapsed": 213592, "internal_node_id": "0.0-4.0-78.0"}}, {"uniqueid": "w60361778:a59973374", "current_trial": 83, "dateTime": 1664559130536, "trialdata": {"rt": 1146, "stimulus": "<p id='stroop-text' class='stroop-green'>RED</p>", "response": "g", "stimulus-type": "incongruent", "word": "red", "color": "green", "correct_response": "g", "trial_id": "stroop-trial-1-incongruent-27", "trial_type": "html-keyboard-response", "trial_index": 83, "time_elapsed": 215243, "internal_node_id": "0.0-4.0-79.0"}}, {"uniqueid": "w60361778:a59973374", "current_trial": 84, "dateTime": 1664559131646, "trialdata": {"rt": 606, "stimulus": "<p id='stroop-text' class='stroop-blue'>WINDOW</p>", "response": "b", "stimulus-type": "unrelated", "word": "WINDOW", "color": "blue", "correct_response": "b", "trial_id": "stroop-trial-1-unrelated-20", "trial_type": "html-keyboard-response", "trial_index": 84, "time_elapsed": 216353, "internal_node_id": "0.0-4.0-80.0"}}, {"uniqueid": "w60361778:a59973374", "current_trial": 85, "dateTime": 1664559132584, "trialdata": {"rt": 435, "stimulus": "<p id='stroop-text' class='stroop-blue'>YELLOW</p>", "response": "b", "stimulus-type": "incongruent", "word": "yellow", "color": "blue", "correct_response": "b", "trial_id": "stroop-trial-1-incongruent-4", "trial_type": "html-keyboard-response", "trial_index": 85, "time_elapsed": 217292, "internal_node_id": "0.0-4.0-81.0"}}, {"uniqueid": "w60361778:a59973374", "current_trial": 86, "dateTime": 1664559133686, "trialdata": {"rt": 598, "stimulus": "<p id='stroop-text' class='stroop-green'>GREEN</p>", "response": "g", "stimulus-type": "congruent", "word": "green", "color": "green", "correct_response": "g", "trial_id": "stroop-trial-1-congruent-27", "trial_type": "html-keyboard-response", "trial_index": 86, "time_elapsed": 218393, "internal_node_id": "0.0-4.0-82.0"}}, {"uniqueid": "w60361778:a59973374", "current_trial": 87, "dateTime": 1664559134885, "trialdata": {"rt": 695, "stimulus": "<p id='stroop-text' class='stroop-green'>DOG</p>", "response": "g", "stimulus-type": "unrelated", "word": "DOG", "color": "green", "correct_response": "g", "trial_id": "stroop-trial-1-unrelated-26", "trial_type": "html-keyboard-response", "trial_index": 87, "time_elapsed": 219593, "internal_node_id": "0.0-4.0-83.0"}}, {"uniqueid": "w60361778:a59973374", "current_trial": 88, "dateTime": 1664559136101, "trialdata": {"rt": 710, "stimulus": "<p id='stroop-text' class='stroop-yellow'>DOG</p>", "response": "y", "stimulus-type": "unrelated", "word": "DOG", "color": "yellow", "correct_response": "y", "trial_id": "stroop-trial-1-unrelated-9", "trial_type": "html-keyboard-response", "trial_index": 88, "time_elapsed": 220808, "internal_node_id": "0.0-4.0-84.0"}}, {"uniqueid": "w60361778:a59973374", "current_trial": 89, "dateTime": 1664559137140, "trialdata": {"rt": 535, "stimulus": "<p id='stroop-text' class='stroop-yellow'>YELLOW</p>", "response": "y", "stimulus-type": "congruent", "word": "yellow", "color": "yellow", "correct_response": "y", "trial_id": "stroop-trial-1-congruent-19", "trial_type": "html-keyboard-response", "trial_index": 89, "time_elapsed": 221848, "internal_node_id": "0.0-4.0-85.0"}}, {"uniqueid": "w60361778:a59973374", "current_trial": 90, "dateTime": 1664559138352, "trialdata": {"rt": 708, "stimulus": "<p id='stroop-text' class='stroop-green'>BOAT</p>", "response": "g", "stimulus-type": "unrelated", "word": "BOAT", "color": "green", "correct_response": "g", "trial_id": "stroop-trial-1-unrelated-23", "trial_type": "html-keyboard-response", "trial_index": 90, "time_elapsed": 223059, "internal_node_id": "0.0-4.0-86.0"}}, {"uniqueid": "w60361778:a59973374", "current_trial": 91, "dateTime": 1664559139634, "trialdata": {"rt": 778, "stimulus": "<p id='stroop-text' class='stroop-blue'>RED</p>", "response": "b", "stimulus-type": "incongruent", "word": "red", "color": "blue", "correct_response": "b", "trial_id": "stroop-trial-1-incongruent-24", "trial_type": "html-keyboard-response", "trial_index": 91, "time_elapsed": 224341, "internal_node_id": "0.0-4.0-87.0"}}, {"uniqueid": "w60361778:a59973374", "current_trial": 92, "dateTime": 1664559140979, "trialdata": {"rt": 840, "stimulus": "<p id='stroop-text' class='stroop-green'>STONE</p>", "response": "g", "stimulus-type": "unrelated", "word": "STONE", "color": "green", "correct_response": "g", "trial_id": "stroop-trial-1-unrelated-1", "trial_type": "html-keyboard-response", "trial_index": 92, "time_elapsed": 225686, "internal_node_id": "0.0-4.0-88.0"}}, {"uniqueid": "w60361778:a59973374", "current_trial": 93, "dateTime": 1664559142230, "trialdata": {"rt": 747, "stimulus": "<p id='stroop-text' class='stroop-red'>RED</p>", "response": "r", "stimulus-type": "congruent", "word": "red", "color": "red", "correct_response": "r", "trial_id": "stroop-trial-1-congruent-13", "trial_type": "html-keyboard-response", "trial_index": 93, "time_elapsed": 226937, "internal_node_id": "0.0-4.0-89.0"}}, {"uniqueid": "w60361778:a59973374", "current_trial": 94, "dateTime": 1664559152615, "trialdata": {"rt": 9878, "stimulus": "  <h1> End of block! </h1>\n\n  You have reached the end of the block 1/5. If you need a short break, feel free to take one now before moving on.\n\n  <br><br>\n  In the next block, you will complete another 90 rounds of this game.\n\n  <br><br>\n  <div style='text-align: center;'>Press <code>space</code> to begin.</div>\n  <br><br>\n<div style='text-align: center;'>(If the experiment doesn't continue, try clicking on the text and then pressing <code>space</code>.)</div>", "response": " ", "trial_id": "stroop_1_ready_2", "trial_type": "html-keyboard-response", "trial_index": 94, "time_elapsed": 237323, "internal_node_id": "0.0-5.0"}}, {"uniqueid": "w60361778:a59973374", "current_trial": 95, "dateTime": 1664559153678, "trialdata": {"rt": 1059, "stimulus": "<p id='stroop-text' class='stroop-red'>RED</p>", "response": "r", "stimulus-type": "congruent", "word": "red", "color": "red", "correct_response": "r", "trial_id": "stroop-trial-1-congruent-7", "trial_type": "html-keyboard-response", "trial_index": 95, "time_elapsed": 238386, "internal_node_id": "0.0-6.0-0.0"}}, {"uniqueid": "w60361778:a59973374", "current_trial": 96, "dateTime": 1664559155087, "trialdata": {"rt": 905, "stimulus": "<p id='stroop-text' class='stroop-green'>GREEN</p>", "response": "g", "stimulus-type": "congruent", "word": "green", "color": "green", "correct_response": "g", "trial_id": "stroop-trial-1-congruent-5", "trial_type": "html-keyboard-response", "trial_index": 96, "time_elapsed": 239794, "internal_node_id": "0.0-6.0-1.0"}}, {"uniqueid": "w60361778:a59973374", "current_trial": 97, "dateTime": 1664559156049, "trialdata": {"rt": 459, "stimulus": "<p id='stroop-text' class='stroop-green'>YELLOW</p>", "response": "g", "stimulus-type": "incongruent", "word": "yellow", "color": "green", "correct_response": "g", "trial_id": "stroop-trial-1-incongruent-14", "trial_type": "html-keyboard-response", "trial_index": 97, "time_elapsed": 240756, "internal_node_id": "0.0-6.0-2.0"}}, {"uniqueid": "w60361778:a59973374", "current_trial": 98, "dateTime": 1664559156934, "trialdata": {"rt": 380, "stimulus": "<p id='stroop-text' class='stroop-green'>GREEN</p>", "response": "g", "stimulus-type": "congruent", "word": "green", "color": "green", "correct_response": "g", "trial_id": "stroop-trial-1-congruent-29", "trial_type": "html-keyboard-response", "trial_index": 98, "time_elapsed": 241641, "internal_node_id": "0.0-6.0-3.0"}}, {"uniqueid": "w60361778:a59973374", "current_trial": 99, "dateTime": 1664559158116, "trialdata": {"rt": 678, "stimulus": "<p id='stroop-text' class='stroop-yellow'>BLUE</p>", "response": "y", "stimulus-type": "incongruent", "word": "blue", "color": "yellow", "correct_response": "y", "trial_id": "stroop-trial-1-incongruent-10", "trial_type": "html-keyboard-response", "trial_index": 99, "time_elapsed": 242824, "internal_node_id": "0.0-6.0-4.0"}}, {"uniqueid": "w60361778:a59973374", "current_trial": 100, "dateTime": 1664559159246, "trialdata": {"rt": 626, "stimulus": "<p id='stroop-text' class='stroop-blue'>STONE</p>", "response": "b", "stimulus-type": "unrelated", "word": "STONE", "color": "blue", "correct_response": "b", "trial_id": "stroop-trial-1-unrelated-6", "trial_type": "html-keyboard-response", "trial_index": 100, "time_elapsed": 243953, "internal_node_id": "0.0-6.0-5.0"}}, {"uniqueid": "w60361778:a59973374", "current_trial": 101, "dateTime": 1664559160429, "trialdata": {"rt": 679, "stimulus": "<p id='stroop-text' class='stroop-yellow'>SHIP</p>", "response": "y", "stimulus-type": "unrelated", "word": "SHIP", "color": "yellow", "correct_response": "y", "trial_id": "stroop-trial-1-unrelated-4", "trial_type": "html-keyboard-response", "trial_index": 101, "time_elapsed": 245137, "internal_node_id": "0.0-6.0-6.0"}}, {"uniqueid": "w60361778:a59973374", "current_trial": 102, "dateTime": 1664559161499, "trialdata": {"rt": 565, "stimulus": "<p id='stroop-text' class='stroop-yellow'>FORK</p>", "response": "y", "stimulus-type": "unrelated", "word": "FORK", "color": "yellow", "correct_response": "y", "trial_id": "stroop-trial-1-unrelated-18", "trial_type": "html-keyboard-response", "trial_index": 102, "time_elapsed": 246206, "internal_node_id": "0.0-6.0-7.0"}}, {"uniqueid": "w60361778:a59973374", "current_trial": 103, "dateTime": 1664559162773, "trialdata": {"rt": 770, "stimulus": "<p id='stroop-text' class='stroop-red'>RED</p>", "response": "r", "stimulus-type": "congruent", "word": "red", "color": "red", "correct_response": "r", "trial_id": "stroop-trial-1-congruent-26", "trial_type": "html-keyboard-response", "trial_index": 103, "time_elapsed": 247480, "internal_node_id": "0.0-6.0-8.0"}}, {"uniqueid": "w60361778:a59973374", "current_trial": 104, "dateTime": 1664559163924, "trialdata": {"rt": 646, "stimulus": "<p id='stroop-text' class='stroop-blue'>CHAIR</p>", "response": "b", "stimulus-type": "unrelated", "word": "CHAIR", "color": "blue", "correct_response": "b", "trial_id": "stroop-trial-1-unrelated-20", "trial_type": "html-keyboard-response", "trial_index": 104, "time_elapsed": 248631, "internal_node_id": "0.0-6.0-9.0"}}, {"uniqueid": "w60361778:a59973374", "current_trial": 105, "dateTime": 1664559165006, "trialdata": {"rt": 578, "stimulus": "<p id='stroop-text' class='stroop-yellow'>YELLOW</p>", "response": "y", "stimulus-type": "congruent", "word": "yellow", "color": "yellow", "correct_response": "y", "trial_id": "stroop-trial-1-congruent-23", "trial_type": "html-keyboard-response", "trial_index": 105, "time_elapsed": 249713, "internal_node_id": "0.0-6.0-10.0"}}, {"uniqueid": "w60361778:a59973374", "current_trial": 106, "dateTime": 1664559166096, "trialdata": {"rt": 587, "stimulus": "<p id='stroop-text' class='stroop-red'>YELLOW</p>", "response": "r", "stimulus-type": "incongruent", "word": "yellow", "color": "red", "correct_response": "r", "trial_id": "stroop-trial-1-incongruent-11", "trial_type": "html-keyboard-response", "trial_index": 106, "time_elapsed": 250804, "internal_node_id": "0.0-6.0-11.0"}}, {"uniqueid": "w60361778:a59973374", "current_trial": 107, "dateTime": 1664559167270, "trialdata": {"rt": 669, "stimulus": "<p id='stroop-text' class='stroop-yellow'>BLUE</p>", "response": "y", "stimulus-type": "incongruent", "word": "blue", "color": "yellow", "correct_response": "y", "trial_id": "stroop-trial-1-incongruent-26", "trial_type": "html-keyboard-response", "trial_index": 107, "time_elapsed": 251977, "internal_node_id": "0.0-6.0-12.0"}}, {"uniqueid": "w60361778:a59973374", "current_trial": 108, "dateTime": 1664559168284, "trialdata": {"rt": 509, "stimulus": "<p id='stroop-text' class='stroop-yellow'>YELLOW</p>", "response": "y", "stimulus-type": "congruent", "word": "yellow", "color": "yellow", "correct_response": "y", "trial_id": "stroop-trial-1-congruent-18", "trial_type": "html-keyboard-response", "trial_index": 108, "time_elapsed": 252992, "internal_node_id": "0.0-6.0-13.0"}}, {"uniqueid": "w60361778:a59973374", "current_trial": 109, "dateTime": 1664559169846, "trialdata": {"rt": 1057, "stimulus": "<p id='stroop-text' class='stroop-blue'>BLUE</p>", "response": "b", "stimulus-type": "congruent", "word": "blue", "color": "blue", "correct_response": "b", "trial_id": "stroop-trial-1-congruent-30", "trial_type": "html-keyboard-response", "trial_index": 109, "time_elapsed": 254554, "internal_node_id": "0.0-6.0-14.0"}}, {"uniqueid": "w60361778:a59973374", "current_trial": 110, "dateTime": 1664559170746, "trialdata": {"rt": 395, "stimulus": "<p id='stroop-text' class='stroop-blue'>BLUE</p>", "response": "b", "stimulus-type": "congruent", "word": "blue", "color": "blue", "correct_response": "b", "trial_id": "stroop-trial-1-congruent-4", "trial_type": "html-keyboard-response", "trial_index": 110, "time_elapsed": 255454, "internal_node_id": "0.0-6.0-15.0"}}, {"uniqueid": "w60361778:a59973374", "current_trial": 111, "dateTime": 1664559171699, "trialdata": {"rt": 448, "stimulus": "<p id='stroop-text' class='stroop-green'>GREEN</p>", "response": "g", "stimulus-type": "congruent", "word": "green", "color": "green", "correct_response": "g", "trial_id": "stroop-trial-1-congruent-25", "trial_type": "html-keyboard-response", "trial_index": 111, "time_elapsed": 256407, "internal_node_id": "0.0-6.0-16.0"}}, {"uniqueid": "w60361778:a59973374", "current_trial": 112, "dateTime": 1664559172811, "trialdata": {"rt": 608, "stimulus": "<p id='stroop-text' class='stroop-yellow'>FORK</p>", "response": "y", "stimulus-type": "unrelated", "word": "FORK", "color": "yellow", "correct_response": "y", "trial_id": "stroop-trial-1-unrelated-3", "trial_type": "html-keyboard-response", "trial_index": 112, "time_elapsed": 257518, "internal_node_id": "0.0-6.0-17.0"}}, {"uniqueid": "w60361778:a59973374", "current_trial": 113, "dateTime": 1664559173918, "trialdata": {"rt": 602, "stimulus": "<p id='stroop-text' class='stroop-green'>GREEN</p>", "response": "g", "stimulus-type": "congruent", "word": "green", "color": "green", "correct_response": "g", "trial_id": "stroop-trial-1-congruent-14", "trial_type": "html-keyboard-response", "trial_index": 113, "time_elapsed": 258626, "internal_node_id": "0.0-6.0-18.0"}}, {"uniqueid": "w60361778:a59973374", "current_trial": 114, "dateTime": 1664559175125, "trialdata": {"rt": 703, "stimulus": "<p id='stroop-text' class='stroop-blue'>RED</p>", "response": "b", "stimulus-type": "incongruent", "word": "red", "color": "blue", "correct_response": "b", "trial_id": "stroop-trial-1-incongruent-28", "trial_type": "html-keyboard-response", "trial_index": 114, "time_elapsed": 259832, "internal_node_id": "0.0-6.0-19.0"}}, {"uniqueid": "w60361778:a59973374", "current_trial": 115, "dateTime": 1664559176170, "trialdata": {"rt": 541, "stimulus": "<p id='stroop-text' class='stroop-yellow'>CHAIR</p>", "response": "y", "stimulus-type": "unrelated", "word": "CHAIR", "color": "yellow", "correct_response": "y", "trial_id": "stroop-trial-1-unrelated-9", "trial_type": "html-keyboard-response", "trial_index": 115, "time_elapsed": 260877, "internal_node_id": "0.0-6.0-20.0"}}, {"uniqueid": "w60361778:a59973374", "current_trial": 116, "dateTime": 1664559177308, "trialdata": {"rt": 634, "stimulus": "<p id='stroop-text' class='stroop-yellow'>STONE</p>", "response": "y", "stimulus-type": "unrelated", "word": "STONE", "color": "yellow", "correct_response": "y", "trial_id": "stroop-trial-1-unrelated-12", "trial_type": "html-keyboard-response", "trial_index": 116, "time_elapsed": 262016, "internal_node_id": "0.0-6.0-21.0"}}, {"uniqueid": "w60361778:a59973374", "current_trial": 117, "dateTime": 1664559178529, "trialdata": {"rt": 716, "stimulus": "<p id='stroop-text' class='stroop-green'>BLUE</p>", "response": "g", "stimulus-type": "incongruent", "word": "blue", "color": "green", "correct_response": "g", "trial_id": "stroop-trial-1-incongruent-22", "trial_type": "html-keyboard-response", "trial_index": 117, "time_elapsed": 263237, "internal_node_id": "0.0-6.0-22.0"}}, {"uniqueid": "w60361778:a59973374", "current_trial": 118, "dateTime": 1664559179570, "trialdata": {"rt": 535, "stimulus": "<p id='stroop-text' class='stroop-green'>MONKEY</p>", "response": "g", "stimulus-type": "unrelated", "word": "MONKEY", "color": "green", "correct_response": "g", "trial_id": "stroop-trial-1-unrelated-1", "trial_type": "html-keyboard-response", "trial_index": 118, "time_elapsed": 264277, "internal_node_id": "0.0-6.0-23.0"}}, {"uniqueid": "w60361778:a59973374", "current_trial": 119, "dateTime": 1664559180586, "trialdata": {"rt": 511, "stimulus": "<p id='stroop-text' class='stroop-green'>RED</p>", "response": "g", "stimulus-type": "incongruent", "word": "red", "color": "green", "correct_response": "g", "trial_id": "stroop-trial-1-incongruent-24", "trial_type": "html-keyboard-response", "trial_index": 119, "time_elapsed": 265293, "internal_node_id": "0.0-6.0-24.0"}}, {"uniqueid": "w60361778:a59973374", "current_trial": 120, "dateTime": 1664559181557, "trialdata": {"rt": 468, "stimulus": "<p id='stroop-text' class='stroop-green'>BOTTLE</p>", "response": "g", "stimulus-type": "unrelated", "word": "BOTTLE", "color": "green", "correct_response": "g", "trial_id": "stroop-trial-1-unrelated-5", "trial_type": "html-keyboard-response", "trial_index": 120, "time_elapsed": 266264, "internal_node_id": "0.0-6.0-25.0"}}, {"uniqueid": "w60361778:a59973374", "current_trial": 121, "dateTime": 1664559182479, "trialdata": {"rt": 419, "stimulus": "<p id='stroop-text' class='stroop-green'>GREEN</p>", "response": "g", "stimulus-type": "congruent", "word": "green", "color": "green", "correct_response": "g", "trial_id": "stroop-trial-1-congruent-17", "trial_type": "html-keyboard-response", "trial_index": 121, "time_elapsed": 267186, "internal_node_id": "0.0-6.0-26.0"}}, {"uniqueid": "w60361778:a59973374", "current_trial": 122, "dateTime": 1664559183336, "trialdata": {"rt": 354, "stimulus": "<p id='stroop-text' class='stroop-green'>GREEN</p>", "response": "g", "stimulus-type": "congruent", "word": "green", "color": "green", "correct_response": "g", "trial_id": "stroop-trial-1-congruent-21", "trial_type": "html-keyboard-response", "trial_index": 122, "time_elapsed": 268044, "internal_node_id": "0.0-6.0-27.0"}}, {"uniqueid": "w60361778:a59973374", "current_trial": 123, "dateTime": 1664559184194, "trialdata": {"rt": 353, "stimulus": "<p id='stroop-text' class='stroop-green'>RED</p>", "response": "g", "stimulus-type": "incongruent", "word": "red", "color": "green", "correct_response": "g", "trial_id": "stroop-trial-1-incongruent-20", "trial_type": "html-keyboard-response", "trial_index": 123, "time_elapsed": 268901, "internal_node_id": "0.0-6.0-28.0"}}, {"uniqueid": "w60361778:a59973374", "current_trial": 124, "dateTime": 1664559185148, "trialdata": {"rt": 449, "stimulus": "<p id='stroop-text' class='stroop-blue'>FORK</p>", "response": "b", "stimulus-type": "unrelated", "word": "FORK", "color": "blue", "correct_response": "b", "trial_id": "stroop-trial-1-unrelated-19", "trial_type": "html-keyboard-response", "trial_index": 124, "time_elapsed": 269855, "internal_node_id": "0.0-6.0-29.0"}}, {"uniqueid": "w60361778:a59973374", "current_trial": 125, "dateTime": 1664559186321, "trialdata": {"rt": 668, "stimulus": "<p id='stroop-text' class='stroop-red'>BRAIN</p>", "response": "r", "stimulus-type": "unrelated", "word": "BRAIN", "color": "red", "correct_response": "r", "trial_id": "stroop-trial-1-unrelated-11", "trial_type": "html-keyboard-response", "trial_index": 125, "time_elapsed": 271029, "internal_node_id": "0.0-6.0-30.0"}}, {"uniqueid": "w60361778:a59973374", "current_trial": 126, "dateTime": 1664559187408, "trialdata": {"rt": 583, "stimulus": "<p id='stroop-text' class='stroop-green'>GREEN</p>", "response": "g", "stimulus-type": "congruent", "word": "green", "color": "green", "correct_response": "g", "trial_id": "stroop-trial-1-congruent-1", "trial_type": "html-keyboard-response", "trial_index": 126, "time_elapsed": 272116, "internal_node_id": "0.0-6.0-31.0"}}, {"uniqueid": "w60361778:a59973374", "current_trial": 127, "dateTime": 1664559188562, "trialdata": {"rt": 649, "stimulus": "<p id='stroop-text' class='stroop-blue'>SHIP</p>", "response": "b", "stimulus-type": "unrelated", "word": "SHIP", "color": "blue", "correct_response": "b", "trial_id": "stroop-trial-1-unrelated-21", "trial_type": "html-keyboard-response", "trial_index": 127, "time_elapsed": 273269, "internal_node_id": "0.0-6.0-32.0"}}, {"uniqueid": "w60361778:a59973374", "current_trial": 128, "dateTime": 1664559189907, "trialdata": {"rt": 840, "stimulus": "<p id='stroop-text' class='stroop-red'>RED</p>", "response": "r", "stimulus-type": "congruent", "word": "red", "color": "red", "correct_response": "r", "trial_id": "stroop-trial-1-congruent-11", "trial_type": "html-keyboard-response", "trial_index": 128, "time_elapsed": 274614, "internal_node_id": "0.0-6.0-33.0"}}, {"uniqueid": "w60361778:a59973374", "current_trial": 129, "dateTime": 1664559191158, "trialdata": {"rt": 747, "stimulus": "<p id='stroop-text' class='stroop-yellow'>RED</p>", "response": "y", "stimulus-type": "incongruent", "word": "red", "color": "yellow", "correct_response": "y", "trial_id": "stroop-trial-1-incongruent-16", "trial_type": "html-keyboard-response", "trial_index": 129, "time_elapsed": 275865, "internal_node_id": "0.0-6.0-34.0"}}, {"uniqueid": "w60361778:a59973374", "current_trial": 130, "dateTime": 1664559192399, "trialdata": {"rt": 736, "stimulus": "<p id='stroop-text' class='stroop-blue'>BLUE</p>", "response": "b", "stimulus-type": "congruent", "word": "blue", "color": "blue", "correct_response": "b", "trial_id": "stroop-trial-1-congruent-6", "trial_type": "html-keyboard-response", "trial_index": 130, "time_elapsed": 277106, "internal_node_id": "0.0-6.0-35.0"}}, {"uniqueid": "w60361778:a59973374", "current_trial": 131, "dateTime": 1664559193359, "trialdata": {"rt": 456, "stimulus": "<p id='stroop-text' class='stroop-blue'>MONKEY</p>", "response": "b", "stimulus-type": "unrelated", "word": "MONKEY", "color": "blue", "correct_response": "b", "trial_id": "stroop-trial-1-unrelated-14", "trial_type": "html-keyboard-response", "trial_index": 131, "time_elapsed": 278067, "internal_node_id": "0.0-6.0-36.0"}}, {"uniqueid": "w60361778:a59973374", "current_trial": 132, "dateTime": 1664559194248, "trialdata": {"rt": 384, "stimulus": "<p id='stroop-text' class='stroop-blue'>MONKEY</p>", "response": "b", "stimulus-type": "unrelated", "word": "MONKEY", "color": "blue", "correct_response": "b", "trial_id": "stroop-trial-1-unrelated-22", "trial_type": "html-keyboard-response", "trial_index": 132, "time_elapsed": 278956, "internal_node_id": "0.0-6.0-37.0"}}, {"uniqueid": "w60361778:a59973374", "current_trial": 133, "dateTime": 1664559195422, "trialdata": {"rt": 669, "stimulus": "<p id='stroop-text' class='stroop-yellow'>GREEN</p>", "response": "y", "stimulus-type": "incongruent", "word": "green", "color": "yellow", "correct_response": "y", "trial_id": "stroop-trial-1-incongruent-9", "trial_type": "html-keyboard-response", "trial_index": 133, "time_elapsed": 280129, "internal_node_id": "0.0-6.0-38.0"}}, {"uniqueid": "w60361778:a59973374", "current_trial": 134, "dateTime": 1664559196446, "trialdata": {"rt": 520, "stimulus": "<p id='stroop-text' class='stroop-red'>RED</p>", "response": "r", "stimulus-type": "congruent", "word": "red", "color": "red", "correct_response": "r", "trial_id": "stroop-trial-1-congruent-13", "trial_type": "html-keyboard-response", "trial_index": 134, "time_elapsed": 281153, "internal_node_id": "0.0-6.0-39.0"}}, {"uniqueid": "w60361778:a59973374", "current_trial": 135, "dateTime": 1664559197645, "trialdata": {"rt": 695, "stimulus": "<p id='stroop-text' class='stroop-green'>GREEN</p>", "response": "g", "stimulus-type": "congruent", "word": "green", "color": "green", "correct_response": "g", "trial_id": "stroop-trial-1-congruent-27", "trial_type": "html-keyboard-response", "trial_index": 135, "time_elapsed": 282352, "internal_node_id": "0.0-6.0-40.0"}}, {"uniqueid": "w60361778:a59973374", "current_trial": 136, "dateTime": 1664559198749, "trialdata": {"rt": 599, "stimulus": "<p id='stroop-text' class='stroop-blue'>MONKEY</p>", "response": "b", "stimulus-type": "unrelated", "word": "MONKEY", "color": "blue", "correct_response": "b", "trial_id": "stroop-trial-1-unrelated-15", "trial_type": "html-keyboard-response", "trial_index": 136, "time_elapsed": 283456, "internal_node_id": "0.0-6.0-41.0"}}, {"uniqueid": "w60361778:a59973374", "current_trial": 137, "dateTime": 1664559199660, "trialdata": {"rt": 406, "stimulus": "<p id='stroop-text' class='stroop-blue'>BLUE</p>", "response": "b", "stimulus-type": "congruent", "word": "blue", "color": "blue", "correct_response": "b", "trial_id": "stroop-trial-1-congruent-9", "trial_type": "html-keyboard-response", "trial_index": 137, "time_elapsed": 284367, "internal_node_id": "0.0-6.0-42.0"}}, {"uniqueid": "w60361778:a59973374", "current_trial": 138, "dateTime": 1664559200734, "trialdata": {"rt": 570, "stimulus": "<p id='stroop-text' class='stroop-yellow'>YELLOW</p>", "response": "y", "stimulus-type": "congruent", "word": "yellow", "color": "yellow", "correct_response": "y", "trial_id": "stroop-trial-1-congruent-28", "trial_type": "html-keyboard-response", "trial_index": 138, "time_elapsed": 285442, "internal_node_id": "0.0-6.0-43.0"}}, {"uniqueid": "w60361778:a59973374", "current_trial": 139, "dateTime": 1664559201946, "trialdata": {"rt": 708, "stimulus": "<p id='stroop-text' class='stroop-green'>RED</p>", "response": "g", "stimulus-type": "incongruent", "word": "red", "color": "green", "correct_response": "g", "trial_id": "stroop-trial-1-incongruent-8", "trial_type": "html-keyboard-response", "trial_index": 139, "time_elapsed": 286654, "internal_node_id": "0.0-6.0-44.0"}}, {"uniqueid": "w60361778:a59973374", "current_trial": 140, "dateTime": 1664559203241, "trialdata": {"rt": 791, "stimulus": "<p id='stroop-text' class='stroop-blue'>BLUE</p>", "response": "b", "stimulus-type": "congruent", "word": "blue", "color": "blue", "correct_response": "b", "trial_id": "stroop-trial-1-congruent-24", "trial_type": "html-keyboard-response", "trial_index": 140, "time_elapsed": 287949, "internal_node_id": "0.0-6.0-45.0"}}, {"uniqueid": "w60361778:a59973374", "current_trial": 141, "dateTime": 1664559204347, "trialdata": {"rt": 601, "stimulus": "<p id='stroop-text' class='stroop-blue'>GREEN</p>", "response": "b", "stimulus-type": "incongruent", "word": "green", "color": "blue", "correct_response": "b", "trial_id": "stroop-trial-1-incongruent-17", "trial_type": "html-keyboard-response", "trial_index": 141, "time_elapsed": 289054, "internal_node_id": "0.0-6.0-46.0"}}, {"uniqueid": "w60361778:a59973374", "current_trial": 142, "dateTime": 1664559205872, "trialdata": {"rt": 1021, "stimulus": "<p id='stroop-text' class='stroop-red'>RED</p>", "response": "r", "stimulus-type": "congruent", "word": "red", "color": "red", "correct_response": "r", "trial_id": "stroop-trial-1-congruent-20", "trial_type": "html-keyboard-response", "trial_index": 142, "time_elapsed": 290579, "internal_node_id": "0.0-6.0-47.0"}}, {"uniqueid": "w60361778:a59973374", "current_trial": 143, "dateTime": 1664559207157, "trialdata": {"rt": 782, "stimulus": "<p id='stroop-text' class='stroop-blue'>WINDOW</p>", "response": "b", "stimulus-type": "unrelated", "word": "WINDOW", "color": "blue", "correct_response": "b", "trial_id": "stroop-trial-1-unrelated-8", "trial_type": "html-keyboard-response", "trial_index": 143, "time_elapsed": 291865, "internal_node_id": "0.0-6.0-48.0"}}, {"uniqueid": "w60361778:a59973374", "current_trial": 144, "dateTime": 1664559208385, "trialdata": {"rt": 723, "stimulus": "<p id='stroop-text' class='stroop-red'>YELLOW</p>", "response": "b", "stimulus-type": "incongruent", "word": "yellow", "color": "red", "correct_response": "r", "trial_id": "stroop-trial-1-incongruent-29", "trial_type": "html-keyboard-response", "trial_index": 144, "time_elapsed": 293093, "internal_node_id": "0.0-6.0-49.0"}}, {"uniqueid": "w60361778:a59973374", "current_trial": 145, "dateTime": 1664559209912, "trialdata": {"rt": 1021, "stimulus": "<p id='stroop-text' class='stroop-red'>RED</p>", "response": "r", "stimulus-type": "congruent", "word": "red", "color": "red", "correct_response": "r", "trial_id": "stroop-trial-1-congruent-19", "trial_type": "html-keyboard-response", "trial_index": 145, "time_elapsed": 294620, "internal_node_id": "0.0-6.0-50.0"}}, {"uniqueid": "w60361778:a59973374", "current_trial": 146, "dateTime": 1664559211219, "trialdata": {"rt": 802, "stimulus": "<p id='stroop-text' class='stroop-green'>BOTTLE</p>", "response": "g", "stimulus-type": "unrelated", "word": "BOTTLE", "color": "green", "correct_response": "g", "trial_id": "stroop-trial-1-unrelated-16", "trial_type": "html-keyboard-response", "trial_index": 146, "time_elapsed": 295926, "internal_node_id": "0.0-6.0-51.0"}}, {"uniqueid": "w60361778:a59973374", "current_trial": 147, "dateTime": 1664559212232, "trialdata": {"rt": 509, "stimulus": "<p id='stroop-text' class='stroop-green'>RED</p>", "response": "g", "stimulus-type": "incongruent", "word": "red", "color": "green", "correct_response": "g", "trial_id": "stroop-trial-1-incongruent-18", "trial_type": "html-keyboard-response", "trial_index": 147, "time_elapsed": 296939, "internal_node_id": "0.0-6.0-52.0"}}, {"uniqueid": "w60361778:a59973374", "current_trial": 148, "dateTime": 1664559213314, "trialdata": {"rt": 577, "stimulus": "<p id='stroop-text' class='stroop-yellow'>YELLOW</p>", "response": "y", "stimulus-type": "congruent", "word": "yellow", "color": "yellow", "correct_response": "y", "trial_id": "stroop-trial-1-congruent-3", "trial_type": "html-keyboard-response", "trial_index": 148, "time_elapsed": 298021, "internal_node_id": "0.0-6.0-53.0"}}, {"uniqueid": "w60361778:a59973374", "current_trial": 149, "dateTime": 1664559215019, "trialdata": {"rt": 1200, "stimulus": "<p id='stroop-text' class='stroop-green'>BLUE</p>", "response": "g", "stimulus-type": "incongruent", "word": "blue", "color": "green", "correct_response": "g", "trial_id": "stroop-trial-1-incongruent-19", "trial_type": "html-keyboard-response", "trial_index": 149, "time_elapsed": 299727, "internal_node_id": "0.0-6.0-54.0"}}, {"uniqueid": "w60361778:a59973374", "current_trial": 150, "dateTime": 1664559216071, "trialdata": {"rt": 546, "stimulus": "<p id='stroop-text' class='stroop-blue'>STONE</p>", "response": "b", "stimulus-type": "unrelated", "word": "STONE", "color": "blue", "correct_response": "b", "trial_id": "stroop-trial-1-unrelated-27", "trial_type": "html-keyboard-response", "trial_index": 150, "time_elapsed": 300778, "internal_node_id": "0.0-6.0-55.0"}}, {"uniqueid": "w60361778:a59973374", "current_trial": 151, "dateTime": 1664559217265, "trialdata": {"rt": 690, "stimulus": "<p id='stroop-text' class='stroop-yellow'>BOAT</p>", "response": "y", "stimulus-type": "unrelated", "word": "BOAT", "color": "yellow", "correct_response": "y", "trial_id": "stroop-trial-1-unrelated-7", "trial_type": "html-keyboard-response", "trial_index": 151, "time_elapsed": 301972, "internal_node_id": "0.0-6.0-56.0"}}, {"uniqueid": "w60361778:a59973374", "current_trial": 152, "dateTime": 1664559218587, "trialdata": {"rt": 817, "stimulus": "<p id='stroop-text' class='stroop-green'>BLUE</p>", "response": "g", "stimulus-type": "incongruent", "word": "blue", "color": "green", "correct_response": "g", "trial_id": "stroop-trial-1-incongruent-6", "trial_type": "html-keyboard-response", "trial_index": 152, "time_elapsed": 303294, "internal_node_id": "0.0-6.0-57.0"}}, {"uniqueid": "w60361778:a59973374", "current_trial": 153, "dateTime": 1664559219668, "trialdata": {"rt": 577, "stimulus": "<p id='stroop-text' class='stroop-green'>YELLOW</p>", "response": "g", "stimulus-type": "incongruent", "word": "yellow", "color": "green", "correct_response": "g", "trial_id": "stroop-trial-1-incongruent-3", "trial_type": "html-keyboard-response", "trial_index": 153, "time_elapsed": 304375, "internal_node_id": "0.0-6.0-58.0"}}, {"uniqueid": "w60361778:a59973374", "current_trial": 154, "dateTime": 1664559220554, "trialdata": {"rt": 382, "stimulus": "<p id='stroop-text' class='stroop-green'>GREEN</p>", "response": "g", "stimulus-type": "congruent", "word": "green", "color": "green", "correct_response": "g", "trial_id": "stroop-trial-1-congruent-16", "trial_type": "html-keyboard-response", "trial_index": 154, "time_elapsed": 305261, "internal_node_id": "0.0-6.0-59.0"}}, {"uniqueid": "w60361778:a59973374", "current_trial": 155, "dateTime": 1664559221465, "trialdata": {"rt": 408, "stimulus": "<p id='stroop-text' class='stroop-green'>RED</p>", "response": "g", "stimulus-type": "incongruent", "word": "red", "color": "green", "correct_response": "g", "trial_id": "stroop-trial-1-incongruent-15", "trial_type": "html-keyboard-response", "trial_index": 155, "time_elapsed": 306172, "internal_node_id": "0.0-6.0-60.0"}}, {"uniqueid": "w60361778:a59973374", "current_trial": 156, "dateTime": 1664559222387, "trialdata": {"rt": 418, "stimulus": "<p id='stroop-text' class='stroop-blue'>BLUE</p>", "response": "b", "stimulus-type": "congruent", "word": "blue", "color": "blue", "correct_response": "b", "trial_id": "stroop-trial-1-congruent-10", "trial_type": "html-keyboard-response", "trial_index": 156, "time_elapsed": 307094, "internal_node_id": "0.0-6.0-61.0"}}, {"uniqueid": "w60361778:a59973374", "current_trial": 157, "dateTime": 1664559223348, "trialdata": {"rt": 456, "stimulus": "<p id='stroop-text' class='stroop-blue'>YELLOW</p>", "response": "b", "stimulus-type": "incongruent", "word": "yellow", "color": "blue", "correct_response": "b", "trial_id": "stroop-trial-1-incongruent-21", "trial_type": "html-keyboard-response", "trial_index": 157, "time_elapsed": 308055, "internal_node_id": "0.0-6.0-62.0"}}, {"uniqueid": "w60361778:a59973374", "current_trial": 158, "dateTime": 1664559224572, "trialdata": {"rt": 720, "stimulus": "<p id='stroop-text' class='stroop-yellow'>RED</p>", "response": "y", "stimulus-type": "incongruent", "word": "red", "color": "yellow", "correct_response": "y", "trial_id": "stroop-trial-1-incongruent-1", "trial_type": "html-keyboard-response", "trial_index": 158, "time_elapsed": 309279, "internal_node_id": "0.0-6.0-63.0"}}, {"uniqueid": "w60361778:a59973374", "current_trial": 159, "dateTime": 1664559225510, "trialdata": {"rt": 433, "stimulus": "<p id='stroop-text' class='stroop-yellow'>STONE</p>", "response": "y", "stimulus-type": "unrelated", "word": "STONE", "color": "yellow", "correct_response": "y", "trial_id": "stroop-trial-1-unrelated-28", "trial_type": "html-keyboard-response", "trial_index": 159, "time_elapsed": 310218, "internal_node_id": "0.0-6.0-64.0"}}, {"uniqueid": "w60361778:a59973374", "current_trial": 160, "dateTime": 1664559226613, "trialdata": {"rt": 598, "stimulus": "<p id='stroop-text' class='stroop-green'>GREEN</p>", "response": "g", "stimulus-type": "congruent", "word": "green", "color": "green", "correct_response": "g", "trial_id": "stroop-trial-1-congruent-12", "trial_type": "html-keyboard-response", "trial_index": 160, "time_elapsed": 311321, "internal_node_id": "0.0-6.0-65.0"}}, {"uniqueid": "w60361778:a59973374", "current_trial": 161, "dateTime": 1664559227613, "trialdata": {"rt": 496, "stimulus": "<p id='stroop-text' class='stroop-red'>RED</p>", "response": "r", "stimulus-type": "congruent", "word": "red", "color": "red", "correct_response": "r", "trial_id": "stroop-trial-1-congruent-15", "trial_type": "html-keyboard-response", "trial_index": 161, "time_elapsed": 312320, "internal_node_id": "0.0-6.0-66.0"}}, {"uniqueid": "w60361778:a59973374", "current_trial": 162, "dateTime": 1664559228498, "trialdata": {"rt": 380, "stimulus": "<p id='stroop-text' class='stroop-red'>CHAIR</p>", "response": "r", "stimulus-type": "unrelated", "word": "CHAIR", "color": "red", "correct_response": "r", "trial_id": "stroop-trial-1-unrelated-13", "trial_type": "html-keyboard-response", "trial_index": 162, "time_elapsed": 313205, "internal_node_id": "0.0-6.0-67.0"}}, {"uniqueid": "w60361778:a59973374", "current_trial": 163, "dateTime": 1664559229484, "trialdata": {"rt": 481, "stimulus": "<p id='stroop-text' class='stroop-green'>MONKEY</p>", "response": "b", "stimulus-type": "unrelated", "word": "MONKEY", "color": "green", "correct_response": "g", "trial_id": "stroop-trial-1-unrelated-24", "trial_type": "html-keyboard-response", "trial_index": 163, "time_elapsed": 314191, "internal_node_id": "0.0-6.0-68.0"}}, {"uniqueid": "w60361778:a59973374", "current_trial": 164, "dateTime": 1664559230522, "trialdata": {"rt": 534, "stimulus": "<p id='stroop-text' class='stroop-green'>GREEN</p>", "response": "g", "stimulus-type": "congruent", "word": "green", "color": "green", "correct_response": "g", "trial_id": "stroop-trial-1-congruent-22", "trial_type": "html-keyboard-response", "trial_index": 164, "time_elapsed": 315230, "internal_node_id": "0.0-6.0-69.0"}}, {"uniqueid": "w60361778:a59973374", "current_trial": 165, "dateTime": 1664559231642, "trialdata": {"rt": 616, "stimulus": "<p id='stroop-text' class='stroop-red'>YELLOW</p>", "response": "y", "stimulus-type": "incongruent", "word": "yellow", "color": "red", "correct_response": "r", "trial_id": "stroop-trial-1-incongruent-2", "trial_type": "html-keyboard-response", "trial_index": 165, "time_elapsed": 316349, "internal_node_id": "0.0-6.0-70.0"}}, {"uniqueid": "w60361778:a59973374", "current_trial": 166, "dateTime": 1664559232996, "trialdata": {"rt": 850, "stimulus": "<p id='stroop-text' class='stroop-blue'>BLUE</p>", "response": "b", "stimulus-type": "congruent", "word": "blue", "color": "blue", "correct_response": "b", "trial_id": "stroop-trial-1-congruent-2", "trial_type": "html-keyboard-response", "trial_index": 166, "time_elapsed": 317703, "internal_node_id": "0.0-6.0-71.0"}}, {"uniqueid": "w60361778:a59973374", "current_trial": 167, "dateTime": 1664559234132, "trialdata": {"rt": 632, "stimulus": "<p id='stroop-text' class='stroop-yellow'>BLUE</p>", "response": "y", "stimulus-type": "incongruent", "word": "blue", "color": "yellow", "correct_response": "y", "trial_id": "stroop-trial-1-incongruent-4", "trial_type": "html-keyboard-response", "trial_index": 167, "time_elapsed": 318839, "internal_node_id": "0.0-6.0-72.0"}}, {"uniqueid": "w60361778:a59973374", "current_trial": 168, "dateTime": 1664559235292, "trialdata": {"rt": 656, "stimulus": "<p id='stroop-text' class='stroop-green'>BRAIN</p>", "response": "g", "stimulus-type": "unrelated", "word": "BRAIN", "color": "green", "correct_response": "g", "trial_id": "stroop-trial-1-unrelated-26", "trial_type": "html-keyboard-response", "trial_index": 168, "time_elapsed": 319999, "internal_node_id": "0.0-6.0-73.0"}}, {"uniqueid": "w60361778:a59973374", "current_trial": 169, "dateTime": 1664559236505, "trialdata": {"rt": 708, "stimulus": "<p id='stroop-text' class='stroop-blue'>RED</p>", "response": "b", "stimulus-type": "incongruent", "word": "red", "color": "blue", "correct_response": "b", "trial_id": "stroop-trial-1-incongruent-23", "trial_type": "html-keyboard-response", "trial_index": 169, "time_elapsed": 321212, "internal_node_id": "0.0-6.0-74.0"}}, {"uniqueid": "w60361778:a59973374", "current_trial": 170, "dateTime": 1664559237659, "trialdata": {"rt": 650, "stimulus": "<p id='stroop-text' class='stroop-red'>CHAIR</p>", "response": "r", "stimulus-type": "unrelated", "word": "CHAIR", "color": "red", "correct_response": "r", "trial_id": "stroop-trial-1-unrelated-17", "trial_type": "html-keyboard-response", "trial_index": 170, "time_elapsed": 322366, "internal_node_id": "0.0-6.0-75.0"}}, {"uniqueid": "w60361778:a59973374", "current_trial": 171, "dateTime": 1664559238970, "trialdata": {"rt": 807, "stimulus": "<p id='stroop-text' class='stroop-green'>RED</p>", "response": "g", "stimulus-type": "incongruent", "word": "red", "color": "green", "correct_response": "g", "trial_id": "stroop-trial-1-incongruent-7", "trial_type": "html-keyboard-response", "trial_index": 171, "time_elapsed": 323677, "internal_node_id": "0.0-6.0-76.0"}}, {"uniqueid": "w60361778:a59973374", "current_trial": 172, "dateTime": 1664559240902, "trialdata": {"rt": 1428, "stimulus": "<p id='stroop-text' class='stroop-red'>GREEN</p>", "response": "r", "stimulus-type": "incongruent", "word": "green", "color": "red", "correct_response": "r", "trial_id": "stroop-trial-1-incongruent-30", "trial_type": "html-keyboard-response", "trial_index": 172, "time_elapsed": 325610, "internal_node_id": "0.0-6.0-77.0"}}, {"uniqueid": "w60361778:a59973374", "current_trial": 173, "dateTime": 1664559242132, "trialdata": {"rt": 724, "stimulus": "<p id='stroop-text' class='stroop-yellow'>DOG</p>", "response": "y", "stimulus-type": "unrelated", "word": "DOG", "color": "yellow", "correct_response": "y", "trial_id": "stroop-trial-1-unrelated-25", "trial_type": "html-keyboard-response", "trial_index": 173, "time_elapsed": 326839, "internal_node_id": "0.0-6.0-78.0"}}, {"uniqueid": "w60361778:a59973374", "current_trial": 174, "dateTime": 1664559243389, "trialdata": {"rt": 753, "stimulus": "<p id='stroop-text' class='stroop-green'>DOG</p>", "response": "g", "stimulus-type": "unrelated", "word": "DOG", "color": "green", "correct_response": "g", "trial_id": "stroop-trial-1-unrelated-30", "trial_type": "html-keyboard-response", "trial_index": 174, "time_elapsed": 328097, "internal_node_id": "0.0-6.0-79.0"}}, {"uniqueid": "w60361778:a59973374", "current_trial": 175, "dateTime": 1664559244785, "trialdata": {"rt": 890, "stimulus": "<p id='stroop-text' class='stroop-red'>BLUE</p>", "response": "r", "stimulus-type": "incongruent", "word": "blue", "color": "red", "correct_response": "r", "trial_id": "stroop-trial-1-incongruent-27", "trial_type": "html-keyboard-response", "trial_index": 175, "time_elapsed": 329492, "internal_node_id": "0.0-6.0-80.0"}}, {"uniqueid": "w60361778:a59973374", "current_trial": 176, "dateTime": 1664559245802, "trialdata": {"rt": 513, "stimulus": "<p id='stroop-text' class='stroop-red'>BRAIN</p>", "response": "r", "stimulus-type": "unrelated", "word": "BRAIN", "color": "red", "correct_response": "r", "trial_id": "stroop-trial-1-unrelated-23", "trial_type": "html-keyboard-response", "trial_index": 176, "time_elapsed": 330510, "internal_node_id": "0.0-6.0-81.0"}}, {"uniqueid": "w60361778:a59973374", "current_trial": 177, "dateTime": 1664559247155, "trialdata": {"rt": 848, "stimulus": "<p id='stroop-text' class='stroop-yellow'>DOG</p>", "response": "y", "stimulus-type": "unrelated", "word": "DOG", "color": "yellow", "correct_response": "y", "trial_id": "stroop-trial-1-unrelated-2", "trial_type": "html-keyboard-response", "trial_index": 177, "time_elapsed": 331862, "internal_node_id": "0.0-6.0-82.0"}}, {"uniqueid": "w60361778:a59973374", "current_trial": 178, "dateTime": 1664559248398, "trialdata": {"rt": 739, "stimulus": "<p id='stroop-text' class='stroop-red'>BLUE</p>", "response": "r", "stimulus-type": "incongruent", "word": "blue", "color": "red", "correct_response": "r", "trial_id": "stroop-trial-1-incongruent-25", "trial_type": "html-keyboard-response", "trial_index": 178, "time_elapsed": 333106, "internal_node_id": "0.0-6.0-83.0"}}, {"uniqueid": "w60361778:a59973374", "current_trial": 179, "dateTime": 1664559249814, "trialdata": {"rt": 911, "stimulus": "<p id='stroop-text' class='stroop-blue'>GREEN</p>", "response": "b", "stimulus-type": "incongruent", "word": "green", "color": "blue", "correct_response": "b", "trial_id": "stroop-trial-1-incongruent-13", "trial_type": "html-keyboard-response", "trial_index": 179, "time_elapsed": 334522, "internal_node_id": "0.0-6.0-84.0"}}, {"uniqueid": "w60361778:a59973374", "current_trial": 180, "dateTime": 1664559251384, "trialdata": {"rt": 1065, "stimulus": "<p id='stroop-text' class='stroop-yellow'>SHIP</p>", "response": "r", "stimulus-type": "unrelated", "word": "SHIP", "color": "yellow", "correct_response": "y", "trial_id": "stroop-trial-1-unrelated-10", "trial_type": "html-keyboard-response", "trial_index": 180, "time_elapsed": 336091, "internal_node_id": "0.0-6.0-85.0"}}, {"uniqueid": "w60361778:a59973374", "current_trial": 181, "dateTime": 1664559252525, "trialdata": {"rt": 637, "stimulus": "<p id='stroop-text' class='stroop-red'>CHAIR</p>", "response": "r", "stimulus-type": "unrelated", "word": "CHAIR", "color": "red", "correct_response": "r", "trial_id": "stroop-trial-1-unrelated-29", "trial_type": "html-keyboard-response", "trial_index": 181, "time_elapsed": 337233, "internal_node_id": "0.0-6.0-86.0"}}, {"uniqueid": "w60361778:a59973374", "current_trial": 182, "dateTime": 1664559253629, "trialdata": {"rt": 600, "stimulus": "<p id='stroop-text' class='stroop-green'>GREEN</p>", "response": "g", "stimulus-type": "congruent", "word": "green", "color": "green", "correct_response": "g", "trial_id": "stroop-trial-1-congruent-8", "trial_type": "html-keyboard-response", "trial_index": 182, "time_elapsed": 338337, "internal_node_id": "0.0-6.0-87.0"}}, {"uniqueid": "w60361778:a59973374", "current_trial": 183, "dateTime": 1664559255010, "trialdata": {"rt": 876, "stimulus": "<p id='stroop-text' class='stroop-red'>GREEN</p>", "response": "r", "stimulus-type": "incongruent", "word": "green", "color": "red", "correct_response": "r", "trial_id": "stroop-trial-1-incongruent-12", "trial_type": "html-keyboard-response", "trial_index": 183, "time_elapsed": 339718, "internal_node_id": "0.0-6.0-88.0"}}, {"uniqueid": "w60361778:a59973374", "current_trial": 184, "dateTime": 1664559257037, "trialdata": {"rt": 1521, "stimulus": "<p id='stroop-text' class='stroop-green'>RED</p>", "response": "g", "stimulus-type": "incongruent", "word": "red", "color": "green", "correct_response": "g", "trial_id": "stroop-trial-1-incongruent-5", "trial_type": "html-keyboard-response", "trial_index": 184, "time_elapsed": 341744, "internal_node_id": "0.0-6.0-89.0"}}, {"uniqueid": "w60361778:a59973374", "current_trial": 185, "dateTime": 1664559259598, "trialdata": {"rt": 2056, "stimulus": "  <h1> End of block! </h1>\n\n  You have reached the end of the block 2/5. If you need a short break, feel free to take one now before moving on.\n\n  <br><br>\n  In the next block, you will complete another 90 rounds of this game.\n\n  <br><br>\n  <div style='text-align: center;'>Press <code>space</code> to begin.</div>\n  <br><br>\n<div style='text-align: center;'>(If the experiment doesn't continue, try clicking on the text and then pressing <code>space</code>.)</div>", "response": " ", "trial_id": "stroop_1_ready_3", "trial_type": "html-keyboard-response", "trial_index": 185, "time_elapsed": 344306, "internal_node_id": "0.0-7.0"}}, {"uniqueid": "w60361778:a59973374", "current_trial": 186, "dateTime": 1664559260331, "trialdata": {"rt": 729, "stimulus": "<p id='stroop-text' class='stroop-red'>BOTTLE</p>", "response": "r", "stimulus-type": "unrelated", "word": "BOTTLE", "color": "red", "correct_response": "r", "trial_id": "stroop-trial-1-unrelated-13", "trial_type": "html-keyboard-response", "trial_index": 186, "time_elapsed": 345039, "internal_node_id": "0.0-8.0-0.0"}}, {"uniqueid": "w60361778:a59973374", "current_trial": 187, "dateTime": 1664559261406, "trialdata": {"rt": 571, "stimulus": "<p id='stroop-text' class='stroop-red'>YELLOW</p>", "response": "r", "stimulus-type": "incongruent", "word": "yellow", "color": "red", "correct_response": "r", "trial_id": "stroop-trial-1-incongruent-5", "trial_type": "html-keyboard-response", "trial_index": 187, "time_elapsed": 346113, "internal_node_id": "0.0-8.0-1.0"}}, {"uniqueid": "w60361778:a59973374", "current_trial": 188, "dateTime": 1664559262559, "trialdata": {"rt": 649, "stimulus": "<p id='stroop-text' class='stroop-blue'>BLUE</p>", "response": "b", "stimulus-type": "congruent", "word": "blue", "color": "blue", "correct_response": "b", "trial_id": "stroop-trial-1-congruent-21", "trial_type": "html-keyboard-response", "trial_index": 188, "time_elapsed": 347266, "internal_node_id": "0.0-8.0-2.0"}}, {"uniqueid": "w60361778:a59973374", "current_trial": 189, "dateTime": 1664559263635, "trialdata": {"rt": 572, "stimulus": "<p id='stroop-text' class='stroop-green'>DOG</p>", "response": "g", "stimulus-type": "unrelated", "word": "DOG", "color": "green", "correct_response": "g", "trial_id": "stroop-trial-1-unrelated-8", "trial_type": "html-keyboard-response", "trial_index": 189, "time_elapsed": 348342, "internal_node_id": "0.0-8.0-3.0"}}, {"uniqueid": "w60361778:a59973374", "current_trial": 190, "dateTime": 1664559264688, "trialdata": {"rt": 549, "stimulus": "<p id='stroop-text' class='stroop-blue'>BLUE</p>", "response": "b", "stimulus-type": "congruent", "word": "blue", "color": "blue", "correct_response": "b", "trial_id": "stroop-trial-1-congruent-14", "trial_type": "html-keyboard-response", "trial_index": 190, "time_elapsed": 349396, "internal_node_id": "0.0-8.0-4.0"}}, {"uniqueid": "w60361778:a59973374", "current_trial": 191, "dateTime": 1664559265877, "trialdata": {"rt": 684, "stimulus": "<p id='stroop-text' class='stroop-yellow'>BRAIN</p>", "response": "y", "stimulus-type": "unrelated", "word": "BRAIN", "color": "yellow", "correct_response": "y", "trial_id": "stroop-trial-1-unrelated-17", "trial_type": "html-keyboard-response", "trial_index": 191, "time_elapsed": 350584, "internal_node_id": "0.0-8.0-5.0"}}, {"uniqueid": "w60361778:a59973374", "current_trial": 192, "dateTime": 1664559267135, "trialdata": {"rt": 755, "stimulus": "<p id='stroop-text' class='stroop-blue'>BOAT</p>", "response": "b", "stimulus-type": "unrelated", "word": "BOAT", "color": "blue", "correct_response": "b", "trial_id": "stroop-trial-1-unrelated-27", "trial_type": "html-keyboard-response", "trial_index": 192, "time_elapsed": 351842, "internal_node_id": "0.0-8.0-6.0"}}, {"uniqueid": "w60361778:a59973374", "current_trial": 193, "dateTime": 1664559268154, "trialdata": {"rt": 515, "stimulus": "<p id='stroop-text' class='stroop-blue'>BLUE</p>", "response": "b", "stimulus-type": "congruent", "word": "blue", "color": "blue", "correct_response": "b", "trial_id": "stroop-trial-1-congruent-26", "trial_type": "html-keyboard-response", "trial_index": 193, "time_elapsed": 352861, "internal_node_id": "0.0-8.0-7.0"}}, {"uniqueid": "w60361778:a59973374", "current_trial": 194, "dateTime": 1664559269718, "trialdata": {"rt": 1060, "stimulus": "<p id='stroop-text' class='stroop-green'>YELLOW</p>", "response": "g", "stimulus-type": "incongruent", "word": "yellow", "color": "green", "correct_response": "g", "trial_id": "stroop-trial-1-incongruent-23", "trial_type": "html-keyboard-response", "trial_index": 194, "time_elapsed": 354426, "internal_node_id": "0.0-8.0-8.0"}}, {"uniqueid": "w60361778:a59973374", "current_trial": 195, "dateTime": 1664559271101, "trialdata": {"rt": 879, "stimulus": "<p id='stroop-text' class='stroop-blue'>BLUE</p>", "response": "b", "stimulus-type": "congruent", "word": "blue", "color": "blue", "correct_response": "b", "trial_id": "stroop-trial-1-congruent-8", "trial_type": "html-keyboard-response", "trial_index": 195, "time_elapsed": 355808, "internal_node_id": "0.0-8.0-9.0"}}, {"uniqueid": "w60361778:a59973374", "current_trial": 196, "dateTime": 1664559272512, "trialdata": {"rt": 906, "stimulus": "<p id='stroop-text' class='stroop-yellow'>SHIP</p>", "response": "y", "stimulus-type": "unrelated", "word": "SHIP", "color": "yellow", "correct_response": "y", "trial_id": "stroop-trial-1-unrelated-23", "trial_type": "html-keyboard-response", "trial_index": 196, "time_elapsed": 357219, "internal_node_id": "0.0-8.0-10.0"}}, {"uniqueid": "w60361778:a59973374", "current_trial": 197, "dateTime": 1664559273608, "trialdata": {"rt": 593, "stimulus": "<p id='stroop-text' class='stroop-blue'>BLUE</p>", "response": "g", "stimulus-type": "congruent", "word": "blue", "color": "blue", "correct_response": "b", "trial_id": "stroop-trial-1-congruent-16", "trial_type": "html-keyboard-response", "trial_index": 197, "time_elapsed": 358315, "internal_node_id": "0.0-8.0-11.0"}}, {"uniqueid": "w60361778:a59973374", "current_trial": 198, "dateTime": 1664559274767, "trialdata": {"rt": 654, "stimulus": "<p id='stroop-text' class='stroop-yellow'>WINDOW</p>", "response": "y", "stimulus-type": "unrelated", "word": "WINDOW", "color": "yellow", "correct_response": "y", "trial_id": "stroop-trial-1-unrelated-15", "trial_type": "html-keyboard-response", "trial_index": 198, "time_elapsed": 359474, "internal_node_id": "0.0-8.0-12.0"}}, {"uniqueid": "w60361778:a59973374", "current_trial": 199, "dateTime": 1664559276592, "trialdata": {"rt": 1321, "stimulus": "<p id='stroop-text' class='stroop-green'>YELLOW</p>", "response": "g", "stimulus-type": "incongruent", "word": "yellow", "color": "green", "correct_response": "g", "trial_id": "stroop-trial-1-incongruent-3", "trial_type": "html-keyboard-response", "trial_index": 199, "time_elapsed": 361299, "internal_node_id": "0.0-8.0-13.0"}}, {"uniqueid": "w60361778:a59973374", "current_trial": 200, "dateTime": 1664559277763, "trialdata": {"rt": 667, "stimulus": "<p id='stroop-text' class='stroop-red'>RED</p>", "response": "r", "stimulus-type": "congruent", "word": "red", "color": "red", "correct_response": "r", "trial_id": "stroop-trial-1-congruent-29", "trial_type": "html-keyboard-response", "trial_index": 200, "time_elapsed": 362471, "internal_node_id": "0.0-8.0-14.0"}}, {"uniqueid": "w60361778:a59973374", "current_trial": 201, "dateTime": 1664559278907, "trialdata": {"rt": 640, "stimulus": "<p id='stroop-text' class='stroop-blue'>BLUE</p>", "response": "b", "stimulus-type": "congruent", "word": "blue", "color": "blue", "correct_response": "b", "trial_id": "stroop-trial-1-congruent-24", "trial_type": "html-keyboard-response", "trial_index": 201, "time_elapsed": 363615, "internal_node_id": "0.0-8.0-15.0"}}, {"uniqueid": "w60361778:a59973374", "current_trial": 202, "dateTime": 1664559279874, "trialdata": {"rt": 462, "stimulus": "<p id='stroop-text' class='stroop-blue'>STONE</p>", "response": "b", "stimulus-type": "unrelated", "word": "STONE", "color": "blue", "correct_response": "b", "trial_id": "stroop-trial-1-unrelated-28", "trial_type": "html-keyboard-response", "trial_index": 202, "time_elapsed": 364581, "internal_node_id": "0.0-8.0-16.0"}}, {"uniqueid": "w60361778:a59973374", "current_trial": 203, "dateTime": 1664559280749, "trialdata": {"rt": 370, "stimulus": "<p id='stroop-text' class='stroop-blue'>BLUE</p>", "response": "b", "stimulus-type": "congruent", "word": "blue", "color": "blue", "correct_response": "b", "trial_id": "stroop-trial-1-congruent-10", "trial_type": "html-keyboard-response", "trial_index": 203, "time_elapsed": 365457, "internal_node_id": "0.0-8.0-17.0"}}, {"uniqueid": "w60361778:a59973374", "current_trial": 204, "dateTime": 1664559281950, "trialdata": {"rt": 696, "stimulus": "<p id='stroop-text' class='stroop-red'>BRAIN</p>", "response": "r", "stimulus-type": "unrelated", "word": "BRAIN", "color": "red", "correct_response": "r", "trial_id": "stroop-trial-1-unrelated-7", "trial_type": "html-keyboard-response", "trial_index": 204, "time_elapsed": 366658, "internal_node_id": "0.0-8.0-18.0"}}, {"uniqueid": "w60361778:a59973374", "current_trial": 205, "dateTime": 1664559282905, "trialdata": {"rt": 451, "stimulus": "<p id='stroop-text' class='stroop-red'>SHIP</p>", "response": "r", "stimulus-type": "unrelated", "word": "SHIP", "color": "red", "correct_response": "r", "trial_id": "stroop-trial-1-unrelated-12", "trial_type": "html-keyboard-response", "trial_index": 205, "time_elapsed": 367613, "internal_node_id": "0.0-8.0-19.0"}}, {"uniqueid": "w60361778:a59973374", "current_trial": 206, "dateTime": 1664559283816, "trialdata": {"rt": 407, "stimulus": "<p id='stroop-text' class='stroop-red'>BLUE</p>", "response": "r", "stimulus-type": "incongruent", "word": "blue", "color": "red", "correct_response": "r", "trial_id": "stroop-trial-1-incongruent-11", "trial_type": "html-keyboard-response", "trial_index": 206, "time_elapsed": 368524, "internal_node_id": "0.0-8.0-20.0"}}, {"uniqueid": "w60361778:a59973374", "current_trial": 207, "dateTime": 1664559284937, "trialdata": {"rt": 617, "stimulus": "<p id='stroop-text' class='stroop-yellow'>YELLOW</p>", "response": "y", "stimulus-type": "congruent", "word": "yellow", "color": "yellow", "correct_response": "y", "trial_id": "stroop-trial-1-congruent-1", "trial_type": "html-keyboard-response", "trial_index": 207, "time_elapsed": 369645, "internal_node_id": "0.0-8.0-21.0"}}, {"uniqueid": "w60361778:a59973374", "current_trial": 208, "dateTime": 1664559286484, "trialdata": {"rt": 1042, "stimulus": "<p id='stroop-text' class='stroop-green'>BLUE</p>", "response": "g", "stimulus-type": "incongruent", "word": "blue", "color": "green", "correct_response": "g", "trial_id": "stroop-trial-1-incongruent-21", "trial_type": "html-keyboard-response", "trial_index": 208, "time_elapsed": 371191, "internal_node_id": "0.0-8.0-22.0"}}, {"uniqueid": "w60361778:a59973374", "current_trial": 209, "dateTime": 1664559287611, "trialdata": {"rt": 624, "stimulus": "<p id='stroop-text' class='stroop-blue'>FORK</p>", "response": "b", "stimulus-type": "unrelated", "word": "FORK", "color": "blue", "correct_response": "b", "trial_id": "stroop-trial-1-unrelated-30", "trial_type": "html-keyboard-response", "trial_index": 209, "time_elapsed": 372319, "internal_node_id": "0.0-8.0-23.0"}}, {"uniqueid": "w60361778:a59973374", "current_trial": 210, "dateTime": 1664559288871, "trialdata": {"rt": 755, "stimulus": "<p id='stroop-text' class='stroop-red'>RED</p>", "response": "r", "stimulus-type": "congruent", "word": "red", "color": "red", "correct_response": "r", "trial_id": "stroop-trial-1-congruent-17", "trial_type": "html-keyboard-response", "trial_index": 210, "time_elapsed": 373579, "internal_node_id": "0.0-8.0-24.0"}}, {"uniqueid": "w60361778:a59973374", "current_trial": 211, "dateTime": 1664559289849, "trialdata": {"rt": 473, "stimulus": "<p id='stroop-text' class='stroop-red'>YELLOW</p>", "response": "r", "stimulus-type": "incongruent", "word": "yellow", "color": "red", "correct_response": "r", "trial_id": "stroop-trial-1-incongruent-14", "trial_type": "html-keyboard-response", "trial_index": 211, "time_elapsed": 374557, "internal_node_id": "0.0-8.0-25.0"}}, {"uniqueid": "w60361778:a59973374", "current_trial": 212, "dateTime": 1664559291081, "trialdata": {"rt": 728, "stimulus": "<p id='stroop-text' class='stroop-blue'>YELLOW</p>", "response": "g", "stimulus-type": "incongruent", "word": "yellow", "color": "blue", "correct_response": "b", "trial_id": "stroop-trial-1-incongruent-7", "trial_type": "html-keyboard-response", "trial_index": 212, "time_elapsed": 375789, "internal_node_id": "0.0-8.0-26.0"}}, {"uniqueid": "w60361778:a59973374", "current_trial": 213, "dateTime": 1664559292554, "trialdata": {"rt": 969, "stimulus": "<p id='stroop-text' class='stroop-red'>RED</p>", "response": "r", "stimulus-type": "congruent", "word": "red", "color": "red", "correct_response": "r", "trial_id": "stroop-trial-1-congruent-6", "trial_type": "html-keyboard-response", "trial_index": 213, "time_elapsed": 377261, "internal_node_id": "0.0-8.0-27.0"}}, {"uniqueid": "w60361778:a59973374", "current_trial": 214, "dateTime": 1664559293941, "trialdata": {"rt": 884, "stimulus": "<p id='stroop-text' class='stroop-blue'>RED</p>", "response": "b", "stimulus-type": "incongruent", "word": "red", "color": "blue", "correct_response": "b", "trial_id": "stroop-trial-1-incongruent-10", "trial_type": "html-keyboard-response", "trial_index": 214, "time_elapsed": 378649, "internal_node_id": "0.0-8.0-28.0"}}, {"uniqueid": "w60361778:a59973374", "current_trial": 215, "dateTime": 1664559294946, "trialdata": {"rt": 500, "stimulus": "<p id='stroop-text' class='stroop-blue'>BLUE</p>", "response": "b", "stimulus-type": "congruent", "word": "blue", "color": "blue", "correct_response": "b", "trial_id": "stroop-trial-1-congruent-4", "trial_type": "html-keyboard-response", "trial_index": 215, "time_elapsed": 379653, "internal_node_id": "0.0-8.0-29.0"}}, {"uniqueid": "w60361778:a59973374", "current_trial": 216, "dateTime": 1664559296048, "trialdata": {"rt": 597, "stimulus": "<p id='stroop-text' class='stroop-red'>RED</p>", "response": "r", "stimulus-type": "congruent", "word": "red", "color": "red", "correct_response": "r", "trial_id": "stroop-trial-1-congruent-5", "trial_type": "html-keyboard-response", "trial_index": 216, "time_elapsed": 380756, "internal_node_id": "0.0-8.0-30.0"}}, {"uniqueid": "w60361778:a59973374", "current_trial": 217, "dateTime": 1664559297090, "trialdata": {"rt": 537, "stimulus": "<p id='stroop-text' class='stroop-yellow'>YELLOW</p>", "response": "y", "stimulus-type": "congruent", "word": "yellow", "color": "yellow", "correct_response": "y", "trial_id": "stroop-trial-1-congruent-15", "trial_type": "html-keyboard-response", "trial_index": 217, "time_elapsed": 381797, "internal_node_id": "0.0-8.0-31.0"}}, {"uniqueid": "w60361778:a59973374", "current_trial": 218, "dateTime": 1664559298735, "trialdata": {"rt": 1140, "stimulus": "<p id='stroop-text' class='stroop-yellow'>GREEN</p>", "response": "y", "stimulus-type": "incongruent", "word": "green", "color": "yellow", "correct_response": "y", "trial_id": "stroop-trial-1-incongruent-28", "trial_type": "html-keyboard-response", "trial_index": 218, "time_elapsed": 383443, "internal_node_id": "0.0-8.0-32.0"}}, {"uniqueid": "w60361778:a59973374", "current_trial": 219, "dateTime": 1664559299702, "trialdata": {"rt": 463, "stimulus": "<p id='stroop-text' class='stroop-red'>BLUE</p>", "response": "r", "stimulus-type": "incongruent", "word": "blue", "color": "red", "correct_response": "r", "trial_id": "stroop-trial-1-incongruent-27", "trial_type": "html-keyboard-response", "trial_index": 219, "time_elapsed": 384410, "internal_node_id": "0.0-8.0-33.0"}}, {"uniqueid": "w60361778:a59973374", "current_trial": 220, "dateTime": 1664559301470, "trialdata": {"rt": 1263, "stimulus": "<p id='stroop-text' class='stroop-yellow'>RED</p>", "response": "y", "stimulus-type": "incongruent", "word": "red", "color": "yellow", "correct_response": "y", "trial_id": "stroop-trial-1-incongruent-1", "trial_type": "html-keyboard-response", "trial_index": 220, "time_elapsed": 386178, "internal_node_id": "0.0-8.0-34.0"}}, {"uniqueid": "w60361778:a59973374", "current_trial": 221, "dateTime": 1664559303189, "trialdata": {"rt": 1214, "stimulus": "<p id='stroop-text' class='stroop-blue'>YELLOW</p>", "response": "b", "stimulus-type": "incongruent", "word": "yellow", "color": "blue", "correct_response": "b", "trial_id": "stroop-trial-1-incongruent-25", "trial_type": "html-keyboard-response", "trial_index": 221, "time_elapsed": 387897, "internal_node_id": "0.0-8.0-35.0"}}, {"uniqueid": "w60361778:a59973374", "current_trial": 222, "dateTime": 1664559304954, "trialdata": {"rt": 1261, "stimulus": "<p id='stroop-text' class='stroop-yellow'>GREEN</p>", "response": "y", "stimulus-type": "incongruent", "word": "green", "color": "yellow", "correct_response": "y", "trial_id": "stroop-trial-1-incongruent-22", "trial_type": "html-keyboard-response", "trial_ind