{"condition": 0, "counterbalance": 0, "assignmentId": "a70469150", "workerId": "w80276223", "hitId": "h20330565", "currenttrial": 959, "bonus": 0, "data": [{"uniqueid": "w80276223:a70469150", "current_trial": 0, "dateTime": 1664555365462, "trialdata": {"success": true, "trial_type": "fullscreen", "trial_index": 0, "time_elapsed": 14551, "internal_node_id": "0.0-0.0"}}, {"uniqueid": "w80276223:a70469150", "current_trial": 1, "dateTime": 1664555403470, "trialdata": {"view_history": [{"page_index": 0, "viewing_time": 37969}], "rt": 37972, "trial_id": "exp_instructions_distractor", "trial_type": "instructions", "trial_index": 1, "time_elapsed": 52559, "internal_node_id": "0.0-1.0"}}, {"uniqueid": "w80276223:a70469150", "current_trial": 2, "dateTime": 1664555470331, "trialdata": {"view_history": [{"page_index": 0, "viewing_time": 66859}], "rt": 66859, "trial_id": "color_game_instructions", "trial_type": "instructions", "trial_index": 2, "time_elapsed": 119421, "internal_node_id": "0.0-2.0"}}, {"uniqueid": "w80276223:a70469150", "current_trial": 3, "dateTime": 1664555497763, "trialdata": {"rt": 27429, "stimulus": "<h1> Get ready to start the game! </h1>\n\nThank you for reading the instructions. Get ready start with the first of 5 block(s) of this game.\n<br><br>\nIn this first block, you will complete 90 rounds of this game before moving on.\n<br><br>\nRemember, the better you perform, the bigger your bonus will be!\n<br><br>\n<div style='text-align: center;'>Press <code>space</code> to begin.</div>", "response": " ", "trial_id": "stroop_1_ready_1", "trial_type": "html-keyboard-response", "trial_index": 3, "time_elapsed": 146853, "internal_node_id": "0.0-3.0"}}, {"uniqueid": "w80276223:a70469150", "current_trial": 4, "dateTime": 1664555499233, "trialdata": {"rt": 1456, "stimulus": "<p id='stroop-text' class='stroop-yellow'>GREEN</p>", "response": "y", "stimulus-type": "incongruent", "word": "green", "color": "yellow", "correct_response": "y", "trial_id": "stroop-trial-1-incongruent-29", "trial_type": "html-keyboard-response", "trial_index": 4, "time_elapsed": 148323, "internal_node_id": "0.0-4.0-0.0"}}, {"uniqueid": "w80276223:a70469150", "current_trial": 5, "dateTime": 1664555500550, "trialdata": {"rt": 813, "stimulus": "<p id='stroop-text' class='stroop-red'>FORK</p>", "response": "r", "stimulus-type": "unrelated", "word": "FORK", "color": "red", "correct_response": "r", "trial_id": "stroop-trial-1-unrelated-29", "trial_type": "html-keyboard-response", "trial_index": 5, "time_elapsed": 149639, "internal_node_id": "0.0-4.0-1.0"}}, {"uniqueid": "w80276223:a70469150", "current_trial": 6, "dateTime": 1664555502166, "trialdata": {"rt": 1113, "stimulus": "<p id='stroop-text' class='stroop-red'>GREEN</p>", "response": "g", "stimulus-type": "incongruent", "word": "green", "color": "red", "correct_response": "r", "trial_id": "stroop-trial-1-incongruent-1", "trial_type": "html-keyboard-response", "trial_index": 6, "time_elapsed": 151256, "internal_node_id": "0.0-4.0-2.0"}}, {"uniqueid": "w80276223:a70469150", "current_trial": 7, "dateTime": 1664555503692, "trialdata": {"rt": 1015, "stimulus": "<p id='stroop-text' class='stroop-yellow'>FORK</p>", "response": "y", "stimulus-type": "unrelated", "word": "FORK", "color": "yellow", "correct_response": "y", "trial_id": "stroop-trial-1-unrelated-5", "trial_type": "html-keyboard-response", "trial_index": 7, "time_elapsed": 152782, "internal_node_id": "0.0-4.0-3.0"}}, {"uniqueid": "w80276223:a70469150", "current_trial": 8, "dateTime": 1664555505574, "trialdata": {"rt": 1379, "stimulus": "<p id='stroop-text' class='stroop-yellow'>BRAIN</p>", "response": "y", "stimulus-type": "unrelated", "word": "BRAIN", "color": "yellow", "correct_response": "y", "trial_id": "stroop-trial-1-unrelated-7", "trial_type": "html-keyboard-response", "trial_index": 8, "time_elapsed": 154664, "internal_node_id": "0.0-4.0-4.0"}}, {"uniqueid": "w80276223:a70469150", "current_trial": 9, "dateTime": 1664555507213, "trialdata": {"rt": 1133, "stimulus": "<p id='stroop-text' class='stroop-blue'>BLUE</p>", "response": "b", "stimulus-type": "congruent", "word": "blue", "color": "blue", "correct_response": "b", "trial_id": "stroop-trial-1-congruent-26", "trial_type": "html-keyboard-response", "trial_index": 9, "time_elapsed": 156302, "internal_node_id": "0.0-4.0-5.0"}}, {"uniqueid": "w80276223:a70469150", "current_trial": 10, "dateTime": 1664555509430, "trialdata": {"rt": 1707, "stimulus": "<p id='stroop-text' class='stroop-green'>RED</p>", "response": "g", "stimulus-type": "incongruent", "word": "red", "color": "green", "correct_response": "g", "trial_id": "stroop-trial-1-incongruent-11", "trial_type": "html-keyboard-response", "trial_index": 10, "time_elapsed": 158520, "internal_node_id": "0.0-4.0-6.0"}}, {"uniqueid": "w80276223:a70469150", "current_trial": 11, "dateTime": 1664555510910, "trialdata": {"rt": 976, "stimulus": "<p id='stroop-text' class='stroop-green'>RED</p>", "response": "g", "stimulus-type": "incongruent", "word": "red", "color": "green", "correct_response": "g", "trial_id": "stroop-trial-1-incongruent-5", "trial_type": "html-keyboard-response", "trial_index": 11, "time_elapsed": 160000, "internal_node_id": "0.0-4.0-7.0"}}, {"uniqueid": "w80276223:a70469150", "current_trial": 12, "dateTime": 1664555512133, "trialdata": {"rt": 719, "stimulus": "<p id='stroop-text' class='stroop-blue'>BRIDGE</p>", "response": "b", "stimulus-type": "unrelated", "word": "BRIDGE", "color": "blue", "correct_response": "b", "trial_id": "stroop-trial-1-unrelated-1", "trial_type": "html-keyboard-response", "trial_index": 12, "time_elapsed": 161222, "internal_node_id": "0.0-4.0-8.0"}}, {"uniqueid": "w80276223:a70469150", "current_trial": 13, "dateTime": 1664555513133, "trialdata": {"rt": 498, "stimulus": "<p id='stroop-text' class='stroop-yellow'>FORK</p>", "response": "y", "stimulus-type": "unrelated", "word": "FORK", "color": "yellow", "correct_response": "y", "trial_id": "stroop-trial-1-unrelated-23", "trial_type": "html-keyboard-response", "trial_index": 13, "time_elapsed": 162223, "internal_node_id": "0.0-4.0-9.0"}}, {"uniqueid": "w80276223:a70469150", "current_trial": 14, "dateTime": 1664555515406, "trialdata": {"rt": 1768, "stimulus": "<p id='stroop-text' class='stroop-green'>MONKEY</p>", "response": "g", "stimulus-type": "unrelated", "word": "MONKEY", "color": "green", "correct_response": "g", "trial_id": "stroop-trial-1-unrelated-11", "trial_type": "html-keyboard-response", "trial_index": 14, "time_elapsed": 164496, "internal_node_id": "0.0-4.0-10.0"}}, {"uniqueid": "w80276223:a70469150", "current_trial": 15, "dateTime": 1664555516728, "trialdata": {"rt": 819, "stimulus": "<p id='stroop-text' class='stroop-blue'>CHAIR</p>", "response": "b", "stimulus-type": "unrelated", "word": "CHAIR", "color": "blue", "correct_response": "b", "trial_id": "stroop-trial-1-unrelated-30", "trial_type": "html-keyboard-response", "trial_index": 15, "time_elapsed": 165818, "internal_node_id": "0.0-4.0-11.0"}}, {"uniqueid": "w80276223:a70469150", "current_trial": 16, "dateTime": 1664555518156, "trialdata": {"rt": 923, "stimulus": "<p id='stroop-text' class='stroop-green'>MONKEY</p>", "response": "g", "stimulus-type": "unrelated", "word": "MONKEY", "color": "green", "correct_response": "g", "trial_id": "stroop-trial-1-unrelated-18", "trial_type": "html-keyboard-response", "trial_index": 16, "time_elapsed": 167245, "internal_node_id": "0.0-4.0-12.0"}}, {"uniqueid": "w80276223:a70469150", "current_trial": 17, "dateTime": 1664555519290, "trialdata": {"rt": 631, "stimulus": "<p id='stroop-text' class='stroop-blue'>BLUE</p>", "response": "b", "stimulus-type": "congruent", "word": "blue", "color": "blue", "correct_response": "b", "trial_id": "stroop-trial-1-congruent-24", "trial_type": "html-keyboard-response", "trial_index": 17, "time_elapsed": 168380, "internal_node_id": "0.0-4.0-13.0"}}, {"uniqueid": "w80276223:a70469150", "current_trial": 18, "dateTime": 1664555520471, "trialdata": {"rt": 677, "stimulus": "<p id='stroop-text' class='stroop-red'>YELLOW</p>", "response": "r", "stimulus-type": "incongruent", "word": "yellow", "color": "red", "correct_response": "r", "trial_id": "stroop-trial-1-incongruent-22", "trial_type": "html-keyboard-response", "trial_index": 18, "time_elapsed": 169561, "internal_node_id": "0.0-4.0-14.0"}}, {"uniqueid": "w80276223:a70469150", "current_trial": 19, "dateTime": 1664555521991, "trialdata": {"rt": 1005, "stimulus": "<p id='stroop-text' class='stroop-yellow'>MONKEY</p>", "response": "y", "stimulus-type": "unrelated", "word": "MONKEY", "color": "yellow", "correct_response": "y", "trial_id": "stroop-trial-1-unrelated-2", "trial_type": "html-keyboard-response", "trial_index": 19, "time_elapsed": 171080, "internal_node_id": "0.0-4.0-15.0"}}, {"uniqueid": "w80276223:a70469150", "current_trial": 20, "dateTime": 1664555523261, "trialdata": {"rt": 767, "stimulus": "<p id='stroop-text' class='stroop-green'>SHIP</p>", "response": "g", "stimulus-type": "unrelated", "word": "SHIP", "color": "green", "correct_response": "g", "trial_id": "stroop-trial-1-unrelated-27", "trial_type": "html-keyboard-response", "trial_index": 20, "time_elapsed": 172351, "internal_node_id": "0.0-4.0-16.0"}}, {"uniqueid": "w80276223:a70469150", "current_trial": 21, "dateTime": 1664555524526, "trialdata": {"rt": 761, "stimulus": "<p id='stroop-text' class='stroop-green'>BOAT</p>", "response": "g", "stimulus-type": "unrelated", "word": "BOAT", "color": "green", "correct_response": "g", "trial_id": "stroop-trial-1-unrelated-6", "trial_type": "html-keyboard-response", "trial_index": 21, "time_elapsed": 173616, "internal_node_id": "0.0-4.0-17.0"}}, {"uniqueid": "w80276223:a70469150", "current_trial": 22, "dateTime": 1664555525906, "trialdata": {"rt": 876, "stimulus": "<p id='stroop-text' class='stroop-green'>RED</p>", "response": "g", "stimulus-type": "incongruent", "word": "red", "color": "green", "correct_response": "g", "trial_id": "stroop-trial-1-incongruent-25", "trial_type": "html-keyboard-response", "trial_index": 22, "time_elapsed": 174995, "internal_node_id": "0.0-4.0-18.0"}}, {"uniqueid": "w80276223:a70469150", "current_trial": 23, "dateTime": 1664555527191, "trialdata": {"rt": 780, "stimulus": "<p id='stroop-text' class='stroop-red'>RED</p>", "response": "r", "stimulus-type": "congruent", "word": "red", "color": "red", "correct_response": "r", "trial_id": "stroop-trial-1-congruent-15", "trial_type": "html-keyboard-response", "trial_index": 23, "time_elapsed": 176281, "internal_node_id": "0.0-4.0-19.0"}}, {"uniqueid": "w80276223:a70469150", "current_trial": 24, "dateTime": 1664555528418, "trialdata": {"rt": 719, "stimulus": "<p id='stroop-text' class='stroop-green'>RED</p>", "response": "g", "stimulus-type": "incongruent", "word": "red", "color": "green", "correct_response": "g", "trial_id": "stroop-trial-1-incongruent-2", "trial_type": "html-keyboard-response", "trial_index": 24, "time_elapsed": 177507, "internal_node_id": "0.0-4.0-20.0"}}, {"uniqueid": "w80276223:a70469150", "current_trial": 25, "dateTime": 1664555529548, "trialdata": {"rt": 626, "stimulus": "<p id='stroop-text' class='stroop-yellow'>FORK</p>", "response": "y", "stimulus-type": "unrelated", "word": "FORK", "color": "yellow", "correct_response": "y", "trial_id": "stroop-trial-1-unrelated-21", "trial_type": "html-keyboard-response", "trial_index": 25, "time_elapsed": 178637, "internal_node_id": "0.0-4.0-21.0"}}, {"uniqueid": "w80276223:a70469150", "current_trial": 26, "dateTime": 1664555530773, "trialdata": {"rt": 722, "stimulus": "<p id='stroop-text' class='stroop-blue'>BLUE</p>", "response": "b", "stimulus-type": "congruent", "word": "blue", "color": "blue", "correct_response": "b", "trial_id": "stroop-trial-1-congruent-8", "trial_type": "html-keyboard-response", "trial_index": 26, "time_elapsed": 179862, "internal_node_id": "0.0-4.0-22.0"}}, {"uniqueid": "w80276223:a70469150", "current_trial": 27, "dateTime": 1664555531747, "trialdata": {"rt": 470, "stimulus": "<p id='stroop-text' class='stroop-blue'>BLUE</p>", "response": "b", "stimulus-type": "congruent", "word": "blue", "color": "blue", "correct_response": "b", "trial_id": "stroop-trial-1-congruent-28", "trial_type": "html-keyboard-response", "trial_index": 27, "time_elapsed": 180836, "internal_node_id": "0.0-4.0-23.0"}}, {"uniqueid": "w80276223:a70469150", "current_trial": 28, "dateTime": 1664555532753, "trialdata": {"rt": 503, "stimulus": "<p id='stroop-text' class='stroop-blue'>BLUE</p>", "response": "b", "stimulus-type": "congruent", "word": "blue", "color": "blue", "correct_response": "b", "trial_id": "stroop-trial-1-congruent-20", "trial_type": "html-keyboard-response", "trial_index": 28, "time_elapsed": 181843, "internal_node_id": "0.0-4.0-24.0"}}, {"uniqueid": "w80276223:a70469150", "current_trial": 29, "dateTime": 1664555533987, "trialdata": {"rt": 729, "stimulus": "<p id='stroop-text' class='stroop-green'>FORK</p>", "response": "g", "stimulus-type": "unrelated", "word": "FORK", "color": "green", "correct_response": "g", "trial_id": "stroop-trial-1-unrelated-19", "trial_type": "html-keyboard-response", "trial_index": 29, "time_elapsed": 183076, "internal_node_id": "0.0-4.0-25.0"}}, {"uniqueid": "w80276223:a70469150", "current_trial": 30, "dateTime": 1664555535000, "trialdata": {"rt": 510, "stimulus": "<p id='stroop-text' class='stroop-yellow'>GREEN</p>", "response": "y", "stimulus-type": "incongruent", "word": "green", "color": "yellow", "correct_response": "y", "trial_id": "stroop-trial-1-incongruent-16", "trial_type": "html-keyboard-response", "trial_index": 30, "time_elapsed": 184090, "internal_node_id": "0.0-4.0-26.0"}}, {"uniqueid": "w80276223:a70469150", "current_trial": 31, "dateTime": 1664555536663, "trialdata": {"rt": 1158, "stimulus": "<p id='stroop-text' class='stroop-green'>RED</p>", "response": "g", "stimulus-type": "incongruent", "word": "red", "color": "green", "correct_response": "g", "trial_id": "stroop-trial-1-incongruent-21", "trial_type": "html-keyboard-response", "trial_index": 31, "time_elapsed": 185752, "internal_node_id": "0.0-4.0-27.0"}}, {"uniqueid": "w80276223:a70469150", "current_trial": 32, "dateTime": 1664555537962, "trialdata": {"rt": 791, "stimulus": "<p id='stroop-text' class='stroop-green'>GREEN</p>", "response": "g", "stimulus-type": "congruent", "word": "green", "color": "green", "correct_response": "g", "trial_id": "stroop-trial-1-congruent-27", "trial_type": "html-keyboard-response", "trial_index": 32, "time_elapsed": 187051, "internal_node_id": "0.0-4.0-28.0"}}, {"uniqueid": "w80276223:a70469150", "current_trial": 33, "dateTime": 1664555539096, "trialdata": {"rt": 630, "stimulus": "<p id='stroop-text' class='stroop-red'>STONE</p>", "response": "r", "stimulus-type": "unrelated", "word": "STONE", "color": "red", "correct_response": "r", "trial_id": "stroop-trial-1-unrelated-3", "trial_type": "html-keyboard-response", "trial_index": 33, "time_elapsed": 188186, "internal_node_id": "0.0-4.0-29.0"}}, {"uniqueid": "w80276223:a70469150", "current_trial": 34, "dateTime": 1664555540479, "trialdata": {"rt": 880, "stimulus": "<p id='stroop-text' class='stroop-green'>YELLOW</p>", "response": "g", "stimulus-type": "incongruent", "word": "yellow", "color": "green", "correct_response": "g", "trial_id": "stroop-trial-1-incongruent-15", "trial_type": "html-keyboard-response", "trial_index": 34, "time_elapsed": 189569, "internal_node_id": "0.0-4.0-30.0"}}, {"uniqueid": "w80276223:a70469150", "current_trial": 35, "dateTime": 1664555541661, "trialdata": {"rt": 678, "stimulus": "<p id='stroop-text' class='stroop-red'>RED</p>", "response": "r", "stimulus-type": "congruent", "word": "red", "color": "red", "correct_response": "r", "trial_id": "stroop-trial-1-congruent-1", "trial_type": "html-keyboard-response", "trial_index": 35, "time_elapsed": 190750, "internal_node_id": "0.0-4.0-31.0"}}, {"uniqueid": "w80276223:a70469150", "current_trial": 36, "dateTime": 1664555542708, "trialdata": {"rt": 534, "stimulus": "<p id='stroop-text' class='stroop-blue'>BLUE</p>", "response": "b", "stimulus-type": "congruent", "word": "blue", "color": "blue", "correct_response": "b", "trial_id": "stroop-trial-1-congruent-13", "trial_type": "html-keyboard-response", "trial_index": 36, "time_elapsed": 191798, "internal_node_id": "0.0-4.0-32.0"}}, {"uniqueid": "w80276223:a70469150", "current_trial": 37, "dateTime": 1664555543901, "trialdata": {"rt": 688, "stimulus": "<p id='stroop-text' class='stroop-yellow'>YELLOW</p>", "response": "y", "stimulus-type": "congruent", "word": "yellow", "color": "yellow", "correct_response": "y", "trial_id": "stroop-trial-1-congruent-30", "trial_type": "html-keyboard-response", "trial_index": 37, "time_elapsed": 192990, "internal_node_id": "0.0-4.0-33.0"}}, {"uniqueid": "w80276223:a70469150", "current_trial": 38, "dateTime": 1664555545376, "trialdata": {"rt": 969, "stimulus": "<p id='stroop-text' class='stroop-blue'>RED</p>", "response": "b", "stimulus-type": "incongruent", "word": "red", "color": "blue", "correct_response": "b", "trial_id": "stroop-trial-1-incongruent-7", "trial_type": "html-keyboard-response", "trial_index": 38, "time_elapsed": 194465, "internal_node_id": "0.0-4.0-34.0"}}, {"uniqueid": "w80276223:a70469150", "current_trial": 39, "dateTime": 1664555546635, "trialdata": {"rt": 755, "stimulus": "<p id='stroop-text' class='stroop-green'>RED</p>", "response": "g", "stimulus-type": "incongruent", "word": "red", "color": "green", "correct_response": "g", "trial_id": "stroop-trial-1-incongruent-13", "trial_type": "html-keyboard-response", "trial_index": 39, "time_elapsed": 195724, "internal_node_id": "0.0-4.0-35.0"}}, {"uniqueid": "w80276223:a70469150", "current_trial": 40, "dateTime": 1664555547711, "trialdata": {"rt": 573, "stimulus": "<p id='stroop-text' class='stroop-yellow'>YELLOW</p>", "response": "y", "stimulus-type": "congruent", "word": "yellow", "color": "yellow", "correct_response": "y", "trial_id": "stroop-trial-1-congruent-9", "trial_type": "html-keyboard-response", "trial_index": 40, "time_elapsed": 196801, "internal_node_id": "0.0-4.0-36.0"}}, {"uniqueid": "w80276223:a70469150", "current_trial": 41, "dateTime": 1664555548763, "trialdata": {"rt": 548, "stimulus": "<p id='stroop-text' class='stroop-blue'>BLUE</p>", "response": "b", "stimulus-type": "congruent", "word": "blue", "color": "blue", "correct_response": "b", "trial_id": "stroop-trial-1-congruent-19", "trial_type": "html-keyboard-response", "trial_index": 41, "time_elapsed": 197852, "internal_node_id": "0.0-4.0-37.0"}}, {"uniqueid": "w80276223:a70469150", "current_trial": 42, "dateTime": 1664555549777, "trialdata": {"rt": 508, "stimulus": "<p id='stroop-text' class='stroop-blue'>BLUE</p>", "response": "b", "stimulus-type": "congruent", "word": "blue", "color": "blue", "correct_response": "b", "trial_id": "stroop-trial-1-congruent-2", "trial_type": "html-keyboard-response", "trial_index": 42, "time_elapsed": 198866, "internal_node_id": "0.0-4.0-38.0"}}, {"uniqueid": "w80276223:a70469150", "current_trial": 43, "dateTime": 1664555550852, "trialdata": {"rt": 573, "stimulus": "<p id='stroop-text' class='stroop-blue'>WINDOW</p>", "response": "b", "stimulus-type": "unrelated", "word": "WINDOW", "color": "blue", "correct_response": "b", "trial_id": "stroop-trial-1-unrelated-9", "trial_type": "html-keyboard-response", "trial_index": 43, "time_elapsed": 199942, "internal_node_id": "0.0-4.0-39.0"}}, {"uniqueid": "w80276223:a70469150", "current_trial": 44, "dateTime": 1664555551934, "trialdata": {"rt": 572, "stimulus": "<p id='stroop-text' class='stroop-green'>BRAIN</p>", "response": "g", "stimulus-type": "unrelated", "word": "BRAIN", "color": "green", "correct_response": "g", "trial_id": "stroop-trial-1-unrelated-16", "trial_type": "html-keyboard-response", "trial_index": 44, "time_elapsed": 201023, "internal_node_id": "0.0-4.0-40.0"}}, {"uniqueid": "w80276223:a70469150", "current_trial": 45, "dateTime": 1664555553612, "trialdata": {"rt": 1174, "stimulus": "<p id='stroop-text' class='stroop-red'>YELLOW</p>", "response": "r", "stimulus-type": "incongruent", "word": "yellow", "color": "red", "correct_response": "r", "trial_id": "stroop-trial-1-incongruent-23", "trial_type": "html-keyboard-response", "trial_index": 45, "time_elapsed": 202701, "internal_node_id": "0.0-4.0-41.0"}}, {"uniqueid": "w80276223:a70469150", "current_trial": 46, "dateTime": 1664555554840, "trialdata": {"rt": 715, "stimulus": "<p id='stroop-text' class='stroop-red'>RED</p>", "response": "r", "stimulus-type": "congruent", "word": "red", "color": "red", "correct_response": "r", "trial_id": "stroop-trial-1-congruent-14", "trial_type": "html-keyboard-response", "trial_index": 46, "time_elapsed": 203930, "internal_node_id": "0.0-4.0-42.0"}}, {"uniqueid": "w80276223:a70469150", "current_trial": 47, "dateTime": 1664555555955, "trialdata": {"rt": 609, "stimulus": "<p id='stroop-text' class='stroop-yellow'>RED</p>", "response": "b", "stimulus-type": "incongruent", "word": "red", "color": "yellow", "correct_response": "y", "trial_id": "stroop-trial-1-incongruent-4", "trial_type": "html-keyboard-response", "trial_index": 47, "time_elapsed": 205044, "internal_node_id": "0.0-4.0-43.0"}}, {"uniqueid": "w80276223:a70469150", "current_trial": 48, "dateTime": 1664555557357, "trialdata": {"rt": 898, "stimulus": "<p id='stroop-text' class='stroop-yellow'>RED</p>", "response": "y", "stimulus-type": "incongruent", "word": "red", "color": "yellow", "correct_response": "y", "trial_id": "stroop-trial-1-incongruent-3", "trial_type": "html-keyboard-response", "trial_index": 48, "time_elapsed": 206447, "internal_node_id": "0.0-4.0-44.0"}}, {"uniqueid": "w80276223:a70469150", "current_trial": 49, "dateTime": 1664555558655, "trialdata": {"rt": 796, "stimulus": "<p id='stroop-text' class='stroop-blue'>GREEN</p>", "response": "b", "stimulus-type": "incongruent", "word": "green", "color": "blue", "correct_response": "b", "trial_id": "stroop-trial-1-incongruent-8", "trial_type": "html-keyboard-response", "trial_index": 49, "time_elapsed": 207745, "internal_node_id": "0.0-4.0-45.0"}}, {"uniqueid": "w80276223:a70469150", "current_trial": 50, "dateTime": 1664555560220, "trialdata": {"rt": 1061, "stimulus": "<p id='stroop-text' class='stroop-green'>GREEN</p>", "response": "g", "stimulus-type": "congruent", "word": "green", "color": "green", "correct_response": "g", "trial_id": "stroop-trial-1-congruent-10", "trial_type": "html-keyboard-response", "trial_index": 50, "time_elapsed": 209310, "internal_node_id": "0.0-4.0-46.0"}}, {"uniqueid": "w80276223:a70469150", "current_trial": 51, "dateTime": 1664555561324, "trialdata": {"rt": 601, "stimulus": "<p id='stroop-text' class='stroop-green'>GREEN</p>", "response": "g", "stimulus-type": "congruent", "word": "green", "color": "green", "correct_response": "g", "trial_id": "stroop-trial-1-congruent-3", "trial_type": "html-keyboard-response", "trial_index": 51, "time_elapsed": 210413, "internal_node_id": "0.0-4.0-47.0"}}, {"uniqueid": "w80276223:a70469150", "current_trial": 52, "dateTime": 1664555562393, "trialdata": {"rt": 565, "stimulus": "<p id='stroop-text' class='stroop-yellow'>YELLOW</p>", "response": "y", "stimulus-type": "congruent", "word": "yellow", "color": "yellow", "correct_response": "y", "trial_id": "stroop-trial-1-congruent-23", "trial_type": "html-keyboard-response", "trial_index": 52, "time_elapsed": 211482, "internal_node_id": "0.0-4.0-48.0"}}, {"uniqueid": "w80276223:a70469150", "current_trial": 53, "dateTime": 1664555563589, "trialdata": {"rt": 693, "stimulus": "<p id='stroop-text' class='stroop-blue'>RED</p>", "response": "b", "stimulus-type": "incongruent", "word": "red", "color": "blue", "correct_response": "b", "trial_id": "stroop-trial-1-incongruent-9", "trial_type": "html-keyboard-response", "trial_index": 53, "time_elapsed": 212678, "internal_node_id": "0.0-4.0-49.0"}}, {"uniqueid": "w80276223:a70469150", "current_trial": 54, "dateTime": 1664555564622, "trialdata": {"rt": 521, "stimulus": "<p id='stroop-text' class='stroop-blue'>BLUE</p>", "response": "b", "stimulus-type": "congruent", "word": "blue", "color": "blue", "correct_response": "b", "trial_id": "stroop-trial-1-congruent-29", "trial_type": "html-keyboard-response", "trial_index": 54, "time_elapsed": 213712, "internal_node_id": "0.0-4.0-50.0"}}, {"uniqueid": "w80276223:a70469150", "current_trial": 55, "dateTime": 1664555565635, "trialdata": {"rt": 508, "stimulus": "<p id='stroop-text' class='stroop-blue'>YELLOW</p>", "response": "b", "stimulus-type": "incongruent", "word": "yellow", "color": "blue", "correct_response": "b", "trial_id": "stroop-trial-1-incongruent-28", "trial_type": "html-keyboard-response", "trial_index": 55, "time_elapsed": 214725, "internal_node_id": "0.0-4.0-51.0"}}, {"uniqueid": "w80276223:a70469150", "current_trial": 56, "dateTime": 1664555566933, "trialdata": {"rt": 795, "stimulus": "<p id='stroop-text' class='stroop-green'>RED</p>", "response": "g", "stimulus-type": "incongruent", "word": "red", "color": "green", "correct_response": "g", "trial_id": "stroop-trial-1-incongruent-30", "trial_type": "html-keyboard-response", "trial_index": 56, "time_elapsed": 216022, "internal_node_id": "0.0-4.0-52.0"}}, {"uniqueid": "w80276223:a70469150", "current_trial": 57, "dateTime": 1664555567947, "trialdata": {"rt": 511, "stimulus": "<p id='stroop-text' class='stroop-blue'>BLUE</p>", "response": "b", "stimulus-type": "congruent", "word": "blue", "color": "blue", "correct_response": "b", "trial_id": "stroop-trial-1-congruent-21", "trial_type": "html-keyboard-response", "trial_index": 57, "time_elapsed": 217036, "internal_node_id": "0.0-4.0-53.0"}}, {"uniqueid": "w80276223:a70469150", "current_trial": 58, "dateTime": 1664555569372, "trialdata": {"rt": 920, "stimulus": "<p id='stroop-text' class='stroop-red'>BOAT</p>", "response": "r", "stimulus-type": "unrelated", "word": "BOAT", "color": "red", "correct_response": "r", "trial_id": "stroop-trial-1-unrelated-13", "trial_type": "html-keyboard-response", "trial_index": 58, "time_elapsed": 218462, "internal_node_id": "0.0-4.0-54.0"}}, {"uniqueid": "w80276223:a70469150", "current_trial": 59, "dateTime": 1664555570469, "trialdata": {"rt": 593, "stimulus": "<p id='stroop-text' class='stroop-red'>YELLOW</p>", "response": "r", "stimulus-type": "incongruent", "word": "yellow", "color": "red", "correct_response": "r", "trial_id": "stroop-trial-1-incongruent-24", "trial_type": "html-keyboard-response", "trial_index": 59, "time_elapsed": 219559, "internal_node_id": "0.0-4.0-55.0"}}, {"uniqueid": "w80276223:a70469150", "current_trial": 60, "dateTime": 1664555571602, "trialdata": {"rt": 629, "stimulus": "<p id='stroop-text' class='stroop-yellow'>RED</p>", "response": "y", "stimulus-type": "incongruent", "word": "red", "color": "yellow", "correct_response": "y", "trial_id": "stroop-trial-1-incongruent-6", "trial_type": "html-keyboard-response", "trial_index": 60, "time_elapsed": 220691, "internal_node_id": "0.0-4.0-56.0"}}, {"uniqueid": "w80276223:a70469150", "current_trial": 61, "dateTime": 1664555573015, "trialdata": {"rt": 909, "stimulus": "<p id='stroop-text' class='stroop-red'>BOTTLE</p>", "response": "r", "stimulus-type": "unrelated", "word": "BOTTLE", "color": "red", "correct_response": "r", "trial_id": "stroop-trial-1-unrelated-26", "trial_type": "html-keyboard-response", "trial_index": 61, "time_elapsed": 222105, "internal_node_id": "0.0-4.0-57.0"}}, {"uniqueid": "w80276223:a70469150", "current_trial": 62, "dateTime": 1664555574175, "trialdata": {"rt": 656, "stimulus": "<p id='stroop-text' class='stroop-green'>BOTTLE</p>", "response": "g", "stimulus-type": "unrelated", "word": "BOTTLE", "color": "green", "correct_response": "g", "trial_id": "stroop-trial-1-unrelated-24", "trial_type": "html-keyboard-response", "trial_index": 62, "time_elapsed": 223264, "internal_node_id": "0.0-4.0-58.0"}}, {"uniqueid": "w80276223:a70469150", "current_trial": 63, "dateTime": 1664555575151, "trialdata": {"rt": 464, "stimulus": "<p id='stroop-text' class='stroop-green'>BLUE</p>", "response": "g", "stimulus-type": "incongruent", "word": "blue", "color": "green", "correct_response": "g", "trial_id": "stroop-trial-1-incongruent-19", "trial_type": "html-keyboard-response", "trial_index": 63, "time_elapsed": 224240, "internal_node_id": "0.0-4.0-59.0"}}, {"uniqueid": "w80276223:a70469150", "current_trial": 64, "dateTime": 1664555576076, "trialdata": {"rt": 422, "stimulus": "<p id='stroop-text' class='stroop-green'>BOAT</p>", "response": "g", "stimulus-type": "unrelated", "word": "BOAT", "color": "green", "correct_response": "g", "trial_id": "stroop-trial-1-unrelated-25", "trial_type": "html-keyboard-response", "trial_index": 64, "time_elapsed": 225166, "internal_node_id": "0.0-4.0-60.0"}}, {"uniqueid": "w80276223:a70469150", "current_trial": 65, "dateTime": 1664555576997, "trialdata": {"rt": 406, "stimulus": "<p id='stroop-text' class='stroop-green'>GREEN</p>", "response": "g", "stimulus-type": "congruent", "word": "green", "color": "green", "correct_response": "g", "trial_id": "stroop-trial-1-congruent-11", "trial_type": "html-keyboard-response", "trial_index": 65, "time_elapsed": 226086, "internal_node_id": "0.0-4.0-61.0"}}, {"uniqueid": "w80276223:a70469150", "current_trial": 66, "dateTime": 1664555578077, "trialdata": {"rt": 577, "stimulus": "<p id='stroop-text' class='stroop-blue'>YELLOW</p>", "response": "b", "stimulus-type": "incongruent", "word": "yellow", "color": "blue", "correct_response": "b", "trial_id": "stroop-trial-1-incongruent-10", "trial_type": "html-keyboard-response", "trial_index": 66, "time_elapsed": 227167, "internal_node_id": "0.0-4.0-62.0"}}, {"uniqueid": "w80276223:a70469150", "current_trial": 67, "dateTime": 1664555579185, "trialdata": {"rt": 604, "stimulus": "<p id='stroop-text' class='stroop-red'>BRIDGE</p>", "response": "r", "stimulus-type": "unrelated", "word": "BRIDGE", "color": "red", "correct_response": "r", "trial_id": "stroop-trial-1-unrelated-14", "trial_type": "html-keyboard-response", "trial_index": 67, "time_elapsed": 228274, "internal_node_id": "0.0-4.0-63.0"}}, {"uniqueid": "w80276223:a70469150", "current_trial": 68, "dateTime": 1664555580392, "trialdata": {"rt": 703, "stimulus": "<p id='stroop-text' class='stroop-green'>GREEN</p>", "response": "g", "stimulus-type": "congruent", "word": "green", "color": "green", "correct_response": "g", "trial_id": "stroop-trial-1-congruent-25", "trial_type": "html-keyboard-response", "trial_index": 68, "time_elapsed": 229482, "internal_node_id": "0.0-4.0-64.0"}}, {"uniqueid": "w80276223:a70469150", "current_trial": 69, "dateTime": 1664555581592, "trialdata": {"rt": 696, "stimulus": "<p id='stroop-text' class='stroop-yellow'>YELLOW</p>", "response": "y", "stimulus-type": "congruent", "word": "yellow", "color": "yellow", "correct_response": "y", "trial_id": "stroop-trial-1-congruent-16", "trial_type": "html-keyboard-response", "trial_index": 69, "time_elapsed": 230681, "internal_node_id": "0.0-4.0-65.0"}}, {"uniqueid": "w80276223:a70469150", "current_trial": 70, "dateTime": 1664555582913, "trialdata": {"rt": 817, "stimulus": "<p id='stroop-text' class='stroop-blue'>CHAIR</p>", "response": "b", "stimulus-type": "unrelated", "word": "CHAIR", "color": "blue", "correct_response": "b", "trial_id": "stroop-trial-1-unrelated-22", "trial_type": "html-keyboard-response", "trial_index": 70, "time_elapsed": 232003, "internal_node_id": "0.0-4.0-66.0"}}, {"uniqueid": "w80276223:a70469150", "current_trial": 71, "dateTime": 1664555584191, "trialdata": {"rt": 773, "stimulus": "<p id='stroop-text' class='stroop-green'>BOTTLE</p>", "response": "g", "stimulus-type": "unrelated", "word": "BOTTLE", "color": "green", "correct_response": "g", "trial_id": "stroop-trial-1-unrelated-28", "trial_type": "html-keyboard-response", "trial_index": 71, "time_elapsed": 233280, "internal_node_id": "0.0-4.0-67.0"}}, {"uniqueid": "w80276223:a70469150", "current_trial": 72, "dateTime": 1664555585685, "trialdata": {"rt": 991, "stimulus": "<p id='stroop-text' class='stroop-yellow'>STONE</p>", "response": "y", "stimulus-type": "unrelated", "word": "STONE", "color": "yellow", "correct_response": "y", "trial_id": "stroop-trial-1-unrelated-10", "trial_type": "html-keyboard-response", "trial_index": 72, "time_elapsed": 234775, "internal_node_id": "0.0-4.0-68.0"}}, {"uniqueid": "w80276223:a70469150", "current_trial": 73, "dateTime": 1664555587108, "trialdata": {"rt": 918, "stimulus": "<p id='stroop-text' class='stroop-blue'>YELLOW</p>", "response": "b", "stimulus-type": "incongruent", "word": "yellow", "color": "blue", "correct_response": "b", "trial_id": "stroop-trial-1-incongruent-27", "trial_type": "html-keyboard-response", "trial_index": 73, "time_elapsed": 236198, "internal_node_id": "0.0-4.0-69.0"}}, {"uniqueid": "w80276223:a70469150", "current_trial": 74, "dateTime": 1664555588155, "trialdata": {"rt": 542, "stimulus": "<p id='stroop-text' class='stroop-green'>GREEN</p>", "response": "g", "stimulus-type": "congruent", "word": "green", "color": "green", "correct_response": "g", "trial_id": "stroop-trial-1-congruent-5", "trial_type": "html-keyboard-response", "trial_index": 74, "time_elapsed": 237245, "internal_node_id": "0.0-4.0-70.0"}}, {"uniqueid": "w80276223:a70469150", "current_trial": 75, "dateTime": 1664555589222, "trialdata": {"rt": 562, "stimulus": "<p id='stroop-text' class='stroop-green'>BLUE</p>", "response": "g", "stimulus-type": "incongruent", "word": "blue", "color": "green", "correct_response": "g", "trial_id": "stroop-trial-1-incongruent-26", "trial_type": "html-keyboard-response", "trial_index": 75, "time_elapsed": 238311, "internal_node_id": "0.0-4.0-71.0"}}, {"uniqueid": "w80276223:a70469150", "current_trial": 76, "dateTime": 1664555590268, "trialdata": {"rt": 533, "stimulus": "<p id='stroop-text' class='stroop-green'>GREEN</p>", "response": "g", "stimulus-type": "congruent", "word": "green", "color": "green", "correct_response": "g", "trial_id": "stroop-trial-1-congruent-17", "trial_type": "html-keyboard-response", "trial_index": 76, "time_elapsed": 239357, "internal_node_id": "0.0-4.0-72.0"}}, {"uniqueid": "w80276223:a70469150", "current_trial": 77, "dateTime": 1664555591418, "trialdata": {"rt": 645, "stimulus": "<p id='stroop-text' class='stroop-blue'>STONE</p>", "response": "b", "stimulus-type": "unrelated", "word": "STONE", "color": "blue", "correct_response": "b", "trial_id": "stroop-trial-1-unrelated-4", "trial_type": "html-keyboard-response", "trial_index": 77, "time_elapsed": 240508, "internal_node_id": "0.0-4.0-73.0"}}, {"uniqueid": "w80276223:a70469150", "current_trial": 78, "dateTime": 1664555592366, "trialdata": {"rt": 445, "stimulus": "<p id='stroop-text' class='stroop-blue'>BLUE</p>", "response": "b", "stimulus-type": "congruent", "word": "blue", "color": "blue", "correct_response": "b", "trial_id": "stroop-trial-1-congruent-6", "trial_type": "html-keyboard-response", "trial_index": 78, "time_elapsed": 241456, "internal_node_id": "0.0-4.0-74.0"}}, {"uniqueid": "w80276223:a70469150", "current_trial": 79, "dateTime": 1664555593526, "trialdata": {"rt": 656, "stimulus": "<p id='stroop-text' class='stroop-green'>BLUE</p>", "response": "g", "stimulus-type": "incongruent", "word": "blue", "color": "green", "correct_response": "g", "trial_id": "stroop-trial-1-incongruent-12", "trial_type": "html-keyboard-response", "trial_index": 79, "time_elapsed": 242616, "internal_node_id": "0.0-4.0-75.0"}}, {"uniqueid": "w80276223:a70469150", "current_trial": 80, "dateTime": 1664555595369, "trialdata": {"rt": 1337, "stimulus": "<p id='stroop-text' class='stroop-red'>MONKEY</p>", "response": "r", "stimulus-type": "unrelated", "word": "MONKEY", "color": "red", "correct_response": "r", "trial_id": "stroop-trial-1-unrelated-12", "trial_type": "html-keyboard-response", "trial_index": 80, "time_elapsed": 244459, "internal_node_id": "0.0-4.0-76.0"}}, {"uniqueid": "w80276223:a70469150", "current_trial": 81, "dateTime": 1664555596564, "trialdata": {"rt": 691, "stimulus": "<p id='stroop-text' class='stroop-red'>BLUE</p>", "response": "r", "stimulus-type": "incongruent", "word": "blue", "color": "red", "correct_response": "r", "trial_id": "stroop-trial-1-incongruent-18", "trial_type": "html-keyboard-response", "trial_index": 81, "time_elapsed": 245653, "internal_node_id": "0.0-4.0-77.0"}}, {"uniqueid": "w80276223:a70469150", "current_trial": 82, "dateTime": 1664555597932, "trialdata": {"rt": 864, "stimulus": "<p id='stroop-text' class='stroop-blue'>RED</p>", "response": "b", "stimulus-type": "incongruent", "word": "red", "color": "blue", "correct_response": "b", "trial_id": "stroop-trial-1-incongruent-14", "trial_type": "html-keyboard-response", "trial_index": 82, "time_elapsed": 247021, "internal_node_id": "0.0-4.0-78.0"}}, {"uniqueid": "w80276223:a70469150", "current_trial": 83, "dateTime": 1664555599005, "trialdata": {"rt": 568, "stimulus": "<p id='stroop-text' class='stroop-yellow'>YELLOW</p>", "response": "y", "stimulus-type": "congruent", "word": "yellow", "color": "yellow", "correct_response": "y", "trial_id": "stroop-trial-1-congruent-18", "trial_type": "html-keyboard-response", "trial_index": 83, "time_elapsed": 248095, "internal_node_id": "0.0-4.0-79.0"}}, {"uniqueid": "w80276223:a70469150", "current_trial": 84, "dateTime": 1664555600421, "trialdata": {"rt": 911, "stimulus": "<p id='stroop-text' class='stroop-blue'>BRIDGE</p>", "response": "b", "stimulus-type": "unrelated", "word": "BRIDGE", "color": "blue", "correct_response": "b", "trial_id": "stroop-trial-1-unrelated-20", "trial_type": "html-keyboard-response", "trial_index": 84, "time_elapsed": 249510, "internal_node_id": "0.0-4.0-80.0"}}, {"uniqueid": "w80276223:a70469150", "current_trial": 85, "dateTime": 1664555601548, "trialdata": {"rt": 623, "stimulus": "<p id='stroop-text' class='stroop-yellow'>GREEN</p>", "response": "y", "stimulus-type": "incongruent", "word": "green", "color": "yellow", "correct_response": "y", "trial_id": "stroop-trial-1-incongruent-20", "trial_type": "html-keyboard-response", "trial_index": 85, "time_elapsed": 250637, "internal_node_id": "0.0-4.0-81.0"}}, {"uniqueid": "w80276223:a70469150", "current_trial": 86, "dateTime": 1664555603006, "trialdata": {"rt": 954, "stimulus": "<p id='stroop-text' class='stroop-green'>BRAIN</p>", "response": "g", "stimulus-type": "unrelated", "word": "BRAIN", "color": "green", "correct_response": "g", "trial_id": "stroop-trial-1-unrelated-15", "trial_type": "html-keyboard-response", "trial_index": 86, "time_elapsed": 252096, "internal_node_id": "0.0-4.0-82.0"}}, {"uniqueid": "w80276223:a70469150", "current_trial": 87, "dateTime": 1664555604013, "trialdata": {"rt": 503, "stimulus": "<p id='stroop-text' class='stroop-green'>CHAIR</p>", "response": "g", "stimulus-type": "unrelated", "word": "CHAIR", "color": "green", "correct_response": "g", "trial_id": "stroop-trial-1-unrelated-8", "trial_type": "html-keyboard-response", "trial_index": 87, "time_elapsed": 253103, "internal_node_id": "0.0-4.0-83.0"}}, {"uniqueid": "w80276223:a70469150", "current_trial": 88, "dateTime": 1664555604963, "trialdata": {"rt": 447, "stimulus": "<p id='stroop-text' class='stroop-red'>RED</p>", "response": "r", "stimulus-type": "congruent", "word": "red", "color": "red", "correct_response": "r", "trial_id": "stroop-trial-1-congruent-7", "trial_type": "html-keyboard-response", "trial_index": 88, "time_elapsed": 254053, "internal_node_id": "0.0-4.0-84.0"}}, {"uniqueid": "w80276223:a70469150", "current_trial": 89, "dateTime": 1664555605985, "trialdata": {"rt": 518, "stimulus": "<p id='stroop-text' class='stroop-red'>RED</p>", "response": "r", "stimulus-type": "congruent", "word": "red", "color": "red", "correct_response": "r", "trial_id": "stroop-trial-1-congruent-4", "trial_type": "html-keyboard-response", "trial_index": 89, "time_elapsed": 255074, "internal_node_id": "0.0-4.0-85.0"}}, {"uniqueid": "w80276223:a70469150", "current_trial": 90, "dateTime": 1664555607246, "trialdata": {"rt": 755, "stimulus": "<p id='stroop-text' class='stroop-green'>BRIDGE</p>", "response": "g", "stimulus-type": "unrelated", "word": "BRIDGE", "color": "green", "correct_response": "g", "trial_id": "stroop-trial-1-unrelated-17", "trial_type": "html-keyboard-response", "trial_index": 90, "time_elapsed": 256336, "internal_node_id": "0.0-4.0-86.0"}}, {"uniqueid": "w80276223:a70469150", "current_trial": 91, "dateTime": 1664555608240, "trialdata": {"rt": 489, "stimulus": "<p id='stroop-text' class='stroop-blue'>BLUE</p>", "response": "b", "stimulus-type": "congruent", "word": "blue", "color": "blue", "correct_response": "b", "trial_id": "stroop-trial-1-congruent-12", "trial_type": "html-keyboard-response", "trial_index": 91, "time_elapsed": 257330, "internal_node_id": "0.0-4.0-87.0"}}, {"uniqueid": "w80276223:a70469150", "current_trial": 92, "dateTime": 1664555609169, "trialdata": {"rt": 426, "stimulus": "<p id='stroop-text' class='stroop-yellow'>YELLOW</p>", "response": "y", "stimulus-type": "congruent", "word": "yellow", "color": "yellow", "correct_response": "y", "trial_id": "stroop-trial-1-congruent-22", "trial_type": "html-keyboard-response", "trial_index": 92, "time_elapsed": 258258, "internal_node_id": "0.0-4.0-88.0"}}, {"uniqueid": "w80276223:a70469150", "current_trial": 93, "dateTime": 1664555610677, "trialdata": {"rt": 1004, "stimulus": "<p id='stroop-text' class='stroop-red'>YELLOW</p>", "response": "r", "stimulus-type": "incongruent", "word": "yellow", "color": "red", "correct_response": "r", "trial_id": "stroop-trial-1-incongruent-17", "trial_type": "html-keyboard-response", "trial_index": 93, "time_elapsed": 259767, "internal_node_id": "0.0-4.0-89.0"}}, {"uniqueid": "w80276223:a70469150", "current_trial": 94, "dateTime": 1664555623513, "trialdata": {"rt": 12326, "stimulus": "  <h1> End of block! </h1>\n\n  You have reached the end of the block 1/5. If you need a short break, feel free to take one now before moving on.\n\n  <br><br>\n  In the next block, you will complete another 90 rounds of this game.\n\n  <br><br>\n  <div style='text-align: center;'>Press <code>space</code> to begin.</div>\n  <br><br>\n<div style='text-align: center;'>(If the experiment doesn't continue, try clicking on the text and then pressing <code>space</code>.)</div>", "response": " ", "trial_id": "stroop_1_ready_2", "trial_type": "html-keyboard-response", "trial_index": 94, "time_elapsed": 272603, "internal_node_id": "0.0-5.0"}}, {"uniqueid": "w80276223:a70469150", "current_trial": 95, "dateTime": 1664555624268, "trialdata": {"rt": 749, "stimulus": "<p id='stroop-text' class='stroop-green'>GREEN</p>", "response": "g", "stimulus-type": "congruent", "word": "green", "color": "green", "correct_response": "g", "trial_id": "stroop-trial-1-congruent-6", "trial_type": "html-keyboard-response", "trial_index": 95, "time_elapsed": 273357, "internal_node_id": "0.0-6.0-0.0"}}, {"uniqueid": "w80276223:a70469150", "current_trial": 96, "dateTime": 1664555625249, "trialdata": {"rt": 476, "stimulus": "<p id='stroop-text' class='stroop-blue'>BOTTLE</p>", "response": "b", "stimulus-type": "unrelated", "word": "BOTTLE", "color": "blue", "correct_response": "b", "trial_id": "stroop-trial-1-unrelated-29", "trial_type": "html-keyboard-response", "trial_index": 96, "time_elapsed": 274338, "internal_node_id": "0.0-6.0-1.0"}}, {"uniqueid": "w80276223:a70469150", "current_trial": 97, "dateTime": 1664555626252, "trialdata": {"rt": 499, "stimulus": "<p id='stroop-text' class='stroop-blue'>DOG</p>", "response": "b", "stimulus-type": "unrelated", "word": "DOG", "color": "blue", "correct_response": "b", "trial_id": "stroop-trial-1-unrelated-25", "trial_type": "html-keyboard-response", "trial_index": 97, "time_elapsed": 275341, "internal_node_id": "0.0-6.0-2.0"}}, {"uniqueid": "w80276223:a70469150", "current_trial": 98, "dateTime": 1664555627407, "trialdata": {"rt": 652, "stimulus": "<p id='stroop-text' class='stroop-green'>BRAIN</p>", "response": "g", "stimulus-type": "unrelated", "word": "BRAIN", "color": "green", "correct_response": "g", "trial_id": "stroop-trial-1-unrelated-1", "trial_type": "html-keyboard-response", "trial_index": 98, "time_elapsed": 276497, "internal_node_id": "0.0-6.0-3.0"}}, {"uniqueid": "w80276223:a70469150", "current_trial": 99, "dateTime": 1664555628782, "trialdata": {"rt": 870, "stimulus": "<p id='stroop-text' class='stroop-blue'>RED</p>", "response": "b", "stimulus-type": "incongruent", "word": "red", "color": "blue", "correct_response": "b", "trial_id": "stroop-trial-1-incongruent-12", "trial_type": "html-keyboard-response", "trial_index": 99, "time_elapsed": 277872, "internal_node_id": "0.0-6.0-4.0"}}, {"uniqueid": "w80276223:a70469150", "current_trial": 100, "dateTime": 1664555629853, "trialdata": {"rt": 566, "stimulus": "<p id='stroop-text' class='stroop-red'>RED</p>", "response": "r", "stimulus-type": "congruent", "word": "red", "color": "red", "correct_response": "r", "trial_id": "stroop-trial-1-congruent-8", "trial_type": "html-keyboard-response", "trial_index": 100, "time_elapsed": 278943, "internal_node_id": "0.0-6.0-5.0"}}, {"uniqueid": "w80276223:a70469150", "current_trial": 101, "dateTime": 1664555631072, "trialdata": {"rt": 715, "stimulus": "<p id='stroop-text' class='stroop-green'>DOG</p>", "response": "g", "stimulus-type": "unrelated", "word": "DOG", "color": "green", "correct_response": "g", "trial_id": "stroop-trial-1-unrelated-6", "trial_type": "html-keyboard-response", "trial_index": 101, "time_elapsed": 280161, "internal_node_id": "0.0-6.0-6.0"}}, {"uniqueid": "w80276223:a70469150", "current_trial": 102, "dateTime": 1664555632188, "trialdata": {"rt": 612, "stimulus": "<p id='stroop-text' class='stroop-red'>BRIDGE</p>", "response": "r", "stimulus-type": "unrelated", "word": "BRIDGE", "color": "red", "correct_response": "r", "trial_id": "stroop-trial-1-unrelated-30", "trial_type": "html-keyboard-response", "trial_index": 102, "time_elapsed": 281278, "internal_node_id": "0.0-6.0-7.0"}}, {"uniqueid": "w80276223:a70469150", "current_trial": 103, "dateTime": 1664555633250, "trialdata": {"rt": 558, "stimulus": "<p id='stroop-text' class='stroop-green'>GREEN</p>", "response": "g", "stimulus-type": "congruent", "word": "green", "color": "green", "correct_response": "g", "trial_id": "stroop-trial-1-congruent-9", "trial_type": "html-keyboard-response", "trial_index": 103, "time_elapsed": 282340, "internal_node_id": "0.0-6.0-8.0"}}, {"uniqueid": "w80276223:a70469150", "current_trial": 104, "dateTime": 1664555634337, "trialdata": {"rt": 577, "stimulus": "<p id='stroop-text' class='stroop-green'>RED</p>", "response": "g", "stimulus-type": "incongruent", "word": "red", "color": "green", "correct_response": "g", "trial_id": "stroop-trial-1-incongruent-21", "trial_type": "html-keyboard-response", "trial_index": 104, "time_elapsed": 283427, "internal_node_id": "0.0-6.0-9.0"}}, {"uniqueid": "w80276223:a70469150", "current_trial": 105, "dateTime": 1664555635390, "trialdata": {"rt": 550, "stimulus": "<p id='stroop-text' class='stroop-red'>GREEN</p>", "response": "r", "stimulus-type": "incongruent", "word": "green", "color": "red", "correct_response": "r", "trial_id": "stroop-trial-1-incongruent-6", "trial_type": "html-keyboard-response", "trial_index": 105, "time_elapsed": 284480, "internal_node_id": "0.0-6.0-10.0"}}, {"uniqueid": "w80276223:a70469150", "current_trial": 106, "dateTime": 1664555636436, "trialdata": {"rt": 541, "stimulus": "<p id='stroop-text' class='stroop-blue'>BLUE</p>", "response": "b", "stimulus-type": "congruent", "word": "blue", "color": "blue", "correct_response": "b", "trial_id": "stroop-trial-1-congruent-11", "trial_type": "html-keyboard-response", "trial_index": 106, "time_elapsed": 285526, "internal_node_id": "0.0-6.0-11.0"}}, {"uniqueid": "w80276223:a70469150", "current_trial": 107, "dateTime": 1664555637949, "trialdata": {"rt": 1008, "stimulus": "<p id='stroop-text' class='stroop-green'>WINDOW</p>", "response": "g", "stimulus-type": "unrelated", "word": "WINDOW", "color": "green", "correct_response": "g", "trial_id": "stroop-trial-1-unrelated-11", "trial_type": "html-keyboard-response", "trial_index": 107, "time_elapsed": 287039, "internal_node_id": "0.0-6.0-12.0"}}, {"uniqueid": "w80276223:a70469150", "current_trial": 108, "dateTime": 1664555639113, "trialdata": {"rt": 658, "stimulus": "<p id='stroop-text' class='stroop-red'>YELLOW</p>", "response": "r", "stimulus-type": "incongruent", "word": "yellow", "color": "red", "correct_response": "r", "trial_id": "stroop-trial-1-incongruent-14", "trial_type": "html-keyboard-response", "trial_index": 108, "time_elapsed": 288203, "internal_node_id": "0.0-6.0-13.0"}}, {"uniqueid": "w80276223:a70469150", "current_trial": 109, "dateTime": 1664555640483, "trialdata": {"rt": 865, "stimulus": "<p id='stroop-text' class='stroop-blue'>BLUE</p>", "response": "b", "stimulus-type": "congruent", "word": "blue", "color": "blue", "correct_response": "b", "trial_id": "stroop-trial-1-congruent-26", "trial_type": "html-keyboard-response", "trial_index": 109, "time_elapsed": 289573, "internal_node_id": "0.0-6.0-14.0"}}, {"uniqueid": "w80276223:a70469150", "current_trial": 110, "dateTime": 1664555641432, "trialdata": {"rt": 443, "stimulus": "<p id='stroop-text' class='stroop-blue'>BLUE</p>", "response": "b", "stimulus-type": "congruent", "word": "blue", "color": "blue", "correct_response": "b", "trial_id": "stroop-trial-1-congruent-25", "trial_type": "html-keyboard-response", "trial_index": 110, "time_elapsed": 290521, "internal_node_id": "0.0-6.0-15.0"}}, {"uniqueid": "w80276223:a70469150", "current_trial": 111, "dateTime": 1664555642579, "trialdata": {"rt": 640, "stimulus": "<p id='stroop-text' class='stroop-red'>YELLOW</p>", "response": "g", "stimulus-type": "incongruent", "word": "yellow", "color": "red", "correct_response": "r", "trial_id": "stroop-trial-1-incongruent-10", "trial_type": "html-keyboard-response", "trial_index": 111, "time_elapsed": 291669, "internal_node_id": "0.0-6.0-16.0"}}, {"uniqueid": "w80276223:a70469150", "current_trial": 112, "dateTime": 1664555643690, "trialdata": {"rt": 606, "stimulus": "<p id='stroop-text' class='stroop-yellow'>YELLOW</p>", "response": "y", "stimulus-type": "congruent", "word": "yellow", "color": "yellow", "correct_response": "y", "trial_id": "stroop-trial-1-congruent-5", "trial_type": "html-keyboard-response", "trial_index": 112, "time_elapsed": 292779, "internal_node_id": "0.0-6.0-17.0"}}, {"uniqueid": "w80276223:a70469150", "current_trial": 113, "dateTime": 1664555645047, "trialdata": {"rt": 853, "stimulus": "<p id='stroop-text' class='stroop-yellow'>GREEN</p>", "response": "y", "stimulus-type": "incongruent", "word": "green", "color": "yellow", "correct_response": "y", "trial_id": "stroop-trial-1-incongruent-15", "trial_type": "html-keyboard-response", "trial_index": 113, "time_elapsed": 294136, "internal_node_id": "0.0-6.0-18.0"}}, {"uniqueid": "w80276223:a70469150", "current_trial": 114, "dateTime": 1664555646787, "trialdata": {"rt": 1236, "stimulus": "<p id='stroop-text' class='stroop-green'>CHAIR</p>", "response": "g", "stimulus-type": "unrelated", "word": "CHAIR", "color": "green", "correct_response": "g", "trial_id": "stroop-trial-1-unrelated-27", "trial_type": "html-keyboard-response", "trial_index": 114, "time_elapsed": 295876, "internal_node_id": "0.0-6.0-19.0"}}, {"uniqueid": "w80276223:a70469150", "current_trial": 115, "dateTime": 1664555648065, "trialdata": {"rt": 757, "stimulus": "<p id='stroop-text' class='stroop-red'>BLUE</p>", "response": "r", "stimulus-type": "incongruent", "word": "blue", "color": "red", "correct_response": "r", "trial_id": "stroop-trial-1-incongruent-23", "trial_type": "html-keyboard-response", "trial_index": 115, "time_elapsed": 297155, "internal_node_id": "0.0-6.0-20.0"}}, {"uniqueid": "w80276223:a70469150", "current_trial": 116, "dateTime": 1664555649318, "trialdata": {"rt": 747, "stimulus": "<p id='stroop-text' class='stroop-yellow'>BLUE</p>", "response": "y", "stimulus-type": "incongruent", "word": "blue", "color": "yellow", "correct_response": "y", "trial_id": "stroop-trial-1-incongruent-1", "trial_type": "html-keyboard-response", "trial_index": 116, "time_elapsed": 298407, "internal_node_id": "0.0-6.0-21.0"}}, {"uniqueid": "w80276223:a70469150", "current_trial": 117, "dateTime": 1664555650574, "trialdata": {"rt": 752, "stimulus": "<p id='stroop-text' class='stroop-yellow'>MONKEY</p>", "response": "y", "stimulus-type": "unrelated", "word": "MONKEY", "color": "yellow", "correct_response": "y", "trial_id": "stroop-trial-1-unrelated-18", "trial_type": "html-keyboard-response", "trial_index": 117, "time_elapsed": 299664, "internal_node_id": "0.0-6.0-22.0"}}, {"uniqueid": "w80276223:a70469150", "current_trial": 118, "dateTime": 1664555651569, "trialdata": {"rt": 491, "stimulus": "<p id='stroop-text' class='stroop-yellow'>RED</p>", "response": "y", "stimulus-type": "incongruent", "word": "red", "color": "yellow", "correct_response": "y", "trial_id": "stroop-trial-1-incongruent-17", "trial_type": "html-keyboard-response", "trial_index": 118, "time_elapsed": 300658, "internal_node_id": "0.0-6.0-23.0"}}, {"uniqueid": "w80276223:a70469150", "current_trial": 119, "dateTime": 1664555652633, "trialdata": {"rt": 561, "stimulus": "<p id='stroop-text' class='stroop-green'>YELLOW</p>", "response": "g", "stimulus-type": "incongruent", "word": "yellow", "color": "green", "correct_response": "g", "trial_id": "stroop-trial-1-incongruent-30", "trial_type": "html-keyboard-response", "trial_index": 119, "time_elapsed": 301723, "internal_node_id": "0.0-6.0-24.0"}}, {"uniqueid": "w80276223:a70469150", "current_trial": 120, "dateTime": 1664555653757, "trialdata": {"rt": 619, "stimulus": "<p id='stroop-text' class='stroop-yellow'>FORK</p>", "response": "y", "stimulus-type": "unrelated", "word": "FORK", "color": "yellow", "correct_response": "y", "trial_id": "stroop-trial-1-unrelated-2", "trial_type": "html-keyboard-response", "trial_index": 120, "time_elapsed": 302847, "internal_node_id": "0.0-6.0-25.0"}}, {"uniqueid": "w80276223:a70469150", "current_trial": 121, "dateTime": 1664555654999, "trialdata": {"rt": 738, "stimulus": "<p id='stroop-text' class='stroop-blue'>GREEN</p>", "response": "b", "stimulus-type": "incongruent", "word": "green", "color": "blue", "correct_response": "b", "trial_id": "stroop-trial-1-incongruent-7", "trial_type": "html-keyboard-response", "trial_index": 121, "time_elapsed": 304089, "internal_node_id": "0.0-6.0-26.0"}}, {"uniqueid": "w80276223:a70469150", "current_trial": 122, "dateTime": 1664555656328, "trialdata": {"rt": 824, "stimulus": "<p id='stroop-text' class='stroop-green'>RED</p>", "response": "g", "stimulus-type": "incongruent", "word": "red", "color": "green", "correct_response": "g", "trial_id": "stroop-trial-1-incongruent-18", "trial_type": "html-keyboard-response", "trial_index": 122, "time_elapsed": 305418, "internal_node_id": "0.0-6.0-27.0"}}, {"uniqueid": "w80276223:a70469150", "current_trial": 123, "dateTime": 1664555657491, "trialdata": {"rt": 659, "stimulus": "<p id='stroop-text' class='stroop-green'>GREEN</p>", "response": "g", "stimulus-type": "congruent", "word": "green", "color": "green", "correct_response": "g", "trial_id": "stroop-trial-1-congruent-15", "trial_type": "html-keyboard-response", "trial_index": 123, "time_elapsed": 306581, "internal_node_id": "0.0-6.0-28.0"}}, {"uniqueid": "w80276223:a70469150", "current_trial": 124, "dateTime": 1664555658747, "trialdata": {"rt": 747, "stimulus": "<p id='stroop-text' class='stroop-blue'>BLUE</p>", "response": "b", "stimulus-type": "congruent", "word": "blue", "color": "blue", "correct_response": "b", "trial_id": "stroop-trial-1-congruent-16", "trial_type": "html-keyboard-response", "trial_index": 124, "time_elapsed": 307836, "internal_node_id": "0.0-6.0-29.0"}}, {"uniqueid": "w80276223:a70469150", "current_trial": 125, "dateTime": 1664555659870, "trialdata": {"rt": 618, "stimulus": "<p id='stroop-text' class='stroop-blue'>RED</p>", "response": "b", "stimulus-type": "incongruent", "word": "red", "color": "blue", "correct_response": "b", "trial_id": "stroop-trial-1-incongruent-19", "trial_type": "html-keyboard-response", "trial_index": 125, "time_elapsed": 308959, "internal_node_id": "0.0-6.0-30.0"}}, {"uniqueid": "w80276223:a70469150", "current_trial": 126, "dateTime": 1664555661035, "trialdata": {"rt": 660, "stimulus": "<p id='stroop-text' class='stroop-yellow'>FORK</p>", "response": "y", "stimulus-type": "unrelated", "word": "FORK", "color": "yellow", "correct_response": "y", "trial_id": "stroop-trial-1-unrelated-28", "trial_type": "html-keyboard-response", "trial_index": 126, "time_elapsed": 310124, "internal_node_id": "0.0-6.0-31.0"}}, {"uniqueid": "w80276223:a70469150", "current_trial": 127, "dateTime": 1664555662309, "trialdata": {"rt": 769, "stimulus": "<p id='stroop-text' class='stroop-blue'>RED</p>", "response": "b", "stimulus-type": "incongruent", "word": "red", "color": "blue", "correct_response": "b", "trial_id": "stroop-trial-1-incongruent-20", "trial_type": "html-keyboard-response", "trial_index": 127, "time_elapsed": 311398, "internal_node_id": "0.0-6.0-32.0"}}, {"uniqueid": "w80276223:a70469150", "current_trial": 128, "dateTime": 1664555663334, "trialdata": {"rt": 520, "stimulus": "<p id='stroop-text' class='stroop-yellow'>YELLOW</p>", "response": "y", "stimulus-type": "congruent", "word": "yellow", "color": "yellow", "correct_response": "y", "trial_id": "stroop-trial-1-congruent-18", "trial_type": "html-keyboard-response", "trial_index": 128, "time_elapsed": 312423, "internal_node_id": "0.0-6.0-33.0"}}, {"uniqueid": "w80276223:a70469150", "current_trial": 129, "dateTime": 1664555664317, "trialdata": {"rt": 480, "stimulus": "<p id='stroop-text' class='stroop-yellow'>YELLOW</p>", "response": "y", "stimulus-type": "congruent", "word": "yellow", "color": "yellow", "correct_response": "y", "trial_id": "stroop-trial-1-congruent-27", "trial_type": "html-keyboard-response", "trial_index": 129, "time_elapsed": 313407, "internal_node_id": "0.0-6.0-34.0"}}, {"uniqueid": "w80276223:a70469150", "current_trial": 130, "dateTime": 1664555665761, "trialdata": {"rt": 938, "stimulus": "<p id='stroop-text' class='stroop-blue'>BLUE</p>", "response": "b", "stimulus-type": "congruent", "word": "blue", "color": "blue", "correct_response": "b", "trial_id": "stroop-trial-1-congruent-22", "trial_type": "html-keyboard-response", "trial_index": 130, "time_elapsed": 314851, "internal_node_id": "0.0-6.0-35.0"}}, {"uniqueid": "w80276223:a70469150", "current_trial": 131, "dateTime": 1664555666767, "trialdata": {"rt": 497, "stimulus": "<p id='stroop-text' class='stroop-red'>RED</p>", "response": "r", "stimulus-type": "congruent", "word": "red", "color": "red", "correct_response": "r", "trial_id": "stroop-trial-1-congruent-17", "trial_type": "html-keyboard-response", "trial_index": 131, "time_elapsed": 315857, "internal_node_id": "0.0-6.0-36.0"}}, {"uniqueid": "w80276223:a70469150", "current_trial": 132, "dateTime": 1664555667786, "trialdata": {"rt": 515, "stimulus": "<p id='stroop-text' class='stroop-yellow'>YELLOW</p>", "response": "y", "stimulus-type": "congruent", "word": "yellow", "color": "yellow", "correct_response": "y", "trial_id": "stroop-trial-1-congruent-20", "trial_type": "html-keyboard-response", "trial_index": 132, "time_elapsed": 316875, "internal_node_id": "0.0-6.0-37.0"}}, {"uniqueid": "w80276223:a70469150", "current_trial": 133, "dateTime": 1664555669135, "trialdata": {"rt": 843, "stimulus": "<p id='stroop-text' class='stroop-red'>RED</p>", "response": "r", "stimulus-type": "congruent", "word": "red", "color": "red", "correct_response": "r", "trial_id": "stroop-trial-1-congruent-24", "trial_type": "html-keyboard-response", "trial_index": 133, "time_elapsed": 318224, "internal_node_id": "0.0-6.0-38.0"}}, {"uniqueid": "w80276223:a70469150", "current_trial": 134, "dateTime": 1664555670326, "trialdata": {"rt": 686, "stimulus": "<p id='stroop-text' class='stroop-yellow'>GREEN</p>", "response": "y", "stimulus-type": "incongruent", "word": "green", "color": "yellow", "correct_response": "y", "trial_id": "stroop-trial-1-incongruent-29", "trial_type": "html-keyboard-response", "trial_index": 134, "time_elapsed": 319415, "internal_node_id": "0.0-6.0-39.0"}}, {"uniqueid": "w80276223:a70469150", "current_trial": 135, "dateTime": 1664555671428, "trialdata": {"rt": 597, "stimulus": "<p id='stroop-text' class='stroop-yellow'>DOG</p>", "response": "y", "stimulus-type": "unrelated", "word": "DOG", "color": "yellow", "correct_response": "y", "trial_id": "stroop-trial-1-unrelated-7", "trial_type": "html-keyboard-response", "trial_index": 135, "time_elapsed": 320517, "internal_node_id": "0.0-6.0-40.0"}}, {"uniqueid": "w80276223:a70469150", "current_trial": 136, "dateTime": 1664555672687, "trialdata": {"rt": 754, "stimulus": "<p id='stroop-text' class='stroop-blue'>YELLOW</p>", "response": "b", "stimulus-type": "incongruent", "word": "yellow", "color": "blue", "correct_response": "b", "trial_id": "stroop-trial-1-incongruent-24", "trial_type": "html-keyboard-response", "trial_index": 136, "time_elapsed": 321776, "internal_node_id": "0.0-6.0-41.0"}}, {"uniqueid": "w80276223:a70469150", "current_trial": 137, "dateTime": 1664555673812, "trialdata": {"rt": 620, "stimulus": "<p id='stroop-text' class='stroop-blue'>BOTTLE</p>", "response": "b", "stimulus-type": "unrelated", "word": "BOTTLE", "color": "blue", "correct_response": "b", "trial_id": "stroop-trial-1-unrelated-8", "trial_type": "html-keyboard-response", "trial_index": 137, "time_elapsed": 322902, "internal_node_id": "0.0-6.0-42.0"}}, {"uniqueid": "w80276223:a70469150", "current_trial": 138, "dateTime": 1664555674709, "trialdata": {"rt": 392, "stimulus": "<p id='stroop-text' class='stroop-blue'>DOG</p>", "response": "b", "stimulus-type": "unrelated", "word": "DOG", "color": "blue", "correct_response": "b", "trial_id": "stroop-trial-1-unrelated-20", "trial_type": "html-keyboard-response", "trial_index": 138, "time_elapsed": 323799, "internal_node_id": "0.0-6.0-43.0"}}, {"uniqueid": "w80276223:a70469150", "current_trial": 139, "dateTime": 1664555675730, "trialdata": {"rt": 510, "stimulus": "<p id='stroop-text' class='stroop-red'>BOAT</p>", "response": "r", "stimulus-type": "unrelated", "word": "BOAT", "color": "red", "correct_response": "r", "trial_id": "stroop-trial-1-unrelated-5", "trial_type": "html-keyboard-response", "trial_index": 139, "time_elapsed": 324820, "internal_node_id": "0.0-6.0-44.0"}}, {"uniqueid": "w80276223:a70469150", "current_trial": 140, "dateTime": 1664555677059, "trialdata": {"rt": 812, "stimulus": "<p id='stroop-text' class='stroop-yellow'>RED</p>", "response": "y", "stimulus-type": "incongruent", "word": "red", "color": "yellow", "correct_response": "y", "trial_id": "stroop-trial-1-incongruent-22", "trial_type": "html-keyboard-response", "trial_index": 140, "time_elapsed": 326149, "internal_node_id": "0.0-6.0-45.0"}}, {"uniqueid": "w80276223:a70469150", "current_trial": 141, "dateTime": 1664555678515, "trialdata": {"rt": 953, "stimulus": "<p id='stroop-text' class='stroop-green'>YELLOW</p>", "response": "g", "stimulus-type": "incongruent", "word": "yellow", "color": "green", "correct_response": "g", "trial_id": "stroop-trial-1-incongruent-8", "trial_type": "html-keyboard-response", "trial_index": 141, "time_elapsed": 327605, "internal_node_id": "0.0-6.0-46.0"}}, {"uniqueid": "w80276223:a70469150", "current_trial": 142, "dateTime": 1664555680328, "trialdata": {"rt": 1308, "stimulus": "<p id='stroop-text' class='stroop-blue'>YELLOW</p>", "response": "b", "stimulus-type": "incongruent", "word": "yellow", "color": "blue", "correct_response": "b", "trial_id": "stroop-trial-1-incongruent-11", "trial_type": "html-keyboard-response", "trial_index": 142, "time_elapsed": 329418, "internal_node_id": "0.0-6.0-47.0"}}, {"uniqueid": "w80276223:a70469150", "current_trial": 143, "dateTime": 1664555681314, "trialdata": {"rt": 481, "stimulus": "<p id='stroop-text' class='stroop-blue'>GREEN</p>", "response": "b", "stimulus-type": "incongruent", "word": "green", "color": "blue", "correct_response": "b", "trial_id": "stroop-trial-1-incongruent-4", "trial_type": "html-keyboard-response", "trial_index": 143, "time_elapsed": 330404, "internal_node_id": "0.0-6.0-48.0"}}, {"uniqueid": "w80276223:a70469150", "current_trial": 144, "dateTime": 1664555682817, "trialdata": {"rt": 998, "stimulus": "<p id='stroop-text' class='stroop-green'>RED</p>", "response": "g", "stimulus-type": "incongruent", "word": "red", "color": "green", "correct_response": "g", "trial_id": "stroop-trial-1-incongruent-9", "trial_type": "html-keyboard-response", "trial_index": 144, "time_elapsed": 331906, "internal_node_id": "0.0-6.0-49.0"}}, {"uniqueid": "w80276223:a70469150", "current_trial": 145, "dateTime": 1664555684199, "trialdata": {"rt": 877, "stimulus": "<p id='stroop-text' class='stroop-yellow'>CHAIR</p>", "response": "y", "stimulus-type": "unrelated", "word": "CHAIR", "color": "yellow", "correct_response": "y", "trial_id": "stroop-trial-1-unrelated-16", "trial_type": "html-keyboard-response", "trial_index": 145, "time_elapsed": 333289, "internal_node_id": "0.0-6.0-50.0"}}, {"uniqueid": "w80276223:a70469150", "current_trial": 146, "dateTime": 1664555685294, "trialdata": {"rt": 591, "stimulus": "<p id='stroop-text' class='stroop-blue'>BLUE</p>", "response": "b", "stimulus-type": "congruent", "word": "blue", "color": "blue", "correct_response": "b", "trial_id": "stroop-trial-1-congruent-19", "trial_type": "html-keyboard-response", "trial_index": 146, "time_elapsed": 334384, "internal_node_id": "0.0-6.0-51.0"}}, {"uniqueid": "w80276223:a70469150", "current_trial": 147, "dateTime": 1664555686281, "trialdata": {"rt": 482, "stimulus": "<p id='stroop-text' class='stroop-red'>RED</p>", "response": "r", "stimulus-type": "congruent", "word": "red", "color": "red", "correct_response": "r", "trial_id": "stroop-trial-1-congruent-29", "trial_type": "html-keyboard-response", "trial_index": 147, "time_elapsed": 335370, "internal_node_id": "0.0-6.0-52.0"}}, {"uniqueid": "w80276223:a70469150", "current_trial": 148, "dateTime": 1664555687668, "trialdata": {"rt": 882, "stimulus": "<p id='stroop-text' class='stroop-green'>DOG</p>", "response": "g", "stimulus-type": "unrelated", "word": "DOG", "color": "green", "correct_response": "g", "trial_id": "stroop-trial-1-unrelated-15", "trial_type": "html-keyboard-response", "trial_index": 148, "time_elapsed": 336758, "internal_node_id": "0.0-6.0-53.0"}}, {"uniqueid": "w80276223:a70469150", "current_trial": 149, "dateTime": 1664555688778, "trialdata": {"rt": 603, "stimulus": "<p id='stroop-text' class='stroop-yellow'>YELLOW</p>", "response": "y", "stimulus-type": "congruent", "word": "yellow", "color": "yellow", "correct_response": "y", "trial_id": "stroop-trial-1-congruent-13", "trial_type": "html-keyboard-response", "trial_index": 149, "time_elapsed": 337868, "internal_node_id": "0.0-6.0-54.0"}}, {"uniqueid": "w80276223:a70469150", "current_trial": 150, "dateTime": 1664555689844, "trialdata": {"rt": 552, "stimulus": "<p id='stroop-text' class='stroop-blue'>BRIDGE</p>", "response": "b", "stimulus-type": "unrelated", "word": "BRIDGE", "color": "blue", "correct_response": "b", "trial_id": "stroop-trial-1-unrelated-23", "trial_type": "html-keyboard-response", "trial_index": 150, "time_elapsed": 338933, "internal_node_id": "0.0-6.0-55.0"}}, {"uniqueid": "w80276223:a70469150", "current_trial": 151, "dateTime": 1664555690909, "trialdata": {"rt": 560, "stimulus": "<p id='stroop-text' class='stroop-red'>RED</p>", "response": "r", "stimulus-type": "congruent", "word": "red", "color": "red", "correct_response": "r", "trial_id": "stroop-trial-1-congruent-23", "trial_type": "html-keyboard-response", "trial_index": 151, "time_elapsed": 339998, "internal_node_id": "0.0-6.0-56.0"}}, {"uniqueid": "w80276223:a70469150", "current_trial": 152, "dateTime": 1664555692188, "trialdata": {"rt": 775, "stimulus": "<p id='stroop-text' class='stroop-blue'>DOG</p>", "response": "b", "stimulus-type": "unrelated", "word": "DOG", "color": "blue", "correct_response": "b", "trial_id": "stroop-trial-1-unrelated-13", "trial_type": "html-keyboard-response", "trial_index": 152, "time_elapsed": 341278, "internal_node_id": "0.0-6.0-57.0"}}, {"uniqueid": "w80276223:a70469150", "current_trial": 153, "dateTime": 1664555693196, "trialdata": {"rt": 504, "stimulus": "<p id='stroop-text' class='stroop-blue'>MONKEY</p>", "response": "b", "stimulus-type": "unrelated", "word": "MONKEY", "color": "blue", "correct_response": "b", "trial_id": "stroop-trial-1-unrelated-21", "trial_type": "html-keyboard-response", "trial_index": 153, "time_elapsed": 342286, "internal_node_id": "0.0-6.0-58.0"}}, {"uniqueid": "w80276223:a70469150", "current_trial": 154, "dateTime": 1664555694261, "trialdata": {"rt": 556, "stimulus": "<p id='stroop-text' class='stroop-yellow'>YELLOW</p>", "response": "y", "stimulus-type": "congruent", "word": "yellow", "color": "yellow", "correct_response": "y", "trial_id": "stroop-trial-1-congruent-12", "trial_type": "html-keyboard-response", "trial_index": 154, "time_elapsed": 343350, "internal_node_id": "0.0-6.0-59.0"}}, {"uniqueid": "w80276223:a70469150", "current_trial": 155, "dateTime": 1664555695595, "trialdata": {"rt": 829, "stimulus": "<p id='stroop-text' class='stroop-red'>RED</p>", "response": "r", "stimulus-type": "congruent", "word": "red", "color": "red", "correct_response": "r", "trial_id": "stroop-trial-1-congruent-10", "trial_type": "html-keyboard-response", "trial_index": 155, "time_elapsed": 344685, "internal_node_id": "0.0-6.0-60.0"}}, {"uniqueid": "w80276223:a70469150", "current_trial": 156, "dateTime": 1664555696984, "trialdata": {"rt": 882, "stimulus": "<p id='stroop-text' class='stroop-blue'>SHIP</p>", "response": "b", "stimulus-type": "unrelated", "word": "SHIP", "color": "blue", "correct_response": "b", "trial_id": "stroop-trial-1-unrelated-3", "trial_type": "html-keyboard-response", "trial_index": 156, "time_elapsed": 346073, "internal_node_id": "0.0-6.0-61.0"}}, {"uniqueid": "w80276223:a70469150", "current_trial": 157, "dateTime": 1664555698160, "trialdata": {"rt": 670, "stimulus": "<p id='stroop-text' class='stroop-yellow'>RED</p>", "response": "y", "stimulus-type": "incongruent", "word": "red", "color": "yellow", "correct_response": "y", "trial_id": "stroop-trial-1-incongruent-26", "trial_type": "html-keyboard-response", "trial_index": 157, "time_elapsed": 347249, "internal_node_id": "0.0-6.0-62.0"}}, {"uniqueid": "w80276223:a70469150", "current_trial": 158, "dateTime": 1664555699296, "trialdata": {"rt": 628, "stimulus": "<p id='stroop-text' class='stroop-yellow'>YELLOW</p>", "response": "y", "stimulus-type": "congruent", "word": "yellow", "color": "yellow", "correct_response": "y", "trial_id": "stroop-trial-1-congruent-21", "trial_type": "html-keyboard-response", "trial_index": 158, "time_elapsed": 348385, "internal_node_id": "0.0-6.0-63.0"}}, {"uniqueid": "w80276223:a70469150", "current_trial": 159, "dateTime": 1664555700535, "trialdata": {"rt": 735, "stimulus": "<p id='stroop-text' class='stroop-green'>GREEN</p>", "response": "g", "stimulus-type": "congruent", "word": "green", "color": "green", "correct_response": "g", "trial_id": "stroop-trial-1-congruent-28", "trial_type": "html-keyboard-response", "trial_index": 159, "time_elapsed": 349625, "internal_node_id": "0.0-6.0-64.0"}}, {"uniqueid": "w80276223:a70469150", "current_trial": 160, "dateTime": 1664555701537, "trialdata": {"rt": 497, "stimulus": "<p id='stroop-text' class='stroop-green'>GREEN</p>", "response": "g", "stimulus-type": "congruent", "word": "green", "color": "green", "correct_response": "g", "trial_id": "stroop-trial-1-congruent-14", "trial_type": "html-keyboard-response", "trial_index": 160, "time_elapsed": 350627, "internal_node_id": "0.0-6.0-65.0"}}, {"uniqueid": "w80276223:a70469150", "current_trial": 161, "dateTime": 1664555702648, "trialdata": {"rt": 605, "stimulus": "<p id='stroop-text' class='stroop-yellow'>FORK</p>", "response": "y", "stimulus-type": "unrelated", "word": "FORK", "color": "yellow", "correct_response": "y", "trial_id": "stroop-trial-1-unrelated-24", "trial_type": "html-keyboard-response", "trial_index": 161, "time_elapsed": 351738, "internal_node_id": "0.0-6.0-66.0"}}, {"uniqueid": "w80276223:a70469150", "current_trial": 162, "dateTime": 1664555703806, "trialdata": {"rt": 654, "stimulus": "<p id='stroop-text' class='stroop-green'>GREEN</p>", "response": "g", "stimulus-type": "congruent", "word": "green", "color": "green", "correct_response": "g", "trial_id": "stroop-trial-1-congruent-2", "trial_type": "html-keyboard-response", "trial_index": 162, "time_elapsed": 352896, "internal_node_id": "0.0-6.0-67.0"}}, {"uniqueid": "w80276223:a70469150", "current_trial": 163, "dateTime": 1664555705200, "trialdata": {"rt": 889, "stimulus": "<p id='stroop-text' class='stroop-blue'>GREEN</p>", "response": "b", "stimulus-type": "incongruent", "word": "green", "color": "blue", "correct_response": "b", "trial_id": "stroop-trial-1-incongruent-5", "trial_type": "html-keyboard-response", "trial_index": 163, "time_elapsed": 354290, "internal_node_id": "0.0-6.0-68.0"}}, {"uniqueid": "w80276223:a70469150", "current_trial": 164, "dateTime": 1664555706375, "trialdata": {"rt": 659, "stimulus": "<p id='stroop-text' class='stroop-green'>GREEN</p>", "response": "g", "stimulus-type": "congruent", "word": "green", "color": "green", "correct_response": "g", "trial_id": "stroop-trial-1-congruent-3", "trial_type": "html-keyboard-response", "trial_index": 164, "time_elapsed": 355465, "internal_node_id": "0.0-6.0-69.0"}}, {"uniqueid": "w80276223:a70469150", "current_trial": 165, "dateTime": 1664555707512, "trialdata": {"rt": 632, "stimulus": "<p id='stroop-text' class='stroop-red'>GREEN</p>", "response": "r", "stimulus-type": "incongruent", "word": "green", "color": "red", "correct_response": "r", "trial_id": "stroop-trial-1-incongruent-25", "trial_type": "html-keyboard-response", "trial_index": 165, "time_elapsed": 356602, "internal_node_id": "0.0-6.0-70.0"}}, {"uniqueid": "w80276223:a70469150", "current_trial": 166, "dateTime": 1664555708737, "trialdata": {"rt": 720, "stimulus": "<p id='stroop-text' class='stroop-green'>RED</p>", "response": "g", "stimulus-type": "incongruent", "word": "red", "color": "green", "correct_response": "g", "trial_id": "stroop-trial-1-incongruent-2", "trial_type": "html-keyboard-response", "trial_index": 166, "time_elapsed": 357826, "internal_node_id": "0.0-6.0-71.0"}}, {"uniqueid": "w80276223:a70469150", "current_trial": 167, "dateTime": 1664555709739, "trialdata": {"rt": 497, "stimulus": "<p id='stroop-text' class='stroop-green'>RED</p>", "response": "g", "stimulus-type": "incongruent", "word": "red", "color": "green", "correct_response": "g", "trial_id": "stroop-trial-1-incongruent-28", "trial_type": "html-keyboard-response", "trial_index": 167, "time_elapsed": 358828, "internal_node_id": "0.0-6.0-72.0"}}, {"uniqueid": "w80276223:a70469150", "current_trial": 168, "dateTime": 1664555710810, "trialdata": {"rt": 568, "stimulus": "<p id='stroop-text' class='stroop-yellow'>RED</p>", "response": "y", "stimulus-type": "incongruent", "word": "red", "color": "yellow", "correct_response": "y", "trial_id": "stroop-trial-1-incongruent-16", "trial_type": "html-keyboard-response", "trial_index": 168, "time_elapsed": 359900, "internal_node_id": "0.0-6.0-73.0"}}, {"uniqueid": "w80276223:a70469150", "current_trial": 169, "dateTime": 1664555711887, "trialdata": {"rt": 560, "stimulus": "<p id='stroop-text' class='stroop-green'>GREEN</p>", "response": "g", "stimulus-type": "congruent", "word": "green", "color": "green", "correct_response": "g", "trial_id": "stroop-trial-1-congruent-1", "trial_type": "html-keyboard-response", "trial_index": 169, "time_elapsed": 360976, "internal_node_id": "0.0-6.0-74.0"}}, {"uniqueid": "w80276223:a70469150", "current_trial": 170, "dateTime": 1664555713022, "trialdata": {"rt": 630, "stimulus": "<p id='stroop-text' class='stroop-green'>CHAIR</p>", "response": "g", "stimulus-type": "unrelated", "word": "CHAIR", "color": "green", "correct_response": "g", "trial_id": "stroop-trial-1-unrelated-17", "trial_type": "html-keyboard-response", "trial_index": 170, "time_elapsed": 362112, "internal_node_id": "0.0-6.0-75.0"}}, {"uniqueid": "w80276223:a70469150", "current_trial": 171, "dateTime": 1664555714155, "trialdata": {"rt": 625, "stimulus": "<p id='stroop-text' class='stroop-red'>BRAIN</p>", "response": "r", "stimulus-type": "unrelated", "word": "BRAIN", "color": "red", "correct_response": "r", "trial_id": "stroop-trial-1-unrelated-12", "trial_type": "html-keyboard-response", "trial_index": 171, "time_elapsed": 363244, "internal_node_id": "0.0-6.0-76.0"}}, {"uniqueid": "w80276223:a70469150", "current_trial": 172, "dateTime": 1664555715437, "trialdata": {"rt": 775, "stimulus": "<p id='stroop-text' class='stroop-green'>DOG</p>", "response": "g", "stimulus-type": "unrelated", "word": "DOG", "color": "green", "correct_response": "g", "trial_id": "stroop-trial-1-unrelated-14", "trial_type": "html-keyboard-response", "trial_index": 172, "time_elapsed": 364527, "internal_node_id": "0.0-6.0-77.0"}}, {"uniqueid": "w80276223:a70469150", "current_trial": 173, "dateTime": 1664555716427, "trialdata": {"rt": 484, "stimulus": "<p id='stroop-text' class='stroop-yellow'>YELLOW</p>", "response": "y", "stimulus-type": "congruent", "word": "yellow", "color": "yellow", "correct_response": "y", "trial_id": "stroop-trial-1-congruent-30", "trial_type": "html-keyboard-response", "trial_index": 173, "time_elapsed": 365516, "internal_node_id": "0.0-6.0-78.0"}}, {"uniqueid": "w80276223:a70469150", "current_trial": 174, "dateTime": 1664555717564, "trialdata": {"rt": 631, "stimulus": "<p id='stroop-text' class='stroop-blue'>CHAIR</p>", "response": "b", "stimulus-type": "unrelated", "word": "CHAIR", "color": "blue", "correct_response": "b", "trial_id": "stroop-trial-1-unrelated-22", "trial_type": "html-keyboard-response", "trial_index": 174, "time_elapsed": 366653, "internal_node_id": "0.0-6.0-79.0"}}, {"uniqueid": "w80276223:a70469150", "current_trial": 175, "dateTime": 1664555718771, "trialdata": {"rt": 697, "stimulus": "<p id='stroop-text' class='stroop-yellow'>BLUE</p>", "response": "y", "stimulus-type": "incongruent", "word": "blue", "color": "yellow", "correct_response": "y", "trial_id": "stroop-trial-1-incongruent-3", "trial_type": "html-keyboard-response", "trial_index": 175, "time_elapsed": 367861, "internal_node_id": "0.0-6.0-80.0"}}, {"uniqueid": "w80276223:a70469150", "current_trial": 176, "dateTime": 1664555720041, "trialdata": {"rt": 764, "stimulus": "<p id='stroop-text' class='stroop-red'>BRIDGE</p>", "response": "r", "stimulus-type": "unrelated", "word": "BRIDGE", "color": "red", "correct_response": "r", "trial_id": "stroop-trial-1-unrelated-26", "trial_type": "html-keyboard-response", "trial_index": 176, "time_elapsed": 369131, "internal_node_id": "0.0-6.0-81.0"}}, {"uniqueid": "w80276223:a70469150", "current_trial": 177, "dateTime": 1664555721269, "trialdata": {"rt": 719, "stimulus": "<p id='stroop-text' class='stroop-yellow'>BRAIN</p>", "response": "g", "stimulus-type": "unrelated", "word": "BRAIN", "color": "yellow", "correct_response": "y", "trial_id": "stroop-trial-1-unrelated-4", "trial_type": "html-keyboard-response", "trial_index": 177, "time_elapsed": 370359, "internal_node_id": "0.0-6.0-82.0"}}, {"uniqueid": "w80276223:a70469150", "current_trial": 178, "dateTime": 1664555722698, "trialdata": {"rt": 925, "stimulus": "<p id='stroop-text' class='stroop-blue'>GREEN</p>", "response": "b", "stimulus-type": "incongruent", "word": "green", "color": "blue", "correct_response": "b", "trial_id": "stroop-trial-1-incongruent-13", "trial_type": "html-keyboard-response", "trial_index": 178, "time_elapsed": 371788, "internal_node_id": "0.0-6.0-83.0"}}, {"uniqueid": "w80276223:a70469150", "current_trial": 179, "dateTime": 1664555723914, "trialdata": {"rt": 710, "stimulus": "<p id='stroop-text' class='stroop-blue'>BLUE</p>", "response": "b", "stimulus-type": "congruent", "word": "blue", "color": "blue", "correct_response": "b", "trial_id": "stroop-trial-1-congruent-4", "trial_type": "html-keyboard-response", "trial_index": 179, "time_elapsed": 373003, "internal_node_id": "0.0-6.0-84.0"}}, {"uniqueid": "w80276223:a70469150", "current_trial": 180, "dateTime": 1664555725169, "trialdata": {"rt": 750, "stimulus": "<p id='stroop-text' class='stroop-green'>DOG</p>", "response": "g", "stimulus-type": "unrelated", "word": "DOG", "color": "green", "correct_response": "g", "trial_id": "stroop-trial-1-unrelated-9", "trial_type": "html-keyboard-response", "trial_index": 180, "time_elapsed": 374259, "internal_node_id": "0.0-6.0-85.0"}}, {"uniqueid": "w80276223:a70469150", "current_trial": 181, "dateTime": 1664555726270, "trialdata": {"rt": 596, "stimulus": "<p id='stroop-text' class='stroop-red'>RED</p>", "response": "r", "stimulus-type": "congruent", "word": "red", "color": "red", "correct_response": "r", "trial_id": "stroop-trial-1-congruent-7", "trial_type": "html-keyboard-response", "trial_index": 181, "time_elapsed": 375359, "internal_node_id": "0.0-6.0-86.0"}}, {"uniqueid": "w80276223:a70469150", "current_trial": 182, "dateTime": 1664555727395, "trialdata": {"rt": 621, "stimulus": "<p id='stroop-text' class='stroop-red'>WINDOW</p>", "response": "r", "stimulus-type": "unrelated", "word": "WINDOW", "color": "red", "correct_response": "r", "trial_id": "stroop-trial-1-unrelated-10", "trial_type": "html-keyboard-response", "trial_index": 182, "time_elapsed": 376485, "internal_node_id": "0.0-6.0-87.0"}}, {"uniqueid": "w80276223:a70469150", "current_trial": 183, "dateTime": 1664555728716, "trialdata": {"rt": 814, "stimulus": "<p id='stroop-text' class='stroop-green'>YELLOW</p>", "response": "g", "stimulus-type": "incongruent", "word": "yellow", "color": "green", "correct_response": "g", "trial_id": "stroop-trial-1-incongruent-27", "trial_type": "html-keyboard-response", "trial_index": 183, "time_elapsed": 377805, "internal_node_id": "0.0-6.0-88.0"}}, {"uniqueid": "w80276223:a70469150", "current_trial": 184, "dateTime": 1664555729723, "trialdata": {"rt": 501, "stimulus": "<p id='stroop-text' class='stroop-green'>MONKEY</p>", "response": "g", "stimulus-type": "unrelated", "word": "MONKEY", "color": "green", "correct_response": "g", "trial_id": "stroop-trial-1-unrelated-19", "trial_type": "html-keyboard-response", "trial_index": 184, "time_elapsed": 378813, "internal_node_id": "0.0-6.0-89.0"}}, {"uniqueid": "w80276223:a70469150", "current_trial": 185, "dateTime": 1664555763669, "trialdata": {"rt": 33440, "stimulus": "  <h1> End of block! </h1>\n\n  You have reached the end of the block 2/5. If you need a short break, feel free to take one now before moving on.\n\n  <br><br>\n  In the next block, you will complete another 90 rounds of this game.\n\n  <br><br>\n  <div style='text-align: center;'>Press <code>space</code> to begin.</div>\n  <br><br>\n<div style='text-align: center;'>(If the experiment doesn't continue, try clicking on the text and then pressing <code>space</code>.)</div>", "response": " ", "trial_id": "stroop_1_ready_3", "trial_type": "html-keyboard-response", "trial_index": 185, "time_elapsed": 412758, "internal_node_id": "0.0-7.0"}}, {"uniqueid": "w80276223:a70469150", "current_trial": 186, "dateTime": 1664555764295, "trialdata": {"rt": 619, "stimulus": "<p id='stroop-text' class='stroop-blue'>RED</p>", "response": "b", "stimulus-type": "incongruent", "word": "red", "color": "blue", "correct_response": "b", "trial_id": "stroop-trial-1-incongruent-12", "trial_type": "html-keyboard-response", "trial_index": 186, "time_elapsed": 413384, "internal_node_id": "0.0-8.0-0.0"}}, {"uniqueid": "w80276223:a70469150", "current_trial": 187, "dateTime": 1664555765258, "trialdata": {"rt": 458, "stimulus": "<p id='stroop-text' class='stroop-yellow'>BRAIN</p>", "response": "y", "stimulus-type": "unrelated", "word": "BRAIN", "color": "yellow", "correct_response": "y", "trial_id": "stroop-trial-1-unrelated-21", "trial_type": "html-keyboard-response", "trial_index": 187, "time_elapsed": 414347, "internal_node_id": "0.0-8.0-1.0"}}, {"uniqueid": "w80276223:a70469150", "current_trial": 188, "dateTime": 1664555766304, "trialdata": {"rt": 540, "stimulus": "<p id='stroop-text' class='stroop-green'>GREEN</p>", "response": "g", "stimulus-type": "congruent", "word": "green", "color": "green", "correct_response": "g", "trial_id": "stroop-trial-1-congruent-7", "trial_type": "html-keyboard-response", "trial_index": 188, "time_elapsed": 415393, "internal_node_id": "0.0-8.0-2.0"}}, {"uniqueid": "w80276223:a70469150", "current_trial": 189, "dateTime": 1664555767628, "trialdata": {"rt": 817, "stimulus": "<p id='stroop-text' class='stroop-green'>GREEN</p>", "response": "g", "stimulus-type": "congruent", "word": "green", "color": "green", "correct_response": "g", "trial_id": "stroop-trial-1-congruent-17", "trial_type": "html-keyboard-response", "trial_index": 189, "time_elapsed": 416718, "internal_node_id": "0.0-8.0-3.0"}}, {"uniqueid": "w80276223:a70469150", "current_trial": 190, "dateTime": 1664555768806, "trialdata": {"rt": 672, "stimulus": "<p id='stroop-text' class='stroop-red'>MONKEY</p>", "response": "r", "stimulus-type": "unrelated", "word": "MONKEY", "color": "red", "correct_response": "r", "trial_id": "stroop-trial-1-unrelated-2", "trial_type": "html-keyboard-response", "trial_index": 190, "time_elapsed": 417895, "internal_node_id": "0.0-8.0-4.0"}}, {"uniqueid": "w80276223:a70469150", "current_trial": 191, "dateTime": 1664555770675, "trialdata": {"rt": 1362, "stimulus": "<p id='stroop-text' class='stroop-green'>GREEN</p>", "response": "g", "stimulus-type": "congruent", "word": "green", "color": "green", "correct_response": "g", "trial_id": "stroop-trial-1-congruent-11", "trial_type": "html-keyboard-response", "trial_index": 191, "time_elapsed": 419764, "internal_node_id": "0.0-8.0-5.0"}}, {"uniqueid": "w80276223:a70469150", "current_trial": 192, "dateTime": 1664555771605, "trialdata": {"rt": 426, "stimulus": "<p id='stroop-text' class='stroop-green'>GREEN</p>", "response": "g", "stimulus-type": "congruent", "word": "green", "color": "green", "correct_response": "g", "trial_id": "stroop-trial-1-congruent-30", "trial_type": "html-keyboard-response", "trial_index": 192, "time_elapsed": 420694, "internal_node_id": "0.0-8.0-6.0"}}, {"uniqueid": "w80276223:a70469150", "current_trial": 193, "dateTime": 1664555772580, "trialdata": {"rt": 470, "stimulus": "<p id='stroop-text' class='stroop-blue'>BLUE</p>", "response": "b", "stimulus-type": "congruent", "word": "blue", "color": "blue", "correct_response": "b", "trial_id": "stroop-trial-1-congruent-22", "trial_type": "html-keyboard-response", "trial_index": 193, "time_elapsed": 421669, "internal_node_id": "0.0-8.0-7.0"}}, {"uniqueid": "w80276223:a70469150", "current_trial": 194, "dateTime": 1664555773607, "trialdata": {"rt": 516, "stimulus": "<p id='stroop-text' class='stroop-green'>GREEN</p>", "response": "g", "stimulus-type": "congruent", "word": "green", "color": "green", "correct_response": "g", "trial_id": "stroop-trial-1-congruent-19", "trial_type": "html-keyboard-response", "trial_index": 194, "time_elapsed": 422696, "internal_node_id": "0.0-8.0-8.0"}}, {"uniqueid": "w80276223:a70469150", "current_trial": 195, "dateTime": 1664555774789, "trialdata": {"rt": 677, "stimulus": "<p id='stroop-text' class='stroop-blue'>YELLOW</p>", "response": "b", "stimulus-type": "incongruent", "word": "yellow", "color": "blue", "correct_response": "b", "trial_id": "stroop-trial-1-incongruent-10", "trial_type": "html-keyboard-response", "trial_index": 195, "time_elapsed": 423879, "internal_node_id": "0.0-8.0-9.0"}}, {"uniqueid": "w80276223:a70469150", "current_trial": 196, "dateTime": 1664555775969, "trialdata": {"rt": 676, "stimulus": "<p id='stroop-text' class='stroop-blue'>BOAT</p>", "response": "b", "stimulus-type": "unrelated", "word": "BOAT", "color": "blue", "correct_response": "b", "trial_id": "stroop-trial-1-unrelated-23", "trial_type": "html-keyboard-response", "trial_index": 196, "time_elapsed": 425058, "internal_node_id": "0.0-8.0-10.0"}}, {"uniqueid": "w80276223:a70469150", "current_trial": 197, "dateTime": 1664555777036, "trialdata": {"rt": 533, "stimulus": "<p id='stroop-text' class='stroop-red'>RED</p>", "response": "r", "stimulus-type": "congruent", "word": "red", "color": "red", "correct_response": "r", "trial_id": "stroop-trial-1-congruent-20", "trial_type": "html-keyboard-response", "trial_index": 197, "time_elapsed": 426126, "internal_node_id": "0.0-8.0-11.0"}}, {"uniqueid": "w80276223:a70469150", "current_trial": 198, "dateTime": 1664555778135, "trialdata": {"rt": 594, "stimulus": "<p id='stroop-text' class='stroop-red'>BRIDGE</p>", "response": "r", "stimulus-type": "unrelated", "word": "BRIDGE", "color": "red", "correct_response": "r", "trial_id": "stroop-trial-1-unrelated-15", "trial_type": "html-keyboard-response", "trial_index": 198, "time_elapsed": 427224, "internal_node_id": "0.0-8.0-12.0"}}, {"uniqueid": "w80276223:a70469150", "current_trial": 199, "dateTime": 1664555779116, "trialdata": {"rt": 475, "stimulus": "<p id='stroop-text' class='stroop-yellow'>YELLOW</p>", "response": "y", "stimulus-type": "congruent", "word": "yellow", "color": "yellow", "correct_response": "y", "trial_id": "stroop-trial-1-congruent-6", "trial_type": "html-keyboard-response", "trial_index": 199, "time_elapsed": 428205, "internal_node_id": "0.0-8.0-13.0"}}, {"uniqueid": "w80276223:a70469150", "current_trial": 200, "dateTime": 1664555780423, "trialdata": {"rt": 798, "stimulus": "<p id='stroop-text' class='stroop-blue'>GREEN</p>", "response": "b", "stimulus-type": "incongruent", "word": "green", "color": "blue", "correct_response": "b", "trial_id": "stroop-trial-1-incongruent-6", "trial_type": "html-keyboard-response", "trial_index": 200, "time_elapsed": 429512, "internal_node_id": "0.0-8.0-14.0"}}, {"uniqueid": "w80276223:a70469150", "current_trial": 201, "dateTime": 1664555781838, "trialdata": {"rt": 894, "stimulus": "<p id='stroop-text' class='stroop-green'>GREEN</p>", "response": "g", "stimulus-type": "congruent", "word": "green", "color": "green", "correct_response": "g", "trial_id": "stroop-trial-1-congruent-3", "trial_type": "html-keyboard-response", "trial_index": 201, "time_elapsed": 430928, "internal_node_id": "0.0-8.0-15.0"}}, {"uniqueid": "w80276223:a70469150", "current_trial": 202, "dateTime": 1664555783883, "trialdata": {"rt": 1540, "stimulus": "<p id='stroop-text' class='stroop-yellow'>RED</p>", "response": "y", "stimulus-type": "incongruent", "word": "red", "color": "yellow", "correct_response": "y", "trial_id": "stroop-trial-1-incongruent-21", "trial_type": "html-keyboard-response", "trial_index": 202, "time_elapsed": 432973, "internal_node_id": "0.0-8.0-16.0"}}, {"uniqueid": "w80276223:a70469150", "current_trial": 203, "dateTime": 1664555785965, "trialdata": {"rt": 1576, "stimulus": "<p id='stroop-text' class='stroop-red'>GREEN</p>", "response": "r", "stimulus-type": "incongruent", "word": "green", "color": "red", "correct_response": "r", "trial_id": "stroop-trial-1-incongruent-26", "trial_type": "html-keyboard-response", "trial_index": 203, "time_elapsed": 435055, "internal_node_id": "0.0-8.0-17.0"}}, {"uniqueid": "w80276223:a70469150", "current_trial": 204, "dateTime": 1664555787377, "trialdata": {"rt": 907, "stimulus": "<p id='stroop-text' class='stroop-yellow'>BLUE</p>", "response": "y", "stimulus-type": "incongruent", "word": "blue", "color": "yellow", "correct_response": "y", "trial_id": "stroop-trial-1-incongruent-25", "trial_type": "html-keyboard-response", "trial_index": 204, "time_elapsed": 436467, "internal_node_id": "0.0-8.0-18.0"}}, {"uniqueid": "w80276223:a70469150", "current_trial": 205, "dateTime": 1664555788599, "trialdata": {"rt": 715, "stimulus": "<p id='stroop-text' class='stroop-red'>BRAIN</p>", "response": "g", "stimulus-type": "unrelated", "word": "BRAIN", "color": "red", "correct_response": "r", "trial_id": "stroop-trial-1-unrelated-10", "trial_type": "html-keyboard-response", "trial_index": 205, "time_elapsed": 437689, "internal_node_id": "0.0-8.0-19.0"}}, {"uniqueid": "w80276223:a70469150", "current_trial": 206, "dateTime": 1664555791029, "trialdata": {"rt": 1924, "stimulus": "<p id='stroop-text' class='stroop-red'>BOTTLE</p>", "response": "r", "stimulus-type": "unrelated", "word": "BOTTLE", "color": "red", "correct_response": "r", "trial_id": "stroop-trial-1-unrelated-28", "trial_type": "html-keyboard-response", "trial_index": 206, "time_elapsed": 440119, "internal_node_id": "0.0-8.0-20.0"}}, {"uniqueid": "w80276223:a70469150", "current_trial": 207, "dateTime": 1664555792123, "trialdata": {"rt": 587, "stimulus": "<p id='stroop-text' class='stroop-red'>RED</p>", "response": "r", "stimulus-type": "congruent", "word": "red", "color": "red", "correct_response": "r", "trial_id": "stroop-trial-1-congruent-8", "trial_type": "html-keyboard-response", "trial_index": 207, "time_elapsed": 441212, "internal_node_id": "0.0-8.0-21.0"}}, {"uniqueid": "w80276223:a70469150", "current_trial": 208, "dateTime": 1664555793248, "trialdata": {"rt": 619, "stimulus": "<p id='stroop-text' class='stroop-yellow'>CHAIR</p>", "response": "y", "stimulus-type": "unrelated", "word": "CHAIR", "color": "yellow", "correct_response": "y", "trial_id": "stroop-trial-1-unrelated-17", "trial_type": "html-keyboard-response", "trial_index": 208, "time_elapsed": 442337, "internal_node_id": "0.0-8.0-22.0"}}, {"uniqueid": "w80276223:a70469150", "current_trial": 209, "dateTime": 1664555794341, "trialdata": {"rt": 587, "stimulus": "<p id='stroop-text' class='stroop-yellow'>YELLOW</p>", "response": "y", "stimulus-type": "congruent", "word": "yellow", "color": "yellow", "correct_response": "y", "trial_id": "stroop-trial-1-congruent-21", "trial_type": "html-keyboard-response", "trial_index": 209, "time_elapsed": 443431, "internal_node_id": "0.0-8.0-23.0"}}, {"uniqueid": "w80276223:a70469150", "current_trial": 210, "dateTime": 1664555795783, "trialdata": {"rt": 934, "stimulus": "<p id='stroop-text' class='stroop-red'>BOTTLE</p>", "response": "r", "stimulus-type": "unrelated", "word": "BOTTLE", "color": "red", "correct_response": "r", "trial_id": "stroop-trial-1-unrelated-9", "trial_type": "html-keyboard-response", "trial_index": 210, "time_elapsed": 444872, "internal_node_id": "0.0-8.0-24.0"}}, {"uniqueid": "w80276223:a70469150", "current_trial": 211, "dateTime": 1664555796861, "trialdata": {"rt": 572, "stimulus": "<p id='stroop-text' class='stroop-red'>BLUE</p>", "response": "r", "stimulus-type": "incongruent", "word": "blue", "color": "red", "correct_response": "r", "trial_id": "stroop-trial-1-incongruent-30", "trial_type": "html-keyboard-response", "trial_index": 211, "time_elapsed": 445951, "internal_node_id": "0.0-8.0-25.0"}}, {"uniqueid": "w80276223:a70469150", "current_trial": 212, "dateTime": 1664555798026, "trialdata": {"rt": 658, "stimulus": "<p id='stroop-text' class='stroop-yellow'>RED</p>", "response": "y", "stimulus-type": "incongruent", "word": "red", "color": "yellow", "correct_response": "y", "trial_id": "stroop-trial-1-incongruent-16", "trial_type": "html-keyboard-response", "trial_index": 212, "time_elapsed": 447115, "internal_node_id": "0.0-8.0-26.0"}}, {"uniqueid": "w80276223:a70469150", "current_trial": 213, "dateTime": 1664555799115, "trialdata": {"rt": 584, "stimulus": "<p id='stroop-text' class='stroop-blue'>SHIP</p>", "response": "b", "stimulus-type": "unrelated", "word": "SHIP", "color": "blue", "correct_response": "b", "trial_id": "stroop-trial-1-unrelated-20", "trial_type": "html-keyboard-response", "trial_index": 213, "time_elapsed": 448205, "internal_node_id": "0.0-8.0-27.0"}}, {"uniqueid": "w80276223:a70469150", "current_trial": 214, "dateTime": 1664555800068, "trialdata": {"rt": 448, "stimulus": "<p id='stroop-text' class='stroop-green'>RED</p>", "response": "g", "stimulus-type": "incongruent", "word": "red", "color": "green", "correct_response": "g", "trial_id": "stroop-trial-1-incongruent-4", "trial_type": "html-keyboard-response", "trial_index": 214, "time_elapsed": 449158, "internal_node_id": "0.0-8.0-28.0"}}, {"uniqueid": "w80276223:a70469150", "current_trial": 215, "dateTime": 1664555801103, "trialdata": {"rt": 529, "stimulus": "<p id='stroop-text' class='stroop-green'>YELLOW</p>", "response": "g", "stimulus-type": "incongruent", "word": "yellow", "color": "green", "correct_response": "g", "trial_id": "stroop-trial-1-incongruent-3", "trial_type": "html-keyboard-response", "trial_index": 215, "time_elapsed": 450192, "internal_node_id": "0.0-8.0-29.0"}}, {"uniqueid": "w80276223:a70469150", "current_trial": 216, "dateTime": 1664555802095, "trialdata": {"rt": 485, "stimulus": "<p id='stroop-text' class='stroop-blue'>BLUE</p>", "response": "b", "stimulus-type": "congruent", "word": "blue", "color": "blue", "correct_response": "b", "trial_id": "stroop-trial-1-congruent-28", "trial_type": "html-keyboard-response", "trial_index": 216, "time_elapsed": 451185, "internal_node_id": "0.0-8.0-30.0"}}, {"uniqueid": "w80276223:a70469150", "current_trial": 217, "dateTime": 1664555803353, "trialdata": {"rt": 741, "stimulus": "<p id='stroop-text' class='stroop-blue'>CHAIR</p>", "response": "b", "stimulus-type": "unrelated", "word": "CHAIR", "color": "blue", "correct_response": "b", "trial_id": "stroop-trial-1-unrelated-18", "trial_type": "html-keyboard-response", "trial_index": 217, "time_elapsed": 452442, "internal_node_id": "0.0-8.0-31.0"}}, {"uniqueid": "w80276223:a70469150", "current_trial": 218, "dateTime": 1664555804372, "trialdata": {"rt": 515, "stimulus": "<p id='stroop-text' class='stroop-yellow'>YELLOW</p>", "response": "y", "stimulus-type": "congruent", "word": "yellow", "color": "yellow", "correct_response": "y", "trial_id": "stroop-trial-1-congruent-13", "trial_type": "html-keyboard-response", "trial_index": 218, "time_elapsed": 453462, "internal_node_id": "0.0-8.0-32.0"}}, {"uniqueid": "w80276223:a70469150", "current_trial": 219, "dateTime": 1664555805479, "trialdata": {"rt": 602, "stimulus": "<p id='stroop-text' class='stroop-yellow'>GREEN</p>", "response": "y", "stimulus-type": "incongruent", "word": "green", "color": "yellow", "correct_response": "y", "trial_id": "stroop-trial-1-incongruent-20", "trial_type": "html-keyboard-response", "trial_index": 219, "time_elapsed": 454569, "internal_node_id": "0.0-8.0-33.0"}}, {"uniqueid": "w80276223:a70469150", "current_trial": 220, "dateTime": 1664555806734, "trialdata": {"rt": 749, "stimulus": "<p id='stroop-text' class='stroop-green'>MONKEY</p>", "response": "g", "stimulus-type": "unrelated", "word": "MONKEY", "color": "green", "correct_response": "g", "trial_id": "stroop-trial-1-unrelated-26", "trial_type": "html-keyboard-response", "trial_index": 220, "time_elapsed": 455824, "internal_node_id": "0.0-8.0-34.0"}}, {"uniqueid": "w80276223:a70469150", "current_trial": 221, "dateTime": 1664555807949, "trialdata": {"rt": 709, "stimulus": "<p id='stroop-text' class='stroop-blue'>RED</p>", "response": "b", "stimulus-type": "incongruent", "word": "red", "color": "blue", "correct_response": "b", "trial_id": "stroop-trial-1-incongruent-18", "trial_type": "html-keyboard-response", "trial_index": 221, "time_elapsed": 457038, "internal_node_id": "0.0-8.0-35.0"}}, {"uniqueid": "w80276223:a70469150", "current_trial": 222, "dateTime": 1664555809108, "trialdata": {"rt": 655, "stimulus": "<p id='stroop-text' class='stroop-red'>YELLOW</p>", "response": "r", "stimulus-type": "incongruent", "word": "yellow", "color": "red", "correct_response": "r", "trial_id": "stroop-trial-1-incongruent-15", "trial_type": "html-keyboard-response