{"condition": 1, "counterbalance": 0, "assignmentId": "a68009907", "workerId": "w11571621", "hitId": "h28820114", "currenttrial": 143, "bonus": 0, "data": [{"uniqueid": "w11571621:a68009907", "current_trial": 0, "dateTime": 1664367923215, "trialdata": {"success": true, "trial_type": "fullscreen", "trial_index": 0, "time_elapsed": 5661, "internal_node_id": "0.0-0.0"}}, {"uniqueid": "w11571621:a68009907", "current_trial": 1, "dateTime": 1664367939697, "trialdata": {"view_history": [{"page_index": 0, "viewing_time": 16477}], "rt": 16478, "trial_id": "exp_instructions_no_distractor", "trial_type": "instructions", "trial_index": 1, "time_elapsed": 22144, "internal_node_id": "0.0-1.0"}}, {"uniqueid": "w11571621:a68009907", "current_trial": 2, "dateTime": 1664367944215, "trialdata": {"success": true, "trial_type": "fullscreen", "trial_index": 2, "time_elapsed": 26662, "internal_node_id": "0.0-2.0-0.0"}}, {"uniqueid": "w11571621:a68009907", "current_trial": 3, "dateTime": 1664368051683, "trialdata": {"view_history": [{"page_index": 0, "viewing_time": 40559}, {"page_index": 1, "viewing_time": 23329}, {"page_index": 2, "viewing_time": 7985}, {"page_index": 3, "viewing_time": 21977}, {"page_index": 4, "viewing_time": 13615}], "rt": 107465, "trial_id": "mouselab_instructions_1", "trial_type": "instructions", "trial_index": 3, "time_elapsed": 134130, "internal_node_id": "0.0-2.0-1.0"}}, {"uniqueid": "w11571621:a68009907", "current_trial": 4, "dateTime": 1664368084165, "trialdata": {"revealed_states": [], "num_clicks_accrued": [0, 0, 0, 0, 0, 0, 0, 0, 0, 0, 0, 0, 0], "stateRewards": ["", 10, -10, 10, -10, 10, 10, 10, -10, -10, -10, -10, -10], "withholdReward": false, "trial_id": "practice_1", "block": "test", "trialIndex": 0, "score": 11.5, "costs": -0.5, "simulationMode": [null, null, null], "rewards": [10, 10, -10], "path": ["0", "0", "5", "6", "8"], "rt": [16117, 1595, 3362], "actions": ["right", "right", "down"], "actionTimes": [19854, 21938, 25788], "queries": {"click": {"state": {"target": ["9", "5"], "time": [12671, 17768]}, "edge": {"target": [], "time": []}}, "mouseover": {"state": {"target": ["9", "0", "5"], "time": [7457, 14374, 14807]}, "edge": {"target": [], "time": []}}, "mouseout": {"state": {"target": ["0", "9", "0", "5"], "time": [7325, 14307, 14574, 18376]}, "edge": {"target": [], "time": []}}}, "displayed_time": "26.28", "trialTime": 32245, "trial_type": "mouselab-mdp", "trial_index": 4, "time_elapsed": 166611, "internal_node_id": "0.0-2.0-2.0-0.0"}}, {"uniqueid": "w11571621:a68009907", "current_trial": 5, "dateTime": 1664368093298, "trialdata": {"revealed_states": [], "num_clicks_accrued": [0, 0, 0, 0, 0, 0, 0, 0, 0, 0, 0, 0, 0], "stateRewards": ["", 10, 10, 10, -10, -10, 10, -10, 10, -10, 10, 10, 10], "withholdReward": false, "trial_id": "practice_2", "block": "test", "trialIndex": 1, "score": 11.75, "costs": -0.25, "simulationMode": [null, null, null], "rewards": [10, 10, -10], "path": ["0", "0", "1", "2", "4"], "rt": [3000, 257, 590], "actions": ["up", "up", "left"], "actionTimes": [4716, 5474, 6556], "queries": {"click": {"state": {"target": ["1"], "time": [3584]}, "edge": {"target": [], "time": []}}, "mouseover": {"state": {"target": ["1"], "time": [3115]}, "edge": {"target": [], "time": []}}, "mouseout": {"state": {"target": ["0", "1", "0"], "time": [3032, 7848, 7915]}, "edge": {"target": [], "time": []}}}, "displayed_time": "7.05", "trialTime": 9069, "trial_type": "mouselab-mdp", "trial_index": 5, "time_elapsed": 175745, "internal_node_id": "0.0-2.0-2.0-1.0"}}, {"uniqueid": "w11571621:a68009907", "current_trial": 6, "dateTime": 1664368140838, "trialdata": {"view_history": [{"page_index": 0, "viewing_time": 26625}, {"page_index": 1, "viewing_time": 12984}, {"page_index": 2, "viewing_time": 7926}], "rt": 47536, "trial_id": "mouselab_instructions_2_scarce", "trial_type": "instructions", "trial_index": 6, "time_elapsed": 223285, "internal_node_id": "0.0-2.0-3.0"}}, {"uniqueid": "w11571621:a68009907", "current_trial": 7, "dateTime": 1664368183938, "trialdata": {"rt": 43094, "response": {"Q0": "$-10 to $10", "Q1": "The cost is always $0.25.", "Q2": "The better I perform the higher my bonus will be.", "Q3": "No, the amount of cash at each node of the web may be different each time.", "Q4": "The values of the nodes walked through from start to finish.", "Q5": "No, the spider might forget to count the money on some rounds."}, "question_order": [0, 1, 2, 3, 4, 5], "correct": {"Q0": "$-48 to $48", "Q1": "The cost is always $0.25.", "Q2": "The better I perform the higher my bonus will be.", "Q3": "No, the amount of cash at each node of the web may be different each time.", "Q4": "The values of the nodes walked through from start to finish.", "Q5": "No, the spider might forget to count the money on some rounds."}, "trial_id": "mouselab_quiz_scarce", "trial_type": "survey-multi-choice", "trial_index": 7, "time_elapsed": 266385, "internal_node_id": "0.0-2.0-4.0"}}, {"uniqueid": "w11571621:a68009907", "current_trial": 8, "dateTime": 1664368196150, "trialdata": {"success": true, "trial_type": "fullscreen", "trial_index": 8, "time_elapsed": 278597, "internal_node_id": "0.0-2.1-0.1"}}, {"uniqueid": "w11571621:a68009907", "current_trial": 9, "dateTime": 1664368277454, "trialdata": {"view_history": [{"page_index": 0, "viewing_time": 46232}, {"page_index": 1, "viewing_time": 10570}, {"page_index": 2, "viewing_time": 8358}, {"page_index": 3, "viewing_time": 6348}, {"page_index": 4, "viewing_time": 9793}], "rt": 81301, "trial_id": "mouselab_instructions_1", "trial_type": "instructions", "trial_index": 9, "time_elapsed": 359901, "internal_node_id": "0.0-2.1-1.1"}}, {"uniqueid": "w11571621:a68009907", "current_trial": 10, "dateTime": 1664368308520, "trialdata": {"revealed_states": [], "num_clicks_accrued": [0, 0, 0, 0, 0, 0, 0, 0, 0, 0, 0, 0, 0], "stateRewards": ["", 10, -10, 10, -10, 10, 10, 10, -10, -10, -10, -10, -10], "withholdReward": false, "trial_id": "practice_1", "block": "test", "trialIndex": 2, "score": 29.75, "costs": -2.25, "simulationMode": [null, null, null], "rewards": [10, 10, 10], "path": ["0", "0", "5", "6", "7"], "rt": [21873, 1, 132], "actions": ["right", "right", "up"], "actionTimes": [23945, 24452, 25100], "queries": {"click": {"state": {"target": ["9", "12", "10", "11", "1", "2", "5", "6", "8"], "time": [8896, 11417, 12371, 12925, 13605, 16032, 19949, 20694, 22450]}, "edge": {"target": [], "time": []}}, "mouseover": {"state": {"target": ["9", "12", "9", "1", "9", "10", "12", "10", "11", "1", "2", "3", "5", "6", "8", "7"], "time": [3683, 3916, 4649, 5183, 5983, 10033, 10883, 11833, 12767, 13450, 14334, 16966, 19400, 20483, 21117, 22900]}, "edge": {"target": [], "time": []}}, "mouseout": {"state": {"target": ["0", "9", "12", "9", "1", "9", "10", "12", "10", "11", "1", "2", "3", "5", "6", "8", "6", "7"], "time": [3638, 3733, 4483, 4933, 5767, 9883, 10783, 11733, 12700, 13234, 14167, 16918, 19233, 20400, 21050, 22801, 22867, 29034]}, "edge": {"target": [], "time": []}}}, "displayed_time": "25.60", "trialTime": 30999, "trial_type": "mouselab-mdp", "trial_index": 10, "time_elapsed": 390967, "internal_node_id": "0.0-2.1-2.1-0.1"}}, {"uniqueid": "w11571621:a68009907", "current_trial": 11, "dateTime": 1664368325971, "trialdata": {"revealed_states": [], "num_clicks_accrued": [0, 0, 0, 0, 0, 0, 0, 0, 0, 0, 0, 0, 0], "stateRewards": ["", 10, 10, 10, -10, -10, 10, -10, 10, -10, 10, 10, 10], "withholdReward": false, "trial_id": "practice_2", "block": "test", "trialIndex": 3, "score": 30.75, "costs": -1.25, "simulationMode": [null, null, null], "rewards": [10, 10, 10], "path": ["0", "0", "1", "2", "3"], "rt": [10729, 635, 474], "actions": ["up", "up", "right"], "actionTimes": [12037, 13173, 14145], "queries": {"click": {"state": {"target": ["9", "10", "1", "2", "3"], "time": [2464, 5429, 6527, 8089, 10913]}, "edge": {"target": [], "time": []}}, "mouseover": {"state": {"target": ["9", "1", "10", "1", "5", "2", "5", "3"], "time": [1853, 3070, 4670, 6053, 7020, 7854, 8454, 10687]}, "edge": {"target": [], "time": []}}, "mouseout": {"state": {"target": ["0", "9", "1", "9", "10", "1", "5", "1", "2", "5", "3"], "time": [1803, 2920, 4553, 4637, 5838, 6870, 7753, 7821, 8387, 9620, 11237]}, "edge": {"target": [], "time": []}}}, "displayed_time": "14.64", "trialTime": 17386, "trial_type": "mouselab-mdp", "trial_index": 11, "time_elapsed": 408418, "internal_node_id": "0.0-2.1-2.1-1.1"}}, {"uniqueid": "w11571621:a68009907", "current_trial": 12, "dateTime": 1664368350999, "trialdata": {"view_history": [{"page_index": 0, "viewing_time": 13286}, {"page_index": 1, "viewing_time": 7391}, {"page_index": 2, "viewing_time": 4348}], "rt": 25025, "trial_id": "mouselab_instructions_2_scarce", "trial_type": "instructions", "trial_index": 12, "time_elapsed": 433446, "internal_node_id": "0.0-2.1-3.1"}}, {"uniqueid": "w11571621:a68009907", "current_trial": 13, "dateTime": 1664368452243, "trialdata": {"rt": 101241, "response": {"Q0": "$-48 to $48", "Q1": "The cost is always $0.25.", "Q2": "The better I perform the higher my bonus will be.", "Q3": "No, the amount of cash at each node of the web may be different each time.", "Q4": "The values of the nodes walked through from start to finish.", "Q5": "No, the spider might forget to count the money on some rounds."}, "question_order": [0, 1, 2, 3, 4, 5], "correct": {"Q0": "$-48 to $48", "Q1": "The cost is always $0.25.", "Q2": "The better I perform the higher my bonus will be.", "Q3": "No, the amount of cash at each node of the web may be different each time.", "Q4": "The values of the nodes walked through from start to finish.", "Q5": "No, the spider might forget to count the money on some rounds."}, "trial_id": "mouselab_quiz_scarce", "trial_type": "survey-multi-choice", "trial_index": 13, "time_elapsed": 534690, "internal_node_id": "0.0-2.1-4.1"}}, {"uniqueid": "w11571621:a68009907", "current_trial": 14, "dateTime": 1664368473685, "trialdata": {"rt": 21433, "stimulus": "\n<h1> Get ready to start the game! </h1>\n\nThank you for reading the instructions. Get ready start with the first of 4 block(s) of this game.\n<br><br>\nIn this first block, you will complete 30 rounds of this game before moving on.\n<br><br>\nRemember, the more money the spider gets, the bigger your bonus will be!\n<br><br>\n<div style='text-align: center;'>Press <code>space</code> to begin.</div>\n\n<br><br>\n(If, at any point, the <code>space</code> key does not take you to the next page, click once on the text and try again.)", "response": " ", "trial_id": "mdp_ready_1", "trial_type": "html-keyboard-response", "trial_index": 14, "time_elapsed": 556132, "internal_node_id": "0.0-4.0-0.0"}}, {"uniqueid": "w11571621:a68009907", "current_trial": 15, "dateTime": 1664368505409, "trialdata": {"revealed_states": [], "num_clicks_accrued": [0, 0, 0, 0, 0, 0, 0, 0, 0, 0, 0, 0, 0], "stateRewards": ["", 2, -8, 24, -24, -2, 8, -48, -48, 2, -8, -24, -48], "withholdReward": true, "trial_id": "mdp_744278669205", "block": "test1", "trialIndex": 4, "score": 20, "costs": -3, "simulationMode": [null, null, null], "rewards": [2, -8, 24], "path": ["0", "0", "1", "2", "3"], "rt": [25726, 72, 104], "actions": ["up", "up", "right"], "actionTimes": [27338, 27906, 28504], "queries": {"click": {"state": {"target": ["9", "10", "1", "2", "5", "6", "7", "8", "12", "11", "4", "3"], "time": [3300, 5980, 6698, 7904, 8701, 11403, 16618, 19745, 20827, 24526, 25217, 26108]}, "edge": {"target": [], "time": []}}, "mouseover": {"state": {"target": ["9", "1", "10", "1", "5", "2", "5", "6", "6", "7", "11", "8", "12", "11", "4", "3"], "time": [2531, 4048, 4881, 6431, 7198, 7615, 8315, 9473, 10448, 12000, 17349, 19049, 20432, 21466, 24916, 25616]}, "edge": {"target": [], "time": []}}, "mouseout": {"state": {"target": ["0", "0", "9", "1", "9", "10", "1", "5", "2", "5", "6", "6", "7", "1", "11", "8", "12", "10", "11", "4", "2", "3", "8"], "time": [1048, 2298, 3765, 4515, 4665, 6248, 7081, 7515, 8181, 9016, 10016, 11799, 16898, 17015, 18948, 20045, 21165, 21265, 24866, 25532, 25599, 26382, 30449]}, "edge": {"target": [], "time": []}}}, "displayed_time": "29.00", "trialTime": 31661, "trial_type": "mouselab-mdp", "trial_index": 15, "time_elapsed": 587856, "internal_node_id": "0.0-4.0-1.0-0.0"}}, {"uniqueid": "w11571621:a68009907", "current_trial": 16, "dateTime": 1664368522295, "trialdata": {"revealed_states": [], "num_clicks_accrued": [0, 0, 0, 0, 0, 0, 0, 0, 0, 0, 0, 0, 0], "stateRewards": ["", -2, 8, -48, -24, -2, 8, 48, -48, -4, 8, 24, 48], "withholdReward": true, "trial_id": "mdp_160707003673", "block": "test1", "trialIndex": 5, "score": 31.75, "costs": -1.25, "simulationMode": [null, null, null], "rewards": [-4, 8, 24], "path": ["0", "0", "9", "10", "11"], "rt": [11601, 119, 183], "actions": ["left", "left", "up"], "actionTimes": [13230, 13848, 14531], "queries": {"click": {"state": {"target": ["9", "1", "5", "10", "11"], "time": [5556, 6249, 6816, 8481, 10043]}, "edge": {"target": [], "time": []}}, "mouseover": {"state": {"target": ["0", "9", "1", "5", "10", "11"], "time": [1996, 2212, 6012, 6612, 8062, 9145]}, "edge": {"target": [], "time": []}}, "mouseout": {"state": {"target": ["0", "0", "9", "1", "5", "10", "11"], "time": [1178, 2145, 5912, 6562, 7945, 8863, 10562]}, "edge": {"target": [], "time": []}}}, "displayed_time": "15.03", "trialTime": 16827, "trial_type": "mouselab-mdp", "trial_index": 16, "time_elapsed": 604742, "internal_node_id": "0.0-4.0-1.0-1.0"}}, {"uniqueid": "w11571621:a68009907", "current_trial": 17, "dateTime": 1664368541974, "trialdata": {"revealed_states": [], "num_clicks_accrued": [0, 0, 0, 0, 0, 0, 0, 0, 0, 0, 0, 0, 0], "stateRewards": ["", 2, 4, -48, -48, 4, 4, -48, -48, -2, -8, 48, -24], "withholdReward": true, "trial_id": "mdp_175327338412", "block": "test1", "trialIndex": 6, "score": 40.25, "costs": -2.75, "simulationMode": [null, null, null], "rewards": [-2, -8, 48], "path": ["0", "0", "9", "10", "11"], "rt": [14643, 27, 49], "actions": ["left", "left", "up"], "actionTimes": [15911, 16438, 16977], "queries": {"click": {"state": {"target": ["9", "1", "2", "3", "4", "5", "6", "8", "7", "10", "11"], "time": [3518, 4138, 6056, 6880, 7563, 8284, 9684, 10238, 11143, 11960, 14154]}, "edge": {"target": [], "time": []}}, "mouseover": {"state": {"target": ["9", "1", "5", "2", "3", "4", "5", "6", "8", "7", "10", "11", "12"], "time": [1810, 3944, 4594, 5810, 6494, 7377, 7993, 8727, 10127, 10877, 11777, 13027, 14727]}, "edge": {"target": [], "time": []}}, "mouseout": {"state": {"target": ["9", "1", "5", "2", "3", "2", "4", "1", "5", "6", "8", "6", "7", "5", "9", "10", "10", "11", "10", "12", "9"], "time": [3911, 4444, 5722, 6377, 7243, 7310, 7844, 7911, 8643, 10027, 10610, 10777, 11377, 11443, 11677, 12260, 12960, 14511, 14643, 15627, 17877]}, "edge": {"target": [], "time": []}}}, "displayed_time": "17.51", "trialTime": 19620, "trial_type": "mouselab-mdp", "trial_index": 17, "time_elapsed": 624421, "internal_node_id": "0.0-4.0-1.0-2.0"}}, {"uniqueid": "w11571621:a68009907", "current_trial": 18, "dateTime": 1664368553662, "trialdata": {"revealed_states": [], "num_clicks_accrued": [0, 0, 0, 0, 0, 0, 0, 0, 0, 0, 0, 0, 0], "stateRewards": ["", -4, 8, 24, -24, -2, 4, -24, 48, -2, 8, -48, -24], "withholdReward": true, "trial_id": "mdp_799359103169", "block": "test1", "trialIndex": 7, "score": 31.25, "costs": -1.75, "simulationMode": [null, null, null], "rewards": [-4, 8, 24], "path": ["0", "0", "1", "2", "3"], "rt": [5848, 478, 164], "actions": ["up", "up", "right"], "actionTimes": [7290, 8277, 8931], "queries": {"click": {"state": {"target": ["9", "10", "11", "12", "1", "2", "3"], "time": [2342, 2759, 3774, 4384, 5159, 5529, 6356]}, "edge": {"target": [], "time": []}}, "mouseover": {"state": {"target": ["9", "10", "11", "12", "1", "2", "3"], "time": [2048, 2648, 3616, 4215, 4965, 5481, 6099]}, "edge": {"target": [], "time": []}}, "mouseout": {"state": {"target": ["0", "9", "10", "11", "9", "12", "1", "2", "3"], "time": [1998, 2615, 3065, 4032, 4198, 4631, 5398, 6066, 6698]}, "edge": {"target": [], "time": []}}}, "displayed_time": "10.44", "trialTime": 11629, "trial_type": "mouselab-mdp", "trial_index": 18, "time_elapsed": 636109, "internal_node_id": "0.0-4.0-1.0-3.0"}}, {"uniqueid": "w11571621:a68009907", "current_trial": 19, "dateTime": 1664368570018, "trialdata": {"revealed_states": [], "num_clicks_accrued": [0, 0, 0, 0, 0, 0, 0, 0, 0, 0, 0, 0, 0], "stateRewards": ["", 2, 4, -24, -24, 4, 8, -48, 48, 2, 4, -24, -48], "withholdReward": false, "trial_id": "mdp_565165082781", "block": "test1", "trialIndex": 8, "score": 62.5, "costs": -2.5, "simulationMode": [null, null, null], "rewards": [4, 8, 48], "path": ["0", "0", "5", "6", "8"], "rt": [11134, 1, 67], "actions": ["right", "right", "down"], "actionTimes": [12402, 12897, 13479], "queries": {"click": {"state": {"target": ["1", "2", "3", "4", "9", "10", "11", "12", "7", "8"], "time": [2582, 3890, 4617, 5323, 6241, 6903, 7756, 8268, 10326, 11518]}, "edge": {"target": [], "time": []}}, "mouseover": {"state": {"target": ["1", "2", "3", "4", "9", "9", "10", "11", "12", "0", "5", "5", "6", "7", "6", "8"], "time": [2271, 3094, 4311, 5061, 5644, 6111, 6761, 7411, 8128, 8561, 8611, 9095, 9811, 10062, 10678, 10828]}, "edge": {"target": [], "time": []}}, "mouseout": {"state": {"target": ["0", "1", "1", "2", "3", "2", "4", "9", "9", "10", "11", "10", "12", "0", "5", "5", "6", "7", "6", "8"], "time": [1861, 2928, 3061, 4228, 4961, 5027, 5577, 5678, 6712, 7261, 8012, 8095, 8512, 8578, 8644, 9728, 9911, 10645, 10728, 11845]}, "edge": {"target": [], "time": []}}}, "displayed_time": "14.00", "trialTime": 16296, "trial_type": "mouselab-mdp", "trial_index": 19, "time_elapsed": 652465, "internal_node_id": "0.0-4.0-1.0-4.0"}}, {"uniqueid": "w11571621:a68009907", "current_trial": 20, "dateTime": 1664368580599, "trialdata": {"revealed_states": [], "num_clicks_accrued": [0, 0, 0, 0, 0, 0, 0, 0, 0, 0, 0, 0, 0], "stateRewards": ["", 2, 4, 48, 48, -2, 4, 48, -24, -4, 8, -48, 48], "withholdReward": false, "trial_id": "mdp_407586865939", "block": "test1", "trialIndex": 9, "score": 58, "costs": -1, "simulationMode": [null, null, null], "rewards": [2, 4, 48], "path": ["0", "0", "1", "2", "4"], "rt": [5496, 451, 114], "actions": ["up", "up", "left"], "actionTimes": [7153, 8101, 8713], "queries": {"click": {"state": {"target": ["9", "1", "2", "4"], "time": [3468, 4140, 5683, 6355]}, "edge": {"target": [], "time": []}}, "mouseover": {"state": {"target": ["0", "9", "1", "5", "2", "4"], "time": [2057, 2448, 3865, 4582, 5298, 6167]}, "edge": {"target": [], "time": []}}, "mouseout": {"state": {"target": ["0", "0", "9", "1", "5", "2", "4", "2"], "time": [1465, 2182, 3782, 4482, 5065, 6133, 6649, 6732]}, "edge": {"target": [], "time": []}}}, "displayed_time": "9.20", "trialTime": 10514, "trial_type": "mouselab-mdp", "trial_index": 20, "time_elapsed": 663045, "internal_node_id": "0.0-4.0-1.0-5.0"}}, {"uniqueid": "w11571621:a68009907", "current_trial": 21, "dateTime": 1664368591917, "trialdata": {"revealed_states": [], "num_clicks_accrued": [0, 0, 0, 0, 0, 0, 0, 0, 0, 0, 0, 0, 0], "stateRewards": ["", 4, -8, 48, 24, 4, -4, 48, 48, -4, 8, -48, 24], "withholdReward": false, "trial_id": "mdp_303828806348", "block": "test1", "trialIndex": 10, "score": 24.25, "costs": -0.75, "simulationMode": [null, null, null], "rewards": [4, -8, 24], "path": ["0", "0", "1", "2", "4"], "rt": [4557, 165, 106], "actions": ["up", "up", "left"], "actionTimes": [5684, 6358, 6965], "queries": {"click": {"state": {"target": ["1", "2", "4"], "time": [2156, 2958, 4084]}, "edge": {"target": [], "time": []}}, "mouseover": {"state": {"target": ["0", "1", "2", "4", "3", "5"], "time": [1508, 1909, 2691, 3877, 4658, 5275]}, "edge": {"target": [], "time": []}}, "mouseout": {"state": {"target": ["0", "0", "1", "2", "4", "2", "3", "5"], "time": [892, 1742, 2676, 3409, 4443, 4641, 4692, 7759]}, "edge": {"target": [], "time": []}}}, "displayed_time": "10.13", "trialTime": 11259, "trial_type": "mouselab-mdp", "trial_index": 21, "time_elapsed": 674364, "internal_node_id": "0.0-4.0-1.0-6.0"}}, {"uniqueid": "w11571621:a68009907", "current_trial": 22, "dateTime": 1664368602407, "trialdata": {"revealed_states": [], "num_clicks_accrued": [0, 0, 0, 0, 0, 0, 0, 0, 0, 0, 0, 0, 0], "stateRewards": ["", 2, -4, 48, -48, -4, -8, -48, 24, -4, 4, 48, 48], "withholdReward": true, "trial_id": "mdp_544803968425", "block": "test1", "trialIndex": 11, "score": 50, "costs": -1, "simulationMode": [null, null, null], "rewards": [2, -4, 48], "path": ["0", "0", "1", "2", "3"], "rt": [5788, 152, 115], "actions": ["up", "up", "right"], "actionTimes": [7094, 7741, 8354], "queries": {"click": {"state": {"target": ["5", "1", "2", "3"], "time": [2511, 3326, 4229, 6012]}, "edge": {"target": [], "time": []}}, "mouseover": {"state": {"target": ["5", "1", "2", "3", "4"], "time": [2255, 3104, 3921, 5024, 6489]}, "edge": {"target": [], "time": []}}, "mouseout": {"state": {"target": ["0", "0", "5", "1", "1", "2", "3", "2", "4", "9"], "time": [821, 2205, 2971, 3638, 3905, 4638, 6321, 6404, 6821, 9422]}, "edge": {"target": [], "time": []}}}, "displayed_time": "9.31", "trialTime": 10428, "trial_type": "mouselab-mdp", "trial_index": 22, "time_elapsed": 684854, "internal_node_id": "0.0-4.0-1.0-7.0"}}, {"uniqueid": "w11571621:a68009907", "current_trial": 23, "dateTime": 1664368612550, "trialdata": {"revealed_states": [], "num_clicks_accrued": [0, 0, 0, 0, 0, 0, 0, 0, 0, 0, 0, 0, 0], "stateRewards": ["", 2, -4, 48, -48, 2, 4, -24, 24, -4, -8, 24, -48], "withholdReward": true, "trial_id": "mdp_238810765895", "block": "test1", "trialIndex": 12, "score": 49.75, "costs": -1.25, "simulationMode": [null, null, null], "rewards": [2, -4, 48], "path": ["0", "0", "1", "2", "3"], "rt": [5468, 213, 157], "actions": ["up", "up", "right"], "actionTimes": [6600, 7313, 7956], "queries": {"click": {"state": {"target": ["9", "1", "2", "4", "3"], "time": [1857, 2755, 3532, 4518, 5814]}, "edge": {"target": [], "time": []}}, "mouseover": {"state": {"target": ["9", "1", "2", "4", "5", "3"], "time": [1649, 2549, 3331, 4332, 5065, 5432]}, "edge": {"target": [], "time": []}}, "mouseout": {"state": {"target": ["0", "9", "1", "2", "4", "2", "5", "3", "5"], "time": [1615, 2481, 3298, 4149, 4816, 4898, 5315, 6082, 9082]}, "edge": {"target": [], "time": []}}}, "displayed_time": "9.13", "trialTime": 10080, "trial_type": "mouselab-mdp", "trial_index": 23, "time_elapsed": 694997, "internal_node_id": "0.0-4.0-1.0-8.0"}}, {"uniqueid": "w11571621:a68009907", "current_trial": 24, "dateTime": 1664368623984, "trialdata": {"revealed_states": [], "num_clicks_accrued": [0, 0, 0, 0, 0, 0, 0, 0, 0, 0, 0, 0, 0], "stateRewards": ["", -4, -4, -48, -24, 2, 8, 24, -48, 4, 4, 48, 48], "withholdReward": false, "trial_id": "mdp_693501840209", "block": "test1", "trialIndex": 13, "score": 60.25, "costs": -0.75, "simulationMode": [null, null, null], "rewards": [4, 4, 48], "path": ["0", "0", "9", "10", "11"], "rt": [3640, 37, 64], "actions": ["left", "left", "up"], "actionTimes": [5159, 5707, 6301], "queries": {"click": {"state": {"target": ["9", "10", "11"], "time": [3094, 3827, 4450]}, "edge": {"target": [], "time": []}}, "mouseover": {"state": {"target": ["9", "10", "11"], "time": [2920, 3669, 4253]}, "edge": {"target": [], "time": []}}, "mouseout": {"state": {"target": ["0", "9", "10", "11"], "time": [2853, 3570, 4136, 4786]}, "edge": {"target": [], "time": []}}}, "displayed_time": "10.52", "trialTime": 11368, "trial_type": "mouselab-mdp", "trial_index": 24, "time_elapsed": 706430, "internal_node_id": "0.0-4.0-1.0-9.0"}}, {"uniqueid": "w11571621:a68009907", "current_trial": 25, "dateTime": 1664368635385, "trialdata": {"revealed_states": [], "num_clicks_accrued": [0, 0, 0, 0, 0, 0, 0, 0, 0, 0, 0, 0, 0], "stateRewards": ["", 2, -8, -24, -48, -2, -4, 48, 48, 4, 8, 48, 48], "withholdReward": true, "trial_id": "mdp_347285045422", "block": "test1", "trialIndex": 14, "score": 63.5, "costs": -1.5, "simulationMode": [null, null, null], "rewards": [4, 8, 48], "path": ["0", "0", "9", "10", "11"], "rt": [5880, 24, 65], "actions": ["left", "left", "up"], "actionTimes": [6974, 7516, 8089], "queries": {"click": {"state": {"target": ["1", "2", "4", "9", "10", "11"], "time": [2138, 2823, 3610, 4963, 5584, 6162]}, "edge": {"target": [], "time": []}}, "mouseover": {"state": {"target": ["1", "2", "4", "9", "9", "10", "11"], "time": [1823, 2623, 3490, 4240, 4473, 5423, 5940]}, "edge": {"target": [], "time": []}}, "mouseout": {"state": {"target": ["0", "1", "2", "4", "9", "9", "10", "11", "10"], "time": [856, 2473, 3424, 3923, 4357, 5324, 5891, 6457, 6657]}, "edge": {"target": [], "time": []}}}, "displayed_time": "10.10", "trialTime": 11340, "trial_type": "mouselab-mdp", "trial_index": 25, "time_elapsed": 717832, "internal_node_id": "0.0-4.0-1.0-10.0"}}, {"uniqueid": "w11571621:a68009907", "current_trial": 26, "dateTime": 1664368646271, "trialdata": {"revealed_states": [], "num_clicks_accrued": [0, 0, 0, 0, 0, 0, 0, 0, 0, 0, 0, 0, 0], "stateRewards": ["", 4, -8, 48, 48, 2, 4, 48, -48, 4, -4, -48, 48], "withholdReward": true, "trial_id": "mdp_519605841135", "block": "test1", "trialIndex": 15, "score": 58.25, "costs": -0.75, "simulationMode": [null, null, null], "rewards": [2, 4, 48], "path": ["0", "0", "5", "6", "7"], "rt": [3020, 35, 156], "actions": ["right", "right", "up"], "actionTimes": [4025, 4568, 5222], "queries": {"click": {"state": {"target": ["5", "6", "7"], "time": [1870, 2589, 3233]}, "edge": {"target": [], "time": []}}, "mouseover": {"state": {"target": ["5", "6", "7"], "time": [1682, 2398, 3015]}, "edge": {"target": [], "time": []}}, "mouseout": {"state": {"target": ["0", "5", "6", "7", "6", "8"], "time": [798, 2349, 2965, 3548, 3631, 6716]}, "edge": {"target": [], "time": []}}}, "displayed_time": "9.01", "trialTime": 10816, "trial_type": "mouselab-mdp", "trial_index": 26, "time_elapsed": 728718, "internal_node_id": "0.0-4.0-1.0-11.0"}}, {"uniqueid": "w11571621:a68009907", "current_trial": 27, "dateTime": 1664368656258, "trialdata": {"revealed_states": [], "num_clicks_accrued": [0, 0, 0, 0, 0, 0, 0, 0, 0, 0, 0, 0, 0], "stateRewards": ["", 2, -8, -24, 48, -4, -8, 24, -48, 4, -8, -24, -24], "withholdReward": true, "trial_id": "mdp_928911266656", "block": "test1", "trialIndex": 16, "score": 46.25, "costs": -0.75, "simulationMode": [null, null, null], "rewards": [2, -8, 48], "path": ["0", "0", "1", "2", "4"], "rt": [4020, 134, 113], "actions": ["up", "up", "left"], "actionTimes": [5250, 5873, 6486], "queries": {"click": {"state": {"target": ["1", "2", "4"], "time": [1971, 2642, 3875]}, "edge": {"target": [], "time": []}}, "mouseover": {"state": {"target": ["1", "2", "4", "9"], "time": [1689, 2471, 3388, 4222]}, "edge": {"target": [], "time": []}}, "mouseout": {"state": {"target": ["0", "1", "2", "4"], "time": [788, 2388, 3322, 4139]}, "edge": {"target": [], "time": []}}}, "displayed_time": "9.23", "trialTime": 9927, "trial_type": "mouselab-mdp", "trial_index": 27, "time_elapsed": 738705, "internal_node_id": "0.0-4.0-1.0-12.0"}}, {"uniqueid": "w11571621:a68009907", "current_trial": 28, "dateTime": 1664368671810, "trialdata": {"revealed_states": [], "num_clicks_accrued": [0, 0, 0, 0, 0, 0, 0, 0, 0, 0, 0, 0, 0], "stateRewards": ["", 2, -4, 24, 48, -2, 4, -48, -48, -4, 4, 24, -24], "withholdReward": true, "trial_id": "mdp_900363662757", "block": "test1", "trialIndex": 17, "score": 26.75, "costs": -2.25, "simulationMode": [null, null, null], "rewards": [-4, 4, 24], "path": ["0", "0", "9", "10", "11"], "rt": [11765, 60, 167], "actions": ["left", "left", "up"], "actionTimes": [12733, 13290, 13979], "queries": {"click": {"state": {"target": ["9", "10", "1", "2", "5", "6", "8", "3", "11"], "time": [2683, 3595, 5103, 5815, 7187, 8429, 8894, 10237, 11574]}, "edge": {"target": [], "time": []}}, "mouseover": {"state": {"target": ["0", "9", "10", "11", "1", "2", "3", "5", "6", "8", "7", "3", "11"], "time": [1378, 1478, 3161, 3995, 4878, 5546, 6295, 6728, 7628, 8728, 9585, 10079, 11395]}, "edge": {"target": [], "time": []}}, "mouseout": {"state": {"target": ["9", "0", "9", "10", "11", "1", "2", "3", "5", "6", "8", "6", "7", "3", "11", "9"], "time": [662, 1394, 3061, 3928, 4547, 5479, 6213, 6645, 7578, 8712, 9312, 9378, 9745, 10729, 11962, 14995]}, "edge": {"target": [], "time": []}}}, "displayed_time": "14.48", "trialTime": 15485, "trial_type": "mouselab-mdp", "trial_index": 28, "time_elapsed": 754257, "internal_node_id": "0.0-4.0-1.0-13.0"}}, {"uniqueid": "w11571621:a68009907", "current_trial": 29, "dateTime": 1664368682985, "trialdata": {"revealed_states": [], "num_clicks_accrued": [0, 0, 0, 0, 0, 0, 0, 0, 0, 0, 0, 0, 0], "stateRewards": ["", 2, -8, 48, -24, -4, -8, -24, 48, -2, 4, 24, -48], "withholdReward": false, "trial_id": "mdp_186932504904", "block": "test1", "trialIndex": 18, "score": 29.25, "costs": -1.75, "simulationMode": [null, null, null], "rewards": [-2, 4, 24], "path": ["0", "0", "9", "10", "11"], "rt": [7222, 87, 137], "actions": ["left", "left", "up"], "actionTimes": [8350, 8953, 9586], "queries": {"click": {"state": {"target": ["1", "2", "4", "9", "10", "5", "11"], "time": [1792, 2670, 3608, 4196, 5382, 6020, 6801]}, "edge": {"target": [], "time": []}}, "mouseover": {"state": {"target": ["1", "9", "2", "4", "9", "10", "5", "0", "11", "12"], "time": [1582, 2232, 2449, 3198, 3998, 5198, 5732, 6515, 6665, 7566]}, "edge": {"target": [], "time": []}}, "mouseout": {"state": {"target": ["0", "1", "9", "2", "4", "9", "9", "9", "10", "9", "5", "0", "11", "10", "12"], "time": [915, 2099, 2381, 3165, 3899, 4648, 4949, 5148, 5615, 5649, 6499, 6533, 7099, 7499, 10330]}, "edge": {"target": [], "time": []}}}, "displayed_time": "10.08", "trialTime": 11112, "trial_type": "mouselab-mdp", "trial_index": 29, "time_elapsed": 765431, "internal_node_id": "0.0-4.0-1.0-14.0"}}, {"uniqueid": "w11571621:a68009907", "current_trial": 30, "dateTime": 1664368693771, "trialdata": {"revealed_states": [], "num_clicks_accrued": [0, 0, 0, 0, 0, 0, 0, 0, 0, 0, 0, 0, 0], "stateRewards": ["", -2, -8, 48, 24, 2, 8, -48, 24, -4, 8, 48, 48], "withholdReward": false, "trial_id": "mdp_875436109858", "block": "test1", "trialIndex": 19, "score": 38, "costs": -1, "simulationMode": [null, null, null], "rewards": [2, 8, 24], "path": ["0", "0", "5", "6", "8"], "rt": [3327, 64, 87], "actions": ["right", "right", "down"], "actionTimes": [4484, 5066, 5689], "queries": {"click": {"state": {"target": ["5", "6", "7", "8"], "time": [1774, 2392, 3166, 3707]}, "edge": {"target": [], "time": []}}, "mouseover": {"state": {"target": ["5", "6", "7", "8"], "time": [1618, 2185, 2934, 3551]}, "edge": {"target": [], "time": []}}, "mouseout": {"state": {"target": ["0", "5", "6", "7", "6", "8"], "time": [1568, 2136, 2885, 3451, 3518, 4001]}, "edge": {"target": [], "time": []}}}, "displayed_time": "10.16", "trialTime": 10718, "trial_type": "mouselab-mdp", "trial_index": 30, "time_elapsed": 776218, "internal_node_id": "0.0-4.0-1.0-15.0"}}, {"uniqueid": "w11571621:a68009907", "current_trial": 31, "dateTime": 1664368705084, "trialdata": {"revealed_states": [], "num_clicks_accrued": [0, 0, 0, 0, 0, 0, 0, 0, 0, 0, 0, 0, 0], "stateRewards": ["", 2, -8, 24, -48, 2, 4, 48, -48, -2, -8, -48, 48], "withholdReward": true, "trial_id": "mdp_629420544881", "block": "test1", "trialIndex": 20, "score": 57.5, "costs": -1.5, "simulationMode": [null, null, null], "rewards": [2, 4, 48], "path": ["0", "0", "5", "6", "7"], "rt": [4992, 148, 166], "actions": ["right", "right", "up"], "actionTimes": [6097, 6740, 7409], "queries": {"click": {"state": {"target": ["1", "2", "5", "6", "8", "7"], "time": [1677, 2508, 3367, 3948, 4675, 5292]}, "edge": {"target": [], "time": []}}, "mouseover": {"state": {"target": ["1", "2", "5", "6", "8", "7", "9"], "time": [1508, 2258, 3175, 3808, 4408, 5058, 5708]}, "edge": {"target": [], "time": []}}, "mouseout": {"state": {"target": ["0", "1", "2", "5", "6", "8", "6", "7", "9"], "time": [1390, 2142, 3091, 3775, 4375, 4958, 5025, 5542, 8309]}, "edge": {"target": [], "time": []}}}, "displayed_time": "10.10", "trialTime": 11253, "trial_type": "mouselab-mdp", "trial_index": 31, "time_elapsed": 787531, "internal_node_id": "0.0-4.0-1.0-16.0"}}, {"uniqueid": "w11571621:a68009907", "current_trial": 32, "dateTime": 1664368715781, "trialdata": {"revealed_states": [], "num_clicks_accrued": [0, 0, 0, 0, 0, 0, 0, 0, 0, 0, 0, 0, 0], "stateRewards": ["", -4, 8, 24, 24, 2, 4, -48, 24, -2, -4, -24, -24], "withholdReward": true, "trial_id": "mdp_752328329546", "block": "test1", "trialIndex": 21, "score": 33.5, "costs": -1.5, "simulationMode": [null, null, null], "rewards": [2, 4, 24], "path": ["0", "0", "5", "6", "8"], "rt": [4886, 149, 157], "actions": ["right", "right", "down"], "actionTimes": [5517, 6155, 6813], "queries": {"click": {"state": {"target": ["1", "9", "10", "5", "6", "8"], "time": [1433, 2434, 2956, 3655, 4264, 4778]}, "edge": {"target": [], "time": []}}, "mouseover": {"state": {"target": ["1", "2", "9", "10", "5", "5", "6", "8"], "time": [1288, 1821, 2337, 2771, 3371, 3509, 4071, 4605]}, "edge": {"target": [], "time": []}}, "mouseout": {"state": {"target": ["0", "1", "2", "9", "10", "9", "5", "5", "6", "8"], "time": [1187, 1771, 2161, 2731, 3254, 3288, 3421, 4021, 4555, 5204]}, "edge": {"target": [], "time": []}}}, "displayed_time": "9.63", "trialTime": 10630, "trial_type": "mouselab-mdp", "trial_index": 32, "time_elapsed": 798228, "internal_node_id": "0.0-4.0-1.0-17.0"}}, {"uniqueid": "w11571621:a68009907", "current_trial": 33, "dateTime": 1664368725168, "trialdata": {"revealed_states": [], "num_clicks_accrued": [0, 0, 0, 0, 0, 0, 0, 0, 0, 0, 0, 0, 0], "stateRewards": ["", -2, 8, -48, 48, 4, -8, -48, 48, 4, -4, -24, 48], "withholdReward": true, "trial_id": "mdp_144739116828", "block": "test1", "trialIndex": 22, "score": 47.5, "costs": -1.5, "simulationMode": [null, null, null], "rewards": [4, -8, 48], "path": ["0", "0", "5", "6", "8"], "rt": [5433, 141, 171], "actions": ["right", "right", "down"], "actionTimes": [6074, 6717, 7380], "queries": {"click": {"state": {"target": ["1", "9", "10", "5", "6", "8"], "time": [1420, 2256, 2825, 3969, 4492, 5073]}, "edge": {"target": [], "time": []}}, "mouseover": {"state": {"target": ["1", "9", "10", "12", "0", "5", "6", "8"], "time": [1241, 2125, 2674, 3241, 3674, 3724, 4341, 4858]}, "edge": {"target": [], "time": []}}, "mouseout": {"state": {"target": ["0", "1", "1", "9", "10", "12", "0", "5", "6", "8"], "time": [1141, 1908, 2075, 2592, 3208, 3458, 3691, 4291, 4808, 8307]}, "edge": {"target": [], "time": []}}}, "displayed_time": "8.64", "trialTime": 9320, "trial_type": "mouselab-mdp", "trial_index": 33, "time_elapsed": 807615, "internal_node_id": "0.0-4.0-1.0-18.0"}}, {"uniqueid": "w11571621:a68009907", "current_trial": 34, "dateTime": 1664368734957, "trialdata": {"revealed_states": [], "num_clicks_accrued": [0, 0, 0, 0, 0, 0, 0, 0, 0, 0, 0, 0, 0], "stateRewards": ["", -2, -4, -24, 48, -2, -8, -48, -24, 4, 8, 48, 24], "withholdReward": true, "trial_id": "mdp_625355871626", "block": "test1", "trialIndex": 23, "score": 64, "costs": -1, "simulationMode": [null, null, null], "rewards": [4, 8, 48], "path": ["0", "0", "9", "10", "11"], "rt": [3456, 45, 86], "actions": ["left", "left", "up"], "actionTimes": [4520, 5082, 5691], "queries": {"click": {"state": {"target": ["1", "9", "10", "11"], "time": [1692, 2535, 3220, 3816]}, "edge": {"target": [], "time": []}}, "mouseover": {"state": {"target": ["1", "9", "10", "11"], "time": [1520, 2253, 3054, 3687]}, "edge": {"target": [], "time": []}}, "mouseout": {"state": {"target": ["0", "1", "9", "10", "11", "10"], "time": [1403, 2170, 2987, 3587, 6420, 6470]}, "edge": {"target": [], "time": []}}}, "displayed_time": "9.06", "trialTime": 9720, "trial_type": "mouselab-mdp", "trial_index": 34, "time_elapsed": 817404, "internal_node_id": "0.0-4.0-1.0-19.0"}}, {"uniqueid": "w11571621:a68009907", "current_trial": 35, "dateTime": 1664368750170, "trialdata": {"revealed_states": [], "num_clicks_accrued": [0, 0, 0, 0, 0, 0, 0, 0, 0, 0, 0, 0, 0], "stateRewards": ["", 2, 8, -48, -24, 2, -4, -48, 24, 2, -4, -24, -24], "withholdReward": true, "trial_id": "mdp_954659099093", "block": "test1", "trialIndex": 24, "score": 24, "costs": -3, "simulationMode": [null, null, null], "rewards": [2, -4, 24], "path": ["0", "0", "5", "6", "8"], "rt": [11218, 44, 66], "actions": ["right", "right", "down"], "actionTimes": [12786, 13343, 13932], "queries": {"click": {"state": {"target": ["5", "6", "9", "10", "1", "2", "4", "3", "7", "11", "12", "8"], "time": [2220, 2824, 3721, 4297, 5236, 6492, 7115, 7808, 8521, 10617, 11372, 12325]}, "edge": {"target": [], "time": []}}, "mouseover": {"state": {"target": ["5", "6", "9", "10", "1", "2", "4", "3", "7", "8", "0", "11", "12", "8"], "time": [2064, 2564, 3564, 4165, 4881, 6014, 6931, 7598, 8314, 8931, 9681, 10448, 11247, 12064]}, "edge": {"target": [], "time": []}}, "mouseout": {"state": {"target": ["0", "5", "6", "5", "9", "10", "1", "2", "4", "2", "3", "7", "6", "8", "0", "11", "10", "12", "8"], "time": [1864, 2514, 3364, 3398, 4114, 4714, 5847, 6847, 7482, 7565, 8231, 8831, 8897, 9631, 9698, 11081, 11148, 11681, 14848]}, "edge": {"target": [], "time": []}}}, "displayed_time": "14.43", "trialTime": 15144, "trial_type": "mouselab-mdp", "trial_index": 35, "time_elapsed": 832617, "internal_node_id": "0.0-4.0-1.0-20.0"}}, {"uniqueid": "w11571621:a68009907", "current_trial": 36, "dateTime": 1664368769605, "trialdata": {"revealed_states": [], "num_clicks_accrued": [0, 0, 0, 0, 0, 0, 0, 0, 0, 0, 0, 0, 0], "stateRewards": ["", -2, -4, 48, -24, -4, -4, -24, -24, -2, 4, -48, -24], "withholdReward": false, "trial_id": "mdp_410467837196", "block": "test1", "trialIndex": 25, "score": 44, "costs": -3, "simulationMode": [null, null, null], "rewards": [-2, -4, 48], "path": ["0", "0", "1", "2", "3"], "rt": [14149, 121, 144], "actions": ["up", "up", "right"], "actionTimes": [15844, 16476, 17115], "queries": {"click": {"state": {"target": ["9", "1", "5", "6", "2", "10", "11", "12", "4", "7", "8", "3"], "time": [2975, 5198, 6398, 6933, 8112, 9538, 10209, 11198, 12005, 13383, 14076, 15036]}, "edge": {"target": [], "time": []}}, "mouseover": {"state": {"target": ["0", "0", "9", "10", "1", "5", "5", "6", "2", "2", "4", "11", "10", "11", "12", "4", "3", "7", "8", "3"], "time": [2086, 2403, 2803, 3820, 5069, 5636, 6254, 6786, 7570, 7926, 8653, 8987, 9270, 10087, 10669, 11837, 12770, 13154, 13836, 14554]}, "edge": {"target": [], "time": []}}, "mouseout": {"state": {"target": ["0", "0", "0", "9", "10", "1", "5", "5", "6", "2", "2", "4", "11", "10", "11", "10", "12", "1", "4", "2", "3", "7", "6", "8", "3", "5"], "time": [1436, 2186, 2769, 3703, 4719, 5587, 5703, 6719, 7453, 7686, 8604, 8936, 9220, 9970, 10586, 10637, 11486, 11703, 12354, 12471, 13070, 13720, 13787, 14437, 15320, 15437]}, "edge": {"target": [], "time": []}}}, "displayed_time": "17.60", "trialTime": 19366, "trial_type": "mouselab-mdp", "trial_index": 36, "time_elapsed": 852051, "internal_node_id": "0.0-4.0-1.0-21.0"}}, {"uniqueid": "w11571621:a68009907", "current_trial": 37, "dateTime": 1664368790616, "trialdata": {"revealed_states": [], "num_clicks_accrued": [0, 0, 0, 0, 0, 0, 0, 0, 0, 0, 0, 0, 0], "stateRewards": ["", 2, -4, -24, -24, -2, -8, -48, 24, -4, -8, 24, 24], "withholdReward": true, "trial_id": "mdp_521351546461", "block": "test1", "trialIndex": 26, "score": 16, "costs": -3, "simulationMode": [null, null, null], "rewards": [-2, -8, 24], "path": ["0", "0", "5", "6", "8"], "rt": [16877, 528, 174], "actions": ["right", "right", "down"], "actionTimes": [17986, 19003, 19666], "queries": {"click": {"state": {"target": ["1", "2", "4", "3", "5", "6", "8", "11", "10", "9", "12", "7"], "time": [1999, 2890, 3574, 5336, 5787, 6575, 7878, 9379, 12940, 13792, 14235, 15895]}, "edge": {"target": [], "time": []}}, "mouseover": {"state": {"target": ["1", "2", "4", "9", "3", "5", "6", "8", "8", "0", "9", "10", "11", "10", "12", "9", "9", "0", "9", "10", "9", "12", "0", "7"], "time": [1690, 2690, 3340, 4040, 5123, 5657, 6390, 6924, 7762, 8490, 8558, 8991, 9091, 9791, 10057, 10443, 10724, 11374, 12524, 12674, 13357, 14141, 14557, 14844]}, "edge": {"target": [], "time": []}}, "mouseout": {"state": {"target": ["0", "1", "2", "4", "9", "1", "3", "5", "6", "8", "8", "0", "9", "10", "11", "10", "12", "9", "9", "0", "9", "10", "9", "12", "0", "7"], "time": [1490, 2607, 3274, 3890, 4973, 5040, 5590, 6357, 6890, 7007, 8407, 8507, 8707, 9040, 9757, 9858, 10424, 10474, 11341, 11424, 12624, 13291, 14057, 14491, 14574, 16191]}, "edge": {"target": [], "time": []}}}, "displayed_time": "20.16", "trialTime": 20948, "trial_type": "mouselab-mdp", "trial_index": 37, "time_elapsed": 873063, "internal_node_id": "0.0-4.0-1.0-22.0"}}, {"uniqueid": "w11571621:a68009907", "current_trial": 38, "dateTime": 1664368802699, "trialdata": {"revealed_states": [], "num_clicks_accrued": [0, 0, 0, 0, 0, 0, 0, 0, 0, 0, 0, 0, 0], "stateRewards": ["", 4, -8, 24, 48, -2, -4, -48, 24, 2, 4, -48, -24], "withholdReward": true, "trial_id": "mdp_749974461966", "block": "test1", "trialIndex": 27, "score": 48, "costs": -1, "simulationMode": [null, null, null], "rewards": [4, -8, 48], "path": ["0", "0", "1", "2", "4"], "rt": [4540, 95, 85], "actions": ["up", "up", "left"], "actionTimes": [5615, 6203, 6776], "queries": {"click": {"state": {"target": ["5", "1", "2", "4"], "time": [1788, 3338, 4168, 4797]}, "edge": {"target": [], "time": []}}, "mouseover": {"state": {"target": ["5", "6", "1", "2", "4"], "time": [1590, 2440, 3057, 3923, 4657]}, "edge": {"target": [], "time": []}}, "mouseout": {"state": {"target": ["6", "5", "0", "5", "6", "1", "1", "2", "4", "2", "1", "0"], "time": [673, 756, 1480, 2356, 2940, 3657, 3890, 4624, 5106, 5274, 7690, 7740]}, "edge": {"target": [], "time": []}}}, "displayed_time": "10.08", "trialTime": 12013, "trial_type": "mouselab-mdp", "trial_index": 38, "time_elapsed": 885146, "internal_node_id": "0.0-4.0-1.0-23.0"}}, {"uniqueid": "w11571621:a68009907", "current_trial": 39, "dateTime": 1664368815605, "trialdata": {"revealed_states": [], "num_clicks_accrued": [0, 0, 0, 0, 0, 0, 0, 0, 0, 0, 0, 0, 0], "stateRewards": ["", 2, 4, 48, -48, 2, -4, 48, 24, -2, -8, -24, 48], "withholdReward": true, "trial_id": "mdp_962424406744", "block": "test1", "trialIndex": 28, "score": 49.5, "costs": -1.5, "simulationMode": [null, null, null], "rewards": [2, -4, 48], "path": ["0", "0", "5", "6", "7"], "rt": [6635, 175, 210], "actions": ["right", "right", "up"], "actionTimes": [8057, 8721, 9422], "queries": {"click": {"state": {"target": ["9", "10", "11", "5", "6", "7"], "time": [3513, 4232, 4993, 6084, 6708, 7276]}, "edge": {"target": [], "time": []}}, "mouseover": {"state": {"target": ["1", "5", "0", "9", "10", "11", "1", "5", "6", "7"], "time": [2378, 2945, 3178, 3261, 4061, 4761, 5445, 5845, 6528, 7161]}, "edge": {"target": [], "time": []}}, "mouseout": {"state": {"target": ["0", "1", "5", "0", "9", "10", "11", "1", "5", "6", "7"], "time": [2094, 2895, 3145, 3211, 3978, 4678, 5345, 5478, 6445, 7128, 7712]}, "edge": {"target": [], "time": []}}}, "displayed_time": "9.91", "trialTime": 12840, "trial_type": "mouselab-mdp", "trial_index": 39, "time_elapsed": 898052, "internal_node_id": "0.0-4.0-1.0-24.0"}}, {"uniqueid": "w11571621:a68009907", "current_trial": 40, "dateTime": 1664368826641, "trialdata": {"revealed_states": [], "num_clicks_accrued": [0, 0, 0, 0, 0, 0, 0, 0, 0, 0, 0, 0, 0], "stateRewards": ["", 4, 4, 48, -24, -4, -8, 24, -24, 2, -8, -24, 24], "withholdReward": true, "trial_id": "mdp_933201675789", "block": "test1", "trialIndex": 29, "score": 60, "costs": -1, "simulationMode": [null, null, null], "rewards": [4, 4, 48], "path": ["0", "0", "1", "2", "3"], "rt": [3339, 120, 182], "actions": ["up", "up", "right"], "actionTimes": [4465, 5092, 5772], "queries": {"click": {"state": {"target": ["1", "2", "4", "3"], "time": [1693, 2353, 3053, 3691]}, "edge": {"target": [], "time": []}}, "mouseover": {"state": {"target": ["1", "2", "4", "3"], "time": [1555, 2055, 2922, 3522]}, "edge": {"target": [], "time": []}}, "mouseout": {"state": {"target": ["0", "1", "2", "4", "2", "3", "5"], "time": [1486, 2005, 2855, 3422, 3471, 3989, 6773]}, "edge": {"target": [], "time": []}}}, "displayed_time": "10.14", "trialTime": 10968, "trial_type": "mouselab-mdp", "trial_index": 40, "time_elapsed": 909088, "internal_node_id": "0.0-4.0-1.0-25.0"}}, {"uniqueid": "w11571621:a68009907", "current_trial": 41, "dateTime": 1664368836592, "trialdata": {"revealed_states": [], "num_clicks_accrued": [0, 0, 0, 0, 0, 0, 0, 0, 0, 0, 0, 0, 0], "stateRewards": ["", -2, -8, 48, 24, 4, -8, 24, 48, 4, -4, 24, -48], "withholdReward": true, "trial_id": "mdp_871576155740", "block": "test1", "trialIndex": 30, "score": 48.25, "costs": -0.75, "simulationMode": [null, null, null], "rewards": [4, -8, 48], "path": ["0", "0", "5", "6", "8"], "rt": [2681, 144, 228], "actions": ["right", "right", "down"], "actionTimes": [3823, 4462, 5180], "queries": {"click": {"state": {"target": ["5", "6", "8"], "time": [1835, 2459, 2959]}, "edge": {"target": [], "time": []}}, "mouseover": {"state": {"target": ["5", "6", "8"], "time": [1684, 2234, 2801]}, "edge": {"target": [], "time": []}}, "mouseout": {"state": {"target": ["0", "5", "6", "8", "6", "5"], "time": [1634, 2201, 2767, 3351, 3417, 6068]}, "edge": {"target": [], "time": []}}}, "displayed_time": "9.14", "trialTime": 9882, "trial_type": "mouselab-mdp", "trial_index": 41, "time_elapsed": 919039, "internal_node_id": "0.0-4.0-1.0-26.0"}}, {"uniqueid": "w11571621:a68009907", "current_trial": 42, "dateTime": 1664368845898, "trialdata": {"revealed_states": [], "num_clicks_accrued": [0, 0, 0, 0, 0, 0, 0, 0, 0, 0, 0, 0, 0], "stateRewards": ["", 4, 8, 24, 24, 2, -4, 48, -24, -4, 8, -24, 24], "withholdReward": true, "trial_id": "mdp_932292142091", "block": "test1", "trialIndex": 31, "score": 40.25, "costs": -0.75, "simulationMode": [null, null, null], "rewards": [4, 8, 24], "path": ["0", "0", "1", "2", "4"], "rt": [3176, 108, 226], "actions": ["up", "up", "left"], "actionTimes": [3808, 4411, 5129], "queries": {"click": {"state": {"target": ["1", "2", "4"], "time": [1525, 2120, 2887]}, "edge": {"target": [], "time": []}}, "mouseover": {"state": {"target": ["1", "2", "4"], "time": [1302, 1935, 2752]}, "edge": {"target": [], "time": []}}, "mouseout": {"state": {"target": ["0", "1", "2", "4", "2"], "time": [1245, 1902, 2636, 3236, 3335]}, "edge": {"target": [], "time": []}}}, "displayed_time": "8.63", "trialTime": 9239, "trial_type": "mouselab-mdp", "trial_index": 42, "time_elapsed": 928345, "internal_node_id": "0.0-4.0-1.0-27.0"}}, {"uniqueid": "w11571621:a68009907", "current_trial": 43, "dateTime": 1664368857363, "trialdata": {"revealed_states": [], "num_clicks_accrued": [0, 0, 0, 0, 0, 0, 0, 0, 0, 0, 0, 0, 0], "stateRewards": ["", -4, 4, -24, 48, 2, 4, -48, 24, 4, -8, -24, 24], "withholdReward": false, "trial_id": "mdp_740130150937", "block": "test1", "trialIndex": 32, "score": 51.5, "costs": -1.5, "simulationMode": [null, null, null], "rewards": [-4, 4, 48], "path": ["0", "0", "1", "2", "4"], "rt": [7161, 52, 135], "actions": ["up", "up", "left"], "actionTimes": [8382, 8944, 9607], "queries": {"click": {"state": {"target": ["9", "10", "11", "1", "4", "2"], "time": [2104, 2719, 3288, 5057, 5741, 7996]}, "edge": {"target": [], "time": []}}, "mouseover": {"state": {"target": ["9", "10", "11", "1", "4", "2", "2", "2"], "time": [1938, 2555, 3171, 4104, 5538, 6254, 7439, 7805]}, "edge": {"target": [], "time": []}}, "mouseout": {"state": {"target": ["0", "9", "10", "11", "1", "4", "2", "2", "2", "1", "0"], "time": [1904, 2505, 3055, 3638, 5472, 6188, 6304, 7522, 10272, 10339, 10404]}, "edge": {"target": [], "time": []}}}, "displayed_time": "10.12", "trialTime": 11389, "trial_type": "mouselab-mdp", "trial_index": 43, "time_elapsed": 939810, "internal_node_id": "0.0-4.0-1.0-28.0"}}, {"uniqueid": "w11571621:a68009907", "current_trial": 44, "dateTime": 1664368874058, "trialdata": {"revealed_states": [], "num_clicks_accrued": [0, 0, 0, 0, 0, 0, 0, 0, 0, 0, 0, 0, 0], "stateRewards": ["", -4, -8, -24, -48, -2, -8, 24, -48, -4, -8, 24, -48], "withholdReward": true, "trial_id": "mdp_621812384092", "block": "test1", "trialIndex": 33, "score": 16.75, "costs": -2.25, "simulationMode": [null, null, null], "rewards": [-2, -8, 24], "path": ["0", "0", "5", "6", "7"], "rt": [12767, 9, 106], "actions": ["right", "right", "up"], "actionTimes": [13826, 14339, 14952], "queries": {"click": {"state": {"target": ["5", "6", "1", "4", "12", "11", "7", "9", "10"], "time": [1678, 2747, 4043, 5936, 7039, 8718, 10583, 12272, 12682]}, "edge": {"target": [], "time": []}}, "mouseover": {"state": {"target": ["5", "6", "8", "1", "2", "4", "10", "12", "0", "3", "11", "9", "9", "7", "0", "9", "10"], "time": [1512, 2111, 3328, 3528, 4578, 5795, 6662, 6895, 7567, 8162, 8546, 9529, 9929, 10378, 11195, 12029, 12628]}, "edge": {"target": [], "time": []}}, "mouseout": {"state": {"target": ["0", "5", "6", "8", "5", "1", "2", "4", "10", "12", "0", "5", "6", "3", "11", "9", "9", "7", "5", "0", "9", "10"], "time": [1461, 2061, 3262, 3412, 3479, 4412, 5729, 6361, 6812, 7328, 7645, 7678, 7929, 8295, 9063, 9579, 9962, 11078, 11179, 11812, 12562, 12946]}, "edge": {"target": [], "time": []}}}, "displayed_time": "15.45", "trialTime": 16624, "trial_type": "mouselab-mdp", "trial_index": 44, "time_elapsed": 956505, "internal_node_id": "0.0-4.0-1.0-29.0"}}, {"uniqueid": "w11571621:a68009907", "current_trial": 45, "dateTime": 1664368888162, "trialdata": {"rt": 14098, "stimulus": "<h1> End of block! </h1>\n\nYou have reached the end of the block 1/4. If you need a short break, feel free to take one now before moving on.\n\n<br><br>\nIn the next block, you will complete another 30 rounds of this game.\n\n<br><br>\n<div style='text-align: center;'>Press <code>space</code> to begin.</div>\n<br><br>\n<div style='text-align: center;'>(If the experiment doesn't continue, try clicking on the text and then pressing <code>space</code>.)</div>", "response": " ", "trial_id": "mdp_ready_2", "trial_type": "html-keyboard-response", "trial_index": 45, "time_elapsed": 970609, "internal_node_id": "0.0-4.0-2.0"}}, {"uniqueid": "w11571621:a68009907", "current_trial": 46, "dateTime": 1664368901604, "trialdata": {"revealed_states": [], "num_clicks_accrued": [0, 0, 0, 0, 0, 0, 0, 0, 0, 0, 0, 0, 0], "stateRewards": ["", 2, -4, 48, -24, 4, -8, -24, 48, -2, -4, 24, -48], "withholdReward": true, "trial_id": "mdp_357328205509", "block": "test2", "trialIndex": 34, "score": 49.25, "costs": -1.75, "simulationMode": [null, null, null], "rewards": [2, -4, 48], "path": ["0", "0", "1", "2", "3"], "rt": [9234, 125, 141], "actions": ["up", "up", "right"], "actionTimes": [10686, 11304, 11937], "queries": {"click": {"state": {"target": ["1", "2", "4", "9", "10", "11", "3"], "time": [2579, 3679, 4943, 5533, 6595, 7499, 9865]}, "edge": {"target": [], "time": []}}, "mouseover": {"state": {"target": ["1", "2", "4", "9", "10", "10", "11", "5", "3"], "time": [2279, 3395, 4538, 5395, 6012, 6445, 7357, 7979, 9445]}, "edge": {"target": [], "time": []}}, "mouseout": {"state": {"target": ["2", "1", "0", "1", "2", "4", "9", "10", "10", "11", "5", "3", "5"], "time": [779, 862, 1261, 2962, 4362, 5229, 5895, 6295, 6862, 7795, 9046, 10182, 12896]}, "edge": {"target": [], "time": []}}}, "displayed_time": "12.43", "trialTime": 13369, "trial_type": "mouselab-mdp", "trial_index": 46, "time_elapsed": 984051, "internal_node_id": "0.0-4.0-3.0-0.0"}}, {"uniqueid": "w11571621:a68009907", "current_trial": 47, "dateTime": 1664368916454, "trialdata": {"revealed_states": [], "num_clicks_accrued": [0, 0, 0, 0, 0, 0, 0, 0, 0, 0, 0, 0, 0], "stateRewards": ["", -4, 8, -24, 24, -2, -8, 24, -24, 4, -4, -48, 48], "withholdReward": true, "trial_id": "mdp_297684722007", "block": "test2", "trialIndex": 35, "score": 51.25, "costs": -1.75, "simulationMode": [null, null, null], "rewards": [4, -4, 48], "path": ["0", "0", "9", "10", "12"], "rt": [10930, 174, 206], "actions": ["left", "left", "down"], "actionTimes": [11952, 12614, 13313], "queries": {"click": {"state": {"target": ["5", "1", "11", "4", "7", "8", "12"], "time": [2241, 3851, 4996, 6126, 7477, 9067, 10558]}, "edge": {"target": [], "time": []}}, "mouseover": {"state": {"target": ["5", "6", "1", "9", "10", "11", "4", "2", "3", "7", "6", "8", "12", "9"], "time": [1406, 3022, 3740, 4239, 4606, 4839, 5740, 6490, 6572, 7239, 7806, 7956, 9889, 10840]}, "edge": {"target": [], "time": []}}, "mouseout": {"state": {"target": ["0", "5", "6", "5", "1", "9", "10", "11", "4", "2", "3", "7", "6", "8", "12", "9", "1"], "time": [1356, 2923, 3426, 3522, 4189, 4390, 4773, 5572, 6456, 6539, 7139, 7773, 7856, 9407, 10806, 10856, 10923]}, "edge": {"target": [], "time": []}}}, "displayed_time": "13.81", "trialTime": 14778, "trial_type": "mouselab-mdp", "trial_index": 47, "time_elapsed": 998901, "internal_node_id": "0.0-4.0-3.0-1.0"}}, {"uniqueid": "w11571621:a68009907", "current_trial": 48, "dateTime": 1664368928567, "trialdata": {"revealed_states": [], "num_clicks_accrued": [0, 0, 0, 0, 0, 0, 0, 0, 0, 0, 0, 0, 0], "stateRewards": ["", -4, 4, 24, 24, 4, -8, 48, -48, -2, -8, 24, 24], "withholdReward": false, "trial_id": "mdp_395264223239", "block": "test2", "trialIndex": 36, "score": 47.75, "costs": -1.25, "simulationMode": [null, null, null], "rewards": [4, -8, 48], "path": ["0", "0", "5", "6", "7"], "rt": [7838, 89, 174], "actions": ["right", "right", "up"], "actionTimes": [8938, 9516, 10185], "queries": {"click": {"state": {"target": ["12", "4", "7", "5", "6"], "time": [2153, 3476, 4530, 7817, 8270]}, "edge": {"target": [], "time": []}}, "mouseover": {"state": {"target": ["12", "11", "4", "4", "2", "3", "7", "5", "6", "6"], "time": [1893, 3027, 3209, 3295, 3843, 4027, 4359, 7427, 8093, 8209]}, "edge": {"target": [], "time": []}}, "mouseout": {"state": {"target": ["0", "12", "11", "4", "4", "2", "3", "7", "5", "6", "6"], "time": [1810, 2659, 3093, 3243, 3810, 3893, 4276, 4843, 8059, 8160, 8579]}, "edge": {"target": [], "time": []}}}, "displayed_time": "10.69", "trialTime": 12044, "trial_type": "mouselab-mdp", "trial_index": 48, "time_elapsed": 1011014, "internal_node_id": "0.0-4.0-3.0-2.0"}}, {"uniqueid": "w11571621:a68009907", "current_trial": 49, "dateTime": 1664368940675, "trialdata": {"revealed_states": [], "num_clicks_accrued": [0, 0, 0, 0, 0, 0, 0, 0, 0, 0, 0, 0, 0], "stateRewards": ["", 2, -8, -24, 48, 4, -8, -24, -24, 2, 8, -24, 24], "withholdReward": true, "trial_id": "mdp_480787552818", "block": "test2", "trialIndex": 37, "score": 46.5, "costs": -0.5, "simulationMode": [null, null, null], "rewards": [2, -8, 48], "path": ["0", "0", "1", "2", "4"], "rt": [2949, 153, 191], "actions": ["up", "up", "left"], "actionTimes": [4017, 4680, 5368], "queries": {"click": {"state": {"target": ["11", "4"], "time": [2103, 3063]}, "edge": {"target": [], "time": []}}, "mouseover": {"state": {"target": ["9", "11", "4"], "time": [1576, 1710, 2827]}, "edge": {"target": [], "time": []}}, "mouseout": {"state": {"target": ["0", "9", "11", "4", "0"], "time": [809, 1627, 2526, 3610, 10677]}, "edge": {"target": [], "time": []}}}, "displayed_time": "10.07", "trialTime": 12036, "trial_type": "mouselab-mdp", "trial_index": 49, "time_elapsed": 1023122, "internal_node_id": "0.0-4.0-3.0-3.0"}}, {"uniqueid": "w11571621:a68009907", "current_trial": 50, "dateTime": 1664368951751, "trialdata": {"revealed_states": [], "num_clicks_accrued": [0, 0, 0, 0, 0, 0, 0, 0, 0, 0, 0, 0, 0], "stateRewards": ["", -2, -4, -24, 48, -4, 8, 48, 48, 2, 8, -48, -24], "withholdReward": true, "trial_id": "mdp_136376573354", "block": "test2", "trialIndex": 38, "score": 56.75, "costs": -0.25, "simulationMode": [null, null, null], "rewards": [-4, 8, 48], "path": ["0", "0", "5", "6", "8"], "rt": [1904, 141, 184], "actions": ["right", "right", "down"], "actionTimes": [3177, 3824, 4517], "queries": {"click": {"state": {"target": ["8"], "time": [2222]}, "edge": {"target": [], "time": []}}, "mouseover": {"state": {"target": ["5", "8"], "time": [1766, 2066]}, "edge": {"target": [], "time": []}}, "mouseout": {"state": {"target": ["0", "5", "8"], "time": [1716, 1783, 5562]}, "edge": {"target": [], "time": []}}}, "displayed_time": "10.28", "trialTime": 11001, "trial_type": "mouselab-mdp", "trial_index": 50, "time_elapsed": 1034198, "internal_node_id": "0.0-4.0-3.0-4.0"}}, {"uniqueid": "w11571621:a68009907", "current_trial": 51, "dateTime": 1664368962238, "trialdata": {"revealed_states": [], "num_clicks_accrued": [0, 0, 0, 0, 0, 0, 0, 0, 0, 0, 0, 0, 0], "stateRewards": ["", 2, -4, 48, -48, 2, 4, -24, 24, -4, -8, 24, -48], "withholdReward": false, "trial_id": "mdp_238810765895", "block": "test2", "trialIndex": 39, "score": 50.25, "costs": -0.75, "simulationMode": [null, null, null], "rewards": [2, -4, 48], "path": ["0", "0", "1", "2", "3"], "rt": [6157, 118, 65], "actions": ["up", "up", "right"], "actionTimes": [7178, 7796, 8359], "queries": {"click": {"state": {"target": ["3", "11", "8"], "time": [1807, 3829, 6407]}, "edge": {"target": [], "time": []}}, "mouseover": {"state": {"target": ["3", "3", "2", "4", "11", "8"], "time": [1394, 1627, 3294, 3460, 3577, 6273]}, "edge": {"target": [], "time": []}}, "mouseout": {"state": {"target": ["0", "3", "3", "2", "4", "11", "8"], "time": [876, 1410, 2143, 3360, 3510, 4128, 6761]}, "edge": {"target": [], "time": []}}}, "displayed_time": "9.02", "trialTime": 10414, "trial_type": "mouselab-mdp", "trial_index": 51, "time_elapsed": 1044684, "internal_node_id": "0.0-4.0-3.0-5.0"}}, {"uniqueid": "w11571621:a68009907", "current_trial": 52, "dateTime": 1664368972058, "trialdata": {"revealed_states": [], "num_clicks_accrued": [0, 0, 0, 0, 0, 0, 0, 0, 0, 0, 0, 0, 0], "stateRewards": ["", -2, 8, 48, -24, 2, 4, -48, -24, -4, 8, -48, -48], "withholdReward": true, "trial_id": "mdp_539167561933", "block": "test2", "trialIndex": 40, "score": 58, "costs": -1, "simulationMode": [null, null, null], "rewards": [-2, 8, 48], "path": ["0", "0", "1", "2", "3"], "rt": [4728, 162, 150], "actions": ["up", "up", "right"], "actionTimes": [5707, 6364, 7002], "queries": {"click": {"state": {"target": ["4", "12", "8", "3"], "time": [1662, 2557, 3682, 4888]}, "edge": {"target": [], "time": []}}, "mouseover": {"state": {"target": ["1", "4", "1", "9", "12", "8", "6", "3"], "time": [1316, 1400, 2050, 2233, 2366, 3481, 4150, 4500]}, "edge": {"target": [], "time": []}}, "mouseout": {"state": {"target": ["0", "1", "4", "1", "9", "12", "8", "6", "3", "5"], "time": [700, 1350, 1983, 2100, 2250, 2900, 4133, 4167, 5234, 7817]}, "edge": {"target": [], "time": []}}}, "displayed_time": "8.98", "trialTime": 9741, "trial_type": "mouselab-mdp", "trial_index": 52, "time_elapsed": 1054505, "internal_node_id": "0.0-4.0-3.0-6.0"}}, {"uniqueid": "w11571621:a68009907", "current_trial": 53, "dateTime": 1664368982839, "trialdata": {"revealed_states": [], "num_clicks_accrued": [0, 0, 0, 0, 0, 0, 0, 0, 0, 0, 0, 0, 0], "stateRewards": ["", -2, 8, 24, -48, -4, -8, -24, -48, -4, 8, -24, 48], "withholdReward": true, "trial_id": "mdp_464339499860", "block": "test2", "trialIndex": 41, "score": 56, "costs": -1, "simulationMode": [null, null, null], "rewards": [-4, 8, 48], "path": ["0", "0", "9", "10", "12"], "rt": [5183, 196, 145], "actions": ["left", "left", "down"], "actionTimes": [6285, 6968, 7616], "queries": {"click": {"state": {"target": ["8", "3", "11", "12"], "time": [2100, 3148, 4230, 5390]}, "edge": {"target": [], "time": []}}, "mouseover": {"state": {"target": ["8", "3", "2", "4", "11", "10", "12", "9"], "time": [1721, 2970, 3704, 3754, 4038, 4654, 4737, 5754]}, "edge": {"target": [], "time": []}}, "mouseout": {"state": {"target": ["0", "8", "3", "2", "4", "11", "10", "12", "9", "0"], "time": [1554, 2587, 3688, 3737, 3787, 4629, 4704, 5721, 5821, 8854]}, "edge": {"target": [], "time": []}}}, "displayed_time": "10.10", "trialTime": 10708, "trial_type": "mouselab-mdp", "trial_index": 53, "time_elapsed": 1065286, "internal_node_id": "0.0-4.0-3.0-7.0"}}, {"uniqueid": "w11571621:a68009907", "current_trial": 54, "dateTime": 1664368993500, "trialdata": {"revealed_states": [], "num_clicks_accrued": [0, 0, 0, 0, 0, 0, 0, 0, 0, 0, 0, 0, 0], "stateRewards": ["", 2, 4, -24, -48, 4, -4, 24, 48, -4, -4, -24, 48], "withholdReward": true, "trial_id": "mdp_181958792175", "block": "test2", "trialIndex": 42, "score": 44.25, "costs": -0.75, "simulationMode": [null, null, null], "rewards": [-4, -4, 48], "path": ["0", "0", "9", "10", "12"], "rt": [3623, 176, 143], "actions": ["left", "left", "down"], "actionTimes": [4745, 5414, 6047], "queries": {"click": {"state": {"target": ["4", "7", "12"], "time": [1959, 3014, 3960]}, "edge": {"target": [], "time": []}}, "mouseover": {"state": {"target": ["1", "2", "4", "2", "7", "5", "12"], "time": [1469, 1536, 1619, 2419, 2836, 3536, 3820]}, "edge": {"target": [], "time": []}}, "mouseout": {"state": {"target": ["0", "1", "2", "4", "2", "7", "5", "12"], "time": [820, 1503, 1586, 2403, 2470, 3503, 3569, 6924]}, "edge": {"target": [], "time": []}}}, "displayed_time": "10.12", "trialTime": 10585, "trial_type": "mouselab-mdp", "trial_index": 54, "time_elapsed": 1075947, "internal_node_id": "0.0-4.0-3.0-8.0"}}, {"uniqueid": "w11571621:a68009907", "current_trial": 55, "dateTime": 1664369004611, "trialdata": {"revealed_states": [], "num_clicks_accrued": [0, 0, 0, 0, 0, 0, 0, 0, 0, 0, 0, 0, 0], "stateRewards": ["", 2, 8, -48, 24, -4, 8, 48, -24, 2, 8, 24, 24], "withholdReward": true, "trial_id": "mdp_175372499314", "block": "test2", "trialIndex": 43, "score": 56.25, "costs": -0.75, "simulationMode": [null, null, null], "rewards": [-4, 8, 48], "path": ["0", "0", "5", "6", "7"], "rt": [3846, 37, 14], "actions": ["right", "right", "up"], "actionTimes": [4470, 5023, 5567], "queries": {"click": {"state": {"target": ["12", "4", "7"], "time": [1695, 2563, 3611]}, "edge": {"target": [], "time": []}}, "mouseover": {"state": {"target": ["12", "10", "4", "2", "3", "7", "6", "8"], "time": [1436, 2202, 2352, 2986, 3069, 3419, 4119, 4169]}, "edge": {"target": [], "time": []}}, "mouseout": {"state": {"target": ["0", "12", "10", "4", "2", "3", "7", "6", "8"], "time": [585, 2168, 2235, 2968, 3035, 3202, 4098, 4152, 6451]}, "edge": {"target": [], "time": []}}}, "displayed_time": "9.63", "trialTime": 11028, "trial_type": "mouselab-mdp", "trial_index": 55, "time_elapsed": 1087058, "internal_node_id": "0.0-4.0-3.0-9.0"}}, {"uniqueid": "w11571621:a68009907", "current_trial": 56, "dateTime": 1664369026587, "trialdata": {"revealed_states": [], "num_clicks_accrued": [0, 0, 0, 0, 0, 0, 0, 0, 0, 0, 0, 0, 0], "stateRewards": ["", -2, -8, 24, -48, 4, 4, -24, -48, -2, -8, -48, 24], "withholdReward": false, "trial_id": "mdp_556006673466", "block": "test2", "trialIndex": 44, "score": 16.5, "costs": -2.5, "simulationMode": [null, null, null], "rewards": [-2, -8, 24], "path": ["0", "0", "9", "10", "12"], "rt": [17763, 83, 97], "actions": ["left", "left", "down"], "actionTimes": [18781, 19359, 19973], "queries": {"click": {"state": {"target": ["3", "11", "12", "8", "4", "7", "2", "1", "10", "9"], "time": [2288, 3256, 4300, 5127, 6533, 7431, 13823, 14308, 17126, 17722]}, "edge": {"target": [], "time": []}}, "mouseover": {"state": {"target": ["5", "7", "3", "11", "10", "12", "8", "6", "7", "2", "4", "2", "7", "5", "0", "1", "2", "1", "5", "6", "5", "0", "9", "10", "10", "9"], "time": [1758, 1891, 2007, 3141, 3707, 3791, 4841, 5641, 5708, 5908, 5942, 7008, 7108, 8141, 11758, 11875, 12658, 14208, 14708, 14858, 15875, 15941, 16025, 16225, 16749, 17608]}, "edge": {"target": [], "time": []}}, "mouseout": {"state": {"target": ["0", "5", "7", "3", "11", "10", "12", "8", "6", "7", "3", "2", "4", "2", "7", "5", "0", "1", "2", "1", "5", "6", "5", "0", "9", "10", "10", "9"], "time": [824, 1807, 1957, 2808, 3675, 3757, 4709, 5612, 5691, 5758, 5891, 5924, 6992, 7024, 8108, 8225, 11808, 12491, 14142, 14625, 14758, 15825, 15925, 15975, 16158, 16675, 17525, 17975]}, "edge": {"target": [], "time": []}}}, "displayed_time": "20.46", "trialTime": 21892, "trial_type": "mouselab-mdp", "trial_index": 56, "time_elapsed": 1109034, "internal_node_id": "0.0-4.0-3.0-10.0"}}, {"uniqueid": "w11571621:a68009907", "current_trial": 57, "dateTime": 1664369038456, "trialdata": {"revealed_states": [], "num_clicks_accrued": [0, 0, 0, 0, 0, 0, 0, 0, 0, 0, 0, 0, 0], "stateRewards": ["", 2, 8, 24, 24, 2, -8, -24, -48, 2, 8, -48, 48], "withholdReward": true, "trial_id": "mdp_745175888812", "block": "test2", "trialIndex": 45, "score": 61.5, "costs": -1.5, "simulationMode": [null, null, null], "rewards": [2, 8, 48], "path": ["0", "0", "9", "10", "12"], "rt": [7780, 132, 136], "actions": ["left", "left", "down"], "actionTimes": [8742, 9374, 10028], "queries": {"click": {"state": {"target": ["3", "11", "8", "7", "4", "12"], "time": [1784, 3080, 3943, 5157, 5917, 7412]}, "edge": {"target": [], "time": []}}, "mouseover": {"state": {"target": ["3", "2", "4", "11", "8", "6", "7", "2", "4", "12", "9"], "time": [1507, 2357, 2390, 2957, 3807, 4457, 4507, 5590, 5674, 6474, 7974]}, "edge": {"target": [], "time": []}}, "mouseout": {"state": {"target": ["0", "3", "2", "4", "11", "8", "6", "7", "2", "4", "12", "9"], "time": [757, 2340, 2374, 2874, 3377, 4424, 4491, 5474, 5624, 6257, 7808, 8024]}, "edge": {"target": [], "time": []}}}, "displayed_time": "10.53", "trialTime": 11794, "trial_type": "mouselab-mdp", "trial_index": 57, "time_elapsed": 1120903, "internal_node_id": "0.0-4.0-3.0-11.0"}}, {"uniqueid": "w11571621:a68009907", "current_trial": 58, "dateTime": 1664369051403, "trialdata": {"revealed_states": [], "num_clicks_accrued": [0, 0, 0, 0, 0, 0, 0, 0, 0, 0, 0, 0, 0], "stateRewards": ["", -2, 4, -24, -48, -4, 8, -24, 48, 4, 4, -48, 24], "withholdReward": true, "trial_id": "mdp_341117665701", "block": "test2", "trialIndex": 46, "score": 55.5, "costs": -1.5, "simulationMode": [null, null, null], "rewards": [-4, 8, 48], "path": ["0", "0", "5", "6", "8"], "rt": [8127, 49, 25], "actions": ["right", "right", "down"], "actionTimes": [9508, 10071, 10630], "queries": {"click": {"state": {"target": ["7", "4", "11", "12", "3", "8"], "time": [3228, 4592, 5337, 6475, 7734, 8495]}, "edge": {"target": [], "time": []}}, "mouseover": {"state": {"target": ["7", "3", "2", "4", "11", "10", "12", "3", "3", "8"], "time": [2921, 4138, 4238, 4288, 5104, 5971, 6071, 7055, 7398, 8220]}, "edge": {"target": [], "time": []}}, "mouseout": {"state": {"target": ["0", "7", "3", "2", "4", "11", "10", "12", "3", "3", "8"], "time": [2389, 4005, 4204, 4254, 5004, 5938, 6038, 6821, 7138, 8022, 9041]}, "edge": {"target": [], "time": []}}}, "displayed_time": "11.12", "trialTime": 12871, "trial_type": "mouselab-mdp", "trial_index": 58, "time_elapsed": 1133850, "internal_node_id": "0.0-4.0-3.0-12.0"}}, {"uniqueid": "w11571621:a68009907", "current_trial": 59, "dateTime": 1664369064737, "trialdata": {"revealed_states": [], "num_clicks_accrued": [0, 0, 0, 0, 0, 0, 0, 0, 0, 0, 0, 0, 0], "stateRewards": ["", -2, 4, -24, 24, -4, -8, 24, -48, -4, -4, -48, -24], "withholdReward": false, "trial_id": "mdp_753137520419", "block": "test2", "trialIndex": 47, "score": 29.5, "costs": -1.5, "simulationMode": [null, null, null], "rewards": [-2, 4, 24], "path": ["0", "0", "1", "2", "4"], "rt": [9834, 43, 39], "actions": ["up", "up", "left"], "actionTimes": [11155, 11687, 12215], "queries": {"click": {"state": {"target": ["11", "4", "7", "8", "12", "3"], "time": [2683, 3794, 4889, 5739, 6411, 7227]}, "edge": {"target": [], "time": []}}, "mouseover": {"state": {"target": ["9", "10", "11", "4", "2", "3", "7", "6", "8", "12", "9", "3", "1", "9", "10"], "time": [1926, 1975, 2459, 3443, 4225, 4292, 4743, 5292, 5342, 6159, 6759, 7026, 8892, 9443, 9609]}, "edge": {"target": [], "time": []}}, "mouseout": {"state": {"target": ["0", "9", "10", "11", "4", "2", "3", "7", "6", "8", "12", "9", "3", "1", "9", "10"], "time": [1092, 1959, 2426, 3292, 4210, 4259, 4676, 5259, 5326, 6060, 6726, 6776, 8042, 9392, 9476, 9877]}, "edge": {"target": [], "time": []}}}, "displayed_time": "12.71", "trialTime": 13258, "trial_type": "mouselab-mdp", "trial_index": 59, "time_elapsed": 1147184, "internal_node_id": "0.0-4.0-3.0-13.0"}}, {"uniqueid": "w11571621:a68009907", "current_trial": 60, "dateTime": 1664369074273, "trialdata": {"revealed_states": [], "num_clicks_accrued": [0, 0, 0, 0, 0, 0, 0, 0, 0, 0, 0, 0, 0], "stateRewards": ["", -2, -4, -48, -48, -2, -8, 48, -48, 4, -8, -48, 24], "withholdReward": false, "trial_id": "mdp_468495641521", "block": "test2", "trialIndex": 48, "score": 42.25, "costs": -0.75, "simulationMode": [null, null, null], "rewards": [-2, -8, 48], "path": ["0", "0", "5", "6", "7"], "rt": [3879, 106, 244], "actions": ["right", "right", "up"], "actionTimes": [4950, 5552, 6290], "queries": {"click": {"state": {"target": ["11", "4", "7"], "time": [2067, 2742, 4092]}, "edge": {"target": [], "time": []}}, "mouseover": {"state": {"target": ["9", "10", "11", "4", "2", "3", "7", "5"], "time": [1579, 1628, 1903, 2612, 3145, 3212, 3962, 4445]}, "edge": {"target": [], "time": []}}, "mouseout": {"state": {"target": ["0", "9", "10", "11", "4", "2", "3", "7", "5"], "time": [1545, 1595, 1679, 2523, 3129, 3179, 3312, 4413, 4496]}, "edge": {"target": [], "time": []}}}, "displayed_time": "9.07", "trialTime": 9464, "trial_type": "mouselab-mdp", "trial_index": 60, "time_elapsed": 1156720, "internal_node_id": "0.0-4.0-3.0-14.0"}}, {"uniqueid": "w11571621:a68009907", "current_trial": 61, "dateTime": 1664369085318, "trialdata": {"revealed_states": [], "num_clicks_accrued": [0, 0, 0, 0, 0, 0, 0, 0, 0, 0, 0, 0, 0], "stateRewards": ["", -4, 8, 24, -24, -2, 4, -24, 48, -2, 8, -48, -24], "withholdReward": true, "trial_id": "mdp_799359103169", "block": "test2", "trialIndex": 49, "score": 53.5, "costs": -1.5, "simulationMode": [null, null, null], "rewards": [-2, 4, 48], "path": ["0", "0", "5", "6", "8"], "rt": [5515, 9, 39], "actions": ["right", "right", "down"], "actionTimes": [6678, 7185, 7749], "queries": {"click": {"state": {"target": ["4", "7", "12", "11", "3", "8"], "time": [1970, 2922, 3691, 4623, 5458, 6137]}, "edge": {"target": [], "time": []}}, "mouseover": {"state": {"target": ["4", "6", "7", "5", "12", "10", "11", "3", "8"], "time": [1842, 2509, 2775, 3359, 3442, 4142, 4176, 5075, 5842]}, "edge": {"target": [], "time": []}}, "mouseout": {"state": {"target": ["0", "4", "6", "7", "5", "12", "10", "11", "3", "8", "5"], "time": [1008, 2308, 2743, 3325, 3375, 4109, 4159, 4892, 5692, 8593, 8709]}, "edge": {"target": [], "time": []}}}, "displayed_time": "10.16", "trialTime": 10972, "trial_type": "mouselab-mdp", "trial_index": 61, "time_elapsed": 1167765, "internal_node_id": "0.0-4.0-3.0-15.0"}}, {"uniqueid": "w11571621:a68009907", "current_trial": 62, "dateTime": 1664369098024, "trialdata": {"revealed_states": [], "num_clicks_accrued": [0, 0, 0, 0, 0, 0, 0, 0, 0, 0, 0, 0, 0], "stateRewards": ["", -4, -4, 24, -48, -2, 8, -24, -48, -4, 4, 24, -48], "withholdReward": false, "trial_id": "mdp_934626330092", "block": "test2", "trialIndex": 50, "score": 26.5, "costs": -2.5, "simulationMode": [null, null, null], "rewards": [-4, 4, 24], "path": ["0", "0", "9", "10", "11"], "rt": [9448, 74, 61], "actions": ["left", "left", "up"], "actionTimes": [10337, 10903, 11457], "queries": {"click": {"state": {"target": ["11", "4", "7", "12", "8", "3", "10", "2", "9", "1"], "time": [1622, 2348, 3178, 3918, 4912, 6028, 7517, 8420, 9160, 9633]}, "edge": {"target": [], "time": []}}, "mouseover": {"state": {"target": ["11", "4", "2", "3", "7", "6", "12", "8", "6", "3", "3", "10", "2", "9", "1"], "time": [1561, 2228, 2794, 2861, 2962, 3478, 3745, 4528, 5211, 5261, 5878, 7111, 7879, 8945, 9462]}, "edge": {"target": [], "time": []}}, "mouseout": {"state": {"target": ["0", "11", "4", "2", "3", "7", "6", "12", "8", "6", "3", "3", "10", "2", "9", "1"], "time": [1278, 2112, 2761, 2845, 2878, 3444, 3494, 4345, 5195, 5228, 5478, 6295, 7762, 8728, 9412, 9928]}, "edge": {"target": [], "time": []}}}, "displayed_time": "11.98", "trialTime": 12629, "trial_type": "mouselab-mdp", "trial_index": 62, "time_elapsed": 1180471, "internal_node_id": "0.0-4.0-3.0-16.0"}}, {"uniqueid": "w11571621:a68009907", "current_trial": 63, "dateTime": 1664369111354, "trialdata": {"revealed_states": [], "num_clicks_accrued": [0, 0, 0, 0, 0, 0, 0, 0, 0, 0, 0, 0, 0], "stateRewards": ["", 2, 8, -48, -24, 4, 4, 24, 48, 4, -4, -48, 48], "withholdReward": true, "trial_id": "mdp_665096999232", "block": "test2", "trialIndex": 51, "score": 52, "costs": -1, "simulationMode": [null, null, null], "rewards": [4, -4, 48], "path": ["0", "0", "9", "10", "12"], "rt": [4066, 80, 71], "actions": ["left", "left", "down"], "actionTimes": [5074, 5658, 6215], "queries": {"click": {"state": {"target": ["11", "4", "7", "12"], "time": [1813, 2507, 3376, 4130]}, "edge": {"target": [], "time": []}}, "mouseover": {"state": {"target": ["9", "10", "11", "4", "2", "6", "7", "5", "0", "12"], "time": [1410, 1477, 1610, 2310, 2876, 3043, 3193, 3660, 3710, 4010]}, "edge": {"target": [], "time": []}}, "mouseout": {"state": {"target": ["0", "9", "10", "11", "4", "2", "6", "7", "5", "0", "12", "0"], "time": [793, 1443, 1526, 2143, 2843, 2893, 3126, 3626, 3693, 3777, 4576, 12527]}, "edge": {"target": [], "time": []}}}, "displayed_time": "9.01", "trialTime": 13257, "trial_type": "mouselab-mdp", "trial_index": 63, "time_elapsed": 1193800, "internal_node_id": "0.0-4.0-3.0-17.0"}}, {"uniqueid": "w11571621:a68009907", "current_trial": 64, "dateTime": 1664369123437, "trialdata": {"revealed_states": [], "num_clicks_accrued": [0, 0, 0, 0, 0, 0, 0, 0, 0, 0, 0, 0, 0], "stateRewards": ["", 2, -4, -48, -48, -2, -4, -24, -48, -2, 8, 24, 24], "withholdReward": true, "trial_id": "mdp_656069446729", "block": "test2", "trialIndex": 52, "score": 33.5, "costs": -1.5, "simulationMode": [null, null, null], "rewards": [-2, 8, 24], "path": ["0", "0", "9", "10", "11"], "rt": [7842, 133, 93], "actions": ["left", "left", "up"], "actionTimes": [8847, 9479, 10072], "queries": {"click": {"state": {"target": ["11", "7", "3", "12", "8", "4"], "time": [2012, 2904, 3554, 4440, 5187, 5852]}, "edge": {"target": [], "time": []}}, "mouseover": {"state": {"target": ["9", "11", "1", "7", "3", "1", "9", "12", "8", "4", "9", "10"], "time": [1594, 1894, 2511, 2744, 3428, 3927, 3994, 4261, 4927, 5561, 7277, 7378]}, "edge": {"target": [], "time": []}}, "mouseout": {"state": {"target": ["0", "9", "11", "1", "7", "3", "1", "9", "12", "8", "4", "9", "10"], "time": [1561, 1611, 2394, 2527, 3337, 3894, 3945, 4027, 4694, 5478, 6194, 7311, 10911]}, "edge": {"target": [], "time": []}}}, "displayed_time": "10.56", "trialTime": 12008, "trial_type": "mouselab-mdp", "trial_index": 64, "time_elapsed": 1205884, "internal_node_id": "0.0-4.0-3.0-18.0"}}, {"uniqueid": "w11571621:a68009907", "current_trial": 65, "dateTime": 1664369136194, "trialdata": {"revealed_states": [], "num_clicks_accrued": [0, 0, 0, 0, 0, 0, 0, 0, 0, 0, 0, 0, 0], "stateRewards": ["", 4, -8, 48, -24, 4, -4, -48, -48, 4, -4, 24, 24], "withholdReward": true, "trial_id": "mdp_221562928904", "block": "test2", "trialIndex": 53, "score": 48.5, "costs": -0.5, "simulationMode": [null, null, null], "rewards": [4, -8, 48], "path": ["0", "0", "1", "2", "3"], "rt": [2580, 72, 155], "actions": ["up", "up", "right"], "actionTimes": [5014, 5577, 6226], "queries": {"click": {"state": {"target": ["8", "3"], "time": [3248, 4078]}, "edge": {"target": [], "time": []}}, "mouseover": {"state": {"target": ["5", "6", "8", "3"], "time": [2787, 2854, 3070, 3904]}, "edge": {"target": [], "time": []}}, "mouseout": {"state": {"target": ["0", "5", "6", "8", "3", "1"], "time": [2253, 2820, 3037, 3638, 10288, 10554]}, "edge": {"target": [], "time": []}}}, "displayed_time": "11.44", "trialTime": 12690, "trial_type": "mouselab-mdp", "trial_index": 65, "time_elapsed": 1218641, "internal_node_id": "0.0-4.0-3.0-19.0"}}, {"uniqueid": "w11571621:a68009907", "current_trial": 66, "dateTime": 1664369146697, "trialdata": {"revealed_states": [], "num_clicks_accrued": [0, 0, 0, 0, 0, 0, 0, 0, 0, 0, 0, 0, 0], "stateRewards": ["", -4, -4, 24, 48, 4, -4, -24, 24, -4, -4, 24, 24], "withholdReward": false, "trial_id": "mdp_357725458160", "block": "test2", "trialIndex": 54, "score": 44.5, "costs": -0.5, "simulationMode": [null, null, null], "rewards": [-4, -4, 48], "path": ["0", "0", "1", "2", "4"], "rt": [2968, 70, 67], "actions": ["up", "up", "left"], "actionTimes": [3614, 4172, 4736], "queries": {"click": {"state": {"target": ["11", "4"], "time": [1568, 2774]}, "edge": {"target": [], "time": []}}, "mouseover": {"state": {"target": ["11", "2", "4"], "time": [1384, 2534, 2584]}, "edge": {"target": [], "time": []}}, "mouseout": {"state": {"target": ["0", "11", "2", "4"], "time": [610, 2301, 2568, 5718]}, "edge": {"target": [], "time": []}}}, "displayed_time": "9.65", "trialTime": 10422, "trial_type": "mouselab-mdp", "trial_index": 66, "time_elapsed": 1229143, "internal_node_id": "0.0-4.0-3.0-20.0"}}, {"uniqueid": "w11571621:a68009907", "current_trial": 67, "dateTime": 1664369157373, "trialdata": {"revealed_states": [], "num_clicks_accrued": [0, 0, 0, 0, 0, 0, 0, 0, 0, 0, 0, 0, 0], "stateRewards": ["", -2, -4, -48, -48, 4, -4, 48, 24, 4, 4, 48, 48], "withholdReward": true, "trial_id": "mdp_950960813932", "block": "test2", "trialIndex": 55, "score": 60.75, "costs": -0.25, "simulationMode": [null, null, null], "rewards": [4, 4, 48], "path": ["0", "0", "9", "10", "12"], "rt": [2133, 52, 620], "actions": ["left", "left", "down"], "actionTimes": [3223, 3767, 4919], "queries": {"click": {"state": {"target": ["12"], "time": [2393]}, "edge": {"target": [], "time": []}}, "mouseover": {"state": {"target": ["12", "10"], "time": [2297, 2797]}, "edge": {"target": [], "time": []}}, "mouseout": {"state": {"target": ["0", "12", "10", "1"], "time": [1548, 2748, 2880, 9398]}, "edge": {"target": [], "time": []}}}, "displayed_time": "10.09", "trialTime": 10595, "trial_type": "mouselab-mdp", "trial_index": 67, "time_elapsed": 1239820, "internal_node_id": "0.0-4.0-3.0-21.0"}}, {"uniqueid": "w11571621:a68009907", "current_trial": 68, "dateTime": 1664369168981, "trialdata": {"revealed_states": [], "num_clicks_accrued": [0, 0, 0, 0, 0, 0, 0, 0, 0, 0, 0, 0, 0], "stateRewards": ["", 2, 4, -48, -48, 4, 4, -48, -48, -2, -8, 48, -24], "withholdReward": true, "trial_id": "mdp_175327338412", "block": "test2", "trialIndex": 56, "score": 41.75, "costs": -1.25, "simulationMode": [null, null, null], "rewards": [-2, -8, 48], "path": ["0", "0", "9", "10", "11"], "rt": [4944, 3, 622], "actions": ["left", "left", "up"], "actionTimes": [6038, 6551, 7704], "queries": {"click": {"state": {"target": ["7", "3", "12", "4", "11"], "time": [1895, 2880, 3801, 4699, 5301]}, "edge": {"target": [], "time": []}}, "mouseover": {"state": {"target": ["7", "3", "3", "1", "9", "12", "10", "4", "11"], "time": [1597, 2263, 2716, 3364, 3397, 3663, 4198, 4514, 5180]}, "edge": {"target": [], "time": []}}, "mouseout": {"state": {"target": ["7", "3", "3", "1", "9", "12", "10", "4", "11", "0"], "time": [2230, 2347, 3348, 3381, 3564, 4164, 4231, 5064, 5614, 8681]}, "edge": {"target": [], "time": []}}}, "displayed_time": "10.10", "trialTime": 11519, "trial_type": "mouselab-mdp", "trial_index": 68, "time_elapsed": 1251428, "internal_node_id": "0.0-4.0-3.0-22.0"}}, {"uniqueid": "w11571621:a68009907", "current_trial": 69, "dateTime": 1664369184675, "trialdata": {"revealed_states": [], "num_clicks_accrued": [0, 0, 0, 0, 0, 0, 0, 0, 0, 0, 0, 0, 0], "stateRewards": ["", 2, 4, -48, -24, -4, 4, -24, 24, -2, -8, -24, 24], "withholdReward": true, "trial_id": "mdp_640720803523", "block": "test2", "trialIndex": 57, "score": 26.75, "costs": -2.25, "simulationMode": [null, null, null], "rewards": [-4, 4, 24], "path": ["0", "0", "5", "6", "8"], "rt": [11107, 15, 679], "actions": ["right", "right", "down"], "actionTimes": [12130, 12637, 13834], "queries": {"click": {"state": {"target": ["8", "11", "4", "3", "12", "7", "10", "6", "5"], "time": [1752, 3011, 3565, 4497, 5334, 6107, 8074, 8903, 9782]}, "edge": {"target": [], "time": []}}, "mouseover": {"state": {"target": ["0", "5", "8", "11", "4", "3", "1", "9", "12", "7", "10", "9", "0", "5", "6", "5", "0", "9"], "time": [1270, 1319, 1386, 2786, 3436, 4069, 4920, 4970, 5169, 5986, 7354, 8387, 8437, 8504, 8753, 9303, 10472, 10688]}, "edge": {"target": [], "time": []}}, "mouseout": {"state": {"target": ["0", "0", "5", "8", "11", "4", "3", "1", "9", "12", "7", "10", "9", "0", "5", "6", "5", "0", "9"], "time": [819, 1286, 1336, 2220, 3386, 3953, 4837, 4953, 5003, 5586, 6420, 8370, 8420, 8470, 8570, 9187, 10438, 10571, 11454]}, "edge": {"target": [], "time": []}}}, "displayed_time": "14.32", "trialTime": 15584, "trial_type": "mouselab-mdp", "trial_index": 69, "time_elapsed": 1267122, "internal_node_id": "0.0-4.0-3.0-23.0"}}, {"uniqueid": "w11571621:a68009907", "current_trial": 70, "dateTime": 1664369195147, "trialdata": {"revealed_states": [], "num_clicks_accrued": [0, 0, 0, 0, 0, 0, 0, 0, 0, 0, 0, 0, 0], "stateRewards": ["", -4, 8, 48, -48, 2, -4, 24, -24, -2, 4, -24, -24], "withholdReward": true, "trial_id": "mdp_804988042722", "block": "test2", "trialIndex": 58, "score": 55.75, "costs": -1.25, "simulationMode": [null, null, null], "rewards": [-4, 8, 48], "path": ["0", "0", "1", "2", "3"], "rt": [4770, 127, 139], "actions": ["up", "up", "right"], "actionTimes": [5747, 6369, 7013], "queries": {"click": {"state": {"target": ["8", "4", "11", "12", "3"], "time": [2068, 2905, 3377, 4036, 4858]}, "edge": {"target": [], "time": []}}, "mouseover": {"state": {"target": ["5", "8", "5", "1", "4", "11", "10", "12", "9", "1", "3", "7"], "time": [1607, 1908, 2458, 2524, 2791, 3258, 3740, 3791, 4324, 4374, 4741, 5364]}, "edge": {"target": [], "time": []}}, "mouseout": {"state": {"target": ["0", "5", "8", "5", "1", "4", "11", "10", "12", "9", "1", "3", "7", "5"], "time": [1558, 1657, 2408, 2474, 2557, 3224, 3707, 3774, 4308, 4357, 4391, 5158, 7774, 8007]}, "edge": {"target": [], "time": []}}}, "displayed_time": "8.98", "trialTime": 10393, "trial_type": "mouselab-mdp", "trial_index": 70, "time_elapsed": 1277593, "internal_node_id": "0.0-4.0-3.0-24.0"}}, {"uniqueid": "w11571621:a68009907", "current_trial": 71, "dateTime": 1664369211235, "trialdata": {"revealed_states": [], "num_clicks_accrued": [0, 0, 0, 0, 0, 0, 0, 0, 0, 0, 0, 0, 0], "stateRewards": ["", -4, 4, 24, 24, -2, 8, 24, -48, 4, -8, -24, -48], "withholdReward": true, "trial_id": "mdp_651542905861", "block": "test2", "trialIndex": 59, "score": 32.5, "costs": -2.5, "simulationMode": [null, null, null], "rewards": [-2, 8, 24], "path": ["0", "0", "5", "6", "7"], "rt": [11674, 132, 375], "actions": ["right", "right", "up"], "actionTimes": [12563, 13193, 14069], "queries": {"click": {"state": {"target": ["7", "12", "4", "11", "3", "8", "5", "6", "2", "1"], "time": [1488, 2460, 3343, 3879, 4605, 5366, 7703, 8353, 10054, 10875]}, "edge": {"target": [], "time": []}}, "mouseover": {"state": {"target": ["7", "5", "12", "12", "10", "11", "4", "11", "3", "8", "5", "6", "5", "6", "1", "2", "1"], "time": [1309, 1976, 2059, 2326, 2810, 2843, 3226, 3709, 4460, 5193, 6676, 6826, 7559, 8076, 8759, 9876, 10459]}, "edge": {"target": [], "time": []}}, "mouseout": {"state": {"target": ["0", "7", "5", "12", "12", "10", "11", "4", "11", "3", "8", "5", "6", "5", "6", "1", "2", "1", "7"], "time": [1176, 1792, 1993, 2077, 2809, 2842, 2859, 3659, 4193, 4859, 5727, 6709, 7510, 8044, 8660, 9843, 10376, 11143, 11243]}, "edge": {"target": [], "time": []}}}, "displayed_time": "14.58", "trialTime": 15999, "trial_type": "mouselab-mdp", "trial_index": 71, "time_elapsed": 1293681, "internal_node_id": "0.0-4.0-3.0-25.0"}}, {"uniqueid": "w11571621:a68009907", "current_trial": 72, "dateTime": 1664369220680, "trialdata": {"revealed_states": [], "num_clicks_accrued": [0, 0, 0, 0, 0, 0, 0, 0, 0, 0, 0, 0, 0], "stateRewards": ["", -2, -4, -24, -48, 2, -8, -24, -24, 4, -8, 48, 48], "withholdReward": true, "trial_id": "mdp_950599994674", "block": "test2", "trialIndex": 60, "score": 48.5, "costs": -0.5, "simulationMode": [null, null, null], "rewards": [4, -8, 48], "path": ["0", "0", "9", "10", "11"], "rt": [2091, 36, 87], "actions": ["left", "left", "up"], "actionTimes": [3048, 3591, 4175], "queries": {"click": {"state": {"target": ["4", "11"], "time": [1665, 2206]}, "edge": {"target": [], "time": []}}, "mouseover": {"state": {"target": ["4", "11"], "time": [1471, 2020]}, "edge": {"target": [], "time": []}}, "mouseout": {"state": {"target": ["4", "11"], "time": [1987, 2653]}, "edge": {"target": [], "time": []}}}, "displayed_time": "8.96", "trialTime": 9371, "trial_type": "mouselab-mdp", "trial_index": 72, "time_elapsed": 1303126, "internal_node_id": "0.0-4.0-3.0-26.0"}}, {"uniqueid": "w11571621:a68009907", "current_trial": 73, "dateTime": 1664369232549, "trialdata": {"revealed_states": [], "num_clicks_accrued": [0, 0, 0, 0, 0, 0, 0, 0, 0, 0, 0, 0, 0], "stateRewards": ["", -4, 8, 24, -24, 4, -8, -24, -24, -2, 8, -48, 24], "withholdReward": true, "trial_id": "mdp_240302100183", "block": "test2", "trialIndex": 61, "score": 33.25, "costs": -1.75, "simulationMode": [null, null, null], "rewards": [-2, 8, 24], "path": ["0", "0", "9", "10", "12"], "rt": [8655, 34, 30], "actions": ["left", "left", "down"], "actionTimes": [9165, 9687, 10217], "queries": {"click": {"state": {"target": ["4", "7", "12", "3", "8", "11", "10"], "time": [1530, 2305, 2969, 3950, 5182, 5875, 7281]}, "edge": {"target": [], "time": []}}, "mouseover": {"state": {"target": ["1", "2", "4", "1", "7", "12", "9", "1", "3", "8", "11", "9", "10", "1", "2"], "time": [1168, 1235, 1385, 1902, 2168, 2818, 3402, 3468, 3569, 5039, 5602, 6569, 6719, 7685, 7847]}, "edge": {"target": [], "time": []}}, "mouseout": {"state": {"target": ["0", "1", "2", "4", "1", "7", "12", "9", "1", "3", "8", "11", "9", "10", "1", "2", "9"], "time": [473, 1202, 1352, 1852, 1919, 2585, 3269, 3452, 3518, 4202, 5485, 6153, 6652, 7569, 7703, 8452, 10986]}, "edge": {"target": [], "time": []}}}, "displayed_time": "10.70", "trialTime": 11788, "trial_type": "mouselab-mdp", "trial_index": 73, "time_elapsed": 1314995, "internal_node_id": "0.0-4.0-3.0-27.0"}}, {"uniqueid": "w11571621:a68009907", "current_trial": 74, "dateTime": 1664369243410, "trialdata": {"revealed_states": [], "num_clicks_accrued": [0, 0, 0, 0, 0, 0, 0, 0, 0, 0, 0, 0, 0], "stateRewards": ["", -2, 8, -24, 24, -4, -8, -24, 48, -2, -8, -48, 48], "withholdReward": false, "trial_id": "mdp_238332601315", "block": "test2", "trialIndex": 62, "score": 40.75, "costs": -0.25, "simulationMode": [null, null, null], "rewards": [-4, -8, 48], "path": ["0", "0", "5", "6", "8"], "rt": [1953, 15, 4], "actions": ["right", "right", "down"], "actionTimes": [2811, 3344, 3849], "queries": {"click": {"state": {"target": ["8"], "time": [1803]}, "edge": {"target": [], "time": []}}, "mouseover": {"state": {"target": ["5", "6", "8"], "time": [1194, 1260, 1644]}, "edge": {"target": [], "time": []}}, "mouseout": {"state": {"target": ["5", "6", "8"], "time": [1227, 1610, 2377]}, "edge": {"target": [], "time": []}}}, "displayed_time": "9.86", "trialTime": 10774, "trial_type": "mouselab-mdp", "trial_index": 74, "time_elapsed": 1325857, "internal_node_id": "0.0-4.0-3.0-28.0"}}, {"uniqueid": "w11571621:a68009907", "current_trial": 75, "dateTime": 1664369253350, "trialdata": {"revealed_states": [], "num_clicks_accrued": [0, 0, 0, 0, 0, 0, 0, 0, 0, 0, 0, 0, 0], "stateRewards": ["", -2, -8, 48, -24, 2, -4, -48, -24, -2, -4, -48, 48], "withholdReward": true, "trial_id": "mdp_143798438087", "block": "test2", "trialIndex": 63, "score": 42.75, "costs": -0.25, "simulationMode": [null, null, null], "rewards": [-2, -8, 48], "path": ["0", "0", "1", "2", "3"], "rt": [1693, 56, 642], "actions": ["up", "up", "right"], "actionTimes": [2735, 3278, 4431], "queries": {"click": {"state": {"target": ["3"], "time": [1929]}, "edge": {"target": [], "time": []}}, "mouseover": {"state": {"target": ["3", "3"], "time": [1470, 1787]}, "edge": {"target": [], "time": []}}, "mouseout": {"state": {"target": ["0", "3", "3", "5"], "time": [1392, 1504, 2320, 9238]}, "edge": {"target": [], "time": []}}}, "displayed_time": "9.04", "trialTime": 9857, "trial_type": "mouselab-mdp", "trial_index": 75, "time_elapsed": 1335796, "internal_node_id": "0.0-4.0-3.0-29.0"}}, {"uniqueid": "w11571621:a68009907", "current_trial": 76, "dateTime": 1664369263434, "trialdata": {"rt": 10077, "stimulus": "<h1> End of block! </h1>\n\nYou have reached the end of the block 2/4. If you need a short break, feel free to take one now before moving on.\n\n<br><br>\nIn the next block, you will complete another 30 rounds of this game.\n\n<br><br>\n<div style='text-align: center;'>Press <code>space</code> to begin.</div>\n<br><br>\n<div style='text-align: center;'>(If the experiment doesn't continue, try clicking on the text and then pressing <code>space</code>.)</div>", "response": " ", "trial_id": "mdp_ready_3", "trial_type": "html-keyboard-response", "trial_index": 76, "time_elapsed": 1345881, "internal_node_id": "0.0-4.0-4.0"}}, {"uniqueid": "w11571621:a68009907", "current_trial": 77, "dateTime": 1664369273517, "trialdata": {"revealed_states": [], "num_clicks_accrued": [0, 0, 0, 0, 0, 0, 0, 0, 0, 0, 0, 0, 0], "stateRewards": ["", 4, 4, 48, -24, -4, -8, 24, -24, 2, -8, -24, 24], "withholdReward": true, "trial_id": "mdp_933201675789", "block": "test3", "trialIndex": 64, "score": 59.5, "costs": -1.5, "simulationMode": [null, null, null], "rewards": [4, 4, 48], "path": ["0", "0", "1", "2", "3"], "rt": [5773, 89, 215], "actions": ["up", "up", "right"], "actionTimes": [6844, 7422, 8130], "queries": {"click": {"state": {"target": ["11", "4", "7", "12", "8", "3"], "time": [2234, 2966, 3912, 4727, 5421, 6051]}, "edge": {"target": [], "time": []}}, "mouseover": {"state": {"target": ["9", "10", "11", "4", "2", "3", "7", "5", "12", "8", "6", "3"], "time": [1748, 1782, 1999, 2748, 3315, 3365, 3749, 4248, 4565, 5132, 5682, 5748]}, "edge": {"target": [], "time": []}}, "mouseout": {"state": {"target": ["0", "9", "10", "11", "4", "2", "3", "7", "5", "12", "8", "6", "3"], "time": [1732, 1782, 1832, 2598, 3298, 3349, 3482, 4198, 4282, 5001, 5649, 5699, 6332]}, "edge": {"target": [], "time": []}}}, "displayed_time": "9.07", "trialTime": 10002, "trial_type": "mouselab-mdp", "trial_index": 77, "time_elapsed": 1355964, "internal_node_id": "0.0-4.0-5.0-0.0"}}, {"uniqueid": "w11571621:a68009907", "current_trial": 78, "dateTime": 1664369288543, "trialdata": {"revealed_states": [], "num_clicks_accrued": [0, 0, 0, 0, 0, 0, 0, 0, 0, 0, 0, 0, 0], "stateRewards": ["", 2, -4, -24, -24, -2, -8, -48, 24, -4, -8, 24, 24], "withholdReward": true, "trial_id": "mdp_521351546461", "block": "test3", "trialIndex": 65, "score": 16.5, "costs": -2.5, "simulationMode": [null, null, null], "rewards": [-2, -8, 24], "path": ["0", "0", "5", "6", "8"], "rt": [10636, 106, 140], "actions": ["right", "right", "down"], "actionTimes": [12474, 13067, 13700], "queries": {"click": {"state": {"target": ["11", "8", "7", "4", "3", "12", "6", "10", "9", "5"], "time": [2702, 3641, 4319, 5038, 5634, 6232, 7409, 8115, 10212, 10815]}, "edge": {"target": [], "time": []}}, "mouseover": {"state": {"target": ["9", "10", "11", "5", "8", "6", "7", "2", "4", "2", "3", "1", "9", "12", "6", "5", "10", "9", "9", "0", "5"], "time": [2275, 2326, 2509, 3343, 3475, 4026, 4076, 4675, 4792, 5343, 5376, 5893, 5926, 6010, 7243, 7676, 7992, 8426, 8726, 10526, 10659]}, "edge": {"target": [], "time": []}}, "mouseout": {"state": {"target": ["0", "0", "9", "10", "11", "5", "8", "6", "7", "2", "4", "2", "3", "1", "9", "12", "6", "5", "10", "9", "9", "0", "5"], "time": [858, 2259, 2325, 2376, 3076, 3376, 3993, 4059, 4592, 4692, 5325, 5359, 5875, 5909, 5942, 6509, 7642, 7692, 8409, 8459, 10492, 10576, 11093]}, "edge": {"target": [], "time": []}}}, "displayed_time": "14.19", "trialTime": 14938, "trial_type": "mouselab-mdp", "trial_index": 78, "time_elapsed": 1370990, "internal_node_id": "0.0-4.0-5.0-1.0"}}, {"uniqueid": "w11571621:a68009907", "current_trial": 79, "dateTime": 1664369299561, "trialdata": {"revealed_states": [], "num_clicks_accrued": [0, 0, 0, 0, 0, 0, 0, 0, 0, 0, 0, 0, 0], "stateRewards": ["", -2, -4, 48, -24, -4, -4, -24, -24, -2, 4, -48, -24], "withholdReward": true, "trial_id": "mdp_410467837196", "block": "test3", "trialIndex": 66, "score": 46.5, "costs": -0.5, "simulationMode": [null, null, null], "rewards": [-2, -4, 48], "path": ["0", "0", "1", "2", "3"], "rt": [2409, 69, 92], "actions": ["up", "up", "right"], "actionTimes": [3492, 4080, 4669], "queries": {"click": {"state": {"target": ["12", "3"], "time": [1812, 2641]}, "edge": {"target": [], "time": []}}, "mouseover": {"state": {"target": ["0", "9", "12", "9", "2", "3"], "time": [1313, 1494, 1710, 2144, 2277, 2494]}, "edge": {"target": [], "time": []}}, "mouseout": {"state": {"target": ["0", "0", "9", "12", "9", "2", "3", "0", "0"], "time": [943, 1461, 1560, 2111, 2160, 2293, 2927, 9278, 10561]}, "edge": {"target": [], "time": []}}}, "displayed_time": "10.08", "trialTime": 10939, "trial_type": "mouselab-mdp", "trial_index": 79, "time_elapsed": 1382008, "internal_node_id": "0.0-4.0-5.0-2.0"}}, {"uniqueid": "w11571621:a68009907", "current_trial": 80, "dateTime": 1664369315516, "trialdata": {"revealed_states": [], "num_clicks_accrued": [0, 0, 0, 0, 0, 0, 0, 0, 0, 0, 0, 0, 0], "stateRewards": ["", -4, -8, -48, 48, -2, 8, 48, 48, -2, -4, -48, -48], "withholdReward": true, "trial_id": "mdp_752833580638", "block": "test3", "trialIndex": 67, "score": 58.5, "costs": -0.5, "simulationMode": [null, null, null], "rewards": [-2, 8, 48], "path": ["0", "0", "5", "6", "8"], "rt": [4936, 87, 196], "actions": ["right", "right", "down"], "actionTimes": [5911, 6510, 7202], "queries": {"click": {"state": {"target": ["12", "8"], "time": [3439, 5050]}, "edge": {"target": [], "time": []}}, "mouseover": {"state": {"target": ["0", "9", "12", "12", "8", "8", "6", "7"], "time": [1399, 1438, 1638, 3255, 4022, 4805, 5371, 5522]}, "edge": {"target": [], "time": []}}, "mouseout": {"state": {"target": ["0", "0", "9", "12", "12", "8", "8", "6", "7"], "time": [854, 1422, 1505, 2905, 3772, 4038, 5355, 5421, 5622]}, "edge": {"target": [], "time": []}}}, "displayed_time": "9.98", "trialTime": 15871, "trial_type": "mouselab-mdp", "trial_index": 80, "time_elapsed": 1397962, "internal_node_id": "0.0-4.0-5.0-3.0"}}, {"uniqueid": "w11571621:a68009907", "current_trial": 81, "dateTime": 1664369327464, "trialdata": {"revealed_states": [], "num_clicks_accrued": [0, 0, 0, 0, 0, 0, 0, 0, 0, 0, 0, 0, 0], "stateRewards": ["", 2, 4, -24, -48, 4, -4, 24, 48, -4, -4, -24, 48], "withholdReward": true, "trial_id": "mdp_181958792175", "block": "test3", "trialIndex": 68, "score": 44, "costs": -1, "simulationMode": [null, null, null], "rewards": [-4, -4, 48], "path": ["0", "0", "9", "10", "12"], "rt": [4386, 161, 270], "actions": ["left", "left", "down"], "actionTimes": [5459, 6112, 6870], "queries": {"click": {"state": {"target": ["11", "4", "7", "12"], "time": [1927, 2934, 3661, 4716]}, "edge": {"target": [], "time": []}}, "mouseover": {"state": {"target": ["9", "11", "4", "2", "3", "7", "5", "0", "12", "12", "8"], "time": [1515, 1582, 2849, 3232, 3283, 3498, 4098, 4133, 4182, 4598, 5115]}, "edge": {"target": [], "time": []}}, "mouseout": {"state": {"target": ["9", "11", "4", "2", "3", "7", "5", "0", "12", "12"], "time": [1532, 2316, 3215, 3265, 3332, 3933, 4115, 4148, 4199, 4982]}, "edge": {"target": [], "time": []}}}, "displayed_time": "9.07", "trialTime": 11863, "trial_type": "mouselab-mdp", "trial_index": 81, "time_elapsed": 1409911, "internal_node_id": "0.0-4.0-5.0-4.0"}}, {"uniqueid": "w11571621:a68009907", "current_trial": 82, "dateTime": 1664369341263, "trialdata": {"revealed_states": [], "num_clicks_accrued": [0, 0, 0, 0, 0, 0, 0, 0, 0, 0, 0, 0, 0], "stateRewards": ["", -4, 4, 24, 24, -2, 8, 24, -48, 4, -8, -24, -48], "withholdReward": true, "trial_id": "mdp_651542905861", "block": "test3", "trialIndex": 69, "score": 33, "costs": -2, "simulationMode": [null, null, null], "rewards": [-2, 8, 24], "path": ["0", "0", "5", "6", "7"], "rt": [9830, 31, 345], "actions": ["right", "right", "up"], "actionTimes": [10941, 11483, 12346], "queries": {"click": {"state": {"target": ["4", "7", "8", "12", "11", "3", "2", "6"], "time": [2025, 2882, 3582, 4287, 4938, 6023, 7722, 8551]}, "edge": {"target": [], "time": []}}, "mouseover": {"state": {"target": ["1", "4", "2", "3", "7", "6", "8", "12", "10", "11", "2", "3", "3", "1", "2", "6", "5", "5"], "time": [1600, 1833, 2434, 2500, 2734, 3300, 3350, 4100, 4517, 4550, 5217, 5234, 5567, 6917, 7584, 8367, 8900, 9584]}, "edge": {"target": [], "time": []}}, "mouseout": {"state": {"target": ["8", "0", "1", "4", "2", "3", "7", "6", "8", "12", "10", "11", "2", "3", "3", "1", "2", "6", "5", "5"], "time": [634, 883, 1634, 2350, 2467, 2533, 3267, 3333, 3834, 4500, 4533, 5183, 5233, 5250, 6667, 7517, 8050, 8867, 8950, 10418]}, "edge": {"target": [], "time": []}}}, "displayed_time": "12.84", "trialTime": 13712, "trial_type": "mouselab-mdp", "trial_index": 82, "time_elapsed": 1423710, "internal_node_id": "0.0-4.0-5.0-5.0"}}, {"uniqueid": "w11571621:a68009907", "current_trial": 83, "dateTime": 1664369352698, "trialdata": {"revealed_states": [], "num_clicks_accrued": [0, 0, 0, 0, 0, 0, 0, 0, 0, 0, 0, 0, 0], "stateRewards": ["", -4, 8, 24, -24, -2, 4, -24, 48, -2, 8, -48, -24], "withholdReward": true, "trial_id": "mdp_799359103169", "block": "test3", "trialIndex": 70, "score": 54.5, "costs": -0.5, "simulationMode": [null, null, null], "rewards": [-2, 4, 48], "path": ["0", "0", "5", "6", "8"], "rt": [3195, 74, 245], "actions": ["right", "right", "down"], "actionTimes": [4087, 4665, 5438], "queries": {"click": {"state": {"target": ["4", "8"], "time": [2237, 3194]}, "edge": {"target": [], "time": []}}, "mouseover": {"state": {"target": ["4", "1", "5", "8"], "time": [1873, 2657, 2706, 3041]}, "edge": {"target": [], "time": []}}, "mouseout": {"state": {"target": ["0", "4", "1", "5", "8"], "time": [1273, 2640, 2673, 2723, 3523]}, "edge": {"target": [], "time": []}}}, "displayed_time": "9.89", "trialTime": 11354, "trial_type": "mouselab-mdp", "trial_index": 83, "time_elapsed": 1435145, "internal_node_id": "0.0-4.0-5.0-6.0"}}, {"uniqueid": "w11571621:a68009907", "current_trial": 84, "dateTime": 1664369363868, "trialdata": {"revealed_states": [], "num_clicks_accrued": [0, 0, 0, 0, 0, 0, 0, 0, 0, 0, 0, 0, 0], "stateRewards": ["", 2, 4, -48, -24, 2, 8, 24, 48, -2, 4, 48, -48], "withholdReward": true, "trial_id": "mdp_551894842204", "block": "test3", "trialIndex": 71, "score": 54.75, "costs": -0.25, "simulationMode": [null, null, null], "rewards": [-2, 4, 48], "path": ["0", "0", "9", "10", "11"], "rt": [1857, 216, 134], "actions": ["left", "left", "up"], "actionTimes": [2918, 3621, 4255], "queries": {"click": {"state": {"target": ["11"], "time": [1909]}, "edge": {"target": [], "time": []}}, "mouseover": {"state": {"target": ["9", "11"], "time": [1470, 1737]}, "edge": {"target": [], "time": []}}, "mouseout": {"state": {"target": ["0", "9", "11", "10"], "time": [1437, 1504, 2237, 10287]}, "edge": {"target": [], "time": []}}}, "displayed_time": "10.06", "trialTime": 11087, "trial_type": "mouselab-mdp", "trial_index": 84, "time_elapsed": 1446315, "internal_node_id": "0.0-4.0-5.0-7.0"}}, {"uniqueid": "w11571621:a68009907", "current_trial": 85, "dateTime": 1664369374356, "trialdata": {"revealed_states": [], "num_clicks_accrued": [0, 0, 0, 0, 0, 0, 0, 0, 0, 0, 0, 0, 0], "stateRewards": ["", 2, 4, 48, -48, 2, -4, 48, 24, -2, -8, -24, 48], "withholdReward": true, "trial_id": "mdp_962424406744", "block": "test3", "trialIndex": 72, "score": 50.5, "costs": -0.5, "simulationMode": [null, null, null], "rewards": [2, -4, 48], "path": ["0", "0", "5", "6", "7"], "rt": [2101, 168, 499], "actions": ["right", "right", "up"], "actionTimes": [3017, 3678, 