{"condition": 0, "counterbalance": 0, "assignmentId": "a71196014", "workerId": "w43304863", "hitId": "h48451846", "currenttrial": 836, "bonus": 0, "data": [{"uniqueid": "w43304863:a71196014", "current_trial": 0, "dateTime": 1664368246824, "trialdata": {"success": true, "trial_type": "fullscreen", "trial_index": 0, "time_elapsed": 6112, "internal_node_id": "0.0-0.0"}}, {"uniqueid": "w43304863:a71196014", "current_trial": 1, "dateTime": 1664368295709, "trialdata": {"view_history": [{"page_index": 0, "viewing_time": 48858}], "rt": 48859, "trial_id": "exp_instructions_distractor", "trial_type": "instructions", "trial_index": 1, "time_elapsed": 54999, "internal_node_id": "0.0-1.0"}}, {"uniqueid": "w43304863:a71196014", "current_trial": 2, "dateTime": 1664368346864, "trialdata": {"view_history": [{"page_index": 0, "viewing_time": 51152}], "rt": 51152, "trial_id": "color_game_instructions", "trial_type": "instructions", "trial_index": 2, "time_elapsed": 106154, "internal_node_id": "0.0-2.0"}}, {"uniqueid": "w43304863:a71196014", "current_trial": 3, "dateTime": 1664368354021, "trialdata": {"rt": 7153, "stimulus": "<h1> Get ready to start the game! </h1>\n\nThank you for reading the instructions. Get ready start with the first of 5 block(s) of this game.\n<br><br>\nIn this first block, you will complete 90 rounds of this game before moving on.\n<br><br>\nRemember, the better you perform, the bigger your bonus will be!\n<br><br>\n<div style='text-align: center;'>Press <code>space</code> to begin.</div>", "response": " ", "trial_id": "stroop_1_ready_1", "trial_type": "html-keyboard-response", "trial_index": 3, "time_elapsed": 113311, "internal_node_id": "0.0-3.0"}}, {"uniqueid": "w43304863:a71196014", "current_trial": 4, "dateTime": 1664368355397, "trialdata": {"rt": 1353, "stimulus": "<p id='stroop-text' class='stroop-blue'>YELLOW</p>", "response": "y", "stimulus-type": "incongruent", "word": "yellow", "color": "blue", "correct_response": "b", "trial_id": "stroop-trial-1-incongruent-13", "trial_type": "html-keyboard-response", "trial_index": 4, "time_elapsed": 114686, "internal_node_id": "0.0-4.0-0.0"}}, {"uniqueid": "w43304863:a71196014", "current_trial": 5, "dateTime": 1664368358476, "trialdata": {"rt": 2574, "stimulus": "<p id='stroop-text' class='stroop-green'>GREEN</p>", "response": "g", "stimulus-type": "congruent", "word": "green", "color": "green", "correct_response": "g", "trial_id": "stroop-trial-1-congruent-11", "trial_type": "html-keyboard-response", "trial_index": 5, "time_elapsed": 117765, "internal_node_id": "0.0-4.0-1.0"}}, {"uniqueid": "w43304863:a71196014", "current_trial": 6, "dateTime": 1664368361147, "trialdata": {"rt": 2167, "stimulus": "<p id='stroop-text' class='stroop-green'>BOTTLE</p>", "response": "g", "stimulus-type": "unrelated", "word": "BOTTLE", "color": "green", "correct_response": "g", "trial_id": "stroop-trial-1-unrelated-28", "trial_type": "html-keyboard-response", "trial_index": 6, "time_elapsed": 120436, "internal_node_id": "0.0-4.0-2.0"}}, {"uniqueid": "w43304863:a71196014", "current_trial": 7, "dateTime": 1664368362531, "trialdata": {"rt": 877, "stimulus": "<p id='stroop-text' class='stroop-red'>RED</p>", "response": "r", "stimulus-type": "congruent", "word": "red", "color": "red", "correct_response": "r", "trial_id": "stroop-trial-1-congruent-10", "trial_type": "html-keyboard-response", "trial_index": 7, "time_elapsed": 121819, "internal_node_id": "0.0-4.0-3.0"}}, {"uniqueid": "w43304863:a71196014", "current_trial": 8, "dateTime": 1664368363928, "trialdata": {"rt": 882, "stimulus": "<p id='stroop-text' class='stroop-blue'>BLUE</p>", "response": "b", "stimulus-type": "congruent", "word": "blue", "color": "blue", "correct_response": "b", "trial_id": "stroop-trial-1-congruent-14", "trial_type": "html-keyboard-response", "trial_index": 8, "time_elapsed": 123217, "internal_node_id": "0.0-4.0-4.0"}}, {"uniqueid": "w43304863:a71196014", "current_trial": 9, "dateTime": 1664368366048, "trialdata": {"rt": 1614, "stimulus": "<p id='stroop-text' class='stroop-red'>YELLOW</p>", "response": "y", "stimulus-type": "incongruent", "word": "yellow", "color": "red", "correct_response": "r", "trial_id": "stroop-trial-1-incongruent-14", "trial_type": "html-keyboard-response", "trial_index": 9, "time_elapsed": 125337, "internal_node_id": "0.0-4.0-5.0"}}, {"uniqueid": "w43304863:a71196014", "current_trial": 10, "dateTime": 1664368368948, "trialdata": {"rt": 2395, "stimulus": "<p id='stroop-text' class='stroop-green'>GREEN</p>", "response": "g", "stimulus-type": "congruent", "word": "green", "color": "green", "correct_response": "g", "trial_id": "stroop-trial-1-congruent-28", "trial_type": "html-keyboard-response", "trial_index": 10, "time_elapsed": 128237, "internal_node_id": "0.0-4.0-6.0"}}, {"uniqueid": "w43304863:a71196014", "current_trial": 11, "dateTime": 1664368370595, "trialdata": {"rt": 1145, "stimulus": "<p id='stroop-text' class='stroop-blue'>BLUE</p>", "response": "b", "stimulus-type": "congruent", "word": "blue", "color": "blue", "correct_response": "b", "trial_id": "stroop-trial-1-congruent-5", "trial_type": "html-keyboard-response", "trial_index": 11, "time_elapsed": 129884, "internal_node_id": "0.0-4.0-7.0"}}, {"uniqueid": "w43304863:a71196014", "current_trial": 12, "dateTime": 1664368374359, "trialdata": {"rt": 3262, "stimulus": "<p id='stroop-text' class='stroop-yellow'>WINDOW</p>", "response": "y", "stimulus-type": "unrelated", "word": "WINDOW", "color": "yellow", "correct_response": "y", "trial_id": "stroop-trial-1-unrelated-26", "trial_type": "html-keyboard-response", "trial_index": 12, "time_elapsed": 133649, "internal_node_id": "0.0-4.0-8.0"}}, {"uniqueid": "w43304863:a71196014", "current_trial": 13, "dateTime": 1664368376574, "trialdata": {"rt": 1709, "stimulus": "<p id='stroop-text' class='stroop-green'>MONKEY</p>", "response": "g", "stimulus-type": "unrelated", "word": "MONKEY", "color": "green", "correct_response": "g", "trial_id": "stroop-trial-1-unrelated-25", "trial_type": "html-keyboard-response", "trial_index": 13, "time_elapsed": 135863, "internal_node_id": "0.0-4.0-9.0"}}, {"uniqueid": "w43304863:a71196014", "current_trial": 14, "dateTime": 1664368378518, "trialdata": {"rt": 1439, "stimulus": "<p id='stroop-text' class='stroop-yellow'>GREEN</p>", "response": "y", "stimulus-type": "incongruent", "word": "green", "color": "yellow", "correct_response": "y", "trial_id": "stroop-trial-1-incongruent-2", "trial_type": "html-keyboard-response", "trial_index": 14, "time_elapsed": 137807, "internal_node_id": "0.0-4.0-10.0"}}, {"uniqueid": "w43304863:a71196014", "current_trial": 15, "dateTime": 1664368380606, "trialdata": {"rt": 1584, "stimulus": "<p id='stroop-text' class='stroop-green'>GREEN</p>", "response": "g", "stimulus-type": "congruent", "word": "green", "color": "green", "correct_response": "g", "trial_id": "stroop-trial-1-congruent-26", "trial_type": "html-keyboard-response", "trial_index": 15, "time_elapsed": 139896, "internal_node_id": "0.0-4.0-11.0"}}, {"uniqueid": "w43304863:a71196014", "current_trial": 16, "dateTime": 1664368382082, "trialdata": {"rt": 971, "stimulus": "<p id='stroop-text' class='stroop-green'>BRIDGE</p>", "response": "g", "stimulus-type": "unrelated", "word": "BRIDGE", "color": "green", "correct_response": "g", "trial_id": "stroop-trial-1-unrelated-29", "trial_type": "html-keyboard-response", "trial_index": 16, "time_elapsed": 141372, "internal_node_id": "0.0-4.0-12.0"}}, {"uniqueid": "w43304863:a71196014", "current_trial": 17, "dateTime": 1664368383932, "trialdata": {"rt": 1343, "stimulus": "<p id='stroop-text' class='stroop-yellow'>YELLOW</p>", "response": "y", "stimulus-type": "congruent", "word": "yellow", "color": "yellow", "correct_response": "y", "trial_id": "stroop-trial-1-congruent-23", "trial_type": "html-keyboard-response", "trial_index": 17, "time_elapsed": 143221, "internal_node_id": "0.0-4.0-13.0"}}, {"uniqueid": "w43304863:a71196014", "current_trial": 18, "dateTime": 1664368385485, "trialdata": {"rt": 1048, "stimulus": "<p id='stroop-text' class='stroop-red'>SHIP</p>", "response": "r", "stimulus-type": "unrelated", "word": "SHIP", "color": "red", "correct_response": "r", "trial_id": "stroop-trial-1-unrelated-19", "trial_type": "html-keyboard-response", "trial_index": 18, "time_elapsed": 144774, "internal_node_id": "0.0-4.0-14.0"}}, {"uniqueid": "w43304863:a71196014", "current_trial": 19, "dateTime": 1664368386869, "trialdata": {"rt": 877, "stimulus": "<p id='stroop-text' class='stroop-red'>BOAT</p>", "response": "r", "stimulus-type": "unrelated", "word": "BOAT", "color": "red", "correct_response": "r", "trial_id": "stroop-trial-1-unrelated-14", "trial_type": "html-keyboard-response", "trial_index": 19, "time_elapsed": 146159, "internal_node_id": "0.0-4.0-15.0"}}, {"uniqueid": "w43304863:a71196014", "current_trial": 20, "dateTime": 1664368388897, "trialdata": {"rt": 1524, "stimulus": "<p id='stroop-text' class='stroop-yellow'>YELLOW</p>", "response": "y", "stimulus-type": "congruent", "word": "yellow", "color": "yellow", "correct_response": "y", "trial_id": "stroop-trial-1-congruent-30", "trial_type": "html-keyboard-response", "trial_index": 20, "time_elapsed": 148187, "internal_node_id": "0.0-4.0-16.0"}}, {"uniqueid": "w43304863:a71196014", "current_trial": 21, "dateTime": 1664368390352, "trialdata": {"rt": 949, "stimulus": "<p id='stroop-text' class='stroop-red'>WINDOW</p>", "response": "r", "stimulus-type": "unrelated", "word": "WINDOW", "color": "red", "correct_response": "r", "trial_id": "stroop-trial-1-unrelated-4", "trial_type": "html-keyboard-response", "trial_index": 21, "time_elapsed": 149641, "internal_node_id": "0.0-4.0-17.0"}}, {"uniqueid": "w43304863:a71196014", "current_trial": 22, "dateTime": 1664368392160, "trialdata": {"rt": 1304, "stimulus": "<p id='stroop-text' class='stroop-green'>WINDOW</p>", "response": "g", "stimulus-type": "unrelated", "word": "WINDOW", "color": "green", "correct_response": "g", "trial_id": "stroop-trial-1-unrelated-7", "trial_type": "html-keyboard-response", "trial_index": 22, "time_elapsed": 151449, "internal_node_id": "0.0-4.0-18.0"}}, {"uniqueid": "w43304863:a71196014", "current_trial": 23, "dateTime": 1664368394010, "trialdata": {"rt": 1336, "stimulus": "<p id='stroop-text' class='stroop-yellow'>BRIDGE</p>", "response": "y", "stimulus-type": "unrelated", "word": "BRIDGE", "color": "yellow", "correct_response": "y", "trial_id": "stroop-trial-1-unrelated-22", "trial_type": "html-keyboard-response", "trial_index": 23, "time_elapsed": 153299, "internal_node_id": "0.0-4.0-19.0"}}, {"uniqueid": "w43304863:a71196014", "current_trial": 24, "dateTime": 1664368396184, "trialdata": {"rt": 1669, "stimulus": "<p id='stroop-text' class='stroop-blue'>RED</p>", "response": "b", "stimulus-type": "incongruent", "word": "red", "color": "blue", "correct_response": "b", "trial_id": "stroop-trial-1-incongruent-26", "trial_type": "html-keyboard-response", "trial_index": 24, "time_elapsed": 155473, "internal_node_id": "0.0-4.0-20.0"}}, {"uniqueid": "w43304863:a71196014", "current_trial": 25, "dateTime": 1664368398199, "trialdata": {"rt": 1510, "stimulus": "<p id='stroop-text' class='stroop-red'>DOG</p>", "response": "r", "stimulus-type": "unrelated", "word": "DOG", "color": "red", "correct_response": "r", "trial_id": "stroop-trial-1-unrelated-9", "trial_type": "html-keyboard-response", "trial_index": 25, "time_elapsed": 157488, "internal_node_id": "0.0-4.0-21.0"}}, {"uniqueid": "w43304863:a71196014", "current_trial": 26, "dateTime": 1664368399834, "trialdata": {"rt": 1130, "stimulus": "<p id='stroop-text' class='stroop-yellow'>BLUE</p>", "response": "y", "stimulus-type": "incongruent", "word": "blue", "color": "yellow", "correct_response": "y", "trial_id": "stroop-trial-1-incongruent-11", "trial_type": "html-keyboard-response", "trial_index": 26, "time_elapsed": 159124, "internal_node_id": "0.0-4.0-22.0"}}, {"uniqueid": "w43304863:a71196014", "current_trial": 27, "dateTime": 1664368401585, "trialdata": {"rt": 1246, "stimulus": "<p id='stroop-text' class='stroop-red'>RED</p>", "response": "r", "stimulus-type": "congruent", "word": "red", "color": "red", "correct_response": "r", "trial_id": "stroop-trial-1-congruent-4", "trial_type": "html-keyboard-response", "trial_index": 27, "time_elapsed": 160874, "internal_node_id": "0.0-4.0-23.0"}}, {"uniqueid": "w43304863:a71196014", "current_trial": 28, "dateTime": 1664368403109, "trialdata": {"rt": 1019, "stimulus": "<p id='stroop-text' class='stroop-yellow'>RED</p>", "response": "y", "stimulus-type": "incongruent", "word": "red", "color": "yellow", "correct_response": "y", "trial_id": "stroop-trial-1-incongruent-19", "trial_type": "html-keyboard-response", "trial_index": 28, "time_elapsed": 162398, "internal_node_id": "0.0-4.0-24.0"}}, {"uniqueid": "w43304863:a71196014", "current_trial": 29, "dateTime": 1664368404446, "trialdata": {"rt": 833, "stimulus": "<p id='stroop-text' class='stroop-red'>RED</p>", "response": "r", "stimulus-type": "congruent", "word": "red", "color": "red", "correct_response": "r", "trial_id": "stroop-trial-1-congruent-18", "trial_type": "html-keyboard-response", "trial_index": 29, "time_elapsed": 163736, "internal_node_id": "0.0-4.0-25.0"}}, {"uniqueid": "w43304863:a71196014", "current_trial": 30, "dateTime": 1664368407765, "trialdata": {"rt": 2814, "stimulus": "<p id='stroop-text' class='stroop-blue'>YELLOW</p>", "response": "b", "stimulus-type": "incongruent", "word": "yellow", "color": "blue", "correct_response": "b", "trial_id": "stroop-trial-1-incongruent-7", "trial_type": "html-keyboard-response", "trial_index": 30, "time_elapsed": 167055, "internal_node_id": "0.0-4.0-26.0"}}, {"uniqueid": "w43304863:a71196014", "current_trial": 31, "dateTime": 1664368411444, "trialdata": {"rt": 3176, "stimulus": "<p id='stroop-text' class='stroop-green'>GREEN</p>", "response": "g", "stimulus-type": "congruent", "word": "green", "color": "green", "correct_response": "g", "trial_id": "stroop-trial-1-congruent-8", "trial_type": "html-keyboard-response", "trial_index": 31, "time_elapsed": 170734, "internal_node_id": "0.0-4.0-27.0"}}, {"uniqueid": "w43304863:a71196014", "current_trial": 32, "dateTime": 1664368413070, "trialdata": {"rt": 1120, "stimulus": "<p id='stroop-text' class='stroop-yellow'>YELLOW</p>", "response": "y", "stimulus-type": "congruent", "word": "yellow", "color": "yellow", "correct_response": "y", "trial_id": "stroop-trial-1-congruent-16", "trial_type": "html-keyboard-response", "trial_index": 32, "time_elapsed": 172359, "internal_node_id": "0.0-4.0-28.0"}}, {"uniqueid": "w43304863:a71196014", "current_trial": 33, "dateTime": 1664368416764, "trialdata": {"rt": 3189, "stimulus": "<p id='stroop-text' class='stroop-green'>MONKEY</p>", "response": "g", "stimulus-type": "unrelated", "word": "MONKEY", "color": "green", "correct_response": "g", "trial_id": "stroop-trial-1-unrelated-16", "trial_type": "html-keyboard-response", "trial_index": 33, "time_elapsed": 176053, "internal_node_id": "0.0-4.0-29.0"}}, {"uniqueid": "w43304863:a71196014", "current_trial": 34, "dateTime": 1664368421300, "trialdata": {"rt": 4031, "stimulus": "<p id='stroop-text' class='stroop-green'>GREEN</p>", "response": "g", "stimulus-type": "congruent", "word": "green", "color": "green", "correct_response": "g", "trial_id": "stroop-trial-1-congruent-17", "trial_type": "html-keyboard-response", "trial_index": 34, "time_elapsed": 180589, "internal_node_id": "0.0-4.0-30.0"}}, {"uniqueid": "w43304863:a71196014", "current_trial": 35, "dateTime": 1664368423086, "trialdata": {"rt": 1270, "stimulus": "<p id='stroop-text' class='stroop-yellow'>GREEN</p>", "response": "y", "stimulus-type": "incongruent", "word": "green", "color": "yellow", "correct_response": "y", "trial_id": "stroop-trial-1-incongruent-15", "trial_type": "html-keyboard-response", "trial_index": 35, "time_elapsed": 182375, "internal_node_id": "0.0-4.0-31.0"}}, {"uniqueid": "w43304863:a71196014", "current_trial": 36, "dateTime": 1664368424623, "trialdata": {"rt": 1029, "stimulus": "<p id='stroop-text' class='stroop-yellow'>MONKEY</p>", "response": "y", "stimulus-type": "unrelated", "word": "MONKEY", "color": "yellow", "correct_response": "y", "trial_id": "stroop-trial-1-unrelated-13", "trial_type": "html-keyboard-response", "trial_index": 36, "time_elapsed": 183912, "internal_node_id": "0.0-4.0-32.0"}}, {"uniqueid": "w43304863:a71196014", "current_trial": 37, "dateTime": 1664368426160, "trialdata": {"rt": 1033, "stimulus": "<p id='stroop-text' class='stroop-yellow'>FORK</p>", "response": "y", "stimulus-type": "unrelated", "word": "FORK", "color": "yellow", "correct_response": "y", "trial_id": "stroop-trial-1-unrelated-1", "trial_type": "html-keyboard-response", "trial_index": 37, "time_elapsed": 185450, "internal_node_id": "0.0-4.0-33.0"}}, {"uniqueid": "w43304863:a71196014", "current_trial": 38, "dateTime": 1664368428558, "trialdata": {"rt": 1893, "stimulus": "<p id='stroop-text' class='stroop-blue'>BLUE</p>", "response": "b", "stimulus-type": "congruent", "word": "blue", "color": "blue", "correct_response": "b", "trial_id": "stroop-trial-1-congruent-15", "trial_type": "html-keyboard-response", "trial_index": 38, "time_elapsed": 187847, "internal_node_id": "0.0-4.0-34.0"}}, {"uniqueid": "w43304863:a71196014", "current_trial": 39, "dateTime": 1664368430289, "trialdata": {"rt": 1225, "stimulus": "<p id='stroop-text' class='stroop-red'>RED</p>", "response": "r", "stimulus-type": "congruent", "word": "red", "color": "red", "correct_response": "r", "trial_id": "stroop-trial-1-congruent-20", "trial_type": "html-keyboard-response", "trial_index": 39, "time_elapsed": 189579, "internal_node_id": "0.0-4.0-35.0"}}, {"uniqueid": "w43304863:a71196014", "current_trial": 40, "dateTime": 1664368432122, "trialdata": {"rt": 1328, "stimulus": "<p id='stroop-text' class='stroop-blue'>GREEN</p>", "response": "b", "stimulus-type": "incongruent", "word": "green", "color": "blue", "correct_response": "b", "trial_id": "stroop-trial-1-incongruent-25", "trial_type": "html-keyboard-response", "trial_index": 40, "time_elapsed": 191412, "internal_node_id": "0.0-4.0-36.0"}}, {"uniqueid": "w43304863:a71196014", "current_trial": 41, "dateTime": 1664368433518, "trialdata": {"rt": 892, "stimulus": "<p id='stroop-text' class='stroop-blue'>GREEN</p>", "response": "b", "stimulus-type": "incongruent", "word": "green", "color": "blue", "correct_response": "b", "trial_id": "stroop-trial-1-incongruent-21", "trial_type": "html-keyboard-response", "trial_index": 41, "time_elapsed": 192807, "internal_node_id": "0.0-4.0-37.0"}}, {"uniqueid": "w43304863:a71196014", "current_trial": 42, "dateTime": 1664368434825, "trialdata": {"rt": 802, "stimulus": "<p id='stroop-text' class='stroop-blue'>BLUE</p>", "response": "b", "stimulus-type": "congruent", "word": "blue", "color": "blue", "correct_response": "b", "trial_id": "stroop-trial-1-congruent-7", "trial_type": "html-keyboard-response", "trial_index": 42, "time_elapsed": 194114, "internal_node_id": "0.0-4.0-38.0"}}, {"uniqueid": "w43304863:a71196014", "current_trial": 43, "dateTime": 1664368436725, "trialdata": {"rt": 1390, "stimulus": "<p id='stroop-text' class='stroop-green'>GREEN</p>", "response": "g", "stimulus-type": "congruent", "word": "green", "color": "green", "correct_response": "g", "trial_id": "stroop-trial-1-congruent-25", "trial_type": "html-keyboard-response", "trial_index": 43, "time_elapsed": 196014, "internal_node_id": "0.0-4.0-39.0"}}, {"uniqueid": "w43304863:a71196014", "current_trial": 44, "dateTime": 1664368438332, "trialdata": {"rt": 1100, "stimulus": "<p id='stroop-text' class='stroop-blue'>BLUE</p>", "response": "b", "stimulus-type": "congruent", "word": "blue", "color": "blue", "correct_response": "b", "trial_id": "stroop-trial-1-congruent-29", "trial_type": "html-keyboard-response", "trial_index": 44, "time_elapsed": 197622, "internal_node_id": "0.0-4.0-40.0"}}, {"uniqueid": "w43304863:a71196014", "current_trial": 45, "dateTime": 1664368439887, "trialdata": {"rt": 1049, "stimulus": "<p id='stroop-text' class='stroop-red'>STONE</p>", "response": "r", "stimulus-type": "unrelated", "word": "STONE", "color": "red", "correct_response": "r", "trial_id": "stroop-trial-1-unrelated-15", "trial_type": "html-keyboard-response", "trial_index": 45, "time_elapsed": 199177, "internal_node_id": "0.0-4.0-41.0"}}, {"uniqueid": "w43304863:a71196014", "current_trial": 46, "dateTime": 1664368441690, "trialdata": {"rt": 1297, "stimulus": "<p id='stroop-text' class='stroop-green'>STONE</p>", "response": "g", "stimulus-type": "unrelated", "word": "STONE", "color": "green", "correct_response": "g", "trial_id": "stroop-trial-1-unrelated-20", "trial_type": "html-keyboard-response", "trial_index": 46, "time_elapsed": 200979, "internal_node_id": "0.0-4.0-42.0"}}, {"uniqueid": "w43304863:a71196014", "current_trial": 47, "dateTime": 1664368443245, "trialdata": {"rt": 1051, "stimulus": "<p id='stroop-text' class='stroop-red'>GREEN</p>", "response": "r", "stimulus-type": "incongruent", "word": "green", "color": "red", "correct_response": "r", "trial_id": "stroop-trial-1-incongruent-5", "trial_type": "html-keyboard-response", "trial_index": 47, "time_elapsed": 202535, "internal_node_id": "0.0-4.0-43.0"}}, {"uniqueid": "w43304863:a71196014", "current_trial": 48, "dateTime": 1664368444962, "trialdata": {"rt": 1208, "stimulus": "<p id='stroop-text' class='stroop-blue'>GREEN</p>", "response": "b", "stimulus-type": "incongruent", "word": "green", "color": "blue", "correct_response": "b", "trial_id": "stroop-trial-1-incongruent-28", "trial_type": "html-keyboard-response", "trial_index": 48, "time_elapsed": 204252, "internal_node_id": "0.0-4.0-44.0"}}, {"uniqueid": "w43304863:a71196014", "current_trial": 49, "dateTime": 1664368446496, "trialdata": {"rt": 1029, "stimulus": "<p id='stroop-text' class='stroop-yellow'>BLUE</p>", "response": "y", "stimulus-type": "incongruent", "word": "blue", "color": "yellow", "correct_response": "y", "trial_id": "stroop-trial-1-incongruent-17", "trial_type": "html-keyboard-response", "trial_index": 49, "time_elapsed": 205785, "internal_node_id": "0.0-4.0-45.0"}}, {"uniqueid": "w43304863:a71196014", "current_trial": 50, "dateTime": 1664368448501, "trialdata": {"rt": 1498, "stimulus": "<p id='stroop-text' class='stroop-green'>YELLOW</p>", "response": "g", "stimulus-type": "incongruent", "word": "yellow", "color": "green", "correct_response": "g", "trial_id": "stroop-trial-1-incongruent-29", "trial_type": "html-keyboard-response", "trial_index": 50, "time_elapsed": 207791, "internal_node_id": "0.0-4.0-46.0"}}, {"uniqueid": "w43304863:a71196014", "current_trial": 51, "dateTime": 1664368450276, "trialdata": {"rt": 1269, "stimulus": "<p id='stroop-text' class='stroop-red'>BRAIN</p>", "response": "r", "stimulus-type": "unrelated", "word": "BRAIN", "color": "red", "correct_response": "r", "trial_id": "stroop-trial-1-unrelated-21", "trial_type": "html-keyboard-response", "trial_index": 51, "time_elapsed": 209565, "internal_node_id": "0.0-4.0-47.0"}}, {"uniqueid": "w43304863:a71196014", "current_trial": 52, "dateTime": 1664368452200, "trialdata": {"rt": 1420, "stimulus": "<p id='stroop-text' class='stroop-blue'>SHIP</p>", "response": "b", "stimulus-type": "unrelated", "word": "SHIP", "color": "blue", "correct_response": "b", "trial_id": "stroop-trial-1-unrelated-23", "trial_type": "html-keyboard-response", "trial_index": 52, "time_elapsed": 211490, "internal_node_id": "0.0-4.0-48.0"}}, {"uniqueid": "w43304863:a71196014", "current_trial": 53, "dateTime": 1664368456845, "trialdata": {"rt": 4140, "stimulus": "<p id='stroop-text' class='stroop-green'>BLUE</p>", "response": "g", "stimulus-type": "incongruent", "word": "blue", "color": "green", "correct_response": "g", "trial_id": "stroop-trial-1-incongruent-20", "trial_type": "html-keyboard-response", "trial_index": 53, "time_elapsed": 216135, "internal_node_id": "0.0-4.0-49.0"}}, {"uniqueid": "w43304863:a71196014", "current_trial": 54, "dateTime": 1664368458244, "trialdata": {"rt": 893, "stimulus": "<p id='stroop-text' class='stroop-green'>CHAIR</p>", "response": "g", "stimulus-type": "unrelated", "word": "CHAIR", "color": "green", "correct_response": "g", "trial_id": "stroop-trial-1-unrelated-27", "trial_type": "html-keyboard-response", "trial_index": 54, "time_elapsed": 217533, "internal_node_id": "0.0-4.0-50.0"}}, {"uniqueid": "w43304863:a71196014", "current_trial": 55, "dateTime": 1664368461398, "trialdata": {"rt": 2649, "stimulus": "<p id='stroop-text' class='stroop-blue'>BLUE</p>", "response": "g", "stimulus-type": "congruent", "word": "blue", "color": "blue", "correct_response": "b", "trial_id": "stroop-trial-1-congruent-24", "trial_type": "html-keyboard-response", "trial_index": 55, "time_elapsed": 220687, "internal_node_id": "0.0-4.0-51.0"}}, {"uniqueid": "w43304863:a71196014", "current_trial": 56, "dateTime": 1664368463262, "trialdata": {"rt": 1360, "stimulus": "<p id='stroop-text' class='stroop-yellow'>BLUE</p>", "response": "y", "stimulus-type": "incongruent", "word": "blue", "color": "yellow", "correct_response": "y", "trial_id": "stroop-trial-1-incongruent-23", "trial_type": "html-keyboard-response", "trial_index": 56, "time_elapsed": 222552, "internal_node_id": "0.0-4.0-52.0"}}, {"uniqueid": "w43304863:a71196014", "current_trial": 57, "dateTime": 1664368464707, "trialdata": {"rt": 942, "stimulus": "<p id='stroop-text' class='stroop-red'>RED</p>", "response": "r", "stimulus-type": "congruent", "word": "red", "color": "red", "correct_response": "r", "trial_id": "stroop-trial-1-congruent-2", "trial_type": "html-keyboard-response", "trial_index": 57, "time_elapsed": 223996, "internal_node_id": "0.0-4.0-53.0"}}, {"uniqueid": "w43304863:a71196014", "current_trial": 58, "dateTime": 1664368465815, "trialdata": {"rt": 603, "stimulus": "<p id='stroop-text' class='stroop-red'>RED</p>", "response": "r", "stimulus-type": "congruent", "word": "red", "color": "red", "correct_response": "r", "trial_id": "stroop-trial-1-congruent-12", "trial_type": "html-keyboard-response", "trial_index": 58, "time_elapsed": 225105, "internal_node_id": "0.0-4.0-54.0"}}, {"uniqueid": "w43304863:a71196014", "current_trial": 59, "dateTime": 1664368467796, "trialdata": {"rt": 1477, "stimulus": "<p id='stroop-text' class='stroop-green'>BRAIN</p>", "response": "g", "stimulus-type": "unrelated", "word": "BRAIN", "color": "green", "correct_response": "g", "trial_id": "stroop-trial-1-unrelated-6", "trial_type": "html-keyboard-response", "trial_index": 59, "time_elapsed": 227086, "internal_node_id": "0.0-4.0-55.0"}}, {"uniqueid": "w43304863:a71196014", "current_trial": 60, "dateTime": 1664368469485, "trialdata": {"rt": 1183, "stimulus": "<p id='stroop-text' class='stroop-blue'>BLUE</p>", "response": "b", "stimulus-type": "congruent", "word": "blue", "color": "blue", "correct_response": "b", "trial_id": "stroop-trial-1-congruent-9", "trial_type": "html-keyboard-response", "trial_index": 60, "time_elapsed": 228775, "internal_node_id": "0.0-4.0-56.0"}}, {"uniqueid": "w43304863:a71196014", "current_trial": 61, "dateTime": 1664368471413, "trialdata": {"rt": 1423, "stimulus": "<p id='stroop-text' class='stroop-yellow'>GREEN</p>", "response": "y", "stimulus-type": "incongruent", "word": "green", "color": "yellow", "correct_response": "y", "trial_id": "stroop-trial-1-incongruent-27", "trial_type": "html-keyboard-response", "trial_index": 61, "time_elapsed": 230702, "internal_node_id": "0.0-4.0-57.0"}}, {"uniqueid": "w43304863:a71196014", "current_trial": 62, "dateTime": 1664368472948, "trialdata": {"rt": 1029, "stimulus": "<p id='stroop-text' class='stroop-red'>RED</p>", "response": "r", "stimulus-type": "congruent", "word": "red", "color": "red", "correct_response": "r", "trial_id": "stroop-trial-1-congruent-21", "trial_type": "html-keyboard-response", "trial_index": 62, "time_elapsed": 232237, "internal_node_id": "0.0-4.0-58.0"}}, {"uniqueid": "w43304863:a71196014", "current_trial": 63, "dateTime": 1664368474290, "trialdata": {"rt": 834, "stimulus": "<p id='stroop-text' class='stroop-red'>RED</p>", "response": "r", "stimulus-type": "congruent", "word": "red", "color": "red", "correct_response": "r", "trial_id": "stroop-trial-1-congruent-19", "trial_type": "html-keyboard-response", "trial_index": 63, "time_elapsed": 233580, "internal_node_id": "0.0-4.0-59.0"}}, {"uniqueid": "w43304863:a71196014", "current_trial": 64, "dateTime": 1664368476016, "trialdata": {"rt": 1211, "stimulus": "<p id='stroop-text' class='stroop-yellow'>WINDOW</p>", "response": "y", "stimulus-type": "unrelated", "word": "WINDOW", "color": "yellow", "correct_response": "y", "trial_id": "stroop-trial-1-unrelated-2", "trial_type": "html-keyboard-response", "trial_index": 64, "time_elapsed": 235305, "internal_node_id": "0.0-4.0-60.0"}}, {"uniqueid": "w43304863:a71196014", "current_trial": 65, "dateTime": 1664368477158, "trialdata": {"rt": 635, "stimulus": "<p id='stroop-text' class='stroop-yellow'>BOAT</p>", "response": "y", "stimulus-type": "unrelated", "word": "BOAT", "color": "yellow", "correct_response": "y", "trial_id": "stroop-trial-1-unrelated-5", "trial_type": "html-keyboard-response", "trial_index": 65, "time_elapsed": 236447, "internal_node_id": "0.0-4.0-61.0"}}, {"uniqueid": "w43304863:a71196014", "current_trial": 66, "dateTime": 1664368478723, "trialdata": {"rt": 1061, "stimulus": "<p id='stroop-text' class='stroop-green'>BLUE</p>", "response": "g", "stimulus-type": "incongruent", "word": "blue", "color": "green", "correct_response": "g", "trial_id": "stroop-trial-1-incongruent-10", "trial_type": "html-keyboard-response", "trial_index": 66, "time_elapsed": 238013, "internal_node_id": "0.0-4.0-62.0"}}, {"uniqueid": "w43304863:a71196014", "current_trial": 67, "dateTime": 1664368480336, "trialdata": {"rt": 1108, "stimulus": "<p id='stroop-text' class='stroop-blue'>DOG</p>", "response": "b", "stimulus-type": "unrelated", "word": "DOG", "color": "blue", "correct_response": "b", "trial_id": "stroop-trial-1-unrelated-18", "trial_type": "html-keyboard-response", "trial_index": 67, "time_elapsed": 239626, "internal_node_id": "0.0-4.0-63.0"}}, {"uniqueid": "w43304863:a71196014", "current_trial": 68, "dateTime": 1664368481865, "trialdata": {"rt": 1025, "stimulus": "<p id='stroop-text' class='stroop-green'>BRIDGE</p>", "response": "g", "stimulus-type": "unrelated", "word": "BRIDGE", "color": "green", "correct_response": "g", "trial_id": "stroop-trial-1-unrelated-17", "trial_type": "html-keyboard-response", "trial_index": 68, "time_elapsed": 241154, "internal_node_id": "0.0-4.0-64.0"}}, {"uniqueid": "w43304863:a71196014", "current_trial": 69, "dateTime": 1664368483192, "trialdata": {"rt": 818, "stimulus": "<p id='stroop-text' class='stroop-red'>GREEN</p>", "response": "r", "stimulus-type": "incongruent", "word": "green", "color": "red", "correct_response": "r", "trial_id": "stroop-trial-1-incongruent-18", "trial_type": "html-keyboard-response", "trial_index": 69, "time_elapsed": 242481, "internal_node_id": "0.0-4.0-65.0"}}, {"uniqueid": "w43304863:a71196014", "current_trial": 70, "dateTime": 1664368484769, "trialdata": {"rt": 1072, "stimulus": "<p id='stroop-text' class='stroop-yellow'>BRAIN</p>", "response": "y", "stimulus-type": "unrelated", "word": "BRAIN", "color": "yellow", "correct_response": "y", "trial_id": "stroop-trial-1-unrelated-12", "trial_type": "html-keyboard-response", "trial_index": 70, "time_elapsed": 244058, "internal_node_id": "0.0-4.0-66.0"}}, {"uniqueid": "w43304863:a71196014", "current_trial": 71, "dateTime": 1664368486452, "trialdata": {"rt": 1177, "stimulus": "<p id='stroop-text' class='stroop-green'>DOG</p>", "response": "g", "stimulus-type": "unrelated", "word": "DOG", "color": "green", "correct_response": "g", "trial_id": "stroop-trial-1-unrelated-30", "trial_type": "html-keyboard-response", "trial_index": 71, "time_elapsed": 245741, "internal_node_id": "0.0-4.0-67.0"}}, {"uniqueid": "w43304863:a71196014", "current_trial": 72, "dateTime": 1664368487892, "trialdata": {"rt": 935, "stimulus": "<p id='stroop-text' class='stroop-blue'>RED</p>", "response": "b", "stimulus-type": "incongruent", "word": "red", "color": "blue", "correct_response": "b", "trial_id": "stroop-trial-1-incongruent-30", "trial_type": "html-keyboard-response", "trial_index": 72, "time_elapsed": 247182, "internal_node_id": "0.0-4.0-68.0"}}, {"uniqueid": "w43304863:a71196014", "current_trial": 73, "dateTime": 1664368489523, "trialdata": {"rt": 1125, "stimulus": "<p id='stroop-text' class='stroop-green'>GREEN</p>", "response": "g", "stimulus-type": "congruent", "word": "green", "color": "green", "correct_response": "g", "trial_id": "stroop-trial-1-congruent-22", "trial_type": "html-keyboard-response", "trial_index": 73, "time_elapsed": 248812, "internal_node_id": "0.0-4.0-69.0"}}, {"uniqueid": "w43304863:a71196014", "current_trial": 74, "dateTime": 1664368490760, "trialdata": {"rt": 733, "stimulus": "<p id='stroop-text' class='stroop-blue'>BOTTLE</p>", "response": "b", "stimulus-type": "unrelated", "word": "BOTTLE", "color": "blue", "correct_response": "b", "trial_id": "stroop-trial-1-unrelated-8", "trial_type": "html-keyboard-response", "trial_index": 74, "time_elapsed": 250049, "internal_node_id": "0.0-4.0-70.0"}}, {"uniqueid": "w43304863:a71196014", "current_trial": 75, "dateTime": 1664368493193, "trialdata": {"rt": 1922, "stimulus": "<p id='stroop-text' class='stroop-yellow'>BLUE</p>", "response": "g", "stimulus-type": "incongruent", "word": "blue", "color": "yellow", "correct_response": "y", "trial_id": "stroop-trial-1-incongruent-3", "trial_type": "html-keyboard-response", "trial_index": 75, "time_elapsed": 252482, "internal_node_id": "0.0-4.0-71.0"}}, {"uniqueid": "w43304863:a71196014", "current_trial": 76, "dateTime": 1664368494876, "trialdata": {"rt": 1179, "stimulus": "<p id='stroop-text' class='stroop-yellow'>YELLOW</p>", "response": "y", "stimulus-type": "congruent", "word": "yellow", "color": "yellow", "correct_response": "y", "trial_id": "stroop-trial-1-congruent-6", "trial_type": "html-keyboard-response", "trial_index": 76, "time_elapsed": 254165, "internal_node_id": "0.0-4.0-72.0"}}, {"uniqueid": "w43304863:a71196014", "current_trial": 77, "dateTime": 1664368496014, "trialdata": {"rt": 633, "stimulus": "<p id='stroop-text' class='stroop-yellow'>BRAIN</p>", "response": "y", "stimulus-type": "unrelated", "word": "BRAIN", "color": "yellow", "correct_response": "y", "trial_id": "stroop-trial-1-unrelated-24", "trial_type": "html-keyboard-response", "trial_index": 77, "time_elapsed": 255303, "internal_node_id": "0.0-4.0-73.0"}}, {"uniqueid": "w43304863:a71196014", "current_trial": 78, "dateTime": 1664368496994, "trialdata": {"rt": 476, "stimulus": "<p id='stroop-text' class='stroop-yellow'>YELLOW</p>", "response": "y", "stimulus-type": "congruent", "word": "yellow", "color": "yellow", "correct_response": "y", "trial_id": "stroop-trial-1-congruent-13", "trial_type": "html-keyboard-response", "trial_index": 78, "time_elapsed": 256284, "internal_node_id": "0.0-4.0-74.0"}}, {"uniqueid": "w43304863:a71196014", "current_trial": 79, "dateTime": 1664368498269, "trialdata": {"rt": 769, "stimulus": "<p id='stroop-text' class='stroop-red'>BRAIN</p>", "response": "r", "stimulus-type": "unrelated", "word": "BRAIN", "color": "red", "correct_response": "r", "trial_id": "stroop-trial-1-unrelated-10", "trial_type": "html-keyboard-response", "trial_index": 79, "time_elapsed": 257558, "internal_node_id": "0.0-4.0-75.0"}}, {"uniqueid": "w43304863:a71196014", "current_trial": 80, "dateTime": 1664368500074, "trialdata": {"rt": 1301, "stimulus": "<p id='stroop-text' class='stroop-blue'>YELLOW</p>", "response": "y", "stimulus-type": "incongruent", "word": "yellow", "color": "blue", "correct_response": "b", "trial_id": "stroop-trial-1-incongruent-6", "trial_type": "html-keyboard-response", "trial_index": 80, "time_elapsed": 259364, "internal_node_id": "0.0-4.0-76.0"}}, {"uniqueid": "w43304863:a71196014", "current_trial": 81, "dateTime": 1664368503817, "trialdata": {"rt": 3237, "stimulus": "<p id='stroop-text' class='stroop-yellow'>BLUE</p>", "response": "y", "stimulus-type": "incongruent", "word": "blue", "color": "yellow", "correct_response": "y", "trial_id": "stroop-trial-1-incongruent-22", "trial_type": "html-keyboard-response", "trial_index": 81, "time_elapsed": 263106, "internal_node_id": "0.0-4.0-77.0"}}, {"uniqueid": "w43304863:a71196014", "current_trial": 82, "dateTime": 1664368505346, "trialdata": {"rt": 1023, "stimulus": "<p id='stroop-text' class='stroop-yellow'>BLUE</p>", "response": "y", "stimulus-type": "incongruent", "word": "blue", "color": "yellow", "correct_response": "y", "trial_id": "stroop-trial-1-incongruent-12", "trial_type": "html-keyboard-response", "trial_index": 82, "time_elapsed": 264636, "internal_node_id": "0.0-4.0-78.0"}}, {"uniqueid": "w43304863:a71196014", "current_trial": 83, "dateTime": 1664368506827, "trialdata": {"rt": 975, "stimulus": "<p id='stroop-text' class='stroop-red'>GREEN</p>", "response": "r", "stimulus-type": "incongruent", "word": "green", "color": "red", "correct_response": "r", "trial_id": "stroop-trial-1-incongruent-1", "trial_type": "html-keyboard-response", "trial_index": 83, "time_elapsed": 266116, "internal_node_id": "0.0-4.0-79.0"}}, {"uniqueid": "w43304863:a71196014", "current_trial": 84, "dateTime": 1664368507918, "trialdata": {"rt": 586, "stimulus": "<p id='stroop-text' class='stroop-red'>SHIP</p>", "response": "r", "stimulus-type": "unrelated", "word": "SHIP", "color": "red", "correct_response": "r", "trial_id": "stroop-trial-1-unrelated-11", "trial_type": "html-keyboard-response", "trial_index": 84, "time_elapsed": 267208, "internal_node_id": "0.0-4.0-80.0"}}, {"uniqueid": "w43304863:a71196014", "current_trial": 85, "dateTime": 1664368509666, "trialdata": {"rt": 1236, "stimulus": "<p id='stroop-text' class='stroop-yellow'>YELLOW</p>", "response": "y", "stimulus-type": "congruent", "word": "yellow", "color": "yellow", "correct_response": "y", "trial_id": "stroop-trial-1-congruent-1", "trial_type": "html-keyboard-response", "trial_index": 85, "time_elapsed": 268956, "internal_node_id": "0.0-4.0-81.0"}}, {"uniqueid": "w43304863:a71196014", "current_trial": 86, "dateTime": 1664368512303, "trialdata": {"rt": 2131, "stimulus": "<p id='stroop-text' class='stroop-blue'>GREEN</p>", "response": "b", "stimulus-type": "incongruent", "word": "green", "color": "blue", "correct_response": "b", "trial_id": "stroop-trial-1-incongruent-24", "trial_type": "html-keyboard-response", "trial_index": 86, "time_elapsed": 271592, "internal_node_id": "0.0-4.0-82.0"}}, {"uniqueid": "w43304863:a71196014", "current_trial": 87, "dateTime": 1664368514572, "trialdata": {"rt": 1763, "stimulus": "<p id='stroop-text' class='stroop-yellow'>RED</p>", "response": "y", "stimulus-type": "incongruent", "word": "red", "color": "yellow", "correct_response": "y", "trial_id": "stroop-trial-1-incongruent-9", "trial_type": "html-keyboard-response", "trial_index": 87, "time_elapsed": 273862, "internal_node_id": "0.0-4.0-83.0"}}, {"uniqueid": "w43304863:a71196014", "current_trial": 88, "dateTime": 1664368515992, "trialdata": {"rt": 914, "stimulus": "<p id='stroop-text' class='stroop-yellow'>YELLOW</p>", "response": "y", "stimulus-type": "congruent", "word": "yellow", "color": "yellow", "correct_response": "y", "trial_id": "stroop-trial-1-congruent-3", "trial_type": "html-keyboard-response", "trial_index": 88, "time_elapsed": 275282, "internal_node_id": "0.0-4.0-84.0"}}, {"uniqueid": "w43304863:a71196014", "current_trial": 89, "dateTime": 1664368517226, "trialdata": {"rt": 727, "stimulus": "<p id='stroop-text' class='stroop-yellow'>GREEN</p>", "response": "y", "stimulus-type": "incongruent", "word": "green", "color": "yellow", "correct_response": "y", "trial_id": "stroop-trial-1-incongruent-16", "trial_type": "html-keyboard-response", "trial_index": 89, "time_elapsed": 276516, "internal_node_id": "0.0-4.0-85.0"}}, {"uniqueid": "w43304863:a71196014", "current_trial": 90, "dateTime": 1664368519030, "trialdata": {"rt": 1295, "stimulus": "<p id='stroop-text' class='stroop-blue'>GREEN</p>", "response": "b", "stimulus-type": "incongruent", "word": "green", "color": "blue", "correct_response": "b", "trial_id": "stroop-trial-1-incongruent-4", "trial_type": "html-keyboard-response", "trial_index": 90, "time_elapsed": 278319, "internal_node_id": "0.0-4.0-86.0"}}, {"uniqueid": "w43304863:a71196014", "current_trial": 91, "dateTime": 1664368520239, "trialdata": {"rt": 699, "stimulus": "<p id='stroop-text' class='stroop-yellow'>WINDOW</p>", "response": "y", "stimulus-type": "unrelated", "word": "WINDOW", "color": "yellow", "correct_response": "y", "trial_id": "stroop-trial-1-unrelated-3", "trial_type": "html-keyboard-response", "trial_index": 91, "time_elapsed": 279529, "internal_node_id": "0.0-4.0-87.0"}}, {"uniqueid": "w43304863:a71196014", "current_trial": 92, "dateTime": 1664368522014, "trialdata": {"rt": 1271, "stimulus": "<p id='stroop-text' class='stroop-blue'>YELLOW</p>", "response": "b", "stimulus-type": "incongruent", "word": "yellow", "color": "blue", "correct_response": "b", "trial_id": "stroop-trial-1-incongruent-8", "trial_type": "html-keyboard-response", "trial_index": 92, "time_elapsed": 281304, "internal_node_id": "0.0-4.0-88.0"}}, {"uniqueid": "w43304863:a71196014", "current_trial": 93, "dateTime": 1664368523514, "trialdata": {"rt": 995, "stimulus": "<p id='stroop-text' class='stroop-yellow'>YELLOW</p>", "response": "y", "stimulus-type": "congruent", "word": "yellow", "color": "yellow", "correct_response": "y", "trial_id": "stroop-trial-1-congruent-27", "trial_type": "html-keyboard-response", "trial_index": 93, "time_elapsed": 282803, "internal_node_id": "0.0-4.0-89.0"}}, {"uniqueid": "w43304863:a71196014", "current_trial": 94, "dateTime": 1664368560041, "trialdata": {"rt": 36017, "stimulus": "  <h1> End of block! </h1>\n\n  You have reached the end of the block 1/5. If you need a short break, feel free to take one now before moving on.\n\n  <br><br>\n  In the next block, you will complete another 90 rounds of this game.\n\n  <br><br>\n  <div style='text-align: center;'>Press <code>space</code> to begin.</div>\n  <br><br>\n<div style='text-align: center;'>(If the experiment doesn't continue, try clicking on the text and then pressing <code>space</code>.)</div>", "response": " ", "trial_id": "stroop_1_ready_2", "trial_type": "html-keyboard-response", "trial_index": 94, "time_elapsed": 319331, "internal_node_id": "0.0-5.0"}}, {"uniqueid": "w43304863:a71196014", "current_trial": 95, "dateTime": 1664368561275, "trialdata": {"rt": 1226, "stimulus": "<p id='stroop-text' class='stroop-green'>RED</p>", "response": "g", "stimulus-type": "incongruent", "word": "red", "color": "green", "correct_response": "g", "trial_id": "stroop-trial-1-incongruent-22", "trial_type": "html-keyboard-response", "trial_index": 95, "time_elapsed": 320564, "internal_node_id": "0.0-6.0-0.0"}}, {"uniqueid": "w43304863:a71196014", "current_trial": 96, "dateTime": 1664368562916, "trialdata": {"rt": 1136, "stimulus": "<p id='stroop-text' class='stroop-green'>BRAIN</p>", "response": "g", "stimulus-type": "unrelated", "word": "BRAIN", "color": "green", "correct_response": "g", "trial_id": "stroop-trial-1-unrelated-14", "trial_type": "html-keyboard-response", "trial_index": 96, "time_elapsed": 322206, "internal_node_id": "0.0-6.0-1.0"}}, {"uniqueid": "w43304863:a71196014", "current_trial": 97, "dateTime": 1664368564494, "trialdata": {"rt": 1074, "stimulus": "<p id='stroop-text' class='stroop-yellow'>YELLOW</p>", "response": "y", "stimulus-type": "congruent", "word": "yellow", "color": "yellow", "correct_response": "y", "trial_id": "stroop-trial-1-congruent-21", "trial_type": "html-keyboard-response", "trial_index": 97, "time_elapsed": 323784, "internal_node_id": "0.0-6.0-2.0"}}, {"uniqueid": "w43304863:a71196014", "current_trial": 98, "dateTime": 1664368566512, "trialdata": {"rt": 1513, "stimulus": "<p id='stroop-text' class='stroop-green'>YELLOW</p>", "response": "g", "stimulus-type": "incongruent", "word": "yellow", "color": "green", "correct_response": "g", "trial_id": "stroop-trial-1-incongruent-24", "trial_type": "html-keyboard-response", "trial_index": 98, "time_elapsed": 325802, "internal_node_id": "0.0-6.0-3.0"}}, {"uniqueid": "w43304863:a71196014", "current_trial": 99, "dateTime": 1664368567827, "trialdata": {"rt": 808, "stimulus": "<p id='stroop-text' class='stroop-green'>RED</p>", "response": "g", "stimulus-type": "incongruent", "word": "red", "color": "green", "correct_response": "g", "trial_id": "stroop-trial-1-incongruent-3", "trial_type": "html-keyboard-response", "trial_index": 99, "time_elapsed": 327116, "internal_node_id": "0.0-6.0-4.0"}}, {"uniqueid": "w43304863:a71196014", "current_trial": 100, "dateTime": 1664368568966, "trialdata": {"rt": 634, "stimulus": "<p id='stroop-text' class='stroop-green'>GREEN</p>", "response": "g", "stimulus-type": "congruent", "word": "green", "color": "green", "correct_response": "g", "trial_id": "stroop-trial-1-congruent-24", "trial_type": "html-keyboard-response", "trial_index": 100, "time_elapsed": 328256, "internal_node_id": "0.0-6.0-5.0"}}, {"uniqueid": "w43304863:a71196014", "current_trial": 101, "dateTime": 1664368570507, "trialdata": {"rt": 1028, "stimulus": "<p id='stroop-text' class='stroop-red'>YELLOW</p>", "response": "g", "stimulus-type": "incongruent", "word": "yellow", "color": "red", "correct_response": "r", "trial_id": "stroop-trial-1-incongruent-23", "trial_type": "html-keyboard-response", "trial_index": 101, "time_elapsed": 329796, "internal_node_id": "0.0-6.0-6.0"}}, {"uniqueid": "w43304863:a71196014", "current_trial": 102, "dateTime": 1664368571553, "trialdata": {"rt": 541, "stimulus": "<p id='stroop-text' class='stroop-red'>FORK</p>", "response": "r", "stimulus-type": "unrelated", "word": "FORK", "color": "red", "correct_response": "r", "trial_id": "stroop-trial-1-unrelated-25", "trial_type": "html-keyboard-response", "trial_index": 102, "time_elapsed": 330843, "internal_node_id": "0.0-6.0-7.0"}}, {"uniqueid": "w43304863:a71196014", "current_trial": 103, "dateTime": 1664368572749, "trialdata": {"rt": 691, "stimulus": "<p id='stroop-text' class='stroop-green'>BLUE</p>", "response": "g", "stimulus-type": "incongruent", "word": "blue", "color": "green", "correct_response": "g", "trial_id": "stroop-trial-1-incongruent-8", "trial_type": "html-keyboard-response", "trial_index": 103, "time_elapsed": 332039, "internal_node_id": "0.0-6.0-8.0"}}, {"uniqueid": "w43304863:a71196014", "current_trial": 104, "dateTime": 1664368573718, "trialdata": {"rt": 464, "stimulus": "<p id='stroop-text' class='stroop-green'>YELLOW</p>", "response": "g", "stimulus-type": "incongruent", "word": "yellow", "color": "green", "correct_response": "g", "trial_id": "stroop-trial-1-incongruent-25", "trial_type": "html-keyboard-response", "trial_index": 104, "time_elapsed": 333008, "internal_node_id": "0.0-6.0-9.0"}}, {"uniqueid": "w43304863:a71196014", "current_trial": 105, "dateTime": 1664368575202, "trialdata": {"rt": 976, "stimulus": "<p id='stroop-text' class='stroop-blue'>GREEN</p>", "response": "b", "stimulus-type": "incongruent", "word": "green", "color": "blue", "correct_response": "b", "trial_id": "stroop-trial-1-incongruent-28", "trial_type": "html-keyboard-response", "trial_index": 105, "time_elapsed": 334491, "internal_node_id": "0.0-6.0-10.0"}}, {"uniqueid": "w43304863:a71196014", "current_trial": 106, "dateTime": 1664368577696, "trialdata": {"rt": 1988, "stimulus": "<p id='stroop-text' class='stroop-green'>CHAIR</p>", "response": "g", "stimulus-type": "unrelated", "word": "CHAIR", "color": "green", "correct_response": "g", "trial_id": "stroop-trial-1-unrelated-23", "trial_type": "html-keyboard-response", "trial_index": 106, "time_elapsed": 336986, "internal_node_id": "0.0-6.0-11.0"}}, {"uniqueid": "w43304863:a71196014", "current_trial": 107, "dateTime": 1664368580699, "trialdata": {"rt": 2497, "stimulus": "<p id='stroop-text' class='stroop-blue'>RED</p>", "response": "y", "stimulus-type": "incongruent", "word": "red", "color": "blue", "correct_response": "b", "trial_id": "stroop-trial-1-incongruent-17", "trial_type": "html-keyboard-response", "trial_index": 107, "time_elapsed": 339988, "internal_node_id": "0.0-6.0-12.0"}}, {"uniqueid": "w43304863:a71196014", "current_trial": 108, "dateTime": 1664368583397, "trialdata": {"rt": 2194, "stimulus": "<p id='stroop-text' class='stroop-green'>GREEN</p>", "response": "g", "stimulus-type": "congruent", "word": "green", "color": "green", "correct_response": "g", "trial_id": "stroop-trial-1-congruent-25", "trial_type": "html-keyboard-response", "trial_index": 108, "time_elapsed": 342687, "internal_node_id": "0.0-6.0-13.0"}}, {"uniqueid": "w43304863:a71196014", "current_trial": 109, "dateTime": 1664368585315, "trialdata": {"rt": 1408, "stimulus": "<p id='stroop-text' class='stroop-blue'>BLUE</p>", "response": "g", "stimulus-type": "congruent", "word": "blue", "color": "blue", "correct_response": "b", "trial_id": "stroop-trial-1-congruent-22", "trial_type": "html-keyboard-response", "trial_index": 109, "time_elapsed": 344604, "internal_node_id": "0.0-6.0-14.0"}}, {"uniqueid": "w43304863:a71196014", "current_trial": 110, "dateTime": 1664368586729, "trialdata": {"rt": 909, "stimulus": "<p id='stroop-text' class='stroop-green'>YELLOW</p>", "response": "g", "stimulus-type": "incongruent", "word": "yellow", "color": "green", "correct_response": "g", "trial_id": "stroop-trial-1-incongruent-1", "trial_type": "html-keyboard-response", "trial_index": 110, "time_elapsed": 346019, "internal_node_id": "0.0-6.0-15.0"}}, {"uniqueid": "w43304863:a71196014", "current_trial": 111, "dateTime": 1664368587785, "trialdata": {"rt": 550, "stimulus": "<p id='stroop-text' class='stroop-green'>BOTTLE</p>", "response": "g", "stimulus-type": "unrelated", "word": "BOTTLE", "color": "green", "correct_response": "g", "trial_id": "stroop-trial-1-unrelated-5", "trial_type": "html-keyboard-response", "trial_index": 111, "time_elapsed": 347075, "internal_node_id": "0.0-6.0-16.0"}}, {"uniqueid": "w43304863:a71196014", "current_trial": 112, "dateTime": 1664368589714, "trialdata": {"rt": 1421, "stimulus": "<p id='stroop-text' class='stroop-blue'>YELLOW</p>", "response": "b", "stimulus-type": "incongruent", "word": "yellow", "color": "blue", "correct_response": "b", "trial_id": "stroop-trial-1-incongruent-20", "trial_type": "html-keyboard-response", "trial_index": 112, "time_elapsed": 349003, "internal_node_id": "0.0-6.0-17.0"}}, {"uniqueid": "w43304863:a71196014", "current_trial": 113, "dateTime": 1664368591756, "trialdata": {"rt": 1534, "stimulus": "<p id='stroop-text' class='stroop-yellow'>RED</p>", "response": "y", "stimulus-type": "incongruent", "word": "red", "color": "yellow", "correct_response": "y", "trial_id": "stroop-trial-1-incongruent-7", "trial_type": "html-keyboard-response", "trial_index": 113, "time_elapsed": 351045, "internal_node_id": "0.0-6.0-18.0"}}, {"uniqueid": "w43304863:a71196014", "current_trial": 114, "dateTime": 1664368593267, "trialdata": {"rt": 1004, "stimulus": "<p id='stroop-text' class='stroop-red'>DOG</p>", "response": "r", "stimulus-type": "unrelated", "word": "DOG", "color": "red", "correct_response": "r", "trial_id": "stroop-trial-1-unrelated-10", "trial_type": "html-keyboard-response", "trial_index": 114, "time_elapsed": 352556, "internal_node_id": "0.0-6.0-19.0"}}, {"uniqueid": "w43304863:a71196014", "current_trial": 115, "dateTime": 1664368594252, "trialdata": {"rt": 480, "stimulus": "<p id='stroop-text' class='stroop-red'>BLUE</p>", "response": "r", "stimulus-type": "incongruent", "word": "blue", "color": "red", "correct_response": "r", "trial_id": "stroop-trial-1-incongruent-9", "trial_type": "html-keyboard-response", "trial_index": 115, "time_elapsed": 353542, "internal_node_id": "0.0-6.0-20.0"}}, {"uniqueid": "w43304863:a71196014", "current_trial": 116, "dateTime": 1664368596686, "trialdata": {"rt": 1928, "stimulus": "<p id='stroop-text' class='stroop-blue'>BRIDGE</p>", "response": "b", "stimulus-type": "unrelated", "word": "BRIDGE", "color": "blue", "correct_response": "b", "trial_id": "stroop-trial-1-unrelated-18", "trial_type": "html-keyboard-response", "trial_index": 116, "time_elapsed": 355976, "internal_node_id": "0.0-6.0-21.0"}}, {"uniqueid": "w43304863:a71196014", "current_trial": 117, "dateTime": 1664368598297, "trialdata": {"rt": 1102, "stimulus": "<p id='stroop-text' class='stroop-green'>GREEN</p>", "response": "g", "stimulus-type": "congruent", "word": "green", "color": "green", "correct_response": "g", "trial_id": "stroop-trial-1-congruent-23", "trial_type": "html-keyboard-response", "trial_index": 117, "time_elapsed": 357586, "internal_node_id": "0.0-6.0-22.0"}}, {"uniqueid": "w43304863:a71196014", "current_trial": 118, "dateTime": 1664368600333, "trialdata": {"rt": 1530, "stimulus": "<p id='stroop-text' class='stroop-blue'>BLUE</p>", "response": "b", "stimulus-type": "congruent", "word": "blue", "color": "blue", "correct_response": "b", "trial_id": "stroop-trial-1-congruent-30", "trial_type": "html-keyboard-response", "trial_index": 118, "time_elapsed": 359622, "internal_node_id": "0.0-6.0-23.0"}}, {"uniqueid": "w43304863:a71196014", "current_trial": 119, "dateTime": 1664368601899, "trialdata": {"rt": 1059, "stimulus": "<p id='stroop-text' class='stroop-yellow'>STONE</p>", "response": "y", "stimulus-type": "unrelated", "word": "STONE", "color": "yellow", "correct_response": "y", "trial_id": "stroop-trial-1-unrelated-13", "trial_type": "html-keyboard-response", "trial_index": 119, "time_elapsed": 361188, "internal_node_id": "0.0-6.0-24.0"}}, {"uniqueid": "w43304863:a71196014", "current_trial": 120, "dateTime": 1664368603578, "trialdata": {"rt": 1173, "stimulus": "<p id='stroop-text' class='stroop-green'>WINDOW</p>", "response": "g", "stimulus-type": "unrelated", "word": "WINDOW", "color": "green", "correct_response": "g", "trial_id": "stroop-trial-1-unrelated-17", "trial_type": "html-keyboard-response", "trial_index": 120, "time_elapsed": 362867, "internal_node_id": "0.0-6.0-25.0"}}, {"uniqueid": "w43304863:a71196014", "current_trial": 121, "dateTime": 1664368604656, "trialdata": {"rt": 573, "stimulus": "<p id='stroop-text' class='stroop-green'>BLUE</p>", "response": "g", "stimulus-type": "incongruent", "word": "blue", "color": "green", "correct_response": "g", "trial_id": "stroop-trial-1-incongruent-27", "trial_type": "html-keyboard-response", "trial_index": 121, "time_elapsed": 363946, "internal_node_id": "0.0-6.0-26.0"}}, {"uniqueid": "w43304863:a71196014", "current_trial": 122, "dateTime": 1664368605783, "trialdata": {"rt": 620, "stimulus": "<p id='stroop-text' class='stroop-red'>RED</p>", "response": "r", "stimulus-type": "congruent", "word": "red", "color": "red", "correct_response": "r", "trial_id": "stroop-trial-1-congruent-1", "trial_type": "html-keyboard-response", "trial_index": 122, "time_elapsed": 365072, "internal_node_id": "0.0-6.0-27.0"}}, {"uniqueid": "w43304863:a71196014", "current_trial": 123, "dateTime": 1664368609107, "trialdata": {"rt": 2818, "stimulus": "<p id='stroop-text' class='stroop-green'>GREEN</p>", "response": "g", "stimulus-type": "congruent", "word": "green", "color": "green", "correct_response": "g", "trial_id": "stroop-trial-1-congruent-17", "trial_type": "html-keyboard-response", "trial_index": 123, "time_elapsed": 368397, "internal_node_id": "0.0-6.0-28.0"}}, {"uniqueid": "w43304863:a71196014", "current_trial": 124, "dateTime": 1664368611038, "trialdata": {"rt": 1422, "stimulus": "<p id='stroop-text' class='stroop-yellow'>YELLOW</p>", "response": "y", "stimulus-type": "congruent", "word": "yellow", "color": "yellow", "correct_response": "y", "trial_id": "stroop-trial-1-congruent-20", "trial_type": "html-keyboard-response", "trial_index": 124, "time_elapsed": 370327, "internal_node_id": "0.0-6.0-29.0"}}, {"uniqueid": "w43304863:a71196014", "current_trial": 125, "dateTime": 1664368612969, "trialdata": {"rt": 1426, "stimulus": "<p id='stroop-text' class='stroop-green'>YELLOW</p>", "response": "g", "stimulus-type": "incongruent", "word": "yellow", "color": "green", "correct_response": "g", "trial_id": "stroop-trial-1-incongruent-14", "trial_type": "html-keyboard-response", "trial_index": 125, "time_elapsed": 372259, "internal_node_id": "0.0-6.0-30.0"}}, {"uniqueid": "w43304863:a71196014", "current_trial": 126, "dateTime": 1664368614431, "trialdata": {"rt": 955, "stimulus": "<p id='stroop-text' class='stroop-green'>RED</p>", "response": "g", "stimulus-type": "incongruent", "word": "red", "color": "green", "correct_response": "g", "trial_id": "stroop-trial-1-incongruent-30", "trial_type": "html-keyboard-response", "trial_index": 126, "time_elapsed": 373720, "internal_node_id": "0.0-6.0-31.0"}}, {"uniqueid": "w43304863:a71196014", "current_trial": 127, "dateTime": 1664368616354, "trialdata": {"rt": 1417, "stimulus": "<p id='stroop-text' class='stroop-yellow'>RED</p>", "response": "y", "stimulus-type": "incongruent", "word": "red", "color": "yellow", "correct_response": "y", "trial_id": "stroop-trial-1-incongruent-15", "trial_type": "html-keyboard-response", "trial_index": 127, "time_elapsed": 375643, "internal_node_id": "0.0-6.0-32.0"}}, {"uniqueid": "w43304863:a71196014", "current_trial": 128, "dateTime": 1664368617825, "trialdata": {"rt": 963, "stimulus": "<p id='stroop-text' class='stroop-blue'>BLUE</p>", "response": "b", "stimulus-type": "congruent", "word": "blue", "color": "blue", "correct_response": "b", "trial_id": "stroop-trial-1-congruent-6", "trial_type": "html-keyboard-response", "trial_index": 128, "time_elapsed": 377115, "internal_node_id": "0.0-6.0-33.0"}}, {"uniqueid": "w43304863:a71196014", "current_trial": 129, "dateTime": 1664368619229, "trialdata": {"rt": 896, "stimulus": "<p id='stroop-text' class='stroop-blue'>DOG</p>", "response": "b", "stimulus-type": "unrelated", "word": "DOG", "color": "blue", "correct_response": "b", "trial_id": "stroop-trial-1-unrelated-12", "trial_type": "html-keyboard-response", "trial_index": 129, "time_elapsed": 378518, "internal_node_id": "0.0-6.0-34.0"}}, {"uniqueid": "w43304863:a71196014", "current_trial": 130, "dateTime": 1664368620605, "trialdata": {"rt": 870, "stimulus": "<p id='stroop-text' class='stroop-yellow'>GREEN</p>", "response": "y", "stimulus-type": "incongruent", "word": "green", "color": "yellow", "correct_response": "y", "trial_id": "stroop-trial-1-incongruent-12", "trial_type": "html-keyboard-response", "trial_index": 130, "time_elapsed": 379894, "internal_node_id": "0.0-6.0-35.0"}}, {"uniqueid": "w43304863:a71196014", "current_trial": 131, "dateTime": 1664368621769, "trialdata": {"rt": 656, "stimulus": "<p id='stroop-text' class='stroop-red'>GREEN</p>", "response": "r", "stimulus-type": "incongruent", "word": "green", "color": "red", "correct_response": "r", "trial_id": "stroop-trial-1-incongruent-11", "trial_type": "html-keyboard-response", "trial_index": 131, "time_elapsed": 381059, "internal_node_id": "0.0-6.0-36.0"}}, {"uniqueid": "w43304863:a71196014", "current_trial": 132, "dateTime": 1664368623181, "trialdata": {"rt": 906, "stimulus": "<p id='stroop-text' class='stroop-yellow'>WINDOW</p>", "response": "y", "stimulus-type": "unrelated", "word": "WINDOW", "color": "yellow", "correct_response": "y", "trial_id": "stroop-trial-1-unrelated-27", "trial_type": "html-keyboard-response", "trial_index": 132, "time_elapsed": 382471, "internal_node_id": "0.0-6.0-37.0"}}, {"uniqueid": "w43304863:a71196014", "current_trial": 133, "dateTime": 1664368624227, "trialdata": {"rt": 540, "stimulus": "<p id='stroop-text' class='stroop-red'>RED</p>", "response": "r", "stimulus-type": "congruent", "word": "red", "color": "red", "correct_response": "r", "trial_id": "stroop-trial-1-congruent-26", "trial_type": "html-keyboard-response", "trial_index": 133, "time_elapsed": 383516, "internal_node_id": "0.0-6.0-38.0"}}, {"uniqueid": "w43304863:a71196014", "current_trial": 134, "dateTime": 1664368626461, "trialdata": {"rt": 1727, "stimulus": "<p id='stroop-text' class='stroop-blue'>GREEN</p>", "response": "y", "stimulus-type": "incongruent", "word": "green", "color": "blue", "correct_response": "b", "trial_id": "stroop-trial-1-incongruent-21", "trial_type": "html-keyboard-response", "trial_index": 134, "time_elapsed": 385750, "internal_node_id": "0.0-6.0-39.0"}}, {"uniqueid": "w43304863:a71196014", "current_trial": 135, "dateTime": 1664368628429, "trialdata": {"rt": 1463, "stimulus": "<p id='stroop-text' class='stroop-yellow'>DOG</p>", "response": "y", "stimulus-type": "unrelated", "word": "DOG", "color": "yellow", "correct_response": "y", "trial_id": "stroop-trial-1-unrelated-21", "trial_type": "html-keyboard-response", "trial_index": 135, "time_elapsed": 387719, "internal_node_id": "0.0-6.0-40.0"}}, {"uniqueid": "w43304863:a71196014", "current_trial": 136, "dateTime": 1664368629787, "trialdata": {"rt": 852, "stimulus": "<p id='stroop-text' class='stroop-blue'>BLUE</p>", "response": "b", "stimulus-type": "congruent", "word": "blue", "color": "blue", "correct_response": "b", "trial_id": "stroop-trial-1-congruent-28", "trial_type": "html-keyboard-response", "trial_index": 136, "time_elapsed": 389076, "internal_node_id": "0.0-6.0-41.0"}}, {"uniqueid": "w43304863:a71196014", "current_trial": 137, "dateTime": 1664368631566, "trialdata": {"rt": 1271, "stimulus": "<p id='stroop-text' class='stroop-green'>GREEN</p>", "response": "g", "stimulus-type": "congruent", "word": "green", "color": "green", "correct_response": "g", "trial_id": "stroop-trial-1-congruent-2", "trial_type": "html-keyboard-response", "trial_index": 137, "time_elapsed": 390855, "internal_node_id": "0.0-6.0-42.0"}}, {"uniqueid": "w43304863:a71196014", "current_trial": 138, "dateTime": 1664368632696, "trialdata": {"rt": 619, "stimulus": "<p id='stroop-text' class='stroop-red'>RED</p>", "response": "r", "stimulus-type": "congruent", "word": "red", "color": "red", "correct_response": "r", "trial_id": "stroop-trial-1-congruent-19", "trial_type": "html-keyboard-response", "trial_index": 138, "time_elapsed": 391986, "internal_node_id": "0.0-6.0-43.0"}}, {"uniqueid": "w43304863:a71196014", "current_trial": 139, "dateTime": 1664368633844, "trialdata": {"rt": 642, "stimulus": "<p id='stroop-text' class='stroop-red'>RED</p>", "response": "r", "stimulus-type": "congruent", "word": "red", "color": "red", "correct_response": "r", "trial_id": "stroop-trial-1-congruent-10", "trial_type": "html-keyboard-response", "trial_index": 139, "time_elapsed": 393134, "internal_node_id": "0.0-6.0-44.0"}}, {"uniqueid": "w43304863:a71196014", "current_trial": 140, "dateTime": 1664368635804, "trialdata": {"rt": 1453, "stimulus": "<p id='stroop-text' class='stroop-green'>YELLOW</p>", "response": "g", "stimulus-type": "incongruent", "word": "yellow", "color": "green", "correct_response": "g", "trial_id": "stroop-trial-1-incongruent-4", "trial_type": "html-keyboard-response", "trial_index": 140, "time_elapsed": 395093, "internal_node_id": "0.0-6.0-45.0"}}, {"uniqueid": "w43304863:a71196014", "current_trial": 141, "dateTime": 1664368637556, "trialdata": {"rt": 1244, "stimulus": "<p id='stroop-text' class='stroop-yellow'>BLUE</p>", "response": "y", "stimulus-type": "incongruent", "word": "blue", "color": "yellow", "correct_response": "y", "trial_id": "stroop-trial-1-incongruent-5", "trial_type": "html-keyboard-response", "trial_index": 141, "time_elapsed": 396845, "internal_node_id": "0.0-6.0-46.0"}}, {"uniqueid": "w43304863:a71196014", "current_trial": 142, "dateTime": 1664368639087, "trialdata": {"rt": 1025, "stimulus": "<p id='stroop-text' class='stroop-green'>GREEN</p>", "response": "g", "stimulus-type": "congruent", "word": "green", "color": "green", "correct_response": "g", "trial_id": "stroop-trial-1-congruent-5", "trial_type": "html-keyboard-response", "trial_index": 142, "time_elapsed": 398376, "internal_node_id": "0.0-6.0-47.0"}}, {"uniqueid": "w43304863:a71196014", "current_trial": 143, "dateTime": 1664368640358, "trialdata": {"rt": 764, "stimulus": "<p id='stroop-text' class='stroop-green'>DOG</p>", "response": "g", "stimulus-type": "unrelated", "word": "DOG", "color": "green", "correct_response": "g", "trial_id": "stroop-trial-1-unrelated-1", "trial_type": "html-keyboard-response", "trial_index": 143, "time_elapsed": 399647, "internal_node_id": "0.0-6.0-48.0"}}, {"uniqueid": "w43304863:a71196014", "current_trial": 144, "dateTime": 1664368641639, "trialdata": {"rt": 773, "stimulus": "<p id='stroop-text' class='stroop-red'>BLUE</p>", "response": "r", "stimulus-type": "incongruent", "word": "blue", "color": "red", "correct_response": "r", "trial_id": "stroop-trial-1-incongruent-29", "trial_type": "html-keyboard-response", "trial_index": 144, "time_elapsed": 400928, "internal_node_id": "0.0-6.0-49.0"}}, {"uniqueid": "w43304863:a71196014", "current_trial": 145, "dateTime": 1664368642831, "trialdata": {"rt": 681, "stimulus": "<p id='stroop-text' class='stroop-green'>GREEN</p>", "response": "g", "stimulus-type": "congruent", "word": "green", "color": "green", "correct_response": "g", "trial_id": "stroop-trial-1-congruent-14", "trial_type": "html-keyboard-response", "trial_index": 145, "time_elapsed": 402121, "internal_node_id": "0.0-6.0-50.0"}}, {"uniqueid": "w43304863:a71196014", "current_trial": 146, "dateTime": 1664368644597, "trialdata": {"rt": 1257, "stimulus": "<p id='stroop-text' class='stroop-yellow'>STONE</p>", "response": "y", "stimulus-type": "unrelated", "word": "STONE", "color": "yellow", "correct_response": "y", "trial_id": "stroop-trial-1-unrelated-9", "trial_type": "html-keyboard-response", "trial_index": 146, "time_elapsed": 403887, "internal_node_id": "0.0-6.0-51.0"}}, {"uniqueid": "w43304863:a71196014", "current_trial": 147, "dateTime": 1664368646010, "trialdata": {"rt": 904, "stimulus": "<p id='stroop-text' class='stroop-green'>GREEN</p>", "response": "g", "stimulus-type": "congruent", "word": "green", "color": "green", "correct_response": "g", "trial_id": "stroop-trial-1-congruent-4", "trial_type": "html-keyboard-response", "trial_index": 147, "time_elapsed": 405300, "internal_node_id": "0.0-6.0-52.0"}}, {"uniqueid": "w43304863:a71196014", "current_trial": 148, "dateTime": 1664368647063, "trialdata": {"rt": 544, "stimulus": "<p id='stroop-text' class='stroop-green'>DOG</p>", "response": "g", "stimulus-type": "unrelated", "word": "DOG", "color": "green", "correct_response": "g", "trial_id": "stroop-trial-1-unrelated-6", "trial_type": "html-keyboard-response", "trial_index": 148, "time_elapsed": 406352, "internal_node_id": "0.0-6.0-53.0"}}, {"uniqueid": "w43304863:a71196014", "current_trial": 149, "dateTime": 1664368649826, "trialdata": {"rt": 2257, "stimulus": "<p id='stroop-text' class='stroop-blue'>SHIP</p>", "response": "b", "stimulus-type": "unrelated", "word": "SHIP", "color": "blue", "correct_response": "b", "trial_id": "stroop-trial-1-unrelated-11", "trial_type": "html-keyboard-response", "trial_index": 149, "time_elapsed": 409116, "internal_node_id": "0.0-6.0-54.0"}}, {"uniqueid": "w43304863:a71196014", "current_trial": 150, "dateTime": 1664368650889, "trialdata": {"rt": 554, "stimulus": "<p id='stroop-text' class='stroop-blue'>BLUE</p>", "response": "b", "stimulus-type": "congruent", "word": "blue", "color": "blue", "correct_response": "b", "trial_id": "stroop-trial-1-congruent-29", "trial_type": "html-keyboard-response", "trial_index": 150, "time_elapsed": 410178, "internal_node_id": "0.0-6.0-55.0"}}, {"uniqueid": "w43304863:a71196014", "current_trial": 151, "dateTime": 1664368651902, "trialdata": {"rt": 508, "stimulus": "<p id='stroop-text' class='stroop-blue'>BLUE</p>", "response": "b", "stimulus-type": "congruent", "word": "blue", "color": "blue", "correct_response": "b", "trial_id": "stroop-trial-1-congruent-27", "trial_type": "html-keyboard-response", "trial_index": 151, "time_elapsed": 411192, "internal_node_id": "0.0-6.0-56.0"}}, {"uniqueid": "w43304863:a71196014", "current_trial": 152, "dateTime": 1664368653052, "trialdata": {"rt": 644, "stimulus": "<p id='stroop-text' class='stroop-red'>BRIDGE</p>", "response": "r", "stimulus-type": "unrelated", "word": "BRIDGE", "color": "red", "correct_response": "r", "trial_id": "stroop-trial-1-unrelated-30", "trial_type": "html-keyboard-response", "trial_index": 152, "time_elapsed": 412341, "internal_node_id": "0.0-6.0-57.0"}}, {"uniqueid": "w43304863:a71196014", "current_trial": 153, "dateTime": 1664368654700, "trialdata": {"rt": 1143, "stimulus": "<p id='stroop-text' class='stroop-yellow'>CHAIR</p>", "response": "y", "stimulus-type": "unrelated", "word": "CHAIR", "color": "yellow", "correct_response": "y", "trial_id": "stroop-trial-1-unrelated-2", "trial_type": "html-keyboard-response", "trial_index": 153, "time_elapsed": 413990, "internal_node_id": "0.0-6.0-58.0"}}, {"uniqueid": "w43304863:a71196014", "current_trial": 154, "dateTime": 1664368657235, "trialdata": {"rt": 2031, "stimulus": "<p id='stroop-text' class='stroop-blue'>MONKEY</p>", "response": "b", "stimulus-type": "unrelated", "word": "MONKEY", "color": "blue", "correct_response": "b", "trial_id": "stroop-trial-1-unrelated-3", "trial_type": "html-keyboard-response", "trial_index": 154, "time_elapsed": 416524, "internal_node_id": "0.0-6.0-59.0"}}, {"uniqueid": "w43304863:a71196014", "current_trial": 155, "dateTime": 1664368659726, "trialdata": {"rt": 1984, "stimulus": "<p id='stroop-text' class='stroop-green'>MONKEY</p>", "response": "g", "stimulus-type": "unrelated", "word": "MONKEY", "color": "green", "correct_response": "g", "trial_id": "stroop-trial-1-unrelated-22", "trial_type": "html-keyboard-response", "trial_index": 155, "time_elapsed": 419016, "internal_node_id": "0.0-6.0-60.0"}}, {"uniqueid": "w43304863:a71196014", "current_trial": 156, "dateTime": 1664368660740, "trialdata": {"rt": 505, "stimulus": "<p id='stroop-text' class='stroop-green'>WINDOW</p>", "response": "g", "stimulus-type": "unrelated", "word": "WINDOW", "color": "green", "correct_response": "g", "trial_id": "stroop-trial-1-unrelated-16", "trial_type": "html-keyboard-response", "trial_index": 156, "time_elapsed": 420029, "internal_node_id": "0.0-6.0-61.0"}}, {"uniqueid": "w43304863:a71196014", "current_trial": 157, "dateTime": 1664368662484, "trialdata": {"rt": 1238, "stimulus": "<p id='stroop-text' class='stroop-blue'>GREEN</p>", "response": "b", "stimulus-type": "incongruent", "word": "green", "color": "blue", "correct_response": "b", "trial_id": "stroop-trial-1-incongruent-18", "trial_type": "html-keyboard-response", "trial_index": 157, "time_elapsed": 421774, "internal_node_id": "0.0-6.0-62.0"}}, {"uniqueid": "w43304863:a71196014", "current_trial": 158, "dateTime": 1664368663605, "trialdata": {"rt": 613, "stimulus": "<p id='stroop-text' class='stroop-red'>RED</p>", "response": "r", "stimulus-type": "congruent", "word": "red", "color": "red", "correct_response": "r", "trial_id": "stroop-trial-1-congruent-9", "trial_type": "html-keyboard-response", "trial_index": 158, "time_elapsed": 422894, "internal_node_id": "0.0-6.0-63.0"}}, {"uniqueid": "w43304863:a71196014", "current_trial": 159, "dateTime": 1664368665018, "trialdata": {"rt": 905, "stimulus": "<p id='stroop-text' class='stroop-red'>YELLOW</p>", "response": "r", "stimulus-type": "incongruent", "word": "yellow", "color": "red", "correct_response": "r", "trial_id": "stroop-trial-1-incongruent-19", "trial_type": "html-keyboard-response", "trial_index": 159, "time_elapsed": 424308, "internal_node_id": "0.0-6.0-64.0"}}, {"uniqueid": "w43304863:a71196014", "current_trial": 160, "dateTime": 1664368668207, "trialdata": {"rt": 2684, "stimulus": "<p id='stroop-text' class='stroop-blue'>BOAT</p>", "response": "b", "stimulus-type": "unrelated", "word": "BOAT", "color": "blue", "correct_response": "b", "trial_id": "stroop-trial-1-unrelated-26", "trial_type": "html-keyboard-response", "trial_index": 160, "time_elapsed": 427496, "internal_node_id": "0.0-6.0-65.0"}}, {"uniqueid": "w43304863:a71196014", "current_trial": 161, "dateTime": 1664368670316, "trialdata": {"rt": 1604, "stimulus": "<p id='stroop-text' class='stroop-green'>GREEN</p>", "response": "g", "stimulus-type": "congruent", "word": "green", "color": "green", "correct_response": "g", "trial_id": "stroop-trial-1-congruent-16", "trial_type": "html-keyboard-response", "trial_index": 161, "time_elapsed": 429606, "internal_node_id": "0.0-6.0-66.0"}}, {"uniqueid": "w43304863:a71196014", "current_trial": 162, "dateTime": 1664368671594, "trialdata": {"rt": 772, "stimulus": "<p id='stroop-text' class='stroop-red'>FORK</p>", "response": "r", "stimulus-type": "unrelated", "word": "FORK", "color": "red", "correct_response": "r", "trial_id": "stroop-trial-1-unrelated-4", "trial_type": "html-keyboard-response", "trial_index": 162, "time_elapsed": 430883, "internal_node_id": "0.0-6.0-67.0"}}, {"uniqueid": "w43304863:a71196014", "current_trial": 163, "dateTime": 1664368672535, "trialdata": {"rt": 434, "stimulus": "<p id='stroop-text' class='stroop-red'>RED</p>", "response": "r", "stimulus-type": "congruent", "word": "red", "color": "red", "correct_response": "r", "trial_id": "stroop-trial-1-congruent-15", "trial_type": "html-keyboard-response", "trial_index": 163, "time_elapsed": 431824, "internal_node_id": "0.0-6.0-68.0"}}, {"uniqueid": "w43304863:a71196014", "current_trial": 164, "dateTime": 1664368674260, "trialdata": {"rt": 1218, "stimulus": "<p id='stroop-text' class='stroop-yellow'>DOG</p>", "response": "y", "stimulus-type": "unrelated", "word": "DOG", "color": "yellow", "correct_response": "y", "trial_id": "stroop-trial-1-unrelated-28", "trial_type": "html-keyboard-response", "trial_index": 164, "time_elapsed": 433549, "internal_node_id": "0.0-6.0-69.0"}}, {"uniqueid": "w43304863:a71196014", "current_trial": 165, "dateTime": 1664368676164, "trialdata": {"rt": 1397, "stimulus": "<p id='stroop-text' class='stroop-red'>BLUE</p>", "response": "r", "stimulus-type": "incongruent", "word": "blue", "color": "red", "correct_response": "r", "trial_id": "stroop-trial-1-incongruent-6", "trial_type": "html-keyboard-response", "trial_index": 165, "time_elapsed": 435454, "internal_node_id": "0.0-6.0-70.0"}}, {"uniqueid": "w43304863:a71196014", "current_trial": 166, "dateTime": 1664368679386, "trialdata": {"rt": 2715, "stimulus": "<p id='stroop-text' class='stroop-green'>BLUE</p>", "response": "g", "stimulus-type": "incongruent", "word": "blue", "color": "green", "correct_response": "g", "trial_id": "stroop-trial-1-incongruent-16", "trial_type": "html-keyboard-response", "trial_index": 166, "time_elapsed": 438676, "internal_node_id": "0.0-6.0-71.0"}}, {"uniqueid": "w43304863:a71196014", "current_trial": 167, "dateTime": 1664368680849, "trialdata": {"rt": 955, "stimulus": "<p id='stroop-text' class='stroop-yellow'>RED</p>", "response": "y", "stimulus-type": "incongruent", "word": "red", "color": "yellow", "correct_response": "y", "trial_id": "stroop-trial-1-incongruent-2", "trial_type": "html-keyboard-response", "trial_index": 167, "time_elapsed": 440138, "internal_node_id": "0.0-6.0-72.0"}}, {"uniqueid": "w43304863:a71196014", "current_trial": 168, "dateTime": 1664368682105, "trialdata": {"rt": 750, "stimulus": "<p id='stroop-text' class='stroop-blue'>BLUE</p>", "response": "b", "stimulus-type": "congruent", "word": "blue", "color": "blue", "correct_response": "b", "trial_id": "stroop-trial-1-congruent-8", "trial_type": "html-keyboard-response", "trial_index": 168, "time_elapsed": 441395, "internal_node_id": "0.0-6.0-73.0"}}, {"uniqueid": "w43304863:a71196014", "current_trial": 169, "dateTime": 1664368683548, "trialdata": {"rt": 936, "stimulus": "<p id='stroop-text' class='stroop-blue'>CHAIR</p>", "response": "b", "stimulus-type": "unrelated", "word": "CHAIR", "color": "blue", "correct_response": "b", "trial_id": "stroop-trial-1-unrelated-15", "trial_type": "html-keyboard-response", "trial_index": 169, "time_elapsed": 442838, "internal_node_id": "0.0-6.0-74.0"}}, {"uniqueid": "w43304863:a71196014", "current_trial": 170, "dateTime": 1664368684590, "trialdata": {"rt": 534, "stimulus": "<p id='stroop-text' class='stroop-blue'>DOG</p>", "response": "b", "stimulus-type": "unrelated", "word": "DOG", "color": "blue", "correct_response": "b", "trial_id": "stroop-trial-1-unrelated-24", "trial_type": "html-keyboard-response", "trial_index": 170, "time_elapsed": 443879, "internal_node_id": "0.0-6.0-75.0"}}, {"uniqueid": "w43304863:a71196014", "current_trial": 171, "dateTime": 1664368685687, "trialdata": {"rt": 581, "stimulus": "<p id='stroop-text' class='stroop-red'>BRAIN</p>", "response": "r", "stimulus-type": "unrelated", "word": "BRAIN", "color": "red", "correct_response": "r", "trial_id": "stroop-trial-1-unrelated-20", "trial_type": "html-keyboard-response", "trial_index": 171, "time_elapsed": 444976, "internal_node_id": "0.0-6.0-76.0"}}, {"uniqueid": "w43304863:a71196014", "current_trial": 172, "dateTime": 1664368687079, "trialdata": {"rt": 885, "stimulus": "<p id='stroop-text' class='stroop-yellow'>BOAT</p>", "response": "y", "stimulus-type": "unrelated", "word": "BOAT", "color": "yellow", "correct_response": "y", "trial_id": "stroop-trial-1-unrelated-19", "trial_type": "html-keyboard-response", "trial_index": 172, "time_elapsed": 446369, "internal_node_id": "0.0-6.0-77.0"}}, {"uniqueid": "w43304863:a71196014", "current_trial": 173, "dateTime": 1664368688168, "trialdata": {"rt": 581, "stimulus": "<p id='stroop-text' class='stroop-yellow'>BRAIN</p>", "response": "y", "stimulus-type": "unrelated", "word": "BRAIN", "color": "yellow", "correct_response": "y", "trial_id": "stroop-trial-1-unrelated-7", "trial_type": "html-keyboard-response", "trial_index": 173, "time_elapsed": 447457, "internal_node_id": "0.0-6.0-78.0"}}, {"uniqueid": "w43304863:a71196014", "current_trial": 174, "dateTime": 1664368690073, "trialdata": {"rt": 1396, "stimulus": "<p id='stroop-text' class='stroop-green'>BLUE</p>", "response": "g", "stimulus-type": "incongruent", "word": "blue", "color": "green", "correct_response": "g", "trial_id": "stroop-trial-1-incongruent-10", "trial_type": "html-keyboard-response", "trial_index": 174, "time_elapsed": 449362, "internal_node_id": "0.0-6.0-79.0"}}, {"uniqueid": "w43304863:a71196014", "current_trial": 175, "dateTime": 1664368692072, "trialdata": {"rt": 1492, "stimulus": "<p id='stroop-text' class='stroop-green'>BOAT</p>", "response": "g", "stimulus-type": "unrelated", "word": "BOAT", "color": "green", "correct_response": "g", "trial_id": "stroop-trial-1-unrelated-29", "trial_type": "html-keyboard-response", "trial_index": 175, "time_elapsed": 451361, "internal_node_id": "0.0-6.0-80.0"}}, {"uniqueid": "w43304863:a71196014", "current_trial": 176, "dateTime": 1664368693206, "trialdata": {"rt": 626, "stimulus": "<p id='stroop-text' class='stroop-green'>BOTTLE</p>", "response": "g", "stimulus-type": "unrelated", "word": "BOTTLE", "color": "green", "correct_response": "g", "trial_id": "stroop-trial-1-unrelated-8", "trial_type": "html-keyboard-response", "trial_index": 176, "time_elapsed": 452496, "internal_node_id": "0.0-6.0-81.0"}}, {"uniqueid": "w43304863:a71196014", "current_trial": 177, "dateTime": 1664368694265, "trialdata": {"rt": 552, "stimulus": "<p id='stroop-text' class='stroop-red'>RED</p>", "response": "r", "stimulus-type": "congruent", "word": "red", "color": "red", "correct_response": "r", "trial_id": "stroop-trial-1-congruent-7", "trial_type": "html-keyboard-response", "trial_index": 177, "time_elapsed": 453554, "internal_node_id": "0.0-6.0-82.0"}}, {"uniqueid": "w43304863:a71196014", "current_trial": 178, "dateTime": 1664368695408, "trialdata": {"rt": 635, "stimulus": "<p id='stroop-text' class='stroop-green'>GREEN</p>", "response": "g", "stimulus-type": "congruent", "word": "green", "color": "green", "correct_response": "g", "trial_id": "stroop-trial-1-congruent-3", "trial_type": "html-keyboard-response", "trial_index": 178, "time_elapsed": 454698, "internal_node_id": "0.0-6.0-83.0"}}, {"uniqueid": "w43304863:a71196014", "current_trial": 179, "dateTime": 1664368696550, "trialdata": {"rt": 634, "stimulus": "<p id='stroop-text' class='stroop-red'>RED</p>", "response": "r", "stimulus-type": "congruent", "word": "red", "color": "red", "correct_response": "r", "trial_id": "stroop-trial-1-congruent-13", "trial_type": "html-keyboard-response", "trial_index": 179, "time_elapsed": 455839, "internal_node_id": "0.0-6.0-84.0"}}, {"uniqueid": "w43304863:a71196014", "current_trial": 180, "dateTime": 1664368697688, "trialdata": {"rt": 629, "stimulus": "<p id='stroop-text' class='stroop-green'>GREEN</p>", "response": "g", "stimulus-type": "congruent", "word": "green", "color": "green", "correct_response": "g", "trial_id": "stroop-trial-1-congruent-11", "trial_type": "html-keyboard-response", "trial_index": 180, "time_elapsed": 456977, "internal_node_id": "0.0-6.0-85.0"}}, {"uniqueid": "w43304863:a71196014", "current_trial": 181, "dateTime": 1664368699345, "trialdata": {"rt": 1152, "stimulus": "<p id='stroop-text' class='stroop-yellow'>GREEN</p>", "response": "b", "stimulus-type": "incongruent", "word": "green", "color": "yellow", "correct_response": "y", "trial_id": "stroop-trial-1-incongruent-13", "trial_type": "html-keyboard-response", "trial_index": 181, "time_elapsed": 458635, "internal_node_id": "0.0-6.0-86.0"}}, {"uniqueid": "w43304863:a71196014", "current_trial": 182, "dateTime": 1664368701209, "trialdata": {"rt": 1360, "stimulus": "<p id='stroop-text' class='stroop-blue'>BLUE</p>", "response": "b", "stimulus-type": "congruent", "word": "blue", "color": "blue", "correct_response": "b", "trial_id": "stroop-trial-1-congruent-18", "trial_type": "html-keyboard-response", "trial_index": 182, "time_elapsed": 460499, "internal_node_id": "0.0-6.0-87.0"}}, {"uniqueid": "w43304863:a71196014", "current_trial": 183, "dateTime": 1664368702285, "trialdata": {"rt": 568, "stimulus": "<p id='stroop-text' class='stroop-red'>GREEN</p>", "response": "r", "stimulus-type": "incongruent", "word": "green", "color": "red", "correct_response": "r", "trial_id": "stroop-trial-1-incongruent-26", "trial_type": "html-keyboard-response", "trial_index": 183, "time_elapsed": 461575, "internal_node_id": "0.0-6.0-88.0"}}, {"uniqueid": "w43304863:a71196014", "current_trial": 184, "dateTime": 1664368703267, "trialdata": {"rt": 474, "stimulus": "<p id='stroop-text' class='stroop-red'>RED</p>", "response": "r", "stimulus-type": "congruent", "word": "red", "color": "red", "correct_response": "r", "trial_id": "stroop-trial-1-congruent-12", "trial_type": "html-keyboard-response", "trial_index": 184, "time_elapsed": 462556, "internal_node_id": "0.0-6.0-89.0"}}, {"uniqueid": "w43304863:a71196014", "current_trial": 185, "dateTime": 1664368721791, "trialdata": {"rt": 18011, "stimulus": "  <h1> End of block! </h1>\n\n  You have reached the end of the block 2/5. If you need a short break, feel free to take one now before moving on.\n\n  <br><br>\n  In the next block, you will complete another 90 rounds of this game.\n\n  <br><br>\n  <div style='text-align: center;'>Press <code>space</code> to begin.</div>\n  <br><br>\n<div style='text-align: center;'>(If the experiment doesn't continue, try clicking on the text and then pressing <code>space</code>.)</div>", "response": " ", "trial_id": "stroop_1_ready_3", "trial_type": "html-keyboard-response", "trial_index": 185, "time_elapsed": 481080, "internal_node_id": "0.0-7.0"}}, {"uniqueid": "w43304863:a71196014", "current_trial": 186, "dateTime": 1664368722807, "trialdata": {"rt": 1006, "stimulus": "<p id='stroop-text' class='stroop-yellow'>YELLOW</p>", "response": "y", "stimulus-type": "congruent", "word": "yellow", "color": "yellow", "correct_response": "y", "trial_id": "stroop-trial-1-congruent-23", "trial_type": "html-keyboard-response", "trial_index": 186, "time_elapsed": 482097, "internal_node_id": "0.0-8.0-0.0"}}, {"uniqueid": "w43304863:a71196014", "current_trial": 187, "dateTime": 1664368725862, "trialdata": {"rt": 2548, "stimulus": "<p id='stroop-text' class='stroop-green'>BRIDGE</p>", "response": "g", "stimulus-type": "unrelated", "word": "BRIDGE", "color": "green", "correct_response": "g", "trial_id": "stroop-trial-1-unrelated-4", "trial_type": "html-keyboard-response", "trial_index": 187, "time_elapsed": 485152, "internal_node_id": "0.0-8.0-1.0"}}, {"uniqueid": "w43304863:a71196014", "current_trial": 188, "dateTime": 1664368727318, "trialdata": {"rt": 952, "stimulus": "<p id='stroop-text' class='stroop-blue'>BLUE</p>", "response": "b", "stimulus-type": "congruent", "word": "blue", "color": "blue", "correct_response": "b", "trial_id": "stroop-trial-1-congruent-12", "trial_type": "html-keyboard-response", "trial_index": 188, "time_elapsed": 486608, "internal_node_id": "0.0-8.0-2.0"}}, {"uniqueid": "w43304863:a71196014", "current_trial": 189, "dateTime": 1664368728700, "trialdata": {"rt": 875, "stimulus": "<p id='stroop-text' class='stroop-green'>WINDOW</p>", "response": "g", "stimulus-type": "unrelated", "word": "WINDOW", "color": "green", "correct_response": "g", "trial_id": "stroop-trial-1-unrelated-16", "trial_type": "html-keyboard-response", "trial_index": 189, "time_elapsed": 487990, "internal_node_id": "0.0-8.0-3.0"}}, {"uniqueid": "w43304863:a71196014", "current_trial": 190, "dateTime": 1664368729740, "trialdata": {"rt": 532, "stimulus": "<p id='stroop-text' class='stroop-red'>RED</p>", "response": "r", "stimulus-type": "congruent", "word": "red", "color": "red", "correct_response": "r", "trial_id": "stroop-trial-1-congruent-18", "trial_type": "html-keyboard-response", "trial_index": 190, "time_elapsed": 489030, "internal_node_id": "0.0-8.0-4.0"}}, {"uniqueid": "w43304863:a71196014", "current_trial": 191, "dateTime": 1664368731414, "trialdata": {"rt": 1165, "stimulus": "<p id='stroop-text' class='stroop-green'>BLUE</p>", "response": "g", "stimulus-type": "incongruent", "word": "blue", "color": "green", "correct_response": "g", "trial_id": "stroop-trial-1-incongruent-27", "trial_type": "html-keyboard-response", "trial_index": 191, "time_elapsed": 490704, "internal_node_id": "0.0-8.0-5.0"}}, {"uniqueid": "w43304863:a71196014", "current_trial": 192, "dateTime": 1664368732866, "trialdata": {"rt": 944, "stimulus": "<p id='stroop-text' class='stroop-yellow'>YELLOW</p>", "response": "y", "stimulus-type": "congruent", "word": "yellow", "color": "yellow", "correct_response": "y", "trial_id": "stroop-trial-1-congruent-19", "trial_type": "html-keyboard-response", "trial_index": 192, "time_elapsed": 492155, "internal_node_id": "0.0-8.0-6.0"}}, {"uniqueid": "w43304863:a71196014", "current_trial": 193, "dateTime": 1664368733959, "trialdata": {"rt": 584, "stimulus": "<p id='stroop-text' class='stroop-red'>FORK</p>", "response": "r", "stimulus-type": "unrelated", "word": "FORK", "color": "red", "correct_response": "r", "trial_id": "stroop-trial-1-unrelated-18", "trial_type": "html-keyboard-response", "trial_index": 193, "time_elapsed": 493249, "internal_node_id": "0.0-8.0-7.0"}}, {"uniqueid": "w43304863:a71196014", "current_trial": 194, "dateTime": 1664368734966, "trialdata": {"rt": 500, "stimulus": "<p id='stroop-text' class='stroop-red'>RED</p>", "response": "r", "stimulus-type": "congruent", "word": "red", "color": "red", "correct_response": "r", "trial_id": "stroop-trial-1-congruent-26", "trial_type": "html-keyboard-response", "trial_index": 194, "time_elapsed": 494255, "internal_node_id": "0.0-8.0-8.0"}}, {"uniqueid": "w43304863:a71196014", "current_trial": 195, "dateTime": 1664368736035, "trialdata": {"rt": 563, "stimulus": "<p id='stroop-text' class='stroop-blue'>BLUE</p>", "response": "b", "stimulus-type": "congruent", "word": "blue", "color": "blue", "correct_response": "b", "trial_id": "stroop-trial-1-congruent-13", "trial_type": "html-keyboard-response", "trial_index": 195, "time_elapsed": 495325, "internal_node_id": "0.0-8.0-9.0"}}, {"uniqueid": "w43304863:a71196014", "current_trial": 196, "dateTime": 1664368737683, "trialdata": {"rt": 1134, "stimulus": "<p id='stroop-text' class='stroop-yellow'>STONE</p>", "response": "y", "stimulus-type": "unrelated", "word": "STONE", "color": "yellow", "correct_response": "y", "trial_id": "stroop-trial-1-unrelated-21", "trial_type": "html-keyboard-response", "trial_index": 196, "time_elapsed": 496972, "internal_node_id": "0.0-8.0-10.0"}}, {"uniqueid": "w43304863:a71196014", "current_trial": 197, "dateTime": 1664368739132, "trialdata": {"rt": 942, "stimulus": "<p id='stroop-text' class='stroop-green'>WINDOW</p>", "response": "g", "stimulus-type": "unrelated", "word": "WINDOW", "color": "green", "correct_response": "g", "trial_id": "stroop-trial-1-unrelated-23", "trial_type": "html-keyboard-response", "trial_index": 197, "time_elapsed": 498421, "internal_node_id": "0.0-8.0-11.0"}}, {"uniqueid": "w43304863:a71196014", "current_trial": 198, "dateTime": 1664368741179, "trialdata": {"rt": 1537, "stimulus": "<p id='stroop-text' class='stroop-blue'>BRIDGE</p>", "response": "b", "stimulus-type": "unrelated", "word": "BRIDGE", "color": "blue", "correct_response": "b", "trial_id": "stroop-trial-1-unrelated-30", "trial_type": "html-keyboard-response", "trial_index": 198, "time_elapsed": 500468, "internal_node_id": "0.0-8.0-12.0"}}, {"uniqueid": "w43304863:a71196014", "current_trial": 199, "dateTime": 1664368742250, "trialdata": {"rt": 564, "stimulus": "<p id='stroop-text' class='stroop-green'>BOAT</p>", "response": "b", "stimulus-type": "unrelated", "word": "BOAT", "color": "green", "correct_response": "g", "trial_id": "stroop-trial-1-unrelated-10", "trial_type": "html-keyboard-response", "trial_index": 199, "time_elapsed": 501539, "internal_node_id": "0.0-8.0-13.0"}}, {"uniqueid": "w43304863:a71196014", "current_trial": 200, "dateTime": 1664368746641, "trialdata": {"rt": 3883, "stimulus": "<p id='stroop-text' class='stroop-blue'>SHIP</p>", "response": "b", "stimulus-type": "unrelated", "word": "SHIP", "color": "blue", "correct_response": "b", "trial_id": "stroop-trial-1-unrelated-13", "trial_type": "html-keyboard-response", "trial_index": 200, "time_elapsed": 505930, "internal_node_id": "0.0-8.0-14.0"}}, {"uniqueid": "w43304863:a71196014", "current_trial": 201, "dateTime": 1664368749286, "trialdata": {"rt": 2135, "stimulus": "<p id='stroop-text' class='stroop-yellow'>GREEN</p>", "response": "y", "stimulus-type": "incongruent", "word": "green", "color": "yellow", "correct_response": "y", "trial_id": "stroop-trial-1-incongruent-25", "trial_type": "html-keyboard-response", "trial_index": 201, "time_elapsed": 508575, "internal_node_id": "0.0-8.0-15.0"}}, {"uniqueid": "w43304863:a71196014", "current_trial": 202, "dateTime": 1664368750539, "trialdata": {"rt": 746, "stimulus": "<p id='stroop-text' class='stroop-red'>GREEN</p>", "response": "r", "stimulus-type": "incongruent", "word": "green", "color": "red", "correct_response": "r", "trial_id": "stroop-trial-1-incongruent-30", "trial_type": "html-keyboard-response", "trial_index": 202, "time_elapsed": 509828, "internal_node_id": "0.0-8.0-16.0"}}, {"uniqueid": "w43304863:a71196014", "current_trial": 203, "dateTime": 1664368752587, "trialdata": {"rt": 1537, "stimulus": "<p id='stroop-text' class='stroop-blue'>BLUE</p>", "response": "b", "stimulus-type": "congruent", "word": "blue", "color": "blue", "correct_response": "b", "trial_id": "stroop-trial-1-congruent-3", "trial_type": "html-keyboard-response", "trial_index": 203, "time_elapsed": 511876, "internal_node_id": "0.0-8.0-17.0"}}, {"uniqueid": "w43304863:a71196014", "current_trial": 204, "dateTime": 1664368754225, "trialdata": {"rt": 1131, "stimulus": "<p id='stroop-text' class='stroop-yellow'>YELLOW</p>", "response": "y", "stimulus-type": "congruent", "word": "yellow", "color": "yellow", "correct_response": "y", "trial_id": "stroop-trial-1-congruent-21", "trial_type": "html-keyboard-response", "trial_index": 204, "time_elapsed": 513514, "internal_node_id": "0.0-8.0-18.0"}}, {"uniqueid": "w43304863:a71196014", "current_trial": 205, "dateTime": 1664368757300, "trialdata": {"rt": 2568, "stimulus": "<p id='stroop-text' class='stroop-red'>YELLOW</p>", "response": "r", "stimulus-type": "incongruent", "word": "yellow", "color": "red", "correct_response": "r", "trial_id": "stroop-trial-1-incongruent-23", "trial_type": "html-keyboard-response", "trial_index": 205, "time_elapsed": 516590, "internal_node_id": "0.0-8.0-19.0"}}, {"uniqueid": "w43304863:a71196014", "current_trial": 206, "dateTime": 1664368758371, "trialdata": {"rt": 563, "stimulus": "<p id='stroop-text' class='stroop-red'>BLUE</p>", "response": "r", "stimulus-type": "incongruent", "word": "blue", "color": "red", "correct_response": "r", "trial_id": "stroop-trial-1-incongruent-1", "trial_type": "html-keyboard-response", "trial_index": 206, "time_elapsed": 517660, "internal_node_id": "0.0-8.0-20.0"}}, {"uniqueid": "w43304863:a71196014", "current_trial": 207, "dateTime": 1664368760774, "trialdata": {"rt": 1897, "stimulus": "<p id='stroop-text' class='stroop-green'>FORK</p>", "response": "g", "stimulus-type": "unrelated", "word": "FORK", "color": "green", "correct_response": "g", "trial_id": "stroop-trial-1-unrelated-1", "trial_type": "html-keyboard-response", "trial_index": 207, "time_elapsed": 520064, "internal_node_id": "0.0-8.0-21.0"}}, {"uniqueid": "w43304863:a71196014", "current_trial": 208, "dateTime": 1664368761857, "trialdata": {"rt": 573, "stimulus": "<p id='stroop-text' class='stroop-green'>GREEN</p>", "response": "g", "stimulus-type": "congruent", "word": "green", "color": "green", "correct_response": "g", "trial_id": "stroop-trial-1-congruent-20", "trial_type": "html-keyboard-response", "trial_index": 208, "time_elapsed": 521146, "internal_node_id": "0.0-8.0-22.0"}}, {"uniqueid": "w43304863:a71196014", "current_trial": 209, "dateTime": 1664368763611, "trialdata": {"rt": 1247, "stimulus": "<p id='stroop-text' class='stroop-yellow'>YELLOW</p>", "response": "y", "stimulus-type": "congruent", "word": "yellow", "color": "yellow", "correct_response": "y", "trial_id": "stroop-trial-1-congruent-15", "trial_type": "html-keyboard-response", "trial_index": 209, "time_elapsed": 522900, "internal_node_id": "0.0-8.0-23.0"}}, {"uniqueid": "w43304863:a71196014", "current_trial": 210, "dateTime": 1664368765984, "trialdata": {"rt": 1866, "stimulus": "<p id='stroop-text' class='stroop-blue'>RED</p>", "response": "b", "stimulus-type": "incongruent", "word": "red", "color": "blue", "correct_response": "b", "trial_id": "stroop-trial-1-incongruent-10", "trial_type": "html-keyboard-response", "trial_index": 210, "time_elapsed": 525273, "internal_node_id": "0.0-8.0-24.0"}}, {"uniqueid": "w43304863:a71196014", "current_trial": 211, "dateTime": 1664368767317, "trialdata": {"rt": 822, "stimulus": "<p id='stroop-text' class='stroop-red'>BLUE</p>", "response": "r", "stimulus-type": "incongruent", "word": "blue", "color": "red", "correct_response": "r", "trial_id": "stroop-trial-1-incongruent-21", "trial_type": "html-keyboard-response", "trial_index": 211, "time_elapsed": 526606, "internal_node_id": "0.0-8.0-25.0"}}, {"uniqueid": "w43304863:a71196014", "current_trial": 212, "dateTime": 1664368768288, "trialdata": {"rt": 463, "stimulus": "<p id='stroop-text' class='stroop-red'>RED</p>", "response": "r", "stimulus-type": "congruent", "word": "red", "color": "red", "correct_response": "r", "trial_id": "stroop-trial-1-congruent-8", "trial_type": "html-keyboard-response", "trial_index": 212, "time_elapsed": 527577, "internal_node_id": "0.0-8.0-26.0"}}, {"uniqueid": "w43304863:a71196014", "current_trial": 213, "dateTime": 1664368769310, "trialdata": {"rt": 509, "stimulus": "<p id='stroop-text' class='stroop-red'>YELLOW</p>", "response": "r", "stimulus-type": "incongruent", "word": "yellow", "color": "red", "correct_response": "r", "trial_id": "stroop-trial-1-incongruent-19", "trial_type": "html-keyboard-response", "trial_index": 213, "time_elapsed": 528599, "internal_node_id": "0.0-8.0-27.0"}}, {"uniqueid": "w43304863:a71196014", "current_trial": 214, "dateTime": 1664368771587, "trialdata": {"rt": 1770, "stimulus": "<p id='stroop-text' class='stroop-yellow'>RED</p>", "response": "y", "stimulus-type": "incongruent", "word": "red", "color": "yellow", "correct_response": "y", "trial_id": "stroop-trial-1-incongruent-2", "trial_type": "html-keyboard-response", "trial_index": 214, "time_elapsed": 530877, "internal_node_id": "0.0-8.0-28.0"}}, {"uniqueid": "w43304863:a71196014", "current_trial": 215, "dateTime": 1664368772934, "trialdata": {"rt": 840, "stimulus": "<p id='stroop-text' class='stroop-blue'>GREEN</p>", "response": "b", "stimulus-type": "incongruent", "word": "green", "color": "blue", "correct_response": "b", "trial_id": "stroop-trial-1-incongruent-14", "trial_type": "html-keyboard-response", "trial_index": 215, "time_elapsed": 532224, "internal_node_id": "0.0-8.0-29.0"}}, {"uniqueid": "w43304863:a71196014", "current_trial": 216, "dateTime": 1664368775041, "trialdata": {"rt": 1599, "stimulus": "<p id='stroop-text' class='stroop-green'>BRAIN</p>", "response": "g", "stimulus-type": "unrelated", "word": "BRAIN", "color": "green", "correct_response": "g", "trial_id": "stroop-trial-1-unrelated-24", "trial_type": "html-keyboard-response", "trial_index": 216, "time_elapsed": 534331, "internal_node_id": "0.0-8.0-30.0"}}, {"uniqueid": "w43304863:a71196014", "current_trial": 217, "dateTime": 1664368776130, "trialdata": {"rt": 581, "stimulus": "<p id='stroop-text' class='stroop-green'>BRIDGE</p>", "response": "g", "stimulus-type": "unrelated", "word": "BRIDGE", "color": "green", "correct_response": "g", "trial_id": "stroop-trial-1-unrelated-12", "trial_type": "html-keyboard-response", "trial_index": 217, "time_elapsed": 535419, "internal_node_id": "0.0-8.0-31.0"}}, {"uniqueid": "w43304863:a71196014", "current_trial": 218, "dateTime": 1664368777237, "trialdata": {"rt": 587, "stimulus": "<p id='stroop-text' class='stroop-red'>RED</p>", "response": "r", "stimulus-type": "congruent", "word": "red", "color": "red", "correct_response": "r", "trial_id": "stroop-trial-1-congruent-7", "trial_type": "html-keyboard-response", "trial_index": 218, "time_elapsed": 536526, "internal_node_id": "0.0-8.0-32.0"}}, {"uniqueid": "w43304863:a71196014", "current_trial": 219, "dateTime": 1664368778872, "trialdata": {"rt": 1130, "stimulus": "<p id='stroop-text' class='stroop-yellow'>FORK</p>", "response": "y", "stimulus-type": "unrelated", "word": "FORK", "color": "yellow", "correct_response": "y", "trial_id": "stroop-trial-1-unrelated-14", "trial_type": "html-keyboard-response", "trial_index": 219, "time_elapsed": 538161, "internal_node_id": "0.0-8.0-33.0"}}, {"uniqueid": "w43304863:a71196014", "current_trial": 220, "dateTime": 1664368780902, "trialdata": {"rt": 1522, "stimulus": "<p id='stroop-text' class='stroop-blue'>GREEN</p>", "response": "b", "stimulus-type": "incongruent", "word": "green", "color": "blue", "correct_response": "b", "trial_id": "stroop-trial-1-incongruent-12", "trial_type": "html-keyboard-response", "trial_index": 220, "time_elapsed": 540191, "internal_node_id": "0.0-8.0-34.0"}}, {"uniqueid": "w43304863:a71196014", "current_trial": 221, "dateTime": 1664368782241, "trialdata": {"rt": 832, "stimulus": "<p id='stroop-text' class='stroop-blue'>BOTTLE</p>", "response": "b", "stimulus-type": "unrelated", "word": "BOTTLE", "color": "blue", "correct_response": "b", "trial_id": "stroop-trial-1-unrelated-15", "trial_type": "html-keyboard-response", "trial_index": 221, "time_elapsed": 541530, "internal_node_id": "0.0-8.0-35.0"}}, {"uniqueid": "w43304863:a71196014", "current_trial": 222, "dateTime": 1664368783364, "trialdata": {"rt": 615, "stimulus": "<p id='stroop-text' class='stroop-red'>RED</p>", "response": "r", "stimulus-type": "congruent", "word": "red", "color": "red", "correct_resp