{"condition": 1, "counterbalance": 0, "assignmentId": "a69615806", "workerId": "w26879138", "hitId": "h74088133", "currenttrial": 143, "bonus": 0, "data": [{"uniqueid": "w26879138:a69615806", "current_trial": 0, "dateTime": 1664555560007, "trialdata": {"success": true, "trial_type": "fullscreen", "trial_index": 0, "time_elapsed": 3581, "internal_node_id": "0.0-0.0"}}, {"uniqueid": "w26879138:a69615806", "current_trial": 1, "dateTime": 1664555611469, "trialdata": {"view_history": [{"page_index": 0, "viewing_time": 51455}], "rt": 51457, "trial_id": "exp_instructions_no_distractor", "trial_type": "instructions", "trial_index": 1, "time_elapsed": 55044, "internal_node_id": "0.0-1.0"}}, {"uniqueid": "w26879138:a69615806", "current_trial": 2, "dateTime": 1664555615612, "trialdata": {"success": true, "trial_type": "fullscreen", "trial_index": 2, "time_elapsed": 59187, "internal_node_id": "0.0-2.0-0.0"}}, {"uniqueid": "w26879138:a69615806", "current_trial": 3, "dateTime": 1664555699514, "trialdata": {"view_history": [{"page_index": 0, "viewing_time": 41423}, {"page_index": 1, "viewing_time": 15577}, {"page_index": 2, "viewing_time": 12223}, {"page_index": 3, "viewing_time": 4449}, {"page_index": 4, "viewing_time": 10231}], "rt": 83903, "trial_id": "mouselab_instructions_1", "trial_type": "instructions", "trial_index": 3, "time_elapsed": 143089, "internal_node_id": "0.0-2.0-1.0"}}, {"uniqueid": "w26879138:a69615806", "current_trial": 4, "dateTime": 1664555715758, "trialdata": {"revealed_states": [], "num_clicks_accrued": [0, 0, 0, 0, 0, 0, 0, 0, 0, 0, 0, 0, 0], "stateRewards": ["", 10, 10, -10, 10, -10, -10, -10, -10, -10, -10, 10, -10], "withholdReward": false, "trial_id": "practice_1", "block": "test", "trialIndex": 0, "score": 11.25, "costs": -0.75, "simulationMode": [null, null, null], "rewards": [10, 10, -10], "path": ["0", "0", "1", "2", "3"], "rt": [8245, 715, 459], "actions": ["up", "up", "right"], "actionTimes": [9425, 10657, 11635], "queries": {"click": {"state": {"target": ["1", "5", "9"], "time": [4533, 6163, 7234]}, "edge": {"target": [], "time": []}}, "mouseover": {"state": {"target": ["5", "1", "0", "5", "0", "9"], "time": [3363, 4012, 4993, 6061, 6526, 6810]}, "edge": {"target": [], "time": []}}, "mouseout": {"state": {"target": ["0", "5", "1", "0", "5", "0", "9", "9"], "time": [3130, 3912, 4878, 5728, 6492, 6642, 7476, 13621]}, "edge": {"target": [], "time": []}}}, "displayed_time": "12.14", "trialTime": 14887, "trial_type": "mouselab-mdp", "trial_index": 4, "time_elapsed": 159333, "internal_node_id": "0.0-2.0-2.0-0.0"}}, {"uniqueid": "w26879138:a69615806", "current_trial": 5, "dateTime": 1664555727127, "trialdata": {"revealed_states": [], "num_clicks_accrued": [0, 0, 0, 0, 0, 0, 0, 0, 0, 0, 0, 0, 0], "stateRewards": ["", -10, 10, 10, -10, 10, -10, 10, 10, -10, 10, -10, 10], "withholdReward": false, "trial_id": "practice_2", "block": "test", "trialIndex": 1, "score": 11.25, "costs": -0.75, "simulationMode": [null, null, null], "rewards": [10, -10, 10], "path": ["0", "0", "5", "6", "7"], "rt": [5067, 354, 359], "actions": ["right", "right", "up"], "actionTimes": [6564, 7428, 8298], "queries": {"click": {"state": {"target": ["1", "9", "5"], "time": [3687, 4779, 5658]}, "edge": {"target": [], "time": []}}, "mouseover": {"state": {"target": ["1", "9", "0", "5"], "time": [2892, 4658, 5142, 5441]}, "edge": {"target": [], "time": []}}, "mouseout": {"state": {"target": ["0", "0", "1", "9", "0", "5"], "time": [1110, 2575, 3909, 5108, 5157, 6106]}, "edge": {"target": [], "time": []}}}, "displayed_time": "8.81", "trialTime": 11298, "trial_type": "mouselab-mdp", "trial_index": 5, "time_elapsed": 170702, "internal_node_id": "0.0-2.0-2.0-1.0"}}, {"uniqueid": "w26879138:a69615806", "current_trial": 6, "dateTime": 1664555765065, "trialdata": {"view_history": [{"page_index": 0, "viewing_time": 21679}, {"page_index": 1, "viewing_time": 10780}, {"page_index": 2, "viewing_time": 5475}], "rt": 37934, "trial_id": "mouselab_instructions_2_scarce", "trial_type": "instructions", "trial_index": 6, "time_elapsed": 208640, "internal_node_id": "0.0-2.0-3.0"}}, {"uniqueid": "w26879138:a69615806", "current_trial": 7, "dateTime": 1664555829941, "trialdata": {"rt": 64872, "response": {"Q0": "$-10 to $10", "Q1": "The cost is always $0.25.", "Q2": "The better I perform the higher my bonus will be.", "Q3": "No, the amount of cash at each node of the web may be different each time.", "Q4": "The values of the nodes walked through from start to finish.", "Q5": "No, the spider might forget to count the money on some rounds."}, "question_order": [0, 1, 2, 3, 4, 5], "correct": {"Q0": "$-48 to $48", "Q1": "The cost is always $0.25.", "Q2": "The better I perform the higher my bonus will be.", "Q3": "No, the amount of cash at each node of the web may be different each time.", "Q4": "The values of the nodes walked through from start to finish.", "Q5": "No, the spider might forget to count the money on some rounds."}, "trial_id": "mouselab_quiz_scarce", "trial_type": "survey-multi-choice", "trial_index": 7, "time_elapsed": 273516, "internal_node_id": "0.0-2.0-4.0"}}, {"uniqueid": "w26879138:a69615806", "current_trial": 8, "dateTime": 1664555837503, "trialdata": {"success": true, "trial_type": "fullscreen", "trial_index": 8, "time_elapsed": 281078, "internal_node_id": "0.0-2.1-0.1"}}, {"uniqueid": "w26879138:a69615806", "current_trial": 9, "dateTime": 1664555915556, "trialdata": {"view_history": [{"page_index": 0, "viewing_time": 9770}, {"page_index": 1, "viewing_time": 6385}, {"page_index": 2, "viewing_time": 2361}, {"page_index": 1, "viewing_time": 1303}, {"page_index": 0, "viewing_time": 9492}, {"page_index": 1, "viewing_time": 10820}, {"page_index": 2, "viewing_time": 5455}, {"page_index": 1, "viewing_time": 3195}, {"page_index": 0, "viewing_time": 4198}, {"page_index": 1, "viewing_time": 2114}, {"page_index": 2, "viewing_time": 1974}, {"page_index": 3, "viewing_time": 3919}, {"page_index": 4, "viewing_time": 17065}], "rt": 78053, "trial_id": "mouselab_instructions_1", "trial_type": "instructions", "trial_index": 9, "time_elapsed": 359130, "internal_node_id": "0.0-2.1-1.1"}}, {"uniqueid": "w26879138:a69615806", "current_trial": 10, "dateTime": 1664555922665, "trialdata": {"revealed_states": [], "num_clicks_accrued": [0, 0, 0, 0, 0, 0, 0, 0, 0, 0, 0, 0, 0], "stateRewards": ["", 10, 10, -10, 10, -10, -10, -10, -10, -10, -10, 10, -10], "withholdReward": false, "trial_id": "practice_1", "block": "test", "trialIndex": 2, "score": 11.75, "costs": -0.25, "simulationMode": [null, null, null], "rewards": [10, 10, -10], "path": ["0", "0", "1", "2", "3"], "rt": [2281, 238, 1], "actions": ["up", "up", "right"], "actionTimes": [3575, 4324, 4834], "queries": {"click": {"state": {"target": ["1"], "time": [2124]}, "edge": {"target": [], "time": []}}, "mouseover": {"state": {"target": ["1"], "time": [1887]}, "edge": {"target": [], "time": []}}, "mouseout": {"state": {"target": ["0", "1", "1", "0"], "time": [1686, 2969, 6067, 6082]}, "edge": {"target": [], "time": []}}}, "displayed_time": "5.37", "trialTime": 7037, "trial_type": "mouselab-mdp", "trial_index": 10, "time_elapsed": 366240, "internal_node_id": "0.0-2.1-2.1-0.1"}}, {"uniqueid": "w26879138:a69615806", "current_trial": 11, "dateTime": 1664555937278, "trialdata": {"revealed_states": [], "num_clicks_accrued": [0, 0, 0, 0, 0, 0, 0, 0, 0, 0, 0, 0, 0], "stateRewards": ["", -10, 10, 10, -10, 10, -10, 10, 10, -10, 10, -10, 10], "withholdReward": false, "trial_id": "practice_2", "block": "test", "trialIndex": 3, "score": 11.75, "costs": -0.25, "simulationMode": [null, null, null], "rewards": [10, -10, 10], "path": ["0", "0", "5", "6", "8"], "rt": [788, 802, 2448], "actions": ["right", "right", "down"], "actionTimes": [1932, 3245, 6188], "queries": {"click": {"state": {"target": ["5"], "time": [1654]}, "edge": {"target": [], "time": []}}, "mouseover": {"state": {"target": ["5"], "time": [1440]}, "edge": {"target": [], "time": []}}, "mouseout": {"state": {"target": ["0", "5", "8", "6", "7"], "time": [1391, 3922, 4954, 5072, 7803]}, "edge": {"target": [], "time": []}}}, "displayed_time": "6.71", "trialTime": 14542, "trial_type": "mouselab-mdp", "trial_index": 11, "time_elapsed": 380852, "internal_node_id": "0.0-2.1-2.1-1.1"}}, {"uniqueid": "w26879138:a69615806", "current_trial": 12, "dateTime": 1664555958479, "trialdata": {"view_history": [{"page_index": 0, "viewing_time": 9930}, {"page_index": 1, "viewing_time": 7133}, {"page_index": 2, "viewing_time": 4133}], "rt": 21198, "trial_id": "mouselab_instructions_2_scarce", "trial_type": "instructions", "trial_index": 12, "time_elapsed": 402054, "internal_node_id": "0.0-2.1-3.1"}}, {"uniqueid": "w26879138:a69615806", "current_trial": 13, "dateTime": 1664555979214, "trialdata": {"rt": 20731, "response": {"Q0": "$-48 to $48", "Q1": "The cost is always $0.25.", "Q2": "The better I perform the higher my bonus will be.", "Q3": "No, the amount of cash at each node of the web may be different each time.", "Q4": "The values of the nodes walked through from start to finish.", "Q5": "No, the spider might forget to count the money on some rounds."}, "question_order": [0, 1, 2, 3, 4, 5], "correct": {"Q0": "$-48 to $48", "Q1": "The cost is always $0.25.", "Q2": "The better I perform the higher my bonus will be.", "Q3": "No, the amount of cash at each node of the web may be different each time.", "Q4": "The values of the nodes walked through from start to finish.", "Q5": "No, the spider might forget to count the money on some rounds."}, "trial_id": "mouselab_quiz_scarce", "trial_type": "survey-multi-choice", "trial_index": 13, "time_elapsed": 422789, "internal_node_id": "0.0-2.1-4.1"}}, {"uniqueid": "w26879138:a69615806", "current_trial": 14, "dateTime": 1664555993463, "trialdata": {"rt": 14235, "stimulus": "\n<h1> Get ready to start the game! </h1>\n\nThank you for reading the instructions. Get ready start with the first of 4 block(s) of this game.\n<br><br>\nIn this first block, you will complete 30 rounds of this game before moving on.\n<br><br>\nRemember, the more money the spider gets, the bigger your bonus will be!\n<br><br>\n<div style='text-align: center;'>Press <code>space</code> to begin.</div>\n\n<br><br>\n(If, at any point, the <code>space</code> key does not take you to the next page, click once on the text and try again.)", "response": " ", "trial_id": "mdp_ready_1", "trial_type": "html-keyboard-response", "trial_index": 14, "time_elapsed": 437038, "internal_node_id": "0.0-4.0-0.0"}}, {"uniqueid": "w26879138:a69615806", "current_trial": 15, "dateTime": 1664556009947, "trialdata": {"revealed_states": [], "num_clicks_accrued": [0, 0, 0, 0, 0, 0, 0, 0, 0, 0, 0, 0, 0], "stateRewards": ["", 4, -8, 48, 48, 2, 4, 48, -48, 4, -4, -48, 48], "withholdReward": true, "trial_id": "mdp_519605841135", "block": "test1", "trialIndex": 4, "score": -38.5, "costs": -1.5, "simulationMode": [null, null, null], "rewards": [2, 4, -48], "path": ["0", "0", "5", "6", "8"], "rt": [11114, 72, 5], "actions": ["right", "right", "down"], "actionTimes": [12048, 12638, 13153], "queries": {"click": {"state": {"target": ["1", "9", "5", "2", "10", "6"], "time": [2316, 3235, 3843, 6150, 7526, 11339]}, "edge": {"target": [], "time": []}}, "mouseover": {"state": {"target": ["1", "9", "0", "5", "2", "10", "3", "6", "7"], "time": [2105, 3004, 3471, 3535, 5801, 6852, 8785, 11248, 11764]}, "edge": {"target": [], "time": []}}, "mouseout": {"state": {"target": ["0", "1", "9", "0", "5", "2", "1", "9", "10", "9", "3", "2", "6", "7", "6"], "time": [839, 2620, 3438, 3503, 5369, 6285, 6334, 6586, 7699, 7750, 8966, 10914, 11749, 11780, 14712]}, "edge": {"target": [], "time": []}}}, "displayed_time": "13.68", "trialTime": 16409, "trial_type": "mouselab-mdp", "trial_index": 15, "time_elapsed": 453522, "internal_node_id": "0.0-4.0-1.0-0.0"}}, {"uniqueid": "w26879138:a69615806", "current_trial": 16, "dateTime": 1664556020196, "trialdata": {"revealed_states": [], "num_clicks_accrued": [0, 0, 0, 0, 0, 0, 0, 0, 0, 0, 0, 0, 0], "stateRewards": ["", -4, -4, 24, 48, 4, -4, -24, 24, -4, -4, 24, 24], "withholdReward": true, "trial_id": "mdp_357725458160", "block": "test1", "trialIndex": 5, "score": -19.75, "costs": -0.75, "simulationMode": [null, null, null], "rewards": [4, -4, -24], "path": ["0", "0", "5", "6", "7"], "rt": [3220, 75, 89], "actions": ["right", "right", "up"], "actionTimes": [4342, 4938, 5535], "queries": {"click": {"state": {"target": ["1", "9", "5"], "time": [1797, 2661, 3464]}, "edge": {"target": [], "time": []}}, "mouseover": {"state": {"target": ["1", "9", "0", "5"], "time": [1564, 2463, 3047, 3331]}, "edge": {"target": [], "time": []}}, "mouseout": {"state": {"target": ["0", "1", "9", "0", "5"], "time": [666, 2381, 3013, 3098, 9792]}, "edge": {"target": [], "time": []}}}, "displayed_time": "9.12", "trialTime": 10181, "trial_type": "mouselab-mdp", "trial_index": 16, "time_elapsed": 463771, "internal_node_id": "0.0-4.0-1.0-1.0"}}, {"uniqueid": "w26879138:a69615806", "current_trial": 17, "dateTime": 1664556045115, "trialdata": {"revealed_states": [], "num_clicks_accrued": [0, 0, 0, 0, 0, 0, 0, 0, 0, 0, 0, 0, 0], "stateRewards": ["", -2, -4, -24, -24, 4, 8, 24, 24, -2, 8, 48, 48], "withholdReward": true, "trial_id": "mdp_620787912291", "block": "test1", "trialIndex": 6, "score": 39.5, "costs": -1.5, "simulationMode": [null, null, null], "rewards": [4, 8, 24], "path": ["0", "0", "5", "6", "7"], "rt": [9629, 778, 73], "actions": ["right", "right", "up"], "actionTimes": [10989, 12276, 12872], "queries": {"click": {"state": {"target": ["1", "9", "5", "6", "8", "7"], "time": [4016, 5251, 6274, 7768, 8678, 10158]}, "edge": {"target": [], "time": []}}, "mouseover": {"state": {"target": ["1", "2", "9", "0", "5", "5", "6", "8", "7"], "time": [2638, 4486, 4985, 5452, 5518, 6151, 7628, 8400, 9981]}, "edge": {"target": [], "time": []}}, "mouseout": {"state": {"target": ["0", "1", "2", "1", "9", "0", "5", "5", "6", "8", "7"], "time": [1238, 4436, 4886, 4919, 5435, 5484, 5734, 6934, 8350, 9033, 10765]}, "edge": {"target": [], "time": []}}}, "displayed_time": "13.38", "trialTime": 24847, "trial_type": "mouselab-mdp", "trial_index": 17, "time_elapsed": 488690, "internal_node_id": "0.0-4.0-1.0-2.0"}}, {"uniqueid": "w26879138:a69615806", "current_trial": 18, "dateTime": 1664556070887, "trialdata": {"revealed_states": [], "num_clicks_accrued": [0, 0, 0, 0, 0, 0, 0, 0, 0, 0, 0, 0, 0], "stateRewards": ["", -4, 8, -24, 48, 2, -8, 24, 48, 2, -8, -24, -48], "withholdReward": false, "trial_id": "mdp_493778446445", "block": "test1", "trialIndex": 7, "score": 54, "costs": -3, "simulationMode": [null, null, null], "rewards": [-4, 8, 48], "path": ["0", "0", "1", "2", "4"], "rt": [18691, 136, 35], "actions": ["up", "up", "left"], "actionTimes": [19660, 20307, 20857], "queries": {"click": {"state": {"target": ["1", "9", "5", "6", "10", "11", "12", "7", "8", "2", "3", "4"], "time": [3171, 3781, 4265, 5214, 5899, 6559, 7070, 8127, 9216, 10329, 10948, 11534]}, "edge": {"target": [], "time": []}}, "mouseover": {"state": {"target": ["1", "9", "0", "5", "6", "6", "0", "10", "11", "12", "0", "7", "8", "3", "2", "3", "4"], "time": [2115, 3614, 3980, 4115, 4747, 5098, 5479, 5729, 6379, 6930, 7329, 7746, 8728, 9594, 9761, 10610, 11326]}, "edge": {"target": [], "time": []}}, "mouseout": {"state": {"target": ["7", "1", "9", "0", "5", "6", "6", "5", "0", "9", "10", "11", "10", "12", "0", "5", "7", "6", "8", "6", "3", "2", "3", "2", "4", "2"], "time": [517, 3365, 3947, 4031, 4730, 4796, 5430, 5462, 5496, 5598, 6347, 6729, 6813, 7278, 7361, 7545, 8311, 8545, 9410, 9460, 9693, 10576, 11092, 11193, 11859, 11909]}, "edge": {"target": [], "time": []}}}, "displayed_time": "21.39", "trialTime": 25698, "trial_type": "mouselab-mdp", "trial_index": 18, "time_elapsed": 514462, "internal_node_id": "0.0-4.0-1.0-3.0"}}, {"uniqueid": "w26879138:a69615806", "current_trial": 19, "dateTime": 1664556088910, "trialdata": {"revealed_states": [], "num_clicks_accrued": [0, 0, 0, 0, 0, 0, 0, 0, 0, 0, 0, 0, 0], "stateRewards": ["", -4, -4, -24, 48, 2, 4, -24, -48, -2, 4, 24, 24], "withholdReward": true, "trial_id": "mdp_360934723192", "block": "test1", "trialIndex": 8, "score": 42, "costs": -3, "simulationMode": [null, null, null], "rewards": [-4, -4, 48], "path": ["0", "0", "1", "2", "4"], "rt": [12887, 174, 134], "actions": ["up", "up", "left"], "actionTimes": [13926, 14610, 15253], "queries": {"click": {"state": {"target": ["1", "2", "4", "3", "5", "6", "7", "8", "9", "11", "10", "12"], "time": [1605, 2595, 2945, 3483, 4223, 4561, 4963, 5583, 6221, 7371, 7673, 8069]}, "edge": {"target": [], "time": []}}, "mouseover": {"state": {"target": ["1", "9", "2", "4", "3", "5", "6", "7", "8", "9", "11", "11", "10", "12"], "time": [1428, 2025, 2409, 2742, 3275, 3942, 4475, 4758, 5291, 6140, 6840, 7273, 7606, 7938]}, "edge": {"target": [], "time": []}}, "mouseout": {"state": {"target": ["3", "1", "1", "9", "2", "4", "2", "3", "5", "6", "7", "6", "8", "9", "9", "11", "11", "10", "12"], "time": [460, 543, 1942, 2259, 2708, 3126, 3175, 3774, 4374, 4707, 5140, 5207, 5690, 6474, 6758, 6855, 7556, 7889, 8489]}, "edge": {"target": [], "time": []}}}, "displayed_time": "15.77", "trialTime": 17949, "trial_type": "mouselab-mdp", "trial_index": 19, "time_elapsed": 532485, "internal_node_id": "0.0-4.0-1.0-4.0"}}, {"uniqueid": "w26879138:a69615806", "current_trial": 20, "dateTime": 1664556102821, "trialdata": {"revealed_states": [], "num_clicks_accrued": [0, 0, 0, 0, 0, 0, 0, 0, 0, 0, 0, 0, 0], "stateRewards": ["", 2, -8, -24, -48, -2, -4, 48, 48, 4, 8, 48, 48], "withholdReward": true, "trial_id": "mdp_347285045422", "block": "test1", "trialIndex": 9, "score": 62, "costs": -3, "simulationMode": [null, null, null], "rewards": [4, 8, 48], "path": ["0", "0", "9", "10", "11"], "rt": [8253, 178, 192], "actions": ["left", "left", "up"], "actionTimes": [9300, 9999, 10712], "queries": {"click": {"state": {"target": ["1", "2", "4", "3", "9", "11", "10", "12", "5", "6", "7", "8"], "time": [2069, 2643, 3061, 3479, 4196, 4765, 5202, 5717, 6418, 6870, 7190, 7701]}, "edge": {"target": [], "time": []}}, "mouseover": {"state": {"target": ["1", "2", "4", "3", "9", "11", "10", "12", "5", "6", "7", "8"], "time": [1808, 2489, 2874, 3307, 4056, 4622, 5072, 5604, 6038, 6771, 7071, 7621]}, "edge": {"target": [], "time": []}}, "mouseout": {"state": {"target": ["9", "0", "1", "2", "4", "2", "3", "9", "11", "10", "12", "5", "6", "7", "6", "8", "6", "7"], "time": [658, 1559, 2407, 2825, 3208, 3274, 3689, 4389, 5022, 5440, 5904, 6637, 7055, 7372, 7454, 7939, 7971, 8021]}, "edge": {"target": [], "time": []}}}, "displayed_time": "11.22", "trialTime": 13839, "trial_type": "mouselab-mdp", "trial_index": 20, "time_elapsed": 546396, "internal_node_id": "0.0-4.0-1.0-5.0"}}, {"uniqueid": "w26879138:a69615806", "current_trial": 21, "dateTime": 1664556118493, "trialdata": {"revealed_states": [], "num_clicks_accrued": [0, 0, 0, 0, 0, 0, 0, 0, 0, 0, 0, 0, 0], "stateRewards": ["", -2, -4, -24, 24, -2, 4, -24, -24, -4, 4, 24, -24], "withholdReward": true, "trial_id": "mdp_999419261719", "block": "test1", "trialIndex": 10, "score": 26, "costs": -3, "simulationMode": [null, null, null], "rewards": [-4, 4, 24], "path": ["0", "0", "9", "10", "11"], "rt": [11501, 164, 295], "actions": ["left", "left", "up"], "actionTimes": [12956, 13612, 14424], "queries": {"click": {"state": {"target": ["1", "9", "5", "2", "3", "4", "11", "10", "12", "7", "6", "8"], "time": [1941, 2795, 3230, 4296, 4798, 5756, 6575, 7040, 7509, 8666, 9244, 10593]}, "edge": {"target": [], "time": []}}, "mouseover": {"state": {"target": ["1", "9", "0", "5", "2", "3", "4", "4", "11", "10", "12", "0", "7", "6", "8", "8"], "time": [1788, 2638, 2986, 3037, 4236, 4469, 5205, 5635, 6467, 6916, 7417, 7851, 8299, 9132, 9565, 10466]}, "edge": {"target": [], "time": []}}, "mouseout": {"state": {"target": ["7", "5", "1", "1", "9", "0", "5", "2", "3", "2", "4", "4", "11", "10", "12", "0", "5", "1", "7", "6", "8", "8"], "time": [1070, 1204, 2137, 2337, 2971, 3002, 3819, 4436, 4935, 5035, 5369, 6101, 6883, 7319, 7751, 7865, 7933, 8149, 8898, 9532, 9615, 10881]}, "edge": {"target": [], "time": []}}}, "displayed_time": "14.93", "trialTime": 15599, "trial_type": "mouselab-mdp", "trial_index": 21, "time_elapsed": 562068, "internal_node_id": "0.0-4.0-1.0-6.0"}}, {"uniqueid": "w26879138:a69615806", "current_trial": 22, "dateTime": 1664556131035, "trialdata": {"revealed_states": [], "num_clicks_accrued": [0, 0, 0, 0, 0, 0, 0, 0, 0, 0, 0, 0, 0], "stateRewards": ["", 4, 8, -48, -48, 2, 4, -24, -48, 2, 8, 48, -48], "withholdReward": true, "trial_id": "mdp_902172716465", "block": "test1", "trialIndex": 11, "score": 60, "costs": -3, "simulationMode": [null, null, null], "rewards": [2, 8, 48], "path": ["0", "0", "9", "10", "11"], "rt": [8837, 59, 471], "actions": ["left", "left", "up"], "actionTimes": [9779, 10357, 11336], "queries": {"click": {"state": {"target": ["1", "2", "3", "4", "9", "10", "11", "12", "5", "6", "7", "8"], "time": [2967, 3502, 3857, 4493, 5377, 5746, 6177, 6746, 7623, 8150, 8622, 9275]}, "edge": {"target": [], "time": []}}, "mouseover": {"state": {"target": ["1", "2", "3", "4", "9", "9", "10", "11", "12", "8", "5", "6", "7", "8"], "time": [2819, 3386, 3751, 4401, 4750, 5250, 5667, 6017, 6400, 7131, 7449, 8034, 8516, 9098]}, "edge": {"target": [], "time": []}}, "mouseout": {"state": {"target": ["0", "1", "2", "3", "2", "4", "9", "9", "10", "11", "10", "12", "8", "5", "6", "7", "6"], "time": [2620, 3352, 3735, 4068, 4152, 4668, 4819, 5550, 5949, 6334, 6384, 6949, 7149, 7983, 8465, 8881, 8982]}, "edge": {"target": [], "time": []}}}, "displayed_time": "11.85", "trialTime": 12468, "trial_type": "mouselab-mdp", "trial_index": 22, "time_elapsed": 574609, "internal_node_id": "0.0-4.0-1.0-7.0"}}, {"uniqueid": "w26879138:a69615806", "current_trial": 23, "dateTime": 1664556158453, "trialdata": {"revealed_states": [], "num_clicks_accrued": [0, 0, 0, 0, 0, 0, 0, 0, 0, 0, 0, 0, 0], "stateRewards": ["", 4, -4, 48, -48, -2, -8, -24, 48, -2, 4, 24, -24], "withholdReward": true, "trial_id": "mdp_507290896735", "block": "test1", "trialIndex": 12, "score": 40, "costs": -3, "simulationMode": [null, null, null], "rewards": [-2, -8, 48], "path": ["0", "0", "5", "6", "8"], "rt": [12193, 3029, 176], "actions": ["right", "right", "down"], "actionTimes": [12988, 16528, 17206], "queries": {"click": {"state": {"target": ["1", "2", "3", "4", "11", "10", "12", "9", "5", "6", "7", "8"], "time": [1366, 1840, 2322, 2842, 3426, 3833, 4406, 5052, 6027, 6517, 6853, 7870]}, "edge": {"target": [], "time": []}}, "mouseover": {"state": {"target": ["1", "2", "3", "4", "11", "10", "12", "9", "5", "5", "6", "7", "8", "8"], "time": [1156, 1671, 2190, 2654, 3238, 3770, 4321, 4986, 5469, 5903, 6403, 6734, 7085, 7750]}, "edge": {"target": [], "time": []}}, "mouseout": {"state": {"target": ["8", "0", "1", "2", "3", "2", "4", "11", "10", "12", "9", "5", "5", "6", "7", "6", "8", "8"], "time": [456, 1009, 1572, 2138, 2489, 2555, 3038, 3671, 4204, 4587, 5403, 5503, 6353, 6685, 7018, 7068, 7201, 9532]}, "edge": {"target": [], "time": []}}}, "displayed_time": "17.71", "trialTime": 27348, "trial_type": "mouselab-mdp", "trial_index": 23, "time_elapsed": 602028, "internal_node_id": "0.0-4.0-1.0-8.0"}}, {"uniqueid": "w26879138:a69615806", "current_trial": 24, "dateTime": 1664556177199, "trialdata": {"revealed_states": [], "num_clicks_accrued": [0, 0, 0, 0, 0, 0, 0, 0, 0, 0, 0, 0, 0], "stateRewards": ["", -4, -4, 24, -24, 4, 4, 24, 48, 4, -4, 48, -48], "withholdReward": true, "trial_id": "mdp_522385334882", "block": "test1", "trialIndex": 13, "score": 58, "costs": -3, "simulationMode": [null, null, null], "rewards": [4, 4, 48], "path": ["0", "0", "5", "6", "8"], "rt": [7332, 191, 309], "actions": ["right", "right", "down"], "actionTimes": [8754, 9453, 10271], "queries": {"click": {"state": {"target": ["1", "2", "3", "4", "9", "10", "12", "11", "5", "6", "7", "8"], "time": [1999, 2490, 2792, 3264, 3766, 4259, 5267, 5823, 6492, 6991, 7368, 7960]}, "edge": {"target": [], "time": []}}, "mouseover": {"state": {"target": ["1", "2", "3", "4", "9", "10", "12", "12", "11", "5", "6", "7", "8"], "time": [1916, 2283, 2682, 2998, 3565, 4146, 4730, 5145, 5678, 6146, 6828, 7229, 7811]}, "edge": {"target": [], "time": []}}, "mouseout": {"state": {"target": ["5", "1", "2", "3", "2", "4", "9", "10", "10", "12", "12", "10", "11", "5", "6", "7", "6", "8"], "time": [1132, 2231, 2649, 2926, 2965, 3498, 4130, 4397, 4714, 4747, 5546, 5630, 6046, 6779, 7179, 7595, 7713, 8412]}, "edge": {"target": [], "time": []}}}, "displayed_time": "10.76", "trialTime": 18674, "trial_type": "mouselab-mdp", "trial_index": 24, "time_elapsed": 620774, "internal_node_id": "0.0-4.0-1.0-9.0"}}, {"uniqueid": "w26879138:a69615806", "current_trial": 25, "dateTime": 1664556191065, "trialdata": {"revealed_states": [], "num_clicks_accrued": [0, 0, 0, 0, 0, 0, 0, 0, 0, 0, 0, 0, 0], "stateRewards": ["", -2, 8, -24, 48, -4, 4, -48, 24, 4, -8, 48, -24], "withholdReward": true, "trial_id": "mdp_425320427962", "block": "test1", "trialIndex": 14, "score": 46, "costs": -3, "simulationMode": [null, null, null], "rewards": [4, -8, 48], "path": ["0", "0", "9", "10", "11"], "rt": [9002, 669, 70], "actions": ["left", "left", "up"], "actionTimes": [10637, 11824, 12391], "queries": {"click": {"state": {"target": ["1", "2", "9", "5", "3", "4", "11", "10", "12", "6", "7", "8"], "time": [2406, 2917, 4251, 4853, 5462, 5883, 6419, 7233, 7623, 8354, 8824, 9339]}, "edge": {"target": [], "time": []}}, "mouseover": {"state": {"target": ["1", "2", "5", "0", "9", "5", "3", "4", "11", "10", "12", "6", "7", "8"], "time": [2260, 2808, 3409, 3758, 4174, 4708, 5174, 5691, 6307, 7123, 7457, 8255, 8620, 9138]}, "edge": {"target": [], "time": []}}, "mouseout": {"state": {"target": ["0", "1", "2", "1", "5", "0", "9", "5", "3", "2", "4", "11", "10", "12", "6", "7", "6", "8", "6", "6"], "time": [1426, 2792, 3092, 3175, 3425, 4041, 4391, 5057, 5607, 5657, 6091, 6639, 7439, 7821, 8538, 9039, 9120, 9604, 9738, 9954]}, "edge": {"target": [], "time": []}}}, "displayed_time": "12.90", "trialTime": 13796, "trial_type": "mouselab-mdp", "trial_index": 25, "time_elapsed": 634640, "internal_node_id": "0.0-4.0-1.0-10.0"}}, {"uniqueid": "w26879138:a69615806", "current_trial": 26, "dateTime": 1664556204911, "trialdata": {"revealed_states": [], "num_clicks_accrued": [0, 0, 0, 0, 0, 0, 0, 0, 0, 0, 0, 0, 0], "stateRewards": ["", 2, 4, 48, -24, 2, -8, -24, -24, 2, -8, -24, -48], "withholdReward": false, "trial_id": "mdp_274832552938", "block": "test1", "trialIndex": 15, "score": 56, "costs": -3, "simulationMode": [null, null, null], "rewards": [2, 4, 48], "path": ["0", "0", "1", "2", "3"], "rt": [9176, 160, 317], "actions": ["up", "up", "right"], "actionTimes": [10431, 11105, 11943], "queries": {"click": {"state": {"target": ["1", "5", "9", "10", "11", "12", "4", "2", "3", "7", "6", "8"], "time": [1984, 2798, 3467, 4032, 4363, 6085, 6874, 7193, 7945, 8955, 9364, 9752]}, "edge": {"target": [], "time": []}}, "mouseover": {"state": {"target": ["1", "5", "9", "10", "11", "12", "12", "12", "4", "2", "3", "3", "7", "6", "8"], "time": [1832, 2714, 3414, 3929, 4264, 4579, 4929, 5911, 6746, 7061, 7377, 7811, 8698, 9161, 9643]}, "edge": {"target": [], "time": []}}, "mouseout": {"state": {"target": ["0", "1", "5", "9", "10", "11", "10", "12", "12", "10", "10", "12", "4", "2", "3", "3", "7", "6"], "time": [1132, 2215, 2948, 3664, 4177, 4501, 4564, 4612, 4996, 5230, 5763, 6379, 7028, 7344, 7511, 8294, 9072, 9576]}, "edge": {"target": [], "time": []}}}, "displayed_time": "12.46", "trialTime": 13774, "trial_type": "mouselab-mdp", "trial_index": 26, "time_elapsed": 648486, "internal_node_id": "0.0-4.0-1.0-11.0"}}, {"uniqueid": "w26879138:a69615806", "current_trial": 27, "dateTime": 1664556231344, "trialdata": {"revealed_states": [], "num_clicks_accrued": [0, 0, 0, 0, 0, 0, 0, 0, 0, 0, 0, 0, 0], "stateRewards": ["", 4, -8, 24, 48, 2, -4, 48, 48, 4, -8, 48, 48], "withholdReward": true, "trial_id": "mdp_962498334245", "block": "test1", "trialIndex": 16, "score": 48, "costs": -3, "simulationMode": [null, null, null], "rewards": [2, -4, 48], "path": ["0", "0", "5", "6", "7"], "rt": [20071, 217, 182], "actions": ["right", "right", "up"], "actionTimes": [20928, 21647, 22346], "queries": {"click": {"state": {"target": ["1", "2", "4", "3", "5", "6", "7", "8", "9", "10", "11", "12"], "time": [1317, 2059, 2854, 3573, 4174, 4555, 4873, 5505, 6270, 6729, 7082, 7770]}, "edge": {"target": [], "time": []}}, "mouseover": {"state": {"target": ["1", "2", "4", "4", "3", "3", "5", "6", "7", "8", "0", "9", "10", "11", "12"], "time": [1209, 1858, 2309, 2725, 3074, 3409, 3840, 4457, 4756, 5358, 5923, 6139, 6607, 6922, 7605]}, "edge": {"target": [], "time": []}}, "mouseout": {"state": {"target": ["8", "0", "1", "2", "4", "4", "2", "3", "3", "5", "6", "7", "6", "8", "0", "9", "10", "11", "10", "12", "5", "6"], "time": [409, 1109, 1643, 2225, 2442, 3041, 3057, 3107, 3757, 4391, 4725, 5040, 5206, 5823, 6106, 6556, 6872, 7221, 7323, 8138, 8221, 8272]}, "edge": {"target": [], "time": []}}}, "displayed_time": "22.86", "trialTime": 26362, "trial_type": "mouselab-mdp", "trial_index": 27, "time_elapsed": 674919, "internal_node_id": "0.0-4.0-1.0-12.0"}}, {"uniqueid": "w26879138:a69615806", "current_trial": 28, "dateTime": 1664556249692, "trialdata": {"revealed_states": [], "num_clicks_accrued": [0, 0, 0, 0, 0, 0, 0, 0, 0, 0, 0, 0, 0], "stateRewards": ["", -4, 4, 48, 24, -4, 4, -24, 48, -2, -8, 24, -48], "withholdReward": false, "trial_id": "mdp_261501605436", "block": "test1", "trialIndex": 17, "score": 50, "costs": -3, "simulationMode": [null, null, null], "rewards": [-4, 4, 48], "path": ["0", "0", "1", "2", "3"], "rt": [10337, 181, 231], "actions": ["up", "up", "right"], "actionTimes": [11426, 12128, 12876], "queries": {"click": {"state": {"target": ["1", "3", "2", "4", "9", "10", "11", "12", "5", "6", "7", "8"], "time": [1765, 2495, 2868, 3466, 4077, 4531, 4817, 5186, 5862, 6147, 6572, 7652]}, "edge": {"target": [], "time": []}}, "mouseover": {"state": {"target": ["1", "2", "3", "2", "4", "9", "10", "11", "12", "5", "6", "7", "8"], "time": [1635, 2253, 2384, 2735, 3384, 4001, 4416, 4718, 5049, 5766, 6048, 6449, 7482]}, "edge": {"target": [], "time": []}}, "mouseout": {"state": {"target": ["6", "5", "0", "1", "2", "3", "2", "4", "9", "10", "11", "10", "12", "5", "6", "7", "6", "8"], "time": [669, 852, 1536, 1970, 2318, 2702, 3268, 3718, 4317, 4651, 4966, 5033, 5366, 6016, 6383, 6731, 6815, 7898]}, "edge": {"target": [], "time": []}}}, "displayed_time": "13.40", "trialTime": 18272, "trial_type": "mouselab-mdp", "trial_index": 28, "time_elapsed": 693267, "internal_node_id": "0.0-4.0-1.0-13.0"}}, {"uniqueid": "w26879138:a69615806", "current_trial": 29, "dateTime": 1664556270145, "trialdata": {"revealed_states": [], "num_clicks_accrued": [0, 0, 0, 0, 0, 0, 0, 0, 0, 0, 0, 0, 0], "stateRewards": ["", -4, -4, 48, 24, -4, -4, -24, -48, -4, 4, 48, -24], "withholdReward": false, "trial_id": "mdp_896503755738", "block": "test1", "trialIndex": 18, "score": 50, "costs": -3, "simulationMode": [null, null, null], "rewards": [-4, 4, 48], "path": ["0", "0", "9", "10", "11"], "rt": [16138, 143, 123], "actions": ["left", "left", "up"], "actionTimes": [17828, 18481, 19127], "queries": {"click": {"state": {"target": ["5", "6", "7", "8", "1", "2", "3", "4", "9", "10", "11", "12"], "time": [2128, 2465, 3252, 4057, 5192, 5725, 7075, 7927, 8693, 9090, 9616, 10153]}, "edge": {"target": [], "time": []}}, "mouseover": {"state": {"target": ["5", "6", "7", "8", "1", "2", "3", "3", "4", "9", "10", "11", "12"], "time": [2030, 2448, 3147, 3946, 4695, 5611, 6326, 6910, 7809, 8443, 8925, 9441, 9807]}, "edge": {"target": [], "time": []}}, "mouseout": {"state": {"target": ["6", "5", "0", "9", "9", "0", "5", "6", "6", "7", "6", "8", "5", "1", "2", "3", "2", "3", "2", "4", "9", "10", "11", "10", "12", "7"], "time": [114, 148, 200, 265, 497, 748, 2347, 2714, 3129, 3396, 3463, 4229, 4447, 5577, 5878, 6393, 6860, 7226, 7326, 8275, 8861, 9275, 9741, 9791, 10557, 10641]}, "edge": {"target": [], "time": []}}}, "displayed_time": "19.64", "trialTime": 20382, "trial_type": "mouselab-mdp", "trial_index": 29, "time_elapsed": 713720, "internal_node_id": "0.0-4.0-1.0-14.0"}}, {"uniqueid": "w26879138:a69615806", "current_trial": 30, "dateTime": 1664556282569, "trialdata": {"revealed_states": [], "num_clicks_accrued": [0, 0, 0, 0, 0, 0, 0, 0, 0, 0, 0, 0, 0], "stateRewards": ["", -4, -4, -24, 48, -4, -8, -24, 48, 2, 4, 48, 48], "withholdReward": true, "trial_id": "mdp_810954007398", "block": "test1", "trialIndex": 19, "score": 56.75, "costs": -2.25, "simulationMode": [null, null, null], "rewards": [2, 4, 48], "path": ["0", "0", "9", "10", "11"], "rt": [7974, 268, 250], "actions": ["left", "left", "up"], "actionTimes": [9146, 9928, 10691], "queries": {"click": {"state": {"target": ["11", "10", "12", "4", "2", "3", "7", "6", "8"], "time": [1763, 2115, 2547, 3168, 3705, 4223, 4987, 5804, 6235]}, "edge": {"target": [], "time": []}}, "mouseover": {"state": {"target": ["9", "11", "10", "12", "4", "2", "3", "7", "6", "8"], "time": [1465, 1580, 1963, 2412, 2979, 3513, 4111, 4844, 5666, 6194]}, "edge": {"target": [], "time": []}}, "mouseout": {"state": {"target": ["9", "9", "9", "11", "10", "12", "10", "4", "2", "3", "7", "6", "8", "8"], "time": [314, 848, 1497, 1912, 2362, 2713, 2745, 3362, 4061, 4495, 5178, 6027, 6627, 12023]}, "edge": {"target": [], "time": []}}}, "displayed_time": "11.21", "trialTime": 12354, "trial_type": "mouselab-mdp", "trial_index": 30, "time_elapsed": 726144, "internal_node_id": "0.0-4.0-1.0-15.0"}}, {"uniqueid": "w26879138:a69615806", "current_trial": 31, "dateTime": 1664556294854, "trialdata": {"revealed_states": [], "num_clicks_accrued": [0, 0, 0, 0, 0, 0, 0, 0, 0, 0, 0, 0, 0], "stateRewards": ["", 2, -8, 24, 24, 4, -4, -24, -48, 4, 8, 24, 24], "withholdReward": true, "trial_id": "mdp_249803813713", "block": "test1", "trialIndex": 20, "score": 38.75, "costs": -2.25, "simulationMode": [null, null, null], "rewards": [4, 8, 24], "path": ["0", "0", "9", "10", "11"], "rt": [8017, 213, 13], "actions": ["left", "left", "up"], "actionTimes": [8745, 9450, 9981], "queries": {"click": {"state": {"target": ["2", "4", "3", "7", "6", "8", "12", "10", "11"], "time": [1362, 1701, 2237, 2636, 3083, 3452, 4507, 5008, 5593]}, "edge": {"target": [], "time": []}}, "mouseover": {"state": {"target": ["1", "2", "4", "3", "7", "6", "8", "12", "10", "11"], "time": [973, 1021, 1537, 1888, 2472, 2987, 3288, 4370, 4720, 5352]}, "edge": {"target": [], "time": []}}, "mouseout": {"state": {"target": ["0", "1", "2", "4", "2", "3", "7", "6", "8", "12", "10", "11"], "time": [890, 989, 1490, 1838, 1871, 2422, 2972, 3253, 3770, 4636, 5303, 5985]}, "edge": {"target": [], "time": []}}}, "displayed_time": "10.50", "trialTime": 12207, "trial_type": "mouselab-mdp", "trial_index": 31, "time_elapsed": 738429, "internal_node_id": "0.0-4.0-1.0-16.0"}}, {"uniqueid": "w26879138:a69615806", "current_trial": 32, "dateTime": 1664556305304, "trialdata": {"revealed_states": [], "num_clicks_accrued": [0, 0, 0, 0, 0, 0, 0, 0, 0, 0, 0, 0, 0], "stateRewards": ["", -4, 4, -24, 48, 2, 4, -48, 24, 4, -8, -24, 24], "withholdReward": false, "trial_id": "mdp_740130150937", "block": "test1", "trialIndex": 21, "score": 50.75, "costs": -2.25, "simulationMode": [null, null, null], "rewards": [-4, 4, 48], "path": ["0", "0", "1", "2", "4"], "rt": [4470, 84, 254], "actions": ["up", "up", "left"], "actionTimes": [5242, 5841, 6610], "queries": {"click": {"state": {"target": ["4", "2", "3", "7", "6", "8", "12", "10", "11"], "time": [1214, 1476, 1929, 2672, 2974, 3308, 3911, 4186, 4606]}, "edge": {"target": [], "time": []}}, "mouseover": {"state": {"target": ["1", "4", "2", "3", "7", "6", "8", "12", "10", "11"], "time": [943, 1109, 1392, 1825, 2375, 2893, 3207, 3741, 4125, 4539]}, "edge": {"target": [], "time": []}}, "mouseout": {"state": {"target": ["0", "1", "4", "2", "3", "7", "6", "8", "12", "10"], "time": [876, 993, 1358, 1792, 2160, 2841, 3175, 3507, 4056, 4472]}, "edge": {"target": [], "time": []}}}, "displayed_time": "8.77", "trialTime": 10369, "trial_type": "mouselab-mdp", "trial_index": 32, "time_elapsed": 748879, "internal_node_id": "0.0-4.0-1.0-17.0"}}, {"uniqueid": "w26879138:a69615806", "current_trial": 33, "dateTime": 1664556320982, "trialdata": {"revealed_states": [], "num_clicks_accrued": [0, 0, 0, 0, 0, 0, 0, 0, 0, 0, 0, 0, 0], "stateRewards": ["", 2, -4, -48, 24, -4, 4, 24, 24, 2, -8, -24, -48], "withholdReward": false, "trial_id": "mdp_807654778305", "block": "test1", "trialIndex": 22, "score": 26.75, "costs": -2.25, "simulationMode": [null, null, null], "rewards": [-4, 4, 24], "path": ["0", "0", "5", "6", "8"], "rt": [8630, 95, 151], "actions": ["right", "right", "down"], "actionTimes": [12782, 13395, 14070], "queries": {"click": {"state": {"target": ["4", "2", "3", "7", "6", "8", "12", "10", "11"], "time": [5668, 6023, 6335, 7600, 8103, 8550, 9308, 9680, 10212]}, "edge": {"target": [], "time": []}}, "mouseover": {"state": {"target": ["1", "4", "2", "3", "7", "6", "8", "12", "12", "10", "11"], "time": [4955, 5371, 5820, 6254, 7037, 7870, 8436, 8852, 9170, 9519, 10051]}, "edge": {"target": [], "time": []}}, "mouseout": {"state": {"target": ["11", "9", "0", "0", "1", "4", "2", "3", "7", "6", "8", "12", "12", "10", "11"], "time": [608, 657, 990, 4772, 5255, 5788, 6202, 6754, 7786, 8403, 8719, 9035, 9467, 9984, 10535]}, "edge": {"target": [], "time": []}}}, "displayed_time": "14.58", "trialTime": 15602, "trial_type": "mouselab-mdp", "trial_index": 33, "time_elapsed": 764556, "internal_node_id": "0.0-4.0-1.0-18.0"}}, {"uniqueid": "w26879138:a69615806", "current_trial": 34, "dateTime": 1664556332109, "trialdata": {"revealed_states": [], "num_clicks_accrued": [0, 0, 0, 0, 0, 0, 0, 0, 0, 0, 0, 0, 0], "stateRewards": ["", 2, 8, -48, -24, 4, 4, 24, 48, 4, -4, -48, 48], "withholdReward": true, "trial_id": "mdp_665096999232", "block": "test1", "trialIndex": 23, "score": 58.75, "costs": -2.25, "simulationMode": [null, null, null], "rewards": [4, 4, 48], "path": ["0", "0", "5", "6", "8"], "rt": [6730, 125, 89], "actions": ["right", "right", "down"], "actionTimes": [8241, 8876, 9473], "queries": {"click": {"state": {"target": ["4", "2", "3", "7", "6", "8", "12", "11", "10"], "time": [2064, 2352, 2639, 4022, 4308, 4693, 5423, 6248, 6691]}, "edge": {"target": [], "time": []}}, "mouseover": {"state": {"target": ["4", "2", "3", "7", "6", "8", "12", "12", "10", "11", "10"], "time": [1938, 2238, 2521, 3920, 4219, 4603, 5069, 5335, 5618, 5902, 6552]}, "edge": {"target": [], "time": []}}, "mouseout": {"state": {"target": ["0", "4", "2", "3", "7", "6", "8", "12", "12", "10", "11", "10"], "time": [1638, 2198, 2487, 2838, 4203, 4551, 4853, 5186, 5585, 5702, 6502, 7084]}, "edge": {"target": [], "time": []}}}, "displayed_time": "10.52", "trialTime": 11054, "trial_type": "mouselab-mdp", "trial_index": 34, "time_elapsed": 775684, "internal_node_id": "0.0-4.0-1.0-19.0"}}, {"uniqueid": "w26879138:a69615806", "current_trial": 35, "dateTime": 1664556347335, "trialdata": {"revealed_states": [], "num_clicks_accrued": [0, 0, 0, 0, 0, 0, 0, 0, 0, 0, 0, 0, 0], "stateRewards": ["", 2, 4, -48, -24, -4, 4, -24, 24, -2, -8, -24, 24], "withholdReward": true, "trial_id": "mdp_640720803523", "block": "test1", "trialIndex": 24, "score": 26.5, "costs": -2.5, "simulationMode": [null, null, null], "rewards": [-4, 4, 24], "path": ["0", "0", "5", "6", "8"], "rt": [8503, 222, 262], "actions": ["right", "right", "down"], "actionTimes": [9544, 10286, 11056], "queries": {"click": {"state": {"target": ["1", "2", "3", "4", "11", "10", "12", "7", "6", "8"], "time": [1627, 2081, 2883, 3304, 3976, 4411, 4854, 5609, 5928, 6330]}, "edge": {"target": [], "time": []}}, "mouseover": {"state": {"target": ["1", "2", "3", "4", "11", "10", "12", "5", "6", "7", "6", "8"], "time": [1366, 1983, 2680, 3215, 3931, 4281, 4731, 5095, 5164, 5513, 5845, 6163]}, "edge": {"target": [], "time": []}}, "mouseout": {"state": {"target": ["11", "1", "2", "2", "3", "2", "4", "11", "10", "12", "5", "6", "7", "6", "8"], "time": [583, 1931, 2299, 2665, 3048, 3098, 3748, 4248, 4680, 5046, 5129, 5230, 5795, 6131, 6662]}, "edge": {"target": [], "time": []}}}, "displayed_time": "11.58", "trialTime": 15150, "trial_type": "mouselab-mdp", "trial_index": 35, "time_elapsed": 790910, "internal_node_id": "0.0-4.0-1.0-20.0"}}, {"uniqueid": "w26879138:a69615806", "current_trial": 36, "dateTime": 1664556356953, "trialdata": {"revealed_states": [], "num_clicks_accrued": [0, 0, 0, 0, 0, 0, 0, 0, 0, 0, 0, 0, 0], "stateRewards": ["", 2, 8, -48, 48, -4, -8, 24, 24, -2, -8, 24, -24], "withholdReward": true, "trial_id": "mdp_910248289075", "block": "test1", "trialIndex": 25, "score": 60.75, "costs": -2.25, "simulationMode": [null, null, null], "rewards": [2, 8, 48], "path": ["0", "0", "1", "2", "4"], "rt": [6069, 140, 22], "actions": ["up", "up", "left"], "actionTimes": [6786, 7436, 7965], "queries": {"click": {"state": {"target": ["4", "3", "2", "11", "10", "12", "7", "6", "8"], "time": [1440, 2145, 2480, 3147, 3452, 3953, 4706, 5127, 5962]}, "edge": {"target": [], "time": []}}, "mouseover": {"state": {"target": ["4", "2", "3", "2", "11", "10", "12", "0", "5", "5", "7", "6", "8"], "time": [1097, 1661, 2030, 2313, 3030, 3327, 3828, 4177, 4210, 4444, 4610, 4944, 5876]}, "edge": {"target": [], "time": []}}, "mouseout": {"state": {"target": ["0", "4", "2", "3", "2", "4", "11", "10", "12", "0", "5", "5", "7", "6", "8", "5"], "time": [963, 1646, 1729, 2280, 2661, 2695, 3295, 3777, 4144, 4193, 4344, 4478, 4911, 5429, 6193, 9040]}, "edge": {"target": [], "time": []}}}, "displayed_time": "8.72", "trialTime": 9542, "trial_type": "mouselab-mdp", "trial_index": 36, "time_elapsed": 800528, "internal_node_id": "0.0-4.0-1.0-21.0"}}, {"uniqueid": "w26879138:a69615806", "current_trial": 37, "dateTime": 1664556371178, "trialdata": {"revealed_states": [], "num_clicks_accrued": [0, 0, 0, 0, 0, 0, 0, 0, 0, 0, 0, 0, 0], "stateRewards": ["", -2, -4, -48, 48, -4, 4, -48, 24, -4, -8, 24, 48], "withholdReward": true, "trial_id": "mdp_264482284450", "block": "test1", "trialIndex": 26, "score": 44.75, "costs": -2.25, "simulationMode": [null, null, null], "rewards": [-2, -4, 48], "path": ["0", "0", "1", "2", "4"], "rt": [8822, 491, 507], "actions": ["up", "up", "left"], "actionTimes": [9734, 10745, 11761], "queries": {"click": {"state": {"target": ["4", "3", "2", "11", "10", "12", "7", "6", "8"], "time": [1439, 2139, 2441, 3082, 3338, 3726, 4372, 4790, 5126]}, "edge": {"target": [], "time": []}}, "mouseover": {"state": {"target": ["1", "4", "2", "3", "2", "11", "10", "12", "9", "0", "7", "6", "8"], "time": [1158, 1292, 1625, 1976, 2290, 3008, 3275, 3623, 3942, 3958, 4041, 4690, 5056]}, "edge": {"target": [], "time": []}}, "mouseout": {"state": {"target": ["0", "1", "4", "2", "3", "2", "4", "11", "10", "12", "9", "0", "7", "6", "8", "8"], "time": [825, 1192, 1591, 1691, 2289, 2625, 2775, 3242, 3507, 3908, 3957, 3973, 4641, 4973, 6088, 13617]}, "edge": {"target": [], "time": []}}}, "displayed_time": "12.27", "trialTime": 14154, "trial_type": "mouselab-mdp", "trial_index": 37, "time_elapsed": 814753, "internal_node_id": "0.0-4.0-1.0-22.0"}}, {"uniqueid": "w26879138:a69615806", "current_trial": 38, "dateTime": 1664556380901, "trialdata": {"revealed_states": [], "num_clicks_accrued": [0, 0, 0, 0, 0, 0, 0, 0, 0, 0, 0, 0, 0], "stateRewards": ["", 4, -8, -48, 24, 4, 4, -24, -24, 2, 4, -48, 24], "withholdReward": true, "trial_id": "mdp_626971397185", "block": "test1", "trialIndex": 27, "score": 32.75, "costs": -2.25, "simulationMode": [null, null, null], "rewards": [2, 4, 24], "path": ["0", "0", "9", "10", "12"], "rt": [6216, 187, 36], "actions": ["left", "left", "down"], "actionTimes": [7383, 8086, 8634], "queries": {"click": {"state": {"target": ["4", "3", "2", "11", "10", "12", "7", "6", "8"], "time": [1806, 2109, 2624, 3232, 3470, 3790, 4527, 5145, 6033]}, "edge": {"target": [], "time": []}}, "mouseover": {"state": {"target": ["4", "2", "3", "2", "11", "10", "12", "9", "5", "7", "6", "8", "8"], "time": [1569, 1983, 2085, 2499, 3035, 3401, 3665, 3949, 4051, 4383, 5066, 5532, 5832]}, "edge": {"target": [], "time": []}}, "mouseout": {"state": {"target": ["9", "9", "0", "4", "2", "3", "2", "11", "10", "12", "9", "5", "7", "6", "8", "8"], "time": [836, 983, 1402, 1967, 2035, 2467, 2850, 3350, 3650, 3935, 3966, 4200, 5016, 5500, 5635, 6197]}, "edge": {"target": [], "time": []}}}, "displayed_time": "9.17", "trialTime": 9646, "trial_type": "mouselab-mdp", "trial_index": 38, "time_elapsed": 824476, "internal_node_id": "0.0-4.0-1.0-23.0"}}, {"uniqueid": "w26879138:a69615806", "current_trial": 39, "dateTime": 1664556393633, "trialdata": {"revealed_states": [], "num_clicks_accrued": [0, 0, 0, 0, 0, 0, 0, 0, 0, 0, 0, 0, 0], "stateRewards": ["", -4, -8, -48, 48, -2, -8, -48, -24, 4, 8, 24, -48], "withholdReward": true, "trial_id": "mdp_509977295685", "block": "test1", "trialIndex": 28, "score": 38.75, "costs": -2.25, "simulationMode": [null, null, null], "rewards": [-4, -8, 48], "path": ["0", "0", "1", "2", "4"], "rt": [6509, 145, 80], "actions": ["up", "up", "left"], "actionTimes": [7947, 8601, 9202], "queries": {"click": {"state": {"target": ["4", "2", "3", "7", "6", "8", "12", "10", "11"], "time": [2312, 2724, 3082, 3769, 4073, 4824, 5669, 6144, 6657]}, "edge": {"target": [], "time": []}}, "mouseover": {"state": {"target": ["4", "4", "2", "3", "7", "6", "8", "8", "12", "10", "11"], "time": [1859, 2176, 2525, 2943, 3525, 3990, 4307, 4723, 5507, 6040, 6524]}, "edge": {"target": [], "time": []}}, "mouseout": {"state": {"target": ["5", "4", "4", "2", "3", "7", "6", "8", "8", "12", "10", "11", "10"], "time": [727, 1928, 2493, 2909, 3442, 3941, 4291, 4341, 5091, 5873, 6456, 6823, 10137]}, "edge": {"target": [], "time": []}}}, "displayed_time": "10.44", "trialTime": 12659, "trial_type": "mouselab-mdp", "trial_index": 39, "time_elapsed": 837207, "internal_node_id": "0.0-4.0-1.0-24.0"}}, {"uniqueid": "w26879138:a69615806", "current_trial": 40, "dateTime": 1664556406080, "trialdata": {"revealed_states": [], "num_clicks_accrued": [0, 0, 0, 0, 0, 0, 0, 0, 0, 0, 0, 0, 0], "stateRewards": ["", 2, 4, -48, 24, -4, -4, -24, 24, 2, -4, 24, -24], "withholdReward": true, "trial_id": "mdp_163600331068", "block": "test1", "trialIndex": 29, "score": 32.75, "costs": -2.25, "simulationMode": [null, null, null], "rewards": [2, 4, 24], "path": ["0", "0", "1", "2", "4"], "rt": [6898, 363, 244], "actions": ["up", "up", "left"], "actionTimes": [8876, 9753, 10518], "queries": {"click": {"state": {"target": ["4", "2", "3", "7", "6", "8", "12", "10", "11"], "time": [2646, 2934, 3280, 4065, 4595, 5053, 6199, 6468, 7113]}, "edge": {"target": [], "time": []}}, "mouseover": {"state": {"target": ["4", "2", "3", "7", "6", "8", "12", "12", "10", "11"], "time": [2378, 2828, 3160, 3827, 4492, 4959, 5609, 6075, 6375, 7025]}, "edge": {"target": [], "time": []}}, "mouseout": {"state": {"target": ["0", "4", "2", "3", "7", "6", "8", "12", "12", "10", "11", "0"], "time": [1429, 2795, 3112, 3460, 4426, 4925, 5226, 5675, 6324, 6674, 11271, 11520]}, "edge": {"target": [], "time": []}}}, "displayed_time": "11.99", "trialTime": 12368, "trial_type": "mouselab-mdp", "trial_index": 40, "time_elapsed": 849655, "internal_node_id": "0.0-4.0-1.0-25.0"}}, {"uniqueid": "w26879138:a69615806", "current_trial": 41, "dateTime": 1664556418651, "trialdata": {"revealed_states": [], "num_clicks_accrued": [0, 0, 0, 0, 0, 0, 0, 0, 0, 0, 0, 0, 0], "stateRewards": ["", 4, -4, 48, -48, 4, -4, 24, -24, 4, 8, -24, -48], "withholdReward": false, "trial_id": "mdp_433630527224", "block": "test1", "trialIndex": 30, "score": 50.75, "costs": -2.25, "simulationMode": [null, null, null], "rewards": [4, -4, 48], "path": ["0", "0", "1", "2", "3"], "rt": [7280, 299, 165], "actions": ["up", "up", "right"], "actionTimes": [7906, 8711, 9393], "queries": {"click": {"state": {"target": ["4", "2", "3", "7", "6", "8", "10", "11", "12"], "time": [1102, 1360, 2096, 3097, 3489, 4251, 5269, 5711, 6885]}, "edge": {"target": [], "time": []}}, "mouseover": {"state": {"target": ["4", "2", "3", "3", "7", "6", "8", "12", "10", "11", "12"], "time": [932, 1248, 1548, 2015, 2964, 3447, 4180, 4846, 5113, 5596, 6079]}, "edge": {"target": [], "time": []}}, "mouseout": {"state": {"target": ["0", "4", "2", "3", "3", "7", "6", "8", "12", "10", "11", "10", "12", "6"], "time": [765, 1231, 1499, 1598, 2365, 3247, 3779, 4413, 4896, 5561, 5911, 5997, 7129, 7210]}, "edge": {"target": [], "time": []}}}, "displayed_time": "9.91", "trialTime": 12485, "trial_type": "mouselab-mdp", "trial_index": 41, "time_elapsed": 862226, "internal_node_id": "0.0-4.0-1.0-26.0"}}, {"uniqueid": "w26879138:a69615806", "current_trial": 42, "dateTime": 1664556430107, "trialdata": {"revealed_states": [], "num_clicks_accrued": [0, 0, 0, 0, 0, 0, 0, 0, 0, 0, 0, 0, 0], "stateRewards": ["", 2, 4, 48, 48, 4, -8, 24, -48, -4, -8, -24, -48], "withholdReward": true, "trial_id": "mdp_343818007251", "block": "test1", "trialIndex": 31, "score": 56.75, "costs": -2.25, "simulationMode": [null, null, null], "rewards": [2, 4, 48], "path": ["0", "0", "1", "2", "4"], "rt": [6433, 95, 10], "actions": ["up", "up", "left"], "actionTimes": [7364, 7968, 8485], "queries": {"click": {"state": {"target": ["4", "3", "2", "7", "6", "8", "12", "10", "11"], "time": [1547, 3287, 3646, 4374, 4705, 5302, 5995, 6299, 6680]}, "edge": {"target": [], "time": []}}, "mouseover": {"state": {"target": ["1", "4", "2", "2", "2", "3", "2", "7", "6", "8", "8", "12", "10", "11"], "time": [1195, 1377, 1743, 2427, 2677, 3193, 3511, 4125, 4577, 4908, 5125, 5908, 6191, 6591]}, "edge": {"target": [], "time": []}}, "mouseout": {"state": {"target": ["1", "4", "2", "2", "2", "3", "2", "7", "6", "8", "8", "12", "10"], "time": [1228, 1727, 1776, 2510, 2760, 3443, 4027, 4526, 4892, 4973, 5575, 6141, 6524]}, "edge": {"target": [], "time": []}}}, "displayed_time": "9.01", "trialTime": 11379, "trial_type": "mouselab-mdp", "trial_index": 42, "time_elapsed": 873682, "internal_node_id": "0.0-4.0-1.0-27.0"}}, {"uniqueid": "w26879138:a69615806", "current_trial": 43, "dateTime": 1664556455114, "trialdata": {"revealed_states": [], "num_clicks_accrued": [0, 0, 0, 0, 0, 0, 0, 0, 0, 0, 0, 0, 0], "stateRewards": ["", 2, 4, -48, -48, 4, 4, -48, -48, -2, -8, 48, -24], "withholdReward": false, "trial_id": "mdp_175327338412", "block": "test1", "trialIndex": 32, "score": 40.75, "costs": -2.25, "simulationMode": [null, null, null], "rewards": [-2, -8, 48], "path": ["0", "0", "9", "10", "11"], "rt": [6556, 157, 44], "actions": ["left", "left", "up"], "actionTimes": [7317, 7986, 8541], "queries": {"click": {"state": {"target": ["4", "2", "3", "7", "6", "8", "12", "10", "11"], "time": [1378, 1763, 2147, 2828, 3438, 3921, 4611, 4999, 5941]}, "edge": {"target": [], "time": []}}, "mouseover": {"state": {"target": ["4", "2", "3", "7", "6", "8", "12", "10", "11"], "time": [1301, 1617, 2033, 2599, 3249, 3798, 4349, 4781, 5830]}, "edge": {"target": [], "time": []}}, "mouseout": {"state": {"target": ["11", "4", "2", "3", "7", "6", "8", "12", "10", "11"], "time": [417, 1583, 2000, 2482, 3132, 3733, 4216, 4748, 5347, 6280]}, "edge": {"target": [], "time": []}}}, "displayed_time": "9.77", "trialTime": 24932, "trial_type": "mouselab-mdp", "trial_index": 43, "time_elapsed": 898689, "internal_node_id": "0.0-4.0-1.0-28.0"}}, {"uniqueid": "w26879138:a69615806", "current_trial": 44, "dateTime": 1664556466400, "trialdata": {"revealed_states": [], "num_clicks_accrued": [0, 0, 0, 0, 0, 0, 0, 0, 0, 0, 0, 0, 0], "stateRewards": ["", -2, -4, -24, -48, -2, 8, -48, 24, 4, -4, -24, -24], "withholdReward": true, "trial_id": "mdp_915304165774", "block": "test1", "trialIndex": 33, "score": 32.75, "costs": -2.25, "simulationMode": [null, null, null], "rewards": [-2, 8, 24], "path": ["0", "0", "5", "6", "8"], "rt": [5089, 54, 465], "actions": ["right", "right", "down"], "actionTimes": [5945, 6510, 7501], "queries": {"click": {"state": {"target": ["4", "3", "2", "11", "10", "12", "7", "6", "8"], "time": [1401, 2112, 2581, 3066, 3393, 3734, 4257, 4706, 5246]}, "edge": {"target": [], "time": []}}, "mouseover": {"state": {"target": ["1", "4", "2", "3", "2", "11", "10", "12", "9", "7", "6", "8"], "time": [1155, 1273, 1588, 2023, 2438, 2871, 3253, 3654, 3936, 4021, 4686, 5153]}, "edge": {"target": [], "time": []}}, "mouseout": {"state": {"target": ["9", "0", "1", "4", "2", "3", "2", "11", "10", "12", "9", "7", "6", "8", "8", "8"], "time": [623, 1072, 1172, 1573, 1672, 2404, 2755, 3238, 3554, 3903, 3954, 4603, 5103, 5653, 9717, 9999]}, "edge": {"target": [], "time": []}}}, "displayed_time": "9.86", "trialTime": 11208, "trial_type": "mouselab-mdp", "trial_index": 44, "time_elapsed": 909975, "internal_node_id": "0.0-4.0-1.0-29.0"}}, {"uniqueid": "w26879138:a69615806", "current_trial": 45, "dateTime": 1664556489583, "trialdata": {"rt": 23178, "stimulus": "<h1> End of block! </h1>\n\nYou have reached the end of the block 1/4. If you need a short break, feel free to take one now before moving on.\n\n<br><br>\nIn the next block, you will complete another 30 rounds of this game.\n\n<br><br>\n<div style='text-align: center;'>Press <code>space</code> to begin.</div>\n<br><br>\n<div style='text-align: center;'>(If the experiment doesn't continue, try clicking on the text and then pressing <code>space</code>.)</div>", "response": " ", "trial_id": "mdp_ready_2", "trial_type": "html-keyboard-response", "trial_index": 45, "time_elapsed": 933158, "internal_node_id": "0.0-4.0-2.0"}}, {"uniqueid": "w26879138:a69615806", "current_trial": 46, "dateTime": 1664556501450, "trialdata": {"revealed_states": [], "num_clicks_accrued": [0, 0, 0, 0, 0, 0, 0, 0, 0, 0, 0, 0, 0], "stateRewards": ["", -4, -4, 48, 24, -4, -4, -24, -48, -4, 4, 48, -24], "withholdReward": false, "trial_id": "mdp_896503755738", "block": "test2", "trialIndex": 34, "score": 50.75, "costs": -2.25, "simulationMode": [null, null, null], "rewards": [-4, 4, 48], "path": ["0", "0", "9", "10", "11"], "rt": [6275, 159, 62], "actions": ["left", "left", "up"], "actionTimes": [7056, 7736, 8304], "queries": {"click": {"state": {"target": ["4", "2", "3", "7", "6", "8", "10", "11", "12"], "time": [1364, 2051, 2310, 2896, 3200, 3569, 4895, 5314, 6103]}, "edge": {"target": [], "time": []}}, "mouseover": {"state": {"target": ["4", "2", "2", "3", "7", "6", "8", "10", "11", "12", "12"], "time": [1230, 1546, 1947, 2229, 2745, 3096, 3479, 4728, 5260, 5509, 5977]}, "edge": {"target": [], "time": []}}, "mouseout": {"state": {"target": ["0", "4", "2", "2", "3", "7", "6", "8", "10", "11", "10", "12", "12", "12"], "time": [330, 1529, 1596, 2195, 2529, 3044, 3429, 3762, 5060, 5434, 5493, 5561, 6276, 9658]}, "edge": {"target": [], "time": []}}}, "displayed_time": "9.79", "trialTime": 11790, "trial_type": "mouselab-mdp", "trial_index": 46, "time_elapsed": 945025, "internal_node_id": "0.0-4.0-3.0-0.0"}}, {"uniqueid": "w26879138:a69615806", "current_trial": 47, "dateTime": 1664556512908, "trialdata": {"revealed_states": [], "num_clicks_accrued": [0, 0, 0, 0, 0, 0, 0, 0, 0, 0, 0, 0, 0], "stateRewards": ["", 4, 4, 24, -48, 2, -8, -24, -48, 4, 8, 48, 48], "withholdReward": true, "trial_id": "mdp_592471239511", "block": "test2", "trialIndex": 35, "score": 62.75, "costs": -2.25, "simulationMode": [null, null, null], "rewards": [4, 8, 48], "path": ["0", "0", "9", "10", "11"], "rt": [4945, 502, 466], "actions": ["left", "left", "up"], "actionTimes": [5926, 6938, 7918], "queries": {"click": {"state": {"target": ["4", "2", "3", "7", "6", "8", "12", "11", "10"], "time": [1856, 2200, 2522, 3021, 3361, 3689, 4360, 5060, 5433]}, "edge": {"target": [], "time": []}}, "mouseover": {"state": {"target": ["4", "2", "3", "7", "6", "8", "12", "10", "11", "10"], "time": [1422, 2071, 2404, 2938, 3254, 3603, 4269, 4519, 4903, 5285]}, "edge": {"target": [], "time": []}}, "mouseout": {"state": {"target": ["0", "4", "2", "3", "7", "6", "8", "12", "10", "11", "10"], "time": [1322, 2038, 2371, 2887, 3222, 3570, 3870, 4503, 4552, 5236, 8783]}, "edge": {"target": [], "time": []}}}, "displayed_time": "10.98", "trialTime": 11383, "trial_type": "mouselab-mdp", "trial_index": 47, "time_elapsed": 956483, "internal_node_id": "0.0-4.0-3.0-1.0"}}, {"uniqueid": "w26879138:a69615806", "current_trial": 48, "dateTime": 1664556525550, "trialdata": {"revealed_states": [], "num_clicks_accrued": [0, 0, 0, 0, 0, 0, 0, 0, 0, 0, 0, 0, 0], "stateRewards": ["", 4, 4, -24, -48, 2, 4, 24, -48, 2, 4, 24, 24], "withholdReward": true, "trial_id": "mdp_223558518218", "block": "test2", "trialIndex": 36, "score": 32.75, "costs": -2.25, "simulationMode": [null, null, null], "rewards": [2, 4, 24], "path": ["0", "0", "9", "10", "11"], "rt": [7220, 684, 41], "actions": ["left", "left", "up"], "actionTimes": [8031, 9223, 9778], "queries": {"click": {"state": {"target": ["4", "2", "3", "7", "6", "8", "12", "10", "11"], "time": [1723, 2287, 2655, 3246, 3549, 3944, 4597, 4900, 5286]}, "edge": {"target": [], "time": []}}, "mouseover": {"state": {"target": ["4", "4", "2", "3", "7", "6", "8", "12", "10", "11"], "time": [1209, 1575, 2174, 2507, 3108, 3458, 3907, 4506, 4789, 5156]}, "edge": {"target": [], "time": []}}, "mouseout": {"state": {"target": ["0", "4", "4", "2", "3", "7", "6", "8", "12", "10"], "time": [1075, 1309, 2041, 2491, 3008, 3424, 3807, 4122, 4739, 5106]}, "edge": {"target": [], "time": []}}}, "displayed_time": "10.29", "trialTime": 12552, "trial_type": "mouselab-mdp", "trial_index": 48, "time_elapsed": 969124, "internal_node_id": "0.0-4.0-3.0-2.0"}}, {"uniqueid": "w26879138:a69615806", "current_trial": 49, "dateTime": 1664556537786, "trialdata": {"revealed_states": [], "num_clicks_accrued": [0, 0, 0, 0, 0, 0, 0, 0, 0, 0, 0, 0, 0], "stateRewards": ["", -4, 8, 24, -24, 4, 8, -24, -48, 2, 4, 24, -24], "withholdReward": false, "trial_id": "mdp_782187007008", "block": "test2", "trialIndex": 37, "score": 32.75, "costs": -2.25, "simulationMode": [null, null, null], "rewards": [2, 4, 24], "path": ["0", "0", "9", "10", "11"], "rt": [5881, 631, 143], "actions": ["left", "left", "up"], "actionTimes": [7203, 8328, 8988], "queries": {"click": {"state": {"target": ["4", "2", "3", "7", "6", "8", "12", "10", "11"], "time": [1969, 2338, 2699, 3144, 3733, 4439, 5158, 5462, 5984]}, "edge": {"target": [], "time": []}}, "mouseover": {"state": {"target": ["4", "2", "3", "7", "6", "8", "12", "10", "11"], "time": [1848, 2181, 2581, 3063, 3644, 4278, 5047, 5330, 5879]}, "edge": {"target": [], "time": []}}, "mouseout": {"state": {"target": ["11", "0", "4", "2", "3", "7", "6", "8", "12", "10"], "time": [598, 1649, 2132, 2548, 2897, 3497, 4247, 4613, 5295, 5845]}, "edge": {"target": [], "time": []}}}, "displayed_time": "10.33", "trialTime": 12154, "trial_type": "mouselab-mdp", "trial_index": 49, "time_elapsed": 981361, "internal_node_id": "0.0-4.0-3.0-3.0"}}, {"uniqueid": "w26879138:a69615806", "current_trial": 50, "dateTime": 1664556548710, "trialdata": {"revealed_states": [], "num_clicks_accrued": [0, 0, 0, 0, 0, 0, 0, 0, 0, 0, 0, 0, 0], "stateRewards": ["", -2, 8, 48, -24, 2, 4, -48, -24, -4, 8, -48, -48], "withholdReward": true, "trial_id": "mdp_539167561933", "block": "test2", "trialIndex": 38, "score": 56.75, "costs": -2.25, "simulationMode": [null, null, null], "rewards": [-2, 8, 48], "path": ["0", "0", "1", "2", "3"], "rt": [6672, 56, 161], "actions": ["up", "up", "right"], "actionTimes": [7735, 8311, 8982], "queries": {"click": {"state": {"target": ["4", "2", "3", "7", "6", "8", "12", "10", "11"], "time": [1618, 2053, 2955, 3659, 4200, 4862, 5417, 5756, 6673]}, "edge": {"target": [], "time": []}}, "mouseover": {"state": {"target": ["4", "2", "3", "3", "7", "6", "8", "12", "10", "11", "11"], "time": [1525, 1941, 2240, 2791, 3290, 4105, 4756, 5155, 5672, 5903, 6504]}, "edge": {"target": [], "time": []}}, "mouseout": {"state": {"target": ["11", "4", "2", "3", "3", "7", "6", "8", "12", "10", "11", "11"], "time": [542, 1908, 2225, 2274, 3173, 4072, 4457, 5005, 5604, 5888, 5988, 6859]}, "edge": {"target": [], "time": []}}}, "displayed_time": "10.06", "trialTime": 10847, "trial_type": "mouselab-mdp", "trial_index": 50, "time_elapsed": 992285, "internal_node_id": "0.0-4.0-3.0-4.0"}}, {"uniqueid": "w26879138:a69615806", "current_trial": 51, "dateTime": 1664556570766, "trialdata": {"revealed_states": [], "num_clicks_accrued": [0, 0, 0, 0, 0, 0, 0, 0, 0, 0, 0, 0, 0], "stateRewards": ["", 2, 8, 24, -48, 4, 8, 24, 48, 2, -8, -24, 24], "withholdReward": false, "trial_id": "mdp_939899431582", "block": "test2", "trialIndex": 39, "score": 62.75, "costs": -2.25, "simulationMode": [null, null, null], "rewards": [4, 8, 48], "path": ["0", "0", "5", "6", "8"], "rt": [7274, 163, 110], "actions": ["right", "right", "down"], "actionTimes": [8083, 8767, 9395], "queries": {"click": {"state": {"target": ["4", "2", "3", "7", "6", "8", "12", "11", "10"], "time": [1429, 1699, 1998, 2897, 3259, 4800, 5517, 6360, 6684]}, "edge": {"target": [], "time": []}}, "mouseover": {"state": {"target": ["4", "2", "3", "7", "6", "8", "12", "10", "11", "10"], "time": [1305, 1590, 1906, 2822, 3171, 4588, 5288, 5990, 6104, 6619]}, "edge": {"target": [], "time": []}}, "mouseout": {"state": {"target": ["10", "9", "0", "4", "2", "3", "7", "6", "8", "12", "10", "11", "10", "9"], "time": [456, 523, 1056, 1557, 1873, 2288, 3138, 3437, 4938, 5719, 6054, 6503, 10200, 10233]}, "edge": {"target": [], "time": []}}}, "displayed_time": "9.90", "trialTime": 21976, "trial_type": "mouselab-mdp", "trial_index": 51, "time_elapsed": 1014341, "internal_node_id": "0.0-4.0-3.0-5.0"}}, {"uniqueid": "w26879138:a69615806", "current_trial": 52, "dateTime": 1664556584240, "trialdata": {"revealed_states": [], "num_clicks_accrued": [0, 0, 0, 0, 0, 0, 0, 0, 0, 0, 0, 0, 0], "stateRewards": ["", -2, -4, -24, -24, 4, 8, 24, 24, -2, 8, 48, 48], "withholdReward": false, "trial_id": "mdp_620787912291", "block": "test2", "trialIndex": 40, "score": -25, "costs": 0, "simulationMode": [null, null, null], "rewards": [-2, -4, -24], "path": ["0", "0", "1", "2", "3"], "rt": [5792, 164, 2046], "actions": ["up", "up", "right"], "actionTimes": [6645, 7316, 9880], "queries": {"click": {"state": {"target": [], "time": []}, "edge": {"target": [], "time": []}}, "mouseover": {"state": {"target": [], "time": []}, "edge": {"target": [], "time": []}}, "mouseout": {"state": {"target": ["0", "0"], "time": [647, 11114]}, "edge": {"target": [], "time": []}}}, "displayed_time": "10.40", "trialTime": 13395, "trial_type": "mouselab-mdp", "trial_index": 52, "time_elapsed": 1027815, "internal_node_id": "0.0-4.0-3.0-6.0"}}, {"uniqueid": "w26879138:a69615806", "current_trial": 53, "dateTime": 1664556595733, "trialdata": {"revealed_states": [], "num_clicks_accrued": [0, 0, 0, 0, 0, 0, 0, 0, 0, 0, 0, 0, 0], "stateRewards": ["", -4, -8, 48, 24, 4, -8, 24, -48, -2, -8, 24, -48], "withholdReward": true, "trial_id": "mdp_952038635544", "block": "test2", "trialIndex": 41, "score": 38.75, "costs": -2.25, "simulationMode": [null, null, null], "rewards": [-4, -8, 48], "path": ["0", "0", "1", "2", "3"], "rt": [6130, 159, 402], "actions": ["up", "up", "right"], "actionTimes": [7157, 7809, 8719], "queries": {"click": {"state": {"target": ["4", "3", "2", "7", "6", "8", "12", "10", "11"], "time": [1618, 2330, 2584, 3259, 3684, 3996, 4570, 4891, 5315]}, "edge": {"target": [], "time": []}}, "mouseover": {"state": {"target": ["1", "4", "2", "3", "2", "7", "6", "8", "12", "10", "11"], "time": [1170, 1519, 1769, 2237, 2454, 3170, 3570, 3935, 4284, 4769, 5234]}, "edge": {"target": [], "time": []}}, "mouseout": {"state": {"target": ["4", "0", "1", "4", "2", "3", "2", "7", "6", "8", "12", "10", "11", "10"], "time": [420, 1104, 1220, 1755, 1821, 2449, 2837, 3536, 3885, 4150, 4684, 5117, 9515, 9581]}, "edge": {"target": [], "time": []}}}, "displayed_time": "10.03", "trialTime": 11399, "trial_type": "mouselab-mdp", "trial_index": 53, "time_elapsed": 1039308, "internal_node_id": "0.0-4.0-3.0-7.0"}}, {"uniqueid": "w26879138:a69615806", "current_trial": 54, "dateTime": 1664556612309, "trialdata": {"revealed_states": [], "num_clicks_accrued": [0, 0, 0, 0, 0, 0, 0, 0, 0, 0, 0, 0, 0], "stateRewards": ["", 4, -4, 48, -48, -4, -4, 48, -48, 4, 4, -48, -24], "withholdReward": true, "trial_id": "mdp_490058671112", "block": "test2", "trialIndex": 42, "score": 50.25, "costs": -2.75, "simulationMode": [null, null, null], "rewards": [4, -4, 48], "path": ["0", "0", "1", "2", "3"], "rt": [13175, 128, 165], "actions": ["up", "up", "right"], "actionTimes": [13774, 14417, 15104], "queries": {"click": {"state": {"target": ["2", "3", "4", "11", "10", "12", "7", "6", "8", "5", "1"], "time": [1181, 1552, 1920, 2393, 2771, 3075, 4332, 4622, 4944, 12097, 12537]}, "edge": {"target": [], "time": []}}, "mouseover": {"state": {"target": ["1", "2", "3", "4", "11", "10", "12", "0", "5", "7", "7", "6", "8", "0", "5", "0", "0", "5", "1"], "time": [897, 1029, 1463, 1796, 2247, 2611, 3045, 3546, 3845, 3894, 4210, 4509, 4877, 8276, 8825, 10190, 11324, 11656, 12389]}, "edge": {"target": [], "time": []}}, "mouseout": {"state": {"target": ["0", "1", "2", "3", "2", "4", "11", "10", "12", "0", "5", "7", "7", "6", "8", "0", "5", "0", "0", "5", "1", "7", "6"], "time": [831, 980, 1364, 1686, 1746, 2179, 2563, 2945, 3480, 3579, 3861, 3944, 4494, 4810, 5161, 8708, 10157, 11006, 11339, 12272, 12839, 12938, 15919]}, "edge": {"target": [], "time": []}}}, "displayed_time": "15.62", "trialTime": 16491, "trial_type": "mouselab-mdp", "trial_index": 54, "time_elapsed": 1055884, "internal_node_id": "0.0-4.0-3.0-8.0"}}, {"uniqueid": "w26879138:a69615806", "current_trial": 55, "dateTime": 1664556623344, "trialdata": {"revealed_states": [], "num_clicks_accrued": [0, 0, 0, 0, 0, 0, 0, 0, 0, 0, 0, 0, 0], "stateRewards": ["", -2, 8, 48, 24, 2, -8, -24, -48, -4, 8, -48, 24], "withholdReward": true, "trial_id": "mdp_224053025943", "block": "test2", "trialIndex": 43, "score": 56.75, "costs": -2.25, "simulationMode": [null, null, null], "rewards": [-2, 8, 48], "path": ["0", "0", "1", "2", "3"], "rt": [7634, 133, 309], "actions": ["up", "up", "right"], "actionTimes": [8395, 9041, 9866], "queries": {"click": {"state": {"target": ["2", "4", "3", "7", "6", "8", "12", "10", "11"], "time": [1636, 2653, 3249, 3680, 4426, 4835, 6048, 6376, 6956]}, "edge": {"target": [], "time": []}}, "mouseover": {"state": {"target": ["1", "4", "2", "3", "3", "4", "3", "7", "6", "8", "12", "10", "11"], "time": [844, 1436, 1526, 1844, 2113, 2527, 3144, 3543, 3962, 4760, 5909, 6309, 6809]}, "edge": {"target": [], "time": []}}, "mouseout": {"state": {"target": ["1", "4", "2", "3", "3", "2", "4", "2", "3", "7", "6", "8", "12", "10"], "time": [978, 1461, 1812, 1895, 2150, 2428, 2776, 2845, 3460, 3913, 4709, 4975, 6224, 6630]}, "edge": {"target": [], "time": []}}}, "displayed_time": "10.37", "trialTime": 10953, "trial_type": "mouselab-mdp", "trial_index": 55, "time_elapsed": 1066918, "internal_node_id": "0.0-4.0-3.0-9.0"}}, {"uniqueid": "w26879138:a69615806", "current_trial": 56, "dateTime": 1664556633974, "trialdata": {"revealed_states": [], "num_clicks_accrued": [0, 0, 0, 0, 0, 0, 0, 0, 0, 0, 0, 0, 0], "stateRewards": ["", 2, -4, 24, 24, 2, 4, 24, 24, -4, 8, 24, 48], "withholdReward": true, "trial_id": "mdp_268430387178", "block": "test2", "trialIndex": 44, "score": 54.75, "costs": -2.25, "simulationMode": [null, null, null], "rewards": [-4, 8, 48], "path": ["0", "0", "9", "10", "12"], "rt": [4929, 189, 228], "actions": ["left", "left", "down"], "actionTimes": [6297, 7004, 7743], "queries": {"click": {"state": {"target": ["4", "3", "2", "7", "6", "8", "12", "10", "11"], "time": [1799, 2593, 2947, 3514, 3959, 4284, 4905, 5211, 5823]}, "edge": {"target": [], "time": []}}, "mouseover": {"state": {"target": ["4", "2", "3", "2", "7", "6", "8", "12", "10", "11"], "time": [1702, 1968, 2468, 2801, 3302, 3834, 4199, 4682, 5083, 5683]}, "edge": {"target": [], "time": []}}, "mouseout": {"state": {"target": ["11", "4", "2", "3", "2", "3", "7", "6", "8", "12", "10", "11", "10"], "time": [984, 1935, 2001, 2750, 3118, 3184, 3784, 4133, 4448, 5033, 5598, 8697, 8746]}, "edge": {"target": [], "time": []}}}, "displayed_time": "10.37", "trialTime": 10549, "trial_type": "mouselab-mdp", "trial_index": 56, "time_elapsed": 1077549, "internal_node_id": "0.0-4.0-3.0-10.0"}}, {"uniqueid": "w26879138:a69615806", "current_trial": 57, "dateTime": 1664556644219, "trialdata": {"revealed_states": [], "num_clicks_accrued": [0, 0, 0, 0, 0, 0, 0, 0, 0, 0, 0, 0, 0], "stateRewards": ["", 4, -8, 24, 48, -2, -4, -48, 24, 2, 4, -48, -24], "withholdReward": true, "trial_id": "mdp_749974461966", "block": "test2", "trialIndex": 45, "score": 46.75, "costs": -2.25, "simulationMode": [null, null, null], "rewards": [4, -8, 48], "path": ["0", "0", "1", "2", "4"], "rt": [5514, 137, 322], "actions": ["up", "up", "left"], "actionTimes": [6292, 6937, 7770], "queries": {"click": {"state": {"target": ["4", "2", "3", "7", "6", "8", "12", "10", "11"], "time": [1438, 1729, 2048, 2628, 3210, 3652, 4223, 4493, 4815]}, "edge": {"target": [], "time": []}}, "mouseover": {"state": {"target": ["4", "2", "3", "7", "6", "8", "12", "10", "11"], "time": [1351, 1617, 1934, 2534, 3033, 3516, 3917, 4348, 4682]}, "edge": {"target": [], "time": []}}, "mouseout": {"state": {"target": ["9", "0", "4", "2", "3", "7", "6", "8", "12", "10", "11", "10", "12"], "time": [418, 1018, 1600, 1900, 2283, 2983, 3483, 3781, 4332, 4649, 8744, 8797, 8911]}, "edge": {"target": [], "time": []}}}, "displayed_time": "9.78", "trialTime": 10167, "trial_type": "mouselab-mdp", "trial_index": 57, "time_elapsed": 1087794, "internal_node_id": "0.0-4.0-3.0-11.0"}}, {"uniqueid": "w26879138:a69615806", "current_trial": 58, "dateTime": 1664556653775, "trialdata": {"revealed_states": [], "num_clicks_accrued": [0, 0, 0, 0, 0, 0, 0, 0, 0, 0, 0, 0, 0], "stateRewards": ["", -2, -4, 48, -24, -4, -4, -24, -24, -2, 4, -48, -24], "withholdReward": true, "trial_id": "mdp_410467837196", "block": "test2", "trialIndex": 46, "score": 44.75, "costs": -2.25, "simulationMode": [null, null, null], "rewards": [-2, -4, 48], "path": ["0", "0", "1", "2", "3"], "rt": [6125, 98, 35], "actions": ["up", "up", "right"], "actionTimes": [6883, 7499, 8052], "queries": {"click": {"state": {"target": ["4", "2", "3", "7", "6", "8", "12", "10", "11"], "time": [1419, 1678, 1982, 2563, 3136, 3965, 4668, 5267, 5737]}, "edge": {"target": [], "time": []}}, "mouseover": {"state": {"target": ["4", "2", "3", "7", "6", "8", "8", "12", "10", "11"], "time": [1321, 1603, 1904, 2436, 3037, 3469, 3786, 4601, 5135, 5568]}, "edge": {"target": [], "time": []}}, "mouseout": {"state": {"target": ["0", "4", "2", "3", "7", "6", "8", "8", "12", "10", "11", "9"], "time": [1021, 1571, 1870, 2370, 2853, 3453, 3502, 4186, 4767, 5517, 8849, 8983]}, "edge": {"target": [], "time": []}}}, "displayed_time": "8.76", "trialTime": 9467, "trial_type": "mouselab-mdp", "trial_index": 58, "time_elapsed": 1097350, "internal_node_id": "0.0-4.0-3.0-12.0"}}, {"uniqueid": "w26879138:a69615806", "current_trial": 59, "dateTime": 1664556663932, "trialdata": {"revealed_states": [], "num_clicks_accrued": [0, 0, 0, 0, 0, 0, 0, 0, 0, 0, 0, 0, 0], "stateRewards": ["", -4, 8, 24, 24, 2, 4, -48, 24, -2, -4, -24, -24], "withholdReward": true, "trial_id": "mdp_752328329546", "block": "test2", "trialIndex": 47, "score": 30.75, "costs": -2.25, "simulationMode": [null, null, null], "rewards": [-4, 8, 24], "path": ["0", "0", "1", "2", "4"], "rt": [6888, 379, 43], "actions": ["up", "up", "left"], "actionTimes": [7655, 8543, 9107], "queries": {"click": {"state": {"target": ["4", "2", "3", "7", "6", "8", "12", "10", "11"], "time": [1477, 1798, 2232, 2997, 3286, 4011, 4739, 5094, 5812]}, "edge": {"target": [], "time": []}}, "mouseover": {"state": {"target": ["4", "2", "3", "7", "6", "8", "12", "10", "11", "11"], "time": [1220, 1667, 2151, 2884, 3216, 3900, 4632, 4948, 5230, 5631]}, "edge": {"target": [], "time": []}}, "mouseout": {"state": {"target": ["0", "4", "2", "3", "7", "6", "8", "12", "10", "11", "11"], "time": [1051, 1652, 2100, 2466, 3167, 3516, 4164, 4880, 5216, 5265, 6081]}, "edge": {"target": [], "time": []}}}, "displayed_time": "9.77", "trialTime": 10077, "trial_type": "mouselab-mdp", "trial_index": 59, "time_elapsed": 1107507, "internal_node_id": "0.0-4.0-3.0-13.0"}}, {"uniqueid": "w26879138:a69615806", "current_trial": 60, "dateTime": 1664556673501, "trialdata": {"revealed_states": [], "num_clicks_accrued": [0, 0, 0, 0, 0, 0, 0, 0, 0, 0, 0, 0, 0], "stateRewards": ["", 2, 4, 48, 24, -2, -8, 24, 24, -2, 4, -48, 24], "withholdReward": false, "trial_id": "mdp_130849500124", "block": "test2", "trialIndex": 48, "score": 56.75, "costs": -2.25, "simulationMode": [null, null, null], "rewards": [2, 4, 48], "path": ["0", "0", "1", "2", "3"], "rt": [5544, 251, 176], "actions": ["up", "up", "right"], "actionTimes": [6646, 7414, 8104], "queries": {"click": {"state": {"target": ["4", "2", "3", "7", "6", "8", "12", "10", "11"], "time": [1573, 1846, 2131, 2928, 3186, 4089, 4644, 4930, 5697]}, "edge": {"target": [], "time": []}}, "mouseover": {"state": {"target": ["4", "2", "3", "7", "6", "8", "12", "10", "11"], "time": [1498, 1731, 2048, 2781, 3097, 3979, 4428, 4794, 5528]}, "edge": {"target": [], "time": []}}, "mouseout": {"state": {"target": ["10", "9", "0", "4", "2", "3", "7", "6", "8", "12", "10", "11", "12"], "time": [714, 780, 1181, 1714, 1978, 2347, 3048, 3346, 4229, 4778, 5128, 6012, 8759]}, "edge": {"target": [], "time": []}}}, "displayed_time": "9.11", "trialTime": 9483, "trial_type": "mouselab-mdp", "trial_index": 60, "time_elapsed": 1117075, "internal_node_id": "0.0-4.0-3.0-14.0"}}, {"uniqueid": "w26879138:a69615806", "current_trial": 61, "dateTime": 1664556690346, "trialdata": {"revealed_states": [], "num_clicks_accrued": [0, 0, 0, 0, 0, 0, 0, 0, 0, 0, 0, 0, 0], "stateRewards": ["", 2, 8, -24, -48, -4, 8, -48, -48, -2, -8, -24, -24], "withholdReward": false, "trial_id": "mdp_978177451072", "block": "test2", "trialIndex": 49, "score": -12, "costs": -3, "simulationMode": [null, null, null], "rewards": [2, 8, -24], "path": ["0", "0", "1", "2", "3"], "rt": [12420, 284, 211], "actions": ["up", "up", "right"], "actionTimes": [13735, 14524, 15250], "queries": {"click": {"state": {"target": ["4", "2", "3", "7", "6", "8", "12", "10", "11", "1", "9", "5"], "time": [1902, 2704, 3337, 4003, 4477, 4849, 5400, 5771, 6277, 10704, 11042, 12092]}, "edge": {"target": [], "time": []}}, "mouseover": {"state": {"target": ["1", "4", "2", "2", "3", "3", "7", "7", "6", "8", "12", "10", "11", "1", "9", "5", "5"], "time": [1581, 1716, 2114, 2631, 2847, 3197, 3763, 3829, 4346, 4711, 5131, 5579, 6129, 10594, 10941, 11541, 11874]}, "edge": {"target": [], "time": []}}, "mouseout": {"state": {"target": ["0", "1", "4", "2", "2", "3", "3", "7", "7", "6", "8", "12", "10", "11", "1", "9", "5", "5", "6", "8"], "time": [1516, 1631, 2098, 2148, 2830, 2898, 3681, 3779, 4294, 4696, 4978, 5545, 6096, 6694, 10807, 11273, 11608, 12241, 12307, 16155]}, "edge": {"target": [], "time": []}}}, "displayed_time": "15.76", "trialTime": 16753, "trial_type": "mouselab-mdp", "trial_index": 61, "time_elapsed": 1133921, "internal_node_id": "0.0-4.0-3.0-15.0"}}, {"uniqueid": "w26879138:a69615806", "current_trial": 62, "dateTime": 1664556700652, "trialdata": {"revealed_states": [], "num_clicks_accrued": [0, 0, 0, 0, 0, 0, 0, 0, 0, 0, 0, 0, 0], "stateRewards": ["", 2, 4, -24, -24, 4, 8, -48, 48, 2, 4, -24, -48], "withholdReward": true, "trial_id": "mdp_565165082781", "block": "test2", "trialIndex": 50, "score": 62.75, "costs": -2.25, "simulationMode": [null, null, null], "rewards": [4, 8, 48], "path": ["0", "0", "5", "6", "8"], "rt": [4377, 96, 215], "actions": ["right", "right", "down"], "actionTimes": [5030, 5624, 6359], "queries": {"click": {"state": {"target": ["4", "2", "3", "7", "6", "8", "12", "10", "11"], "time": [1349, 1653, 2000, 2550, 2869, 3187, 3841, 4113, 4423]}, "edge": {"target": [], "time": []}}, "mouseover": {"state": {"target": ["1", "4", "2", "3", "7", "6", "8", "12", "10", "11"], "time": [863, 1213, 1563, 1896, 2428, 2745, 3078, 3595, 3995, 4310]}, "edge": {"target": [], "time": []}}, "mouseout": {"state": {"target": ["0", "1", "4", "2", "3", "7", "6", "8", "12", "10", "11", "0"], "time": [530, 930, 1529, 1863, 2246, 2729, 3045, 3479, 3960, 4269, 4660, 7342]}, "edge": {"target": [], "time": []}}}, "displayed_time": "9.65", "trialTime": 10236, "trial_type": "mouselab-mdp", "trial_index": 62, "time_elapsed": 1144227, "internal_node_id": "0.0-4.0-3.0-16.0"}}, {"uniqueid": "w26879138:a69615806", "current_trial": 63, "dateTime": 1664556709932, "trialdata": {"revealed_states": [], "num_clicks_accrued": [0, 0, 0, 0, 0, 0, 0, 0, 0, 0, 0, 0, 0], "stateRewards": ["", 2, 8, -48, 24, -4, 8, 48, -24, 2, 8, 24, 24], "withholdReward": true, "trial_id": "mdp_175372499314", "block": "test2", "trialIndex": 51, "score": 54.75, "costs": -2.25, "simulationMode": [null, null, null], "rewards": [-4, 8, 48], "path": ["0", "0", "5", "6", "7"], "rt": [5581, 198, 193], "actions": ["right", "right", "up"], "actionTimes": [6243, 6958, 7669], "queries": {"click": {"state": {"target": ["4", "2", "3", "7", "6", "8", "12", "10", "11"], "time": [1339, 1610, 1881, 2449, 2941, 3541, 4226, 4459, 5230]}, "edge": {"target": [], "time": []}}, "mouseover": {"state": {"target": ["4", "2", "3", "7", "6", "8", "12", "12", "10", "11"], "time": [1279, 1512, 1795, 2328, 2845, 3428, 3744, 4112, 4359, 5143]}, "edge": {"target": [], "time": []}}, "mouseout": {"state": {"target": ["0", "4", "2", "3", "7", "6", "8", "12", "12", "10", "11"], "time": [930, 1480, 1778, 2262, 2779, 3127, 3692, 3760, 4343, 4661, 5400]}, "edge": {"target": [], "time": []}}}, "displayed_time": "8.67", "trialTime": 9206, "trial_type": "mouselab-mdp", "trial_index": 63, "time_elapsed": 1153507, "internal_node_id": "0.0-4.0-3.0-17.0"}}, {"uniqueid": "w26879138:a69615806", "current_trial": 64, "dateTime": 1664556729479, "trialdata": {"revealed_states": [], "num_clicks_accrued": [0, 0, 0, 0, 0, 0, 0, 0, 0, 0, 0, 0, 0], "stateRewards": ["", -2, -4, -24, 48, -4, 8, 48, 48, 2, 8, -48, -24], "withholdReward": true, "trial_id": "mdp_136376573354", "block": "test2", "trialIndex": 52, "score": 54.75, "costs": -2.25, "simulationMode": [null, null, null], "rewards": [-4, 8, 48], "path": ["0", "0", "5", "6", "7"], "rt": [7095, 147, 108], "actions": ["right", "right", "up"], "actionTimes": [9995, 10655, 11282], "queries": {"click": {"state": {"target": ["2", "4", "3", "7", "6", "8", "11", "12", "10"], "time": [3874, 4194, 5476, 6058, 6401, 6740, 8194, 8648, 8919]}, "edge": {"target": [], "time": []}}, "mouseover": {"state": {"target": ["1", "2", "4", "3", "3", "7", "6", "8", "10", "11", "10", "12", "10"], "time": [3478, 3777, 4076, 5025, 5344, 5810, 6292, 6642, 7642, 8075, 8373, 8524, 8790]}, "edge": {"target": [], "time": []}}, "mouseout": {"state": {"target": ["12", "0", "1", "2", "4", "2", "3", "3", "7", "6", "8", "10", "11", "10", "12", "10", "8"], "time": [1827, 3195, 3645, 3995, 4309, 4411, 5076, 5777, 6210, 6609, 6908, 7708, 8358, 8407, 8757, 9358, 18983]}, "edge": {"target": [], "time": []}}}, "displayed_time": "11.79", "trialTime": 19476, "trial_type": "mouselab-mdp", "trial_index": 64, "time_elapsed": 1173054, "internal_node_id": "0.0-4.0-3.0-18.0"}}, {"uniqueid": "w26879138:a69615806", "current_trial": 65, "dateTime": 1664556743878, "trialdata": {"revealed_states": [], "num_clicks_accrued": [0, 0, 0, 0, 0, 0, 0, 0, 0, 0, 0, 0, 0], "stateRewards": ["", 2, -8, 48, -24, -4, -8, -24, 48, -2, 4, 24, -48], "withholdReward": true, "trial_id": "mdp_186932504904", "block": "test2", "trialIndex": 53, "score": 44.5, "costs": -2.5, "simulationMode": [null, null, null], "rewards": [2, -8, 48], "path": ["0", "0", "1", "2", "3"], "rt": [9785, 560, 339], "actions": ["up", "up", "right"], "actionTimes": [11051, 12127, 12972], "queries": {"click": {"state": {"target": ["4", "3", "7", "8", "12", "11", "2", "6", "1", "5"], "time": [2161, 2836, 3551, 4125, 4864, 5535, 7268, 7969, 8891, 9467]}, "edge": {"target": [], "time": []}}, "mouseover": {"state": {"target": ["4", "2", "3", "7", "6", "8", "12", "10", "11", "9", "0", "6", "6", "2", "6", "1", "1", "5"], "time": [1989, 2357, 2673, 3204, 3721, 3839, 4753, 5071, 5238, 6037, 6069, 6370, 6669, 6939, 7885, 8368, 8684, 9352]}, "edge": {"target": [], "time": []}}, "mouseout": {"state": {"target": ["0", "9", "4", "2", "3", "7", "6", "8", "12", "10", "11", "9", "0", "6", "6", "2", "6", "1", "1", "5", "3"], "time": [457, 973, 2323, 2406, 3171, 3705, 3771, 4273, 5039, 5103, 5971, 6053, 6119, 6504, 6870, 7418, 8285, 8535, 9101, 9801, 9917]}, "edge": {"target": [], "time": []}}}, "displayed_time": "13.48", "trialTime": 14332, "trial_type": "mouselab-mdp", "trial_index": 65, "time_elapsed": 1187453, "internal_node_id": "0.0-4.0-3.0-19.0"}}, {"uniqueid": "w26879138:a69615806", "current_trial": 66, "dateTime": 1664556754832, "trialdata": {"revealed_states": [], "num_clicks_accrued": [0, 0, 0, 0, 0, 0, 0, 0, 0, 0, 0, 0, 0], "stateRewards": ["", -4, -4, 24, 48, 4, -4, -24, 24, -4, -4, 24, 24], "withholdReward": true, "trial_id": "mdp_357725458160", "block": "test2", "trialIndex": 54, "score": 43, "costs": -2, "simulationMode": [null, null, null], "rewards": [-4, -4, 48], "path": ["0", "0", "1", "2", "4"], "rt": [6268, 83, 219], "actions": ["up", "up", "left"], "actionTimes": [7479, 8071, 8804], "queries": {"click": {"state": {"target": ["2", "4", "3", "7", "8", "12", "11", "1"], "time": [1935, 2326, 3354, 4020, 4412, 5229, 5934, 6764]}, "edge": {"target": [], "time": []}}, "mouseover": {"state": {"target": ["1", "2", "4", "3", "7", "6", "8", "12", "10", "11", "10", "1"], "time": [1473, 1541, 2171, 3238, 3739, 4187, 4255, 5087, 5370, 5587, 6187, 6568]}, "edge": {"target": [], "time": []}}, "mouseout": {"state": {"target": ["3", "0", "0", "1", "2", "4", "2", "3", "7", "6", "8", "12", "10", "11", "10", "1", "0"], "time": [391, 624, 857, 1506, 2155, 2506, 2722, 3671, 4173, 4222, 4587, 5355, 5438, 6154, 6387, 7020, 9351]}, "edge": {"target": [], "time": []}}}, "displayed_time": "10.21", "trialTime": 10863, "trial_type": "mouselab-mdp", "trial_index": 66, "time_elapsed": 1198407, "internal_node_id": "0.0-4.0-3.0-20.0"}}, {"uniqueid": "w26879138:a69615806", "current_trial": 67, "dateTime": 1664556765167, "trialdata": {"revealed_states": [], "num_clicks_accrued": [0, 0, 0, 0, 0, 0, 0, 0, 0, 0, 0, 0, 0], "stateRewards": ["", 2, -4, 48, -24, 4, -8, -24, 48, -2, -4, 24, -48], "withholdReward": true, "trial_id": "mdp_357328205509", "block": "test2", "trialIndex": 55, "score": 48.75, "costs": -2.25, "simulationMode": [null, null, null], "rewards": [2, -4, 48], "path": ["0", "0", "1", "2", "3"], "rt": [6439, 66, 525], "actions": ["up", "up", "right"], "actionTimes": [7398, 7979, 9020], "queries": {"click": {"state": {"target": ["4", "2", "3", "7", "6", "8", "12", "10", "11"], "time": [1512, 1753, 2141, 2617, 2924, 3724, 4279, 4552, 5434]}, "edge": {"target": [], "time": []}}, "mouseover": {"state": {"target": ["1", "4", "2", "3", "7", "6", "8", "12", "10", "11"], "time": [1234, 1367, 1683, 2001, 2531, 2831, 3664, 4081, 4465, 5264]}, "edge": {"target": [], "time": []}}, "mouseout": {"state": {"target": ["0", "1", "4", "2", "3", "7", "6", "8", "12", "10", "11", "10"], "time": [1184, 1266, 1633, 1966, 2465, 2799, 3115, 3863, 4414, 4948, 5714, 10026]}, "edge": {"target": [], "time": []}}}, "displayed_time": "9.53", "trialTime": 10250, "trial_type": "mouselab-mdp", "trial_index": 67, "time_elapsed": 1208742, "internal_node_id": "0.0-4.0-3.0-21.0"}}, {"uniqueid": "w26879138:a69615806", "current_trial": 68, "dateTime": 1664556777084, "trialdata": {"revealed_states": [], "num_clicks_accrued": [0, 0, 0, 0, 0, 0, 0, 0, 0, 0, 0, 0, 0], "stateRewards": ["", 4, -4, 48, -48, -2, -8, -24, 48, -2, 4, 24, -24], "withholdReward": true, "trial_id": "mdp_507290896735", "block": "test2", "trialIndex": 56, "score": 50.75, "costs": -2.25, "simulationMode": [null, null, null], "rewards": [4, -4, 48], "path": ["0", "0", "1", "2", "3"], "rt": [7944, 114, 360], "actions": ["up", "up", "right"], "actionTimes": [9245, 9874, 10753], "queries": {"click": {"state": {"target": ["4", "2", "3", "7", "6", "8", "12", "10", "11"], "time": [1835, 2122, 2429, 3178, 4141, 4562, 5336, 5743, 6734]}, "edge": {"target": [], "time": []}}, "mouseover": {"state": {"target": ["4", "2", "3", "7", "6", "6", "8", "12", "10", "11", "11"], "time": [1631, 2015, 2332, 2985, 3330, 3963, 4414, 5196, 5630, 5977, 6560]}, "edge": {"target": [], "time": []}}, "mouseout": {"state": {"target": ["0", "4", "2", "3", "7", "6", "6", "8", "12", "10", "11", "11"], "time": [1548, 1963, 2261, 2813, 3297, 3414, 4329, 4862, 5479, 5946, 6046, 7395]}, "edge": {"target": [], "time": []}}}, "displayed_time": "11.26", "trialTime": 11823, "trial_type": "mouselab-mdp", "trial_index": 68, "time_elapsed": 1220659, "internal_node_id": "0.0-4.0-3.0-22.0"}}, {"uniqueid": "w26879138:a69615806", "current_trial": 69, "dateTime": 1664556789058, "trialdata": {"revealed_states": [], "num_clicks_accrued": [0, 0, 0, 0, 0, 0, 0, 0, 0, 0, 0, 0, 0], "stateRewards": ["", -4, -8, -24, 24, 4, 4, -48, -48, -4, -4, 24, -48], "withholdReward": false, "trial_id": "mdp_431592223624", "block": "test2", "trialIndex": 57, "score": 18.75, "costs": -2.25, "simulationMode": [null, null, null], "rewards": [-4, -4, 24], "path": ["0", "0", "9", "10", "11"], "rt": [8524, 295, 81], "actions": ["left", "left", "up"], "actionTimes": [9334, 10144, 10745], "queries": {"click": {"state": {"target": ["4", "2", "3", "7", "6", "8", "12", "10", "11"], "time": [1417, 1706, 2057, 2686, 2975, 3828, 4551, 4855, 5436]}, "edge": {"target": [], "time": []}}, "mouseover": {"state": {"target": ["0", "4", "2", "3", "7", "6", "8", "12", "10", "11"], "time": [822, 1286, 1602, 1969, 2537, 2886, 3618, 4418, 4735, 5234]}, "edge": {"target": [], "time": []}}, "mouseout": {"state": {"target": ["0", "4", "2", "3", "7", "6", "8", "12", "10", "11", "0"], "time": [978, 1569, 1869, 2470, 2836, 3185, 4017, 4689, 5168, 5785, 11730]}, "edge": {"target": [], "time": []}}}, "displayed_time": "11.27", "trialTime": 11894, "trial_type": "mouselab-mdp", "trial_index": 69, "time_elapsed": 1232633, "internal_node_id": "0.0-4.0-3.0-23.0"}}, {"uniqueid": "w26879138:a69615806", "current_trial": 70, "dateTime": 1664556802586, "trialdata": {"revealed_states": [], "num_clicks_accrued": [0, 0, 0, 0, 0, 0, 0, 0, 0, 0, 0, 0, 0], "stateRewards": ["", 2, 4, -24, -48, 4, -4, 24, 48, -4, -4, -24, 48], "withholdReward": true, "trial_id": "mdp_181958792175", "block": "test2", "trialIndex": 58, "score": 50.25, "costs": -2.75, "simulationMode": [null, null, null], "rewards": [4, -4, 48], "path": ["0", "0", "5", "6", "8"], "rt": [8444, 50, 4], "actions": ["right", "right", "down"], "actionTimes": [10339, 10906, 11427], "queries": {"click": {"state": {"target": ["4", "2", "3", "7", "6", "8", "11", "10", "12", "9", "5"], "time": [2775, 3093, 3748, 4255, 4594, 4899, 6427, 6835, 7233, 9056, 9771]}, "edge": {"target": [], "time": []}}, "mouseover": {"state": {"target": ["4", "2", "3", "7", "6", "8", "10", "11", "10", "12", "9", "0", "5"], "time": [2661, 2975, 3610, 4108, 4493, 4808, 5924, 6292, 6606, 7156, 8838, 9406, 9622]}, "edge": {"target": [], "time": []}}, "mouseout": {"state": {"target": ["0", "4", "2", "3", "7", "6", "8", "10", "11", "10", "12", "9", "0", "5"], "time": [2127, 2943, 3259, 4059, 4425, 4775, 5091, 6009, 6590, 7106, 8772, 9354, 9455, 10022]}, "edge": {"target": [], "time": []}}}, "displayed_time": "11.95", "trialTime": 13437, "trial_type": "mouselab-mdp", "trial_index": 70, "time_elapsed": 1246160, "internal_node_id": "0.0-4.0-3.0-24.0"}}, {"uniqueid": "w26879138:a69615806", "current_trial": 71, "dateTime": 1664556815992, "trialdata": {"revealed_states": [], "num_clicks_accrued": [0, 0, 0, 0, 0, 0, 0, 0, 0, 0, 0, 0, 0], "stateRewards": ["", 4, -8, 48, -24, 4, -4, -48, -48, 4, -4, 24, 24], "withholdReward": true, "trial_id": "mdp_221562928904", "block": "test2", "trialIndex": 59, "score": 46, "costs": -3, "simulationMode": [null, null, null], "rewards": [4, -8, 48], "path": ["0", "0", "1", "2", "3"], "rt": [9265, 201, 244], "actions": ["up", "up", "right"], "actionTimes": [9934, 10642, 11403], "queries": {"click": {"state": {"target": ["4", "2", "3", "7", "6", "8", "12", "11", "10", "9", "1", "5"], "time": [1494, 1881, 2502, 2966, 3272, 3843, 4618, 5873, 6210, 7374, 7969, 8608]}, "edge": {"target": [], "time": []}}, "mouseover": {"state": {"target": ["1", "2", "4", "2", "3", "7", "6", "8", "12", "10", "11", "11", "11", "10", "9", "9", "1", "5"], "time": [995, 1029, 1329, 1711, 2295, 2844, 3194, 3778, 4543, 4810, 5143, 5371, 5727, 6083, 6743, 7192, 7807, 8358]}, "edge": {"target": [], "time": []}}, "mouseout": {"state": {"target": ["0", "1", "2", "4", "2", "3", "7", "6", "8", "12", "10", "11", "11", "11", "10", "9", "9", "1", "5", "7", "7"], "time": [563, 1012, 1096, 1663, 2195, 2812, 3144, 3495, 4028, 4777, 4860, 5226, 5560, 6059, 6693, 6792, 7658, 8292, 8924, 9091, 12338]}, "edge": {"target": [], "time": []}}}, "displayed_time": "11.92", "trialTime": 13322, "trial_type": "mouselab-mdp", "trial_index": 71, "time_elapsed": 1259567, "internal_node_id": "0.0-4.0-3.0-25.0"}}, {"uniqueid": "w26879138:a69615806", "current_trial": 72, "dateTime": 1664556826059, "trialdata": {"revealed_states": [], "num_clicks_accrued": [0, 0, 0, 0, 0, 0, 0, 0, 0, 0, 0, 0, 0], "stateRewards": ["", 4, -8, 48, 48, 2, 4, 48, -48, 4, -4, -48, 48], "withholdReward": false, "trial_id": "mdp_519605841135", "block": "test2", "trialIndex": 60, "score": 56.75, "costs": -2.25, "simulationMode": [null, null, null], "rewards": [2, 4, 48], "path": ["0", "0", "5", "6", "7"], "rt": [5215, 50, 69], "actions": ["right", "right", "up"], "actionTimes": [6084, 6639, 7243], "queries": {"click": {"state": {"target": ["4", "2", "3", "7", "6", "8", "12", "10", "11"], "time": [1449, 1784, 2300, 2848, 3218, 3522, 4202, 4557, 4895]}, "edge": {"target": [], "time": []}}, "mouseover": {"state": {"target": ["1", "4", "2", "3", "7", "6", "8", "12", "10", "11", "5"], "time": [1176, 1275, 1660, 2141, 2725, 3073, 3441, 4107, 4373, 4706, 5723]}, "edge": {"target": [], "time": []}}, "mouseout": {"state": {"target": ["0", "1", "4", "2", "3", "7", "6", "8", "12", "10", "11", "7", "5", "6", "8"], "time": [461, 1191, 1609, 2126, 2641, 3041, 3390, 3774, 4339, 4690, 5306, 5440, 5755, 8437, 8536]}, "edge": {"target": [], "time": []}}}, "displayed_time": "8.87", "trialTime": 9995, "trial_type": "mouselab-mdp", "trial_index": 72, "time_elapsed": 1269634, "internal_node_id": "0.0-4.0-3.0-26.0"}}, {"uniqueid": "w26879138:a69615806", "current_trial": 73, "dateTime": 1664556836497, "trialdata": {"revealed_states": [], "num_clicks_accrued": [0, 0, 0, 0, 0, 0, 0, 0, 0, 0, 0, 0, 0], "stateRewards": ["", 2, 4, -48, -48, 2, 4, 48, -24, -2, 8, 48, -48], "withholdReward": true, "trial_id": "mdp_258528916140", "block": "test2", "trialIndex": 61, "score": 56.75, "costs": -2.25, "simulationMode": [null, null, null], "rewards": [-2, 8, 48], "path": ["0", "0", "9", "10", "11"], "rt": [5681, 125, 290], "actions": ["left", "left", "up"], "actionTimes": [6964, 7603, 8401], "queries": {"click": {"state": {"target": ["2", "4", "3", "7", "8", "6", "11", "10", "12"], "time": [1916, 2189, 2746, 3576, 4446, 4743, 5553, 5847, 6367]}, "edge": {"target": [], "time": []}}, "mouseover": {"state": {"target": ["1", "2", "4", "3", "3", "7", "6", "8", "6", "5", "0", "10", "11", "10", "12"], "time": [1547, 1764, 2081, 2382, 2597, 3244, 3894, 4244, 4644, 5060, 5078, 5128, 5444, 5760, 6276]}, "edge": {"target": [], "time": []}}, "mouseout": {"state": {"target": ["0", "1", "2", "4", "2", "3", "3", "7", "6", "8", "6", "5", "0", "10", "11", "10", "12"], "time": [1444, 1646, 2037, 2329, 2380, 2430, 2929, 3862, 3945, 4608, 5045, 5077, 5094, 5160, 5710, 6094, 9758]}, "edge": {"target": [], "time": []}}}, "displayed_time": "9.29", "trialTime": 10361, "trial_type": "mouselab-mdp", "trial_index": 73, "time_elapsed": 1280072, "internal_node_id": "0.0-4.0-3.0-27.0"}}, {"uniqueid": "w26879138:a69615806", "current_trial": 74, "dateTime": 1664556846178, "trialdata": {"revealed_states": [], "num_clicks_accrued": [0, 0, 0, 0, 0, 0, 0, 0, 0, 0, 0, 0, 0], "stateRewards": ["", -4, 4, -48, -48, -2, -8, -48, -24, 4, 8, -24, 24], "withholdReward": true, "trial_id": "mdp_449260894259", "block": "test2", "trialIndex": 62, "score": 38.75, "costs": -2.25, "simulationMode": [null, null, null], "rewards": [4, 8, 24], "path": ["0", "0", "9", "10", "12"], "rt": [5135, 158, 13], "actions": ["left", "left", "down"], "actionTimes": [6244, 6914, 7436], "queries": {"click": {"state": {"target": ["4", "2", "3", "7", "6", "8", "12", "10", "11"], "time": [1690, 2013, 2773, 3596, 3957, 4510, 5116, 5372, 5694]}, "edge": {"target": [], "time": []}}, "mouseover": {"state": {"target": ["1", "4", "2", "3", "3", "7", "6", "8", "12", "10", "11"], "time": [1393, 1575, 1909, 2209, 2490, 3490, 3890, 4440, 4940, 5274, 5557]}, "edge": {"target": [], "time": []}}, "mouseout": {"state": {"target": ["0", "1", "4", "2", "3", "3", "7", "6", "8", "12", "10", "11"], "time": [1010, 1426, 1877, 2176, 2274, 2975, 3841, 4374, 4655, 5222, 5523, 8421]}, "edge": {"target": [], "time": []}}}, "displayed_time": "9.11", "trialTime": 9595, "trial_type": "mouselab-mdp", "trial_index": 74, "time_elapsed": 1289753, "internal_node_id": "0.0-4.0-3.0-28.0"}}, {"uniqueid": "w26879138:a69615806", "current_trial": 75, "dateTime": 1664556857830, "trialdata": {"revealed_states": [], "num_clicks_accrued": [0, 0, 0, 0, 0, 0, 0, 0, 0, 0, 0, 0, 0], "stateRewards": ["", -4, 8, 24, 24, -2, 8, -48, 48, 4, -8, 48, -48], "withholdReward": true, "trial_id": "mdp_295249220524", "block": "test2", "trialIndex": 63, "score": 56.75, "costs": -2.25, "simulationMode": [null, null, null], "rewards": [-2, 8, 48], "path": ["0", "0", "5", "6", "8"], "rt": [6495, 535, 107], "actions": ["right", "right", "down"], "actionTimes": [7574, 8632, 9252], "queries": {"click": {"state": {"target": ["2", "4", "3", "7", "8", "6", "11", "10", "12"], "time": [1742, 2080, 2953, 3418, 4246, 5086, 5842, 6299, 6948]}, "edge": {"target": [], "time": []}}, "mouseover": {"state": {"target": ["1", "2", "4", "3", "7", "6", "8", "6", "5", "11", "10", "12"], "time": [1381, 1582, 1964, 2848, 3280, 3664, 4130, 4930, 5412, 5813, 6179, 6744]}, "edge": {"target": [], "time": []}}, "mouseout": {"state": {"target": ["9", "0", "1", "2", "4", "2", "3", "7", "6", "8", "6", "5", "11", "10", "12", "5"], "time": [349, 1298, 1448, 1931, 2232, 2281, 3165, 3631, 3730, 4479, 5396, 5428, 6012, 6694, 7276, 10809]}, "edge": {"target": [], "time": []}}}, "displayed_time": "10.08", "trialTime": 11560, "trial_type": "mouselab-mdp", "trial_index": 75, "time_elapsed": 1301405, "internal_node_id": "0.0-4.0-3.0-29.0"}}, {"uniqueid": "w26879138:a69615806", "current_trial": 76, "dateTime": 1664556869148, "trialdata": {"rt": 11311, "stimulus": "<h1> End of block! </h1>\n\nYou have reached the end of the block 2/4. If you need a short break, feel free to take one now before moving on.\n\n<br><br>\nIn the next block, you will complete another 30 rounds of this game.\n\n<br><br>\n<div style='text-align: center;'>Press <code>space</code> to begin.</div>\n<br><br>\n<div style='text-align: center;'>(If the experiment doesn't continue, try clicking on the text and then pressing <code>space</code>.)</div>", "response": " ", "trial_id": "mdp_ready_3", "trial_type": "html-keyboard-response", "trial_index": 76, "time_elapsed": 1312723, "internal_node_id": "0.0-4.0-4.0"}}, {"uniqueid": "w26879138:a69615806", "current_trial": 77, "dateTime": 1664556879389, "trialdata": {"revealed_states": [], "num_clicks_accrued": [0, 0, 0, 0, 0, 0, 0, 0, 0, 0, 0, 0, 0], "stateRewards": ["", 2, 4, -48, 24, -4, 4, -24, 48, -2, -8, -48, 48], "withholdReward": false, "trial_id": "mdp_424193661731", "block": "test3", "trialIndex": 64, "score": 50.75, "costs": -2.25, "simulationMode": [null, null, null], "rewards": [-4, 4, 48], "path": ["0", "0", "5", "6", "8"], "rt": [5309, 7, 35], "actions": ["right", "right", "down"], "actionTimes": [7138, 7664, 8223], "queries": {"click": {"state": {"target": ["4", "2", "3", "7", "6", "8", "12", "10", "11"], "time": [2796, 3221, 3577, 4203, 4630, 4969, 5624, 6431, 6757]}, "edge": {"target": [], "time": []}}, "mouseover": {"state": {"target": ["1", "4", "2", "3", "7", "6", "8", "12", "10", "11"], "time": [2391, 2707, 3107, 3440, 4106, 4524, 4873, 5539, 6338, 6690]}, "edge": {"target": [], "time": []}}, "mouseout": {"state": {"target": ["0", "1", "4", "2", "3", "7", "6", "8", "12", "10", "11"], "time": [2275, 2574, 2941, 3390, 3757, 4490, 4838, 5141, 5778, 6638, 9104]}, "edge": {"target": [], "time": []}}}, "displayed_time": "9.83", "trialTime": 10162, "trial_type": "mouselab-mdp", "trial_index": 77, "time_elapsed": 1322964, "internal_node_id": "0.0-4.0-5.0-0.0"}}, {"uniqueid": "w26879138:a69615806", "current_trial": 78, "dateTime": 1664556894234, "trialdata": {"revealed_states": [], "num_clicks_accrued": [0, 0, 0, 0, 0, 0, 0, 0, 0, 0, 0, 0, 0], "stateRewards": ["", -2, -8, 48, 24, 4, -8, 24, 48, 4, -4, 24, -48], "withholdReward": true, "trial_id": "mdp_871576155740", "block": "test3", "trialIndex": 65, "score": 46.25, "costs": -2.75, "simulationMode": [null, null, null], "rewards": [4, -8, 48], "path": ["0", "0", "5", "6", "8"], "rt": [8036, 449, 112], "actions": ["right", "right", "down"], "actionTimes": [9146, 10111, 10738], "queries": {"click": {"state": {"target": ["2", "4", "3", "7", "6", "8", "12", "10", "11", "1", "5"], "time": [1715, 2015, 2562, 3024, 3637, 4109, 4910, 5473, 6089, 8057, 8507]}, "edge": {"target": [], "time": []}}, "mouseover": {"state": {"target": ["1", "2", "4", "3", "3", "7", "6", "8", "12", "10", "11", "1", "5"], "time": [1400, 1601, 1881, 2181, 2447, 2997, 3532, 4030, 4813, 5345, 5929, 7916, 8411]}, "edge": {"target": [], "time": []}}, "mouseout": {"state": {"target": ["9", "1", "2", "4", "2", "3", "3", "7", "6", "8", "12", "10", "11", "1", "5", "6"], "time": [783, 1533, 1831, 2131, 2165, 2213, 2714, 3448, 3948, 4448, 5064, 5846, 7679, 8345, 13858, 14007]}, "edge": {"target": [], "time": []}}}, "displayed_time": "11.24", "trialTime": 14758, "trial_type": "mouselab-mdp", "trial_index": 78, "time_elapsed": 1337809, "internal_node_id": "0.0-4.0-5.0-1.0"}}, {"uniqueid": "w26879138:a69615806", "current_trial": 79, "dateTime": 1664556904169, "trialdata": {"revealed_states": [], "num_clicks_accrued": [0, 0, 0, 0, 0, 0, 0, 0, 0, 0, 0, 0, 0], "stateRewards": ["", -2, 4, -24, 24, -4, -8, 24, -48, -4, -4, -48, -24], "withholdReward": true, "trial_id": "mdp_753137520419", "block": "test3", "trialIndex": 66, "score": 29, "costs": -2, "simulationMode": [null, null, null], "rewards": [-2, 4, 24], "path": ["0", "0", "1", "2", "4"], "rt": [6103, 4, 327], "actions": ["up", "up", "left"], "actionTimes": [6987, 7505, 8360], "queries": {"click": {"state": {"target": ["4", "3", "11", "12", "7", "8", "2", "6"], "time": [1566, 1924, 2891, 3262, 4078, 4462, 5381, 6008]}, "edge": {"target": [], "time": []}}, "mouseover": {"state": {"target": ["4", "2", "3", "2", "9", "10", "11", "10", "12", "5", "7", "6", "8", "5", "2", "6"], "time": [1402, 1703, 1752, 2135, 2537, 2602, 2802, 3051, 3085, 3618, 3968, 4234, 4368, 4918, 5184, 5868]}, "edge": {"target": [], "time": []}}, "mouseout": {"state": {"target": ["0", "4", "2", "3", "2", "9", "10", "11", "10", "12", "5", "7", "6", "8", "5", "2", "7", "6"], "time": [1070, 1687, 1737, 2121, 2203, 2568, 2634, 3017, 3068, 3552, 3634, 4218, 4285, 4833, 4968, 5517, 5783, 9333]}, "edge": {"target": [], "time": []}}}, "displayed_time": "8.89", "trialTime": 9840, "trial_type": "mouselab-mdp", "trial_index": 79, "