{"condition": 1, "counterbalance": 0, "assignmentId": "a88283922", "workerId": "w97503970", "hitId": "h37087255", "currenttrial": 137, "bonus": 0, "data": [{"uniqueid": "w97503970:a88283922", "current_trial": 0, "dateTime": 1664464000750, "trialdata": {"success": true, "trial_type": "fullscreen", "trial_index": 0, "time_elapsed": 5573, "internal_node_id": "0.0-0.0"}}, {"uniqueid": "w97503970:a88283922", "current_trial": 1, "dateTime": 1664464019106, "trialdata": {"view_history": [{"page_index": 0, "viewing_time": 18353}], "rt": 18353, "trial_id": "exp_instructions_no_distractor", "trial_type": "instructions", "trial_index": 1, "time_elapsed": 23929, "internal_node_id": "0.0-1.0"}}, {"uniqueid": "w97503970:a88283922", "current_trial": 2, "dateTime": 1664464022379, "trialdata": {"success": true, "trial_type": "fullscreen", "trial_index": 2, "time_elapsed": 27202, "internal_node_id": "0.0-2.0-0.0"}}, {"uniqueid": "w97503970:a88283922", "current_trial": 3, "dateTime": 1664464154210, "trialdata": {"view_history": [{"page_index": 0, "viewing_time": 47360}, {"page_index": 1, "viewing_time": 40923}, {"page_index": 2, "viewing_time": 13062}, {"page_index": 3, "viewing_time": 8323}, {"page_index": 4, "viewing_time": 22160}], "rt": 131828, "trial_id": "mouselab_instructions_1", "trial_type": "instructions", "trial_index": 3, "time_elapsed": 159033, "internal_node_id": "0.0-2.0-1.0"}}, {"uniqueid": "w97503970:a88283922", "current_trial": 4, "dateTime": 1664464170354, "trialdata": {"revealed_states": [], "num_clicks_accrued": [0, 0, 0, 0, 0, 0, 0, 0, 0, 0, 0, 0, 0], "stateRewards": ["", 10, -10, 10, -10, -10, 10, -10, 10, 10, 10, 10, -10], "withholdReward": false, "trial_id": "practice_1", "block": "test", "trialIndex": 0, "score": 30.75, "costs": -1.25, "simulationMode": [null, null, null], "rewards": [10, 10, 10], "path": ["0", "0", "9", "10", "11"], "rt": [7967, 396, 465], "actions": ["left", "left", "up"], "actionTimes": [9802, 10705, 11686], "queries": {"click": {"state": {"target": ["5", "1", "9", "11", "2"], "time": [3889, 4480, 4981, 6833, 8235]}, "edge": {"target": [], "time": []}}, "mouseover": {"state": {"target": ["5", "1", "9", "0", "0", "11", "0", "2", "2", "12"], "time": [2822, 4197, 4725, 5121, 5871, 6092, 7072, 7857, 8128, 9058]}, "edge": {"target": [], "time": []}}, "mouseout": {"state": {"target": ["5", "8", "0", "5", "1", "9", "0", "5", "0", "11", "9", "0", "1", "2", "2", "1", "9", "12"], "time": [null, null, 1947, 4065, 4614, 5107, 5142, 5773, 5912, 6968, 7051, 7107, 7398, 8016, 8391, 8884, 8988, 9308]}, "edge": {"target": [], "time": []}}}, "displayed_time": "12.19", "trialTime": 15786, "trial_type": "mouselab-mdp", "trial_index": 4, "time_elapsed": 175176, "internal_node_id": "0.0-2.0-2.0-0.0"}}, {"uniqueid": "w97503970:a88283922", "current_trial": 5, "dateTime": 1664464182461, "trialdata": {"revealed_states": [], "num_clicks_accrued": [0, 0, 0, 0, 0, 0, 0, 0, 0, 0, 0, 0, 0], "stateRewards": ["", -10, 10, 10, 10, 10, -10, -10, -10, -10, -10, -10, -10], "withholdReward": false, "trial_id": "practice_2", "block": "test", "trialIndex": 1, "score": 11.25, "costs": -0.75, "simulationMode": [null, null, null], "rewards": [-10, 10, 10], "path": ["0", "0", "1", "2", "4"], "rt": [5914, 497, 452], "actions": ["up", "up", "left"], "actionTimes": [7272, 8277, 9239], "queries": {"click": {"state": {"target": ["5", "2", "10"], "time": [2956, 4981, 5813]}, "edge": {"target": [], "time": []}}, "mouseover": {"state": {"target": ["0", "5", "1", "2", "9", "10"], "time": [1425, 2599, 3211, 4344, 5342, 5682]}, "edge": {"target": [], "time": []}}, "mouseout": {"state": {"target": ["0", "0", "5", "1", "2", "9", "10", "1", "0"], "time": [1057, 1467, 3120, 3529, 5141, 5356, 5953, 9655, 9814]}, "edge": {"target": [], "time": []}}}, "displayed_time": "9.74", "trialTime": 12039, "trial_type": "mouselab-mdp", "trial_index": 5, "time_elapsed": 187284, "internal_node_id": "0.0-2.0-2.0-1.0"}}, {"uniqueid": "w97503970:a88283922", "current_trial": 6, "dateTime": 1664464254029, "trialdata": {"view_history": [{"page_index": 0, "viewing_time": 50422}, {"page_index": 1, "viewing_time": 12353}, {"page_index": 2, "viewing_time": 8791}], "rt": 71566, "trial_id": "mouselab_instructions_2_scarce", "trial_type": "instructions", "trial_index": 6, "time_elapsed": 258851, "internal_node_id": "0.0-2.0-3.0"}}, {"uniqueid": "w97503970:a88283922", "current_trial": 7, "dateTime": 1664464288090, "trialdata": {"rt": 34058, "response": {"Q0": "$-48 to $48", "Q1": "The cost is always $0.25.", "Q2": "The better I perform the higher my bonus will be.", "Q3": "No, the amount of cash at each node of the web may be different each time.", "Q4": "The values of the nodes walked through from start to finish.", "Q5": "No, the spider might forget to count the money on some rounds."}, "question_order": [0, 1, 2, 3, 4, 5], "correct": {"Q0": "$-48 to $48", "Q1": "The cost is always $0.25.", "Q2": "The better I perform the higher my bonus will be.", "Q3": "No, the amount of cash at each node of the web may be different each time.", "Q4": "The values of the nodes walked through from start to finish.", "Q5": "No, the spider might forget to count the money on some rounds."}, "trial_id": "mouselab_quiz_scarce", "trial_type": "survey-multi-choice", "trial_index": 7, "time_elapsed": 292913, "internal_node_id": "0.0-2.0-4.0"}}, {"uniqueid": "w97503970:a88283922", "current_trial": 8, "dateTime": 1664464297702, "trialdata": {"rt": 9607, "stimulus": "\n<h1> Get ready to start the game! </h1>\n\nThank you for reading the instructions. Get ready start with the first of 4 block(s) of this game.\n<br><br>\nIn this first block, you will complete 30 rounds of this game before moving on.\n<br><br>\nRemember, the more money the spider gets, the bigger your bonus will be!\n<br><br>\n<div style='text-align: center;'>Press <code>space</code> to begin.</div>\n\n<br><br>\n(If, at any point, the <code>space</code> key does not take you to the next page, click once on the text and try again.)", "response": " ", "trial_id": "mdp_ready_1", "trial_type": "html-keyboard-response", "trial_index": 8, "time_elapsed": 302525, "internal_node_id": "0.0-4.0-0.0"}}, {"uniqueid": "w97503970:a88283922", "current_trial": 9, "dateTime": 1664464312688, "trialdata": {"revealed_states": [], "num_clicks_accrued": [0, 0, 0, 0, 0, 0, 0, 0, 0, 0, 0, 0, 0], "stateRewards": ["", -2, 4, 24, 48, 2, 4, -48, -48, -2, 8, 48, -24], "withholdReward": true, "trial_id": "mdp_305701202606", "block": "test1", "trialIndex": 2, "score": 29.75, "costs": -1.25, "simulationMode": [null, null, null], "rewards": [-2, 4, 24], "path": ["0", "0", "1", "2", "3"], "rt": [7748, 200, 331], "actions": ["up", "up", "right"], "actionTimes": [10309, 11024, 11863], "queries": {"click": {"state": {"target": ["9", "5", "1", "8", "3"], "time": [3932, 4564, 5136, 7474, 8695]}, "edge": {"target": [], "time": []}}, "mouseover": {"state": {"target": ["0", "9", "5", "1", "6", "7", "6", "8", "3", "2", "11", "0"], "time": [2685, 3497, 4455, 4996, 6149, 6308, 7141, 7280, 8288, 8878, 9136, 10052]}, "edge": {"target": [], "time": []}}, "mouseout": {"state": {"target": ["0", "0", "9", "5", "1", "5", "6", "7", "6", "8", "3", "2", "11", "0"], "time": [908, 2767, 4128, 4864, 5288, 5496, 6260, 7093, 7219, 7579, 8843, 8885, 9829, 10079]}, "edge": {"target": [], "time": []}}}, "displayed_time": "12.37", "trialTime": 14913, "trial_type": "mouselab-mdp", "trial_index": 9, "time_elapsed": 317511, "internal_node_id": "0.0-4.0-1.0-0.0"}}, {"uniqueid": "w97503970:a88283922", "current_trial": 10, "dateTime": 1664464326517, "trialdata": {"revealed_states": [], "num_clicks_accrued": [0, 0, 0, 0, 0, 0, 0, 0, 0, 0, 0, 0, 0], "stateRewards": ["", 4, 4, -48, -48, 4, 4, -24, -24, -4, 8, -48, 24], "withholdReward": true, "trial_id": "mdp_669785455541", "block": "test1", "trialIndex": 3, "score": 31.75, "costs": -1.25, "simulationMode": [null, null, null], "rewards": [-4, 8, 24], "path": ["0", "0", "9", "10", "12"], "rt": [8191, 36, 93], "actions": ["left", "left", "down"], "actionTimes": [10081, 10629, 11237], "queries": {"click": {"state": {"target": ["9", "1", "12", "7", "4"], "time": [3155, 4534, 6481, 7510, 8865]}, "edge": {"target": [], "time": []}}, "mouseover": {"state": {"target": ["0", "9", "1", "3", "2", "4", "10", "12", "0", "7", "7", "6", "5", "4", "0"], "time": [1983, 2947, 3919, 5121, 5273, 5343, 5975, 6357, 6670, 7092, 7354, 7696, 7926, 8529, 9940]}, "edge": {"target": [], "time": []}}, "mouseout": {"state": {"target": ["0", "0", "9", "1", "3", "2", "4", "10", "12", "0", "7", "7", "6", "5", "1", "4", "1", "0"], "time": [1613, 2065, 3343, 4745, 5239, 5314, 5752, 6079, 6578, 6710, 7162, 7648, 7759, 7995, 8141, 9003, 9586, 10009]}, "edge": {"target": [], "time": []}}}, "displayed_time": "11.75", "trialTime": 13761, "trial_type": "mouselab-mdp", "trial_index": 10, "time_elapsed": 331339, "internal_node_id": "0.0-4.0-1.0-1.0"}}, {"uniqueid": "w97503970:a88283922", "current_trial": 11, "dateTime": 1664464338742, "trialdata": {"revealed_states": [], "num_clicks_accrued": [0, 0, 0, 0, 0, 0, 0, 0, 0, 0, 0, 0, 0], "stateRewards": ["", -2, -4, 48, -24, -4, -4, -24, -24, -2, 4, -48, -24], "withholdReward": true, "trial_id": "mdp_410467837196", "block": "test1", "trialIndex": 4, "score": 45.75, "costs": -1.25, "simulationMode": [null, null, null], "rewards": [-2, -4, 48], "path": ["0", "0", "1", "2", "3"], "rt": [4908, 45, 36], "actions": ["up", "up", "right"], "actionTimes": [6252, 6806, 7348], "queries": {"click": {"state": {"target": ["12", "7", "4", "8", "3"], "time": [2496, 3242, 3909, 4760, 5460]}, "edge": {"target": [], "time": []}}, "mouseover": {"state": {"target": ["0", "12", "6", "7", "2", "4", "2", "6", "8", "8", "0", "1", "3", "1", "1"], "time": [1454, 2051, 2905, 3107, 3565, 3745, 4038, 4280, 4384, 4544, 5092, 5149, 5315, 5683, 6030]}, "edge": {"target": [], "time": []}}, "mouseout": {"state": {"target": ["0", "0", "12", "6", "7", "2", "4", "2", "6", "8", "8", "0", "1", "3", "1", "1", "5"], "time": [1219, 1545, 2649, 2926, 3489, 3621, 4010, 4065, 4343, 4433, 4878, 5114, 5191, 5551, 5718, 6374, 6600]}, "edge": {"target": [], "time": []}}}, "displayed_time": "10.45", "trialTime": 12153, "trial_type": "mouselab-mdp", "trial_index": 11, "time_elapsed": 343565, "internal_node_id": "0.0-4.0-1.0-2.0"}}, {"uniqueid": "w97503970:a88283922", "current_trial": 12, "dateTime": 1664464349757, "trialdata": {"revealed_states": [], "num_clicks_accrued": [0, 0, 0, 0, 0, 0, 0, 0, 0, 0, 0, 0, 0], "stateRewards": ["", -4, -4, 48, 24, -4, -4, -24, -48, -4, 4, 48, -24], "withholdReward": true, "trial_id": "mdp_896503755738", "block": "test1", "trialIndex": 5, "score": 52.75, "costs": -0.25, "simulationMode": [null, null, null], "rewards": [-4, 4, 48], "path": ["0", "0", "9", "10", "11"], "rt": [3443, 326, 298], "actions": ["left", "left", "up"], "actionTimes": [4801, 5643, 6446], "queries": {"click": {"state": {"target": ["11"], "time": [2700]}, "edge": {"target": [], "time": []}}, "mouseover": {"state": {"target": ["9", "11", "9"], "time": [2453, 2535, 3162]}, "edge": {"target": [], "time": []}}, "mouseout": {"state": {"target": ["0", "9", "11", "9"], "time": [1557, 2501, 2868, 3765]}, "edge": {"target": [], "time": []}}}, "displayed_time": "8.41", "trialTime": 10952, "trial_type": "mouselab-mdp", "trial_index": 12, "time_elapsed": 354580, "internal_node_id": "0.0-4.0-1.0-3.0"}}, {"uniqueid": "w97503970:a88283922", "current_trial": 13, "dateTime": 1664464361015, "trialdata": {"revealed_states": [], "num_clicks_accrued": [0, 0, 0, 0, 0, 0, 0, 0, 0, 0, 0, 0, 0], "stateRewards": ["", -2, -4, -48, -48, -2, -8, 48, -48, 4, -8, -48, 24], "withholdReward": true, "trial_id": "mdp_468495641521", "block": "test1", "trialIndex": 6, "score": 42.25, "costs": -0.75, "simulationMode": [null, null, null], "rewards": [-2, -8, 48], "path": ["0", "0", "5", "6", "7"], "rt": [3443, 99, 162], "actions": ["right", "right", "up"], "actionTimes": [4995, 5610, 6283], "queries": {"click": {"state": {"target": ["11", "12", "7"], "time": [2893, 3489, 4254]}, "edge": {"target": [], "time": []}}, "mouseover": {"state": {"target": ["9", "11", "10", "12", "5", "6", "7"], "time": [2558, 2711, 3163, 3399, 3739, 3948, 4087]}, "edge": {"target": [], "time": []}}, "mouseout": {"state": {"target": ["0", "9", "11", "10", "12", "5", "6", "7", "7"], "time": [1724, 2641, 3080, 3183, 3593, 3767, 4003, 4447, 4899]}, "edge": {"target": [], "time": []}}}, "displayed_time": "9.63", "trialTime": 11190, "trial_type": "mouselab-mdp", "trial_index": 13, "time_elapsed": 365838, "internal_node_id": "0.0-4.0-1.0-4.0"}}, {"uniqueid": "w97503970:a88283922", "current_trial": 14, "dateTime": 1664464374303, "trialdata": {"revealed_states": [], "num_clicks_accrued": [0, 0, 0, 0, 0, 0, 0, 0, 0, 0, 0, 0, 0], "stateRewards": ["", 4, 4, -24, -48, -4, 4, -48, 24, 4, -8, -48, 48], "withholdReward": false, "trial_id": "mdp_566768794366", "block": "test1", "trialIndex": 7, "score": 47, "costs": -2, "simulationMode": [null, null, null], "rewards": [4, -8, 48], "path": ["0", "0", "9", "10", "12"], "rt": [6026, 78, 85], "actions": ["left", "left", "down"], "actionTimes": [7195, 7783, 8373], "queries": {"click": {"state": {"target": ["1", "11", "5", "8", "7", "4", "3", "12"], "time": [1800, 2743, 3543, 4123, 4674, 5484, 5923, 6676]}, "edge": {"target": [], "time": []}}, "mouseover": {"state": {"target": ["0", "1", "9", "11", "10", "9", "0", "5", "8", "6", "7", "2", "4", "2", "3", "9", "12"], "time": [1578, 1668, 2481, 2551, 2953, 3168, 3238, 3328, 3961, 4383, 4550, 4996, 5384, 5647, 5745, 6266, 6377]}, "edge": {"target": [], "time": []}}, "mouseout": {"state": {"target": ["0", "0", "1", "9", "11", "10", "9", "0", "5", "8", "6", "7", "2", "4", "2", "3", "1", "9", "12"], "time": [1321, 1606, 1995, 2495, 2905, 2960, 3217, 3272, 3751, 4335, 4446, 4787, 5273, 5620, 5689, 6043, 6189, 6293, 6772]}, "edge": {"target": [], "time": []}}}, "displayed_time": "10.28", "trialTime": 13214, "trial_type": "mouselab-mdp", "trial_index": 14, "time_elapsed": 379126, "internal_node_id": "0.0-4.0-1.0-5.0"}}, {"uniqueid": "w97503970:a88283922", "current_trial": 15, "dateTime": 1664464389259, "trialdata": {"revealed_states": [], "num_clicks_accrued": [0, 0, 0, 0, 0, 0, 0, 0, 0, 0, 0, 0, 0], "stateRewards": ["", -2, -4, -48, -48, 4, -4, 48, 24, 4, 4, 48, 48], "withholdReward": true, "trial_id": "mdp_950960813932", "block": "test1", "trialIndex": 8, "score": 59, "costs": -2, "simulationMode": [null, null, null], "rewards": [4, 4, 48], "path": ["0", "0", "9", "10", "12"], "rt": [9271, 52, 84], "actions": ["left", "left", "down"], "actionTimes": [11336, 11898, 12491], "queries": {"click": {"state": {"target": ["12", "7", "4", "8", "9", "5", "6", "10"], "time": [2985, 4360, 5015, 5689, 8845, 9614, 10276, 10825]}, "edge": {"target": [], "time": []}}, "mouseover": {"state": {"target": ["12", "0", "5", "7", "4", "2", "8", "8", "5", "11", "11", "1", "5", "6", "6", "5", "9", "0", "6", "5", "6", "0", "10"], "time": [2789, 4039, 4060, 4150, 4839, 5157, 5568, 5679, 5956, 6157, 6393, 6963, 7324, 7366, 7748, 7886, 8713, 9074, 9268, 9455, 10157, 10505, 10644]}, "edge": {"target": [], "time": []}}, "mouseout": {"state": {"target": ["0", "12", "0", "5", "7", "4", "2", "7", "8", "8", "5", "11", "11", "1", "5", "6", "6", "5", "9", "0", "6", "5", "6", "5", "0", "9", "10"], "time": [2192, 3782, 4046, 4088, 4519, 5129, 5206, 5345, 5622, 5914, 5970, 6206, 6671, 6998, 7338, 7414, 7810, 8262, 9039, 9129, 9314, 9796, 10387, 10470, 10539, 10602, 10950]}, "edge": {"target": [], "time": []}}}, "displayed_time": "13.01", "trialTime": 14888, "trial_type": "mouselab-mdp", "trial_index": 15, "time_elapsed": 394082, "internal_node_id": "0.0-4.0-1.0-6.0"}}, {"uniqueid": "w97503970:a88283922", "current_trial": 16, "dateTime": 1664464403806, "trialdata": {"revealed_states": [], "num_clicks_accrued": [0, 0, 0, 0, 0, 0, 0, 0, 0, 0, 0, 0, 0], "stateRewards": ["", -4, -4, 24, -48, 2, 4, -24, -48, -2, -8, -24, 24], "withholdReward": true, "trial_id": "mdp_565569130486", "block": "test1", "trialIndex": 9, "score": 18.5, "costs": -2.5, "simulationMode": [null, null, null], "rewards": [-4, -4, 24], "path": ["0", "0", "1", "2", "3"], "rt": [9483, 78, 91], "actions": ["up", "up", "right"], "actionTimes": [10630, 11213, 11816], "queries": {"click": {"state": {"target": ["4", "12", "7", "8", "11", "3", "1", "9", "2", "10"], "time": [2569, 3161, 3783, 4204, 5199, 5555, 7288, 7726, 8628, 9541]}, "edge": {"target": [], "time": []}}, "mouseover": {"state": {"target": ["1", "4", "10", "12", "5", "6", "7", "6", "8", "0", "9", "11", "11", "1", "11", "3", "0", "9", "1", "1", "9", "2", "10"], "time": [1954, 2370, 2926, 3044, 3419, 3551, 3675, 3947, 4079, 4363, 4397, 4446, 4760, 4912, 5120, 5419, 5870, 6544, 6765, 6987, 7474, 8432, 9132]}, "edge": {"target": [], "time": []}}, "mouseout": {"state": {"target": ["0", "1", "4", "10", "12", "5", "6", "7", "6", "8", "0", "9", "11", "11", "1", "11", "3", "0", "9", "1", "1", "9", "9", "1", "2", "1", "9", "10"], "time": [1280, 2301, 2704, 2995, 3287, 3447, 3599, 3898, 4009, 4308, 4377, 4405, 4536, 4829, 4925, 5286, 5675, 5919, 6690, 6780, 7405, 7871, 8217, 8342, 8744, 8821, 8995, 9662]}, "edge": {"target": [], "time": []}}}, "displayed_time": "12.32", "trialTime": 14480, "trial_type": "mouselab-mdp", "trial_index": 16, "time_elapsed": 408628, "internal_node_id": "0.0-4.0-1.0-7.0"}}, {"uniqueid": "w97503970:a88283922", "current_trial": 17, "dateTime": 1664464415629, "trialdata": {"revealed_states": [], "num_clicks_accrued": [0, 0, 0, 0, 0, 0, 0, 0, 0, 0, 0, 0, 0], "stateRewards": ["", -2, -4, -48, 48, -2, -4, 24, 48, -4, -8, -24, 24], "withholdReward": true, "trial_id": "mdp_917590390609", "block": "test1", "trialIndex": 10, "score": 45.5, "costs": -1.5, "simulationMode": [null, null, null], "rewards": [-2, -4, 48], "path": ["0", "0", "5", "6", "8"], "rt": [6104, 31, 37], "actions": ["right", "right", "down"], "actionTimes": [8278, 8826, 9369], "queries": {"click": {"state": {"target": ["11", "3", "8", "5", "6", "12"], "time": [3690, 4192, 5202, 6475, 6695, 7505]}, "edge": {"target": [], "time": []}}, "mouseover": {"state": {"target": ["0", "9", "11", "3", "7", "6", "8", "8", "6", "8", "6", "6", "5", "6", "0", "9", "10", "12", "9", "0"], "time": [3415, 3450, 3533, 4054, 4415, 4471, 4568, 4721, 4922, 5103, 5401, 6248, 6388, 6609, 7130, 7166, 7262, 7443, 7742, 8131]}, "edge": {"target": [], "time": []}}, "mouseout": {"state": {"target": ["0", "0", "9", "11", "3", "7", "6", "8", "8", "6", "8", "6", "6", "5", "6", "0", "9", "10", "12", "9", "0", "8"], "time": [2318, 3423, 3471, 3805, 4318, 4423, 4526, 4644, 4874, 5061, 5353, 5586, 6325, 6582, 6894, 7151, 7207, 7381, 7637, 8082, 8214, 8425]}, "edge": {"target": [], "time": []}}}, "displayed_time": "10.23", "trialTime": 11759, "trial_type": "mouselab-mdp", "trial_index": 17, "time_elapsed": 420452, "internal_node_id": "0.0-4.0-1.0-8.0"}}, {"uniqueid": "w97503970:a88283922", "current_trial": 18, "dateTime": 1664464427194, "trialdata": {"revealed_states": [], "num_clicks_accrued": [0, 0, 0, 0, 0, 0, 0, 0, 0, 0, 0, 0, 0], "stateRewards": ["", 4, -8, -24, 24, 2, -4, 24, 24, 2, -4, 48, 48], "withholdReward": true, "trial_id": "mdp_457607480918", "block": "test1", "trialIndex": 11, "score": 49.25, "costs": -1.75, "simulationMode": [null, null, null], "rewards": [2, -4, 48], "path": ["0", "0", "9", "10", "12"], "rt": [6276, 1016, 42], "actions": ["left", "left", "down"], "actionTimes": [7604, 9133, 9679], "queries": {"click": {"state": {"target": ["12", "7", "11", "3", "10", "9", "8"], "time": [2432, 3124, 3637, 4122, 5911, 6365, 7124]}, "edge": {"target": [], "time": []}}, "mouseover": {"state": {"target": ["12", "5", "6", "7", "1", "11", "2", "3", "2", "4", "1", "9", "10", "9", "8", "8", "0"], "time": [2332, 2698, 2782, 3004, 3379, 3491, 3935, 4024, 4247, 4358, 4754, 5170, 5816, 6074, 6719, 7017, 7351]}, "edge": {"target": [], "time": []}}, "mouseout": {"state": {"target": ["8", "0", "12", "5", "6", "7", "1", "11", "2", "3", "2", "4", "1", "9", "10", "9", "8", "8", "0"], "time": [803, 1518, 2546, 2726, 2803, 3260, 3407, 3781, 3963, 4212, 4302, 4421, 4774, 5220, 6039, 6483, 6831, 7247, 7372]}, "edge": {"target": [], "time": []}}}, "displayed_time": "10.19", "trialTime": 11496, "trial_type": "mouselab-mdp", "trial_index": 18, "time_elapsed": 432017, "internal_node_id": "0.0-4.0-1.0-9.0"}}, {"uniqueid": "w97503970:a88283922", "current_trial": 19, "dateTime": 1664464436679, "trialdata": {"revealed_states": [], "num_clicks_accrued": [0, 0, 0, 0, 0, 0, 0, 0, 0, 0, 0, 0, 0], "stateRewards": ["", -2, -8, 48, 24, -2, 8, -48, -24, -2, 4, -48, 48], "withholdReward": true, "trial_id": "mdp_295220852217", "block": "test1", "trialIndex": 12, "score": 42.5, "costs": -0.5, "simulationMode": [null, null, null], "rewards": [-2, -8, 48], "path": ["0", "0", "1", "2", "3"], "rt": [2873, 90, 94], "actions": ["up", "up", "right"], "actionTimes": [3885, 4480, 5087], "queries": {"click": {"state": {"target": ["11", "3"], "time": [1888, 2398]}, "edge": {"target": [], "time": []}}, "mouseover": {"state": {"target": ["9", "11", "3", "7", "7"], "time": [1526, 1756, 2215, 2561, 2866]}, "edge": {"target": [], "time": []}}, "mouseout": {"state": {"target": ["0", "9", "11", "3", "7", "7", "7"], "time": [1144, 1575, 1999, 2506, 2631, 3101, 4186]}, "edge": {"target": [], "time": []}}}, "displayed_time": "9.12", "trialTime": 9420, "trial_type": "mouselab-mdp", "trial_index": 19, "time_elapsed": 441502, "internal_node_id": "0.0-4.0-1.0-10.0"}}, {"uniqueid": "w97503970:a88283922", "current_trial": 20, "dateTime": 1664464446888, "trialdata": {"revealed_states": [], "num_clicks_accrued": [0, 0, 0, 0, 0, 0, 0, 0, 0, 0, 0, 0, 0], "stateRewards": ["", -2, 8, 48, 24, 2, -4, 48, -48, 2, 8, 24, -24], "withholdReward": false, "trial_id": "mdp_176207245985", "block": "test1", "trialIndex": 13, "score": 49.5, "costs": -1.5, "simulationMode": [null, null, null], "rewards": [2, -4, 48], "path": ["0", "0", "5", "6", "7"], "rt": [4116, 60, 77], "actions": ["right", "right", "up"], "actionTimes": [5885, 6458, 7048], "queries": {"click": {"state": {"target": ["12", "11", "7", "4", "5", "6"], "time": [2721, 2989, 3653, 3957, 4987, 5490]}, "edge": {"target": [], "time": []}}, "mouseover": {"state": {"target": ["0", "5", "12", "10", "11", "1", "7", "7", "2", "4", "2", "3", "6", "5", "6", "8"], "time": [1817, 1852, 2563, 2859, 2935, 3157, 3254, 3574, 3838, 3900, 4095, 4137, 4664, 4873, 5390, 5693]}, "edge": {"target": [], "time": []}}, "mouseout": {"state": {"target": ["6", "5", "0", "5", "12", "10", "11", "1", "7", "7", "2", "4", "2", "3", "7", "6", "5", "6", "8"], "time": [1298, 1415, 1839, 1879, 2824, 2901, 3088, 3185, 3310, 3776, 3873, 4080, 4122, 4171, 4609, 4803, 5151, 5615, 5970]}, "edge": {"target": [], "time": []}}}, "displayed_time": "9.83", "trialTime": 10135, "trial_type": "mouselab-mdp", "trial_index": 20, "time_elapsed": 451711, "internal_node_id": "0.0-4.0-1.0-11.0"}}, {"uniqueid": "w97503970:a88283922", "current_trial": 21, "dateTime": 1664464459946, "trialdata": {"revealed_states": [], "num_clicks_accrued": [0, 0, 0, 0, 0, 0, 0, 0, 0, 0, 0, 0, 0], "stateRewards": ["", 4, -4, 48, 24, 2, -8, 24, -48, -2, -4, -48, -48], "withholdReward": false, "trial_id": "mdp_655302318695", "block": "test1", "trialIndex": 14, "score": 52, "costs": -1, "simulationMode": [null, null, null], "rewards": [4, -4, 48], "path": ["0", "0", "1", "2", "3"], "rt": [3773, 42, 36], "actions": ["up", "up", "right"], "actionTimes": [5963, 6520, 7069], "queries": {"click": {"state": {"target": ["11", "3", "2", "1"], "time": [3111, 3527, 4703, 5173]}, "edge": {"target": [], "time": []}}, "mouseover": {"state": {"target": ["0", "9", "11", "1", "3", "7", "6", "5", "1", "2", "1", "1", "5", "6", "8", "6"], "time": [2748, 2851, 2976, 3309, 3393, 3747, 4129, 4407, 4491, 4573, 4886, 5087, 5379, 5483, 5615, 5907]}, "edge": {"target": [], "time": []}}, "mouseout": {"state": {"target": ["0", "0", "9", "11", "1", "3", "7", "6", "5", "1", "2", "1", "1", "5", "6", "8", "6", "7", "8"], "time": [2546, 2817, 2860, 3206, 3317, 3657, 3802, 4364, 4420, 4525, 4831, 4956, 5295, 5421, 5491, 5830, 5914, 6229, 10039]}, "edge": {"target": [], "time": []}}}, "displayed_time": "11.29", "trialTime": 12991, "trial_type": "mouselab-mdp", "trial_index": 21, "time_elapsed": 464769, "internal_node_id": "0.0-4.0-1.0-12.0"}}, {"uniqueid": "w97503970:a88283922", "current_trial": 22, "dateTime": 1664464471080, "trialdata": {"revealed_states": [], "num_clicks_accrued": [0, 0, 0, 0, 0, 0, 0, 0, 0, 0, 0, 0, 0], "stateRewards": ["", 2, 4, -48, -48, 4, 4, -48, -48, -2, -8, 48, -24], "withholdReward": true, "trial_id": "mdp_175327338412", "block": "test1", "trialIndex": 15, "score": 41.75, "costs": -1.25, "simulationMode": [null, null, null], "rewards": [-2, -8, 48], "path": ["0", "0", "9", "10", "11"], "rt": [4360, 70, 5], "actions": ["left", "left", "up"], "actionTimes": [5854, 6441, 6965], "queries": {"click": {"state": {"target": ["4", "8", "7", "12", "11"], "time": [2429, 3038, 4085, 4725, 5147]}, "edge": {"target": [], "time": []}}, "mouseover": {"state": {"target": ["5", "6", "1", "4", "1", "5", "8", "6", "7", "7", "9", "12", "10", "11", "1"], "time": [1598, 1675, 2209, 2265, 2632, 2737, 2820, 3196, 3597, 3958, 4327, 4611, 4903, 5014, 5403]}, "edge": {"target": [], "time": []}}, "mouseout": {"state": {"target": ["6", "5", "0", "5", "6", "1", "4", "1", "5", "8", "6", "7", "7", "9", "12", "10", "11", "1"], "time": [980, 1063, 1570, 1632, 1758, 2223, 2543, 2661, 2751, 3153, 3244, 3688, 4181, 4376, 4862, 4966, 5279, 5737]}, "edge": {"target": [], "time": []}}}, "displayed_time": "9.57", "trialTime": 11066, "trial_type": "mouselab-mdp", "trial_index": 22, "time_elapsed": 475903, "internal_node_id": "0.0-4.0-1.0-13.0"}}, {"uniqueid": "w97503970:a88283922", "current_trial": 23, "dateTime": 1664464481849, "trialdata": {"revealed_states": [], "num_clicks_accrued": [0, 0, 0, 0, 0, 0, 0, 0, 0, 0, 0, 0, 0], "stateRewards": ["", -2, 4, 24, 48, 2, 4, -48, -48, 2, 8, 48, -48], "withholdReward": true, "trial_id": "mdp_409609775558", "block": "test1", "trialIndex": 16, "score": 62.25, "costs": -0.75, "simulationMode": [null, null, null], "rewards": [2, 8, 48], "path": ["0", "0", "9", "10", "11"], "rt": [4218, 87, 60], "actions": ["left", "left", "up"], "actionTimes": [5431, 6036, 6610], "queries": {"click": {"state": {"target": ["11", "10", "9"], "time": [2062, 3722, 3963]}, "edge": {"target": [], "time": []}}, "mouseover": {"state": {"target": ["0", "11", "1", "3", "1", "9", "10", "9", "6", "5"], "time": [1649, 1927, 2232, 2420, 3037, 3294, 3621, 3884, 4891, 5329]}, "edge": {"target": [], "time": []}}, "mouseout": {"state": {"target": ["0", "0", "11", "1", "3", "1", "9", "10", "9", "6", "5"], "time": [1391, 1663, 2156, 2239, 2912, 3106, 3579, 3850, 4107, 5016, 5426]}, "edge": {"target": [], "time": []}}}, "displayed_time": "9.29", "trialTime": 10704, "trial_type": "mouselab-mdp", "trial_index": 23, "time_elapsed": 486672, "internal_node_id": "0.0-4.0-1.0-14.0"}}, {"uniqueid": "w97503970:a88283922", "current_trial": 24, "dateTime": 1664464499632, "trialdata": {"revealed_states": [], "num_clicks_accrued": [0, 0, 0, 0, 0, 0, 0, 0, 0, 0, 0, 0, 0], "stateRewards": ["", 4, -8, -48, 48, -2, 8, -48, 48, -2, -4, 24, -48], "withholdReward": true, "trial_id": "mdp_400558136089", "block": "test1", "trialIndex": 17, "score": 46.75, "costs": -2.25, "simulationMode": [null, null, null], "rewards": [4, -8, 48], "path": ["0", "0", "1", "2", "4"], "rt": [10219, 2958, 268], "actions": ["up", "up", "left"], "actionTimes": [11528, 14993, 15768], "queries": {"click": {"state": {"target": ["12", "7", "4", "1", "2", "11", "8", "5", "6"], "time": [2170, 2763, 3368, 5389, 5655, 6681, 7205, 8164, 8400]}, "edge": {"target": [], "time": []}}, "mouseover": {"state": {"target": ["12", "6", "7", "1", "4", "1", "5", "8", "5", "1", "2", "5", "11", "0", "5", "8", "5", "5", "6", "5", "6"], "time": [1972, 2514, 2604, 3013, 3229, 4360, 4729, 4812, 5103, 5214, 5548, 6007, 6611, 6881, 6909, 7035, 7417, 7715, 7825, 8076, 8312]}, "edge": {"target": [], "time": []}}, "mouseout": {"state": {"target": ["0", "12", "6", "7", "1", "4", "1", "5", "8", "5", "1", "2", "1", "5", "1", "11", "0", "5", "8", "5", "5", "6", "5", "6", "8"], "time": [1590, 2340, 2548, 2909, 3041, 3520, 4666, 4764, 5021, 5111, 5492, 5784, 5839, 6180, 6395, 6777, 6889, 6924, 7382, 7451, 7791, 8027, 8285, 8534, 8590]}, "edge": {"target": [], "time": []}}}, "displayed_time": "16.27", "trialTime": 17721, "trial_type": "mouselab-mdp", "trial_index": 24, "time_elapsed": 504455, "internal_node_id": "0.0-4.0-1.0-15.0"}}, {"uniqueid": "w97503970:a88283922", "current_trial": 25, "dateTime": 1664464511748, "trialdata": {"revealed_states": [], "num_clicks_accrued": [0, 0, 0, 0, 0, 0, 0, 0, 0, 0, 0, 0, 0], "stateRewards": ["", 2, 4, 24, 48, -2, 8, 24, -24, -4, -4, 48, 48], "withholdReward": true, "trial_id": "mdp_753439303214", "block": "test1", "trialIndex": 18, "score": 57, "costs": -2, "simulationMode": [null, null, null], "rewards": [2, 4, 48], "path": ["0", "0", "1", "2", "4"], "rt": [6700, 55, 24], "actions": ["up", "up", "left"], "actionTimes": [8348, 8919, 9449], "queries": {"click": {"state": {"target": ["11", "7", "10", "9", "8", "4", "2", "1"], "time": [2792, 4472, 5269, 5523, 6394, 7012, 7803, 7989]}, "edge": {"target": [], "time": []}}, "mouseover": {"state": {"target": ["11", "1", "3", "7", "7", "9", "10", "9", "6", "8", "5", "1", "4", "2", "3", "2", "1", "5"], "time": [2646, 2952, 3027, 4066, 4341, 4945, 5015, 5417, 6133, 6313, 6549, 6640, 6945, 7146, 7264, 7708, 7938, 8194]}, "edge": {"target": [], "time": []}}, "mouseout": {"state": {"target": ["0", "11", "1", "3", "7", "7", "9", "10", "9", "6", "8", "5", "1", "4", "2", "3", "2", "1", "5"], "time": [2473, 2896, 2980, 3813, 4194, 4604, 4980, 5396, 5666, 6258, 6508, 6583, 6786, 7111, 7194, 7632, 7903, 8160, 8265]}, "edge": {"target": [], "time": []}}}, "displayed_time": "10.75", "trialTime": 12053, "trial_type": "mouselab-mdp", "trial_index": 25, "time_elapsed": 516571, "internal_node_id": "0.0-4.0-1.0-16.0"}}, {"uniqueid": "w97503970:a88283922", "current_trial": 26, "dateTime": 1664464522342, "trialdata": {"revealed_states": [], "num_clicks_accrued": [0, 0, 0, 0, 0, 0, 0, 0, 0, 0, 0, 0, 0], "stateRewards": ["", 2, 4, -24, -48, 4, -4, 24, 48, -4, -4, -24, 48], "withholdReward": true, "trial_id": "mdp_181958792175", "block": "test1", "trialIndex": 19, "score": 51.25, "costs": -1.75, "simulationMode": [null, null, null], "rewards": [4, -4, 48], "path": ["0", "0", "5", "6", "8"], "rt": [5637, 447, 61], "actions": ["right", "right", "down"], "actionTimes": [6610, 7572, 8137], "queries": {"click": {"state": {"target": ["12", "11", "9", "8", "5", "6", "10"], "time": [1580, 1855, 2552, 3726, 4723, 5255, 6160]}, "edge": {"target": [], "time": []}}, "mouseover": {"state": {"target": ["0", "12", "11", "1", "9", "10", "10", "5", "8", "6", "7", "5", "6", "10"], "time": [1276, 1471, 1825, 2116, 2387, 2679, 2866, 3262, 3450, 3839, 3936, 4519, 5151, 5978]}, "edge": {"target": [], "time": []}}, "mouseout": {"state": {"target": ["0", "0", "12", "11", "1", "9", "10", "10", "5", "8", "6", "7", "5", "6", "10"], "time": [824, 1359, 1706, 2005, 2248, 2658, 2713, 2909, 3339, 3797, 3895, 4401, 4859, 5380, 6305]}, "edge": {"target": [], "time": []}}}, "displayed_time": "10.06", "trialTime": 10527, "trial_type": "mouselab-mdp", "trial_index": 26, "time_elapsed": 527165, "internal_node_id": "0.0-4.0-1.0-17.0"}}, {"uniqueid": "w97503970:a88283922", "current_trial": 27, "dateTime": 1664464532366, "trialdata": {"revealed_states": [], "num_clicks_accrued": [0, 0, 0, 0, 0, 0, 0, 0, 0, 0, 0, 0, 0], "stateRewards": ["", -4, 8, -48, -48, -2, -8, -24, -48, 2, -4, -48, 24], "withholdReward": false, "trial_id": "mdp_743906784415", "block": "test1", "trialIndex": 20, "score": 25.5, "costs": -1.5, "simulationMode": [null, null, null], "rewards": [2, -4, 24], "path": ["0", "0", "9", "10", "12"], "rt": [5307, 98, 110], "actions": ["left", "left", "down"], "actionTimes": [6346, 6955, 7577], "queries": {"click": {"state": {"target": ["7", "11", "3", "12", "8", "4"], "time": [1802, 2423, 2851, 3424, 3911, 4581]}, "edge": {"target": [], "time": []}}, "mouseover": {"state": {"target": ["7", "1", "11", "2", "3", "1", "9", "12", "8", "6", "2", "4"], "time": [1621, 2021, 2327, 2696, 2745, 3016, 3125, 3272, 3730, 4167, 4404, 4472]}, "edge": {"target": [], "time": []}}, "mouseout": {"state": {"target": ["0", "7", "1", "11", "2", "3", "1", "9", "12", "8", "6", "2", "4"], "time": [924, 1926, 2070, 2536, 2710, 2959, 3043, 3161, 3522, 4118, 4196, 4431, 4689]}, "edge": {"target": [], "time": []}}}, "displayed_time": "9.10", "trialTime": 9956, "trial_type": "mouselab-mdp", "trial_index": 27, "time_elapsed": 537189, "internal_node_id": "0.0-4.0-1.0-18.0"}}, {"uniqueid": "w97503970:a88283922", "current_trial": 28, "dateTime": 1664464543416, "trialdata": {"revealed_states": [], "num_clicks_accrued": [0, 0, 0, 0, 0, 0, 0, 0, 0, 0, 0, 0, 0], "stateRewards": ["", -2, -8, 24, -24, 4, -8, 48, 48, -4, -8, -24, -48], "withholdReward": false, "trial_id": "mdp_286767261523", "block": "test1", "trialIndex": 21, "score": 47.5, "costs": -1.5, "simulationMode": [null, null, null], "rewards": [4, -8, 48], "path": ["0", "0", "5", "6", "7"], "rt": [4464, 30, 8], "actions": ["right", "right", "up"], "actionTimes": [5875, 6426, 6947], "queries": {"click": {"state": {"target": ["12", "7", "6", "5", "11", "3"], "time": [1889, 2367, 3460, 3639, 4618, 5110]}, "edge": {"target": [], "time": []}}, "mouseover": {"state": {"target": ["0", "12", "0", "5", "7", "2", "4", "6", "6", "5", "9", "11", "1", "3", "2", "4", "1"], "time": [1540, 1776, 2061, 2096, 2179, 2574, 2631, 3165, 3328, 3581, 4359, 4554, 4846, 4950, 5242, 5331, 5686]}, "edge": {"target": [], "time": []}}, "mouseout": {"state": {"target": ["0", "0", "12", "0", "5", "7", "2", "4", "6", "6", "5", "9", "11", "1", "3", "2", "4", "1", "5", "8"], "time": [1311, 1575, 1970, 2075, 2123, 2478, 2596, 3054, 3221, 3561, 3811, 4409, 4707, 4880, 5214, 5304, 5591, 5735, 5840, 7267]}, "edge": {"target": [], "time": []}}}, "displayed_time": "9.48", "trialTime": 10983, "trial_type": "mouselab-mdp", "trial_index": 28, "time_elapsed": 548239, "internal_node_id": "0.0-4.0-1.0-19.0"}}, {"uniqueid": "w97503970:a88283922", "current_trial": 29, "dateTime": 1664464552799, "trialdata": {"revealed_states": [], "num_clicks_accrued": [0, 0, 0, 0, 0, 0, 0, 0, 0, 0, 0, 0, 0], "stateRewards": ["", 4, -4, 48, -48, -2, -8, -24, 48, -2, 4, 24, -24], "withholdReward": false, "trial_id": "mdp_507290896735", "block": "test1", "trialIndex": 22, "score": 51.5, "costs": -1.5, "simulationMode": [null, null, null], "rewards": [4, -4, 48], "path": ["0", "0", "1", "2", "3"], "rt": [4566, 58, 429], "actions": ["up", "up", "right"], "actionTimes": [5561, 6135, 7071], "queries": {"click": {"state": {"target": ["12", "7", "4", "3", "2", "1"], "time": [1749, 2253, 2718, 3086, 4721, 5016]}, "edge": {"target": [], "time": []}}, "mouseover": {"state": {"target": ["0", "12", "5", "7", "4", "2", "3", "1", "1", "2", "1", "0"], "time": [1079, 1665, 1954, 2128, 2572, 2864, 2982, 3308, 4038, 4559, 4920, 5198]}, "edge": {"target": [], "time": []}}, "mouseout": {"state": {"target": ["0", "0", "12", "5", "7", "4", "2", "3", "1", "1", "2", "1", "0"], "time": [899, 1128, 1850, 2010, 2364, 2837, 2926, 3219, 3379, 4468, 4850, 5121, 5232]}, "edge": {"target": [], "time": []}}}, "displayed_time": "9.05", "trialTime": 9314, "trial_type": "mouselab-mdp", "trial_index": 29, "time_elapsed": 557622, "internal_node_id": "0.0-4.0-1.0-20.0"}}, {"uniqueid": "w97503970:a88283922", "current_trial": 30, "dateTime": 1664464563495, "trialdata": {"revealed_states": [], "num_clicks_accrued": [0, 0, 0, 0, 0, 0, 0, 0, 0, 0, 0, 0, 0], "stateRewards": ["", 2, -4, 48, -48, 2, 4, -24, 24, -4, -8, 24, -48], "withholdReward": true, "trial_id": "mdp_238810765895", "block": "test1", "trialIndex": 23, "score": 49.25, "costs": -1.75, "simulationMode": [null, null, null], "rewards": [2, -4, 48], "path": ["0", "0", "1", "2", "3"], "rt": [5571, 38, 386], "actions": ["up", "up", "right"], "actionTimes": [6649, 7201, 8097], "queries": {"click": {"state": {"target": ["8", "11", "3", "12", "7", "4", "1"], "time": [1575, 2052, 2518, 3302, 3789, 4306, 5501]}, "edge": {"target": [], "time": []}}, "mouseover": {"state": {"target": ["8", "0", "9", "11", "2", "3", "2", "9", "12", "0", "5", "7", "2", "4", "2", "1", "2"], "time": [1391, 1746, 1780, 1871, 2273, 2412, 2662, 2814, 3085, 3488, 3529, 3613, 4078, 4203, 4496, 5425, 5641]}, "edge": {"target": [], "time": []}}, "mouseout": {"state": {"target": ["0", "8", "0", "9", "11", "2", "3", "2", "9", "12", "0", "5", "7", "2", "4", "2", "1", "2", "7"], "time": [1203, 1669, 1759, 1808, 2189, 2322, 2606, 2683, 2843, 3404, 3503, 3558, 3918, 4141, 4447, 4571, 5600, 6607, 6856]}, "edge": {"target": [], "time": []}}}, "displayed_time": "10.15", "trialTime": 10628, "trial_type": "mouselab-mdp", "trial_index": 30, "time_elapsed": 568318, "internal_node_id": "0.0-4.0-1.0-21.0"}}, {"uniqueid": "w97503970:a88283922", "current_trial": 31, "dateTime": 1664464575478, "trialdata": {"revealed_states": [], "num_clicks_accrued": [0, 0, 0, 0, 0, 0, 0, 0, 0, 0, 0, 0, 0], "stateRewards": ["", -4, -4, -24, 24, 4, 4, -24, -24, -4, 4, 24, 24], "withholdReward": true, "trial_id": "mdp_787781487383", "block": "test1", "trialIndex": 24, "score": 26.5, "costs": -2.5, "simulationMode": [null, null, null], "rewards": [-4, 4, 24], "path": ["0", "0", "9", "10", "11"], "rt": [7671, 52, 39], "actions": ["left", "left", "up"], "actionTimes": [9091, 9662, 10211], "queries": {"click": {"state": {"target": ["11", "3", "8", "7", "12", "4", "9", "1", "10", "2"], "time": [1905, 2396, 2944, 3258, 4168, 4687, 6666, 7010, 8151, 8642]}, "edge": {"target": [], "time": []}}, "mouseover": {"state": {"target": ["9", "10", "11", "2", "3", "7", "6", "8", "6", "7", "5", "0", "12", "12", "4", "1", "5", "9", "1", "2", "10", "2", "0"], "time": [1608, 1658, 1824, 2136, 2212, 2615, 2719, 2831, 3081, 3157, 3456, 3504, 3651, 4039, 4560, 4900, 5011, 6477, 6859, 7206, 8046, 8386, 8977]}, "edge": {"target": [], "time": []}}, "mouseout": {"state": {"target": ["6", "5", "0", "9", "10", "11", "2", "3", "7", "6", "8", "6", "7", "5", "0", "12", "12", "4", "1", "5", "8", "9", "1", "2", "10", "1", "2", "1", "0"], "time": [1067, 1108, 1588, 1636, 1747, 2018, 2157, 2526, 2685, 2783, 3053, 3122, 3394, 3470, 3553, 3705, 4290, 4831, 4956, 5053, 5130, 6803, 7144, 7713, 8247, 8345, 8768, 8880, 9060]}, "edge": {"target": [], "time": []}}}, "displayed_time": "10.72", "trialTime": 11919, "trial_type": "mouselab-mdp", "trial_index": 31, "time_elapsed": 580301, "internal_node_id": "0.0-4.0-1.0-22.0"}}, {"uniqueid": "w97503970:a88283922", "current_trial": 32, "dateTime": 1664464586597, "trialdata": {"revealed_states": [], "num_clicks_accrued": [0, 0, 0, 0, 0, 0, 0, 0, 0, 0, 0, 0, 0], "stateRewards": ["", -4, 8, -24, 48, 2, -8, 24, 48, 2, -8, -24, -48], "withholdReward": false, "trial_id": "mdp_493778446445", "block": "test1", "trialIndex": 25, "score": 55.75, "costs": -1.25, "simulationMode": [null, null, null], "rewards": [-4, 8, 48], "path": ["0", "0", "1", "2", "4"], "rt": [5142, 47, 356], "actions": ["up", "up", "left"], "actionTimes": [6442, 7003, 7874], "queries": {"click": {"state": {"target": ["12", "7", "4", "2", "1"], "time": [2136, 2700, 3330, 5895, 6105]}, "edge": {"target": [], "time": []}}, "mouseover": {"state": {"target": ["0", "0", "9", "12", "0", "7", "2", "4", "2", "3", "2", "11", "1", "3", "2", "1", "5"], "time": [1413, 1871, 1894, 2025, 2317, 2532, 2921, 3225, 3552, 3754, 4302, 4614, 5052, 5358, 5664, 6038, 6288]}, "edge": {"target": [], "time": []}}, "mouseout": {"state": {"target": ["0", "0", "0", "9", "12", "0", "7", "2", "4", "2", "3", "2", "11", "1", "3", "2", "1", "5"], "time": [1208, 1462, 1879, 1927, 2233, 2330, 2824, 3177, 3468, 3608, 4267, 4323, 4927, 5185, 5628, 5997, 6246, 6330]}, "edge": {"target": [], "time": []}}}, "displayed_time": "10.39", "trialTime": 11050, "trial_type": "mouselab-mdp", "trial_index": 32, "time_elapsed": 591419, "internal_node_id": "0.0-4.0-1.0-23.0"}}, {"uniqueid": "w97503970:a88283922", "current_trial": 33, "dateTime": 1664464598450, "trialdata": {"revealed_states": [], "num_clicks_accrued": [0, 0, 0, 0, 0, 0, 0, 0, 0, 0, 0, 0, 0], "stateRewards": ["", -4, -8, 24, -48, 2, 4, -48, -48, 2, -8, 24, 48], "withholdReward": true, "trial_id": "mdp_111262146724", "block": "test1", "trialIndex": 26, "score": 46, "costs": -1, "simulationMode": [null, null, null], "rewards": [2, -8, 48], "path": ["0", "0", "9", "10", "12"], "rt": [3795, 54, 22], "actions": ["left", "left", "down"], "actionTimes": [4930, 5496, 6032], "queries": {"click": {"state": {"target": ["12", "7", "4", "8"], "time": [1536, 3018, 3633, 4488]}, "edge": {"target": [], "time": []}}, "mouseover": {"state": {"target": ["12", "0", "5", "7", "4", "2", "3", "6", "8"], "time": [1434, 1719, 1768, 1934, 3393, 3810, 3921, 4261, 4302]}, "edge": {"target": [], "time": []}}, "mouseout": {"state": {"target": ["0", "12", "0", "5", "7", "4", "2", "3", "6", "8"], "time": [1212, 1643, 1740, 1774, 3191, 3761, 3871, 4101, 4275, 4608]}, "edge": {"target": [], "time": []}}}, "displayed_time": "10.22", "trialTime": 11785, "trial_type": "mouselab-mdp", "trial_index": 33, "time_elapsed": 603273, "internal_node_id": "0.0-4.0-1.0-24.0"}}, {"uniqueid": "w97503970:a88283922", "current_trial": 34, "dateTime": 1664464609904, "trialdata": {"revealed_states": [], "num_clicks_accrued": [0, 0, 0, 0, 0, 0, 0, 0, 0, 0, 0, 0, 0], "stateRewards": ["", -2, 8, 48, -48, 4, -8, 24, 24, 4, 4, -48, -24], "withholdReward": false, "trial_id": "mdp_746937869927", "block": "test1", "trialIndex": 27, "score": 57.75, "costs": -1.25, "simulationMode": [null, null, null], "rewards": [-2, 8, 48], "path": ["0", "0", "1", "2", "3"], "rt": [4023, 25, 411], "actions": ["up", "up", "right"], "actionTimes": [4996, 5537, 6462], "queries": {"click": {"state": {"target": ["12", "7", "4", "8", "3"], "time": [1386, 1891, 2412, 3441, 4123]}, "edge": {"target": [], "time": []}}, "mouseover": {"state": {"target": ["12", "0", "5", "7", "2", "4", "1", "5", "8", "8", "0", "3", "11", "1"], "time": [1307, 1599, 1633, 1724, 2161, 2244, 2598, 2661, 2737, 2980, 3806, 3966, 4550, 4917]}, "edge": {"target": [], "time": []}}, "mouseout": {"state": {"target": ["0", "12", "0", "5", "7", "2", "4", "1", "5", "8", "8", "0", "3", "11", "1", "6"], "time": [1105, 1515, 1612, 1668, 2036, 2174, 2528, 2605, 2668, 2772, 3584, 3834, 4237, 4814, 5008, 5182]}, "edge": {"target": [], "time": []}}}, "displayed_time": "10.08", "trialTime": 11390, "trial_type": "mouselab-mdp", "trial_index": 34, "time_elapsed": 614727, "internal_node_id": "0.0-4.0-1.0-25.0"}}, {"uniqueid": "w97503970:a88283922", "current_trial": 35, "dateTime": 1664464620158, "trialdata": {"revealed_states": [], "num_clicks_accrued": [0, 0, 0, 0, 0, 0, 0, 0, 0, 0, 0, 0, 0], "stateRewards": ["", 2, 8, -24, -48, 2, 4, -24, 48, 2, -8, 48, -24], "withholdReward": true, "trial_id": "mdp_791659307216", "block": "test1", "trialIndex": 28, "score": 58, "costs": -1, "simulationMode": [null, null, null], "rewards": [2, 4, 48], "path": ["0", "0", "5", "6", "8"], "rt": [2507, 45, 84], "actions": ["right", "right", "down"], "actionTimes": [3472, 4029, 4624], "queries": {"click": {"state": {"target": ["12", "7", "4", "8"], "time": [1310, 1714, 2241, 2792]}, "edge": {"target": [], "time": []}}, "mouseover": {"state": {"target": ["0", "9", "12", "0", "5", "7", "2", "4", "1", "5", "8", "6"], "time": [1080, 1136, 1213, 1470, 1504, 1560, 1942, 1997, 2407, 2462, 2546, 3032]}, "edge": {"target": [], "time": []}}, "mouseout": {"state": {"target": ["8", "0", "0", "9", "12", "0", "5", "7", "2", "4", "1", "5", "8", "6", "6"], "time": [560, 879, 1109, 1143, 1414, 1491, 1511, 1845, 1969, 2379, 2435, 2498, 2998, 3053, 3562]}, "edge": {"target": [], "time": []}}}, "displayed_time": "9.04", "trialTime": 10189, "trial_type": "mouselab-mdp", "trial_index": 35, "time_elapsed": 624981, "internal_node_id": "0.0-4.0-1.0-26.0"}}, {"uniqueid": "w97503970:a88283922", "current_trial": 36, "dateTime": 1664464630310, "trialdata": {"revealed_states": [], "num_clicks_accrued": [0, 0, 0, 0, 0, 0, 0, 0, 0, 0, 0, 0, 0], "stateRewards": ["", -2, 8, 48, 48, 4, -8, -48, 48, 2, -4, -48, 48], "withholdReward": true, "trial_id": "mdp_132958048709", "block": "test1", "trialIndex": 29, "score": 50.5, "costs": -0.5, "simulationMode": [null, null, null], "rewards": [2, -4, 48], "path": ["0", "0", "9", "10", "12"], "rt": [2194, 94, 58], "actions": ["left", "left", "down"], "actionTimes": [3055, 3661, 4229], "queries": {"click": {"state": {"target": ["12", "7"], "time": [1339, 1992]}, "edge": {"target": [], "time": []}}, "mouseover": {"state": {"target": ["0", "12", "0", "5", "7", "1", "11"], "time": [1082, 1228, 1526, 1568, 1741, 2284, 2408]}, "edge": {"target": [], "time": []}}, "mouseout": {"state": {"target": ["0", "0", "12", "0", "5", "7", "1", "11", "9"], "time": [714, 1131, 1443, 1540, 1610, 2158, 2318, 3020, 3145]}, "edge": {"target": [], "time": []}}}, "displayed_time": "8.94", "trialTime": 10085, "trial_type": "mouselab-mdp", "trial_index": 36, "time_elapsed": 635133, "internal_node_id": "0.0-4.0-1.0-27.0"}}, {"uniqueid": "w97503970:a88283922", "current_trial": 37, "dateTime": 1664464640316, "trialdata": {"revealed_states": [], "num_clicks_accrued": [0, 0, 0, 0, 0, 0, 0, 0, 0, 0, 0, 0, 0], "stateRewards": ["", 2, 4, 48, 24, -2, -8, 24, 24, -2, 4, -48, 24], "withholdReward": true, "trial_id": "mdp_130849500124", "block": "test1", "trialIndex": 30, "score": 57.5, "costs": -1.5, "simulationMode": [null, null, null], "rewards": [2, 4, 48], "path": ["0", "0", "1", "2", "3"], "rt": [4159, 492, 101], "actions": ["up", "up", "right"], "actionTimes": [4879, 5885, 6493], "queries": {"click": {"state": {"target": ["12", "7", "4", "8", "3", "11"], "time": [1307, 1876, 2466, 3018, 3597, 4465]}, "edge": {"target": [], "time": []}}, "mouseover": {"state": {"target": ["12", "0", "5", "7", "4", "1", "5", "8", "5", "3", "11", "1"], "time": [1153, 1514, 1549, 1758, 2362, 2667, 2743, 2917, 3306, 3514, 3979, 4792]}, "edge": {"target": [], "time": []}}, "mouseout": {"state": {"target": ["0", "12", "0", "5", "7", "4", "1", "5", "8", "5", "3", "11", "1", "5", "8"], "time": [1007, 1424, 1528, 1632, 2132, 2591, 2709, 2806, 3236, 3369, 3743, 4639, 5105, 5369, 6237]}, "edge": {"target": [], "time": []}}}, "displayed_time": "8.78", "trialTime": 9939, "trial_type": "mouselab-mdp", "trial_index": 37, "time_elapsed": 645138, "internal_node_id": "0.0-4.0-1.0-28.0"}}, {"uniqueid": "w97503970:a88283922", "current_trial": 38, "dateTime": 1664464649596, "trialdata": {"revealed_states": [], "num_clicks_accrued": [0, 0, 0, 0, 0, 0, 0, 0, 0, 0, 0, 0, 0], "stateRewards": ["", 2, -8, 24, 24, 2, 4, -48, -48, 4, 4, -24, 48], "withholdReward": true, "trial_id": "mdp_985707010949", "block": "test1", "trialIndex": 31, "score": 60, "costs": -1, "simulationMode": [null, null, null], "rewards": [4, 4, 48], "path": ["0", "0", "9", "10", "12"], "rt": [3751, 43, 281], "actions": ["left", "left", "down"], "actionTimes": [4397, 4951, 5744], "queries": {"click": {"state": {"target": ["12", "7", "4", "8"], "time": [1286, 2346, 3043, 4182]}, "edge": {"target": [], "time": []}}, "mouseover": {"state": {"target": ["0", "12", "0", "5", "7", "4", "4", "1", "5", "6", "8", "8", "8"], "time": [754, 1039, 1491, 1525, 1719, 2643, 2880, 3199, 3268, 3317, 3386, 3650, 4109]}, "edge": {"target": [], "time": []}}, "mouseout": {"state": {"target": ["6", "5", "0", "0", "12", "0", "5", "7", "4", "4", "1", "5", "6", "8", "8", "8"], "time": [282, 366, 483, 824, 1407, 1506, 1545, 2483, 2671, 3157, 3234, 3289, 3338, 3393, 3720, 4261]}, "edge": {"target": [], "time": []}}}, "displayed_time": "8.71", "trialTime": 9209, "trial_type": "mouselab-mdp", "trial_index": 38, "time_elapsed": 654419, "internal_node_id": "0.0-4.0-1.0-29.0"}}, {"uniqueid": "w97503970:a88283922", "current_trial": 39, "dateTime": 1664464654899, "trialdata": {"rt": 5301, "stimulus": "<h1> End of block! </h1>\n\nYou have reached the end of the block 1/4. If you need a short break, feel free to take one now before moving on.\n\n<br><br>\nIn the next block, you will complete another 30 rounds of this game.\n\n<br><br>\n<div style='text-align: center;'>Press <code>space</code> to begin.</div>\n<br><br>\n<div style='text-align: center;'>(If the experiment doesn't continue, try clicking on the text and then pressing <code>space</code>.)</div>", "response": " ", "trial_id": "mdp_ready_2", "trial_type": "html-keyboard-response", "trial_index": 39, "time_elapsed": 659722, "internal_node_id": "0.0-4.0-2.0"}}, {"uniqueid": "w97503970:a88283922", "current_trial": 40, "dateTime": 1664464666238, "trialdata": {"revealed_states": [], "num_clicks_accrued": [0, 0, 0, 0, 0, 0, 0, 0, 0, 0, 0, 0, 0], "stateRewards": ["", 4, -8, 48, 24, 4, -4, 48, 48, -4, 8, -48, 24], "withholdReward": false, "trial_id": "mdp_303828806348", "block": "test2", "trialIndex": 32, "score": 52, "costs": -1, "simulationMode": [null, null, null], "rewards": [4, -4, 48], "path": ["0", "0", "5", "6", "7"], "rt": [3361, 1832, 507], "actions": ["right", "right", "up"], "actionTimes": [4341, 6691, 7710], "queries": {"click": {"state": {"target": ["12", "7", "4", "8"], "time": [1832, 2565, 3563, 4117]}, "edge": {"target": [], "time": []}}, "mouseover": {"state": {"target": ["12", "5", "7", "4", "1", "5", "6", "8"], "time": [1693, 2048, 2235, 2797, 3742, 3825, 3874, 3950]}, "edge": {"target": [], "time": []}}, "mouseout": {"state": {"target": ["8", "0", "12", "5", "7", "4", "1", "5", "6", "8", "6"], "time": [630, 1117, 1936, 2089, 2665, 3693, 3770, 3839, 3895, 4228, 5526]}, "edge": {"target": [], "time": []}}}, "displayed_time": "10.05", "trialTime": 11270, "trial_type": "mouselab-mdp", "trial_index": 40, "time_elapsed": 671061, "internal_node_id": "0.0-4.0-3.0-0.0"}}, {"uniqueid": "w97503970:a88283922", "current_trial": 41, "dateTime": 1664464676714, "trialdata": {"revealed_states": [], "num_clicks_accrued": [0, 0, 0, 0, 0, 0, 0, 0, 0, 0, 0, 0, 0], "stateRewards": ["", -2, -8, -24, -48, 4, -8, 48, 24, 2, 4, -48, -48], "withholdReward": false, "trial_id": "mdp_898082967464", "block": "test2", "trialIndex": 33, "score": 47.5, "costs": -1.5, "simulationMode": [null, null, null], "rewards": [4, -8, 48], "path": ["0", "0", "5", "6", "7"], "rt": [3707, 109, 78], "actions": ["right", "right", "up"], "actionTimes": [4790, 5417, 6012], "queries": {"click": {"state": {"target": ["12", "7", "4", "8", "3", "11"], "time": [1438, 1945, 2650, 3193, 3709, 4646]}, "edge": {"target": [], "time": []}}, "mouseover": {"state": {"target": ["0", "12", "5", "7", "4", "1", "5", "8", "6", "3", "11", "11", "11"], "time": [1169, 1315, 1683, 1786, 2183, 2829, 2891, 2989, 3377, 3662, 4106, 4308, 4600]}, "edge": {"target": [], "time": []}}, "mouseout": {"state": {"target": ["5", "0", "12", "5", "7", "4", "1", "5", "8", "6", "3", "11", "11", "11", "6"], "time": [814, 1224, 1571, 1703, 2072, 2786, 2863, 2919, 3343, 3426, 3905, 4169, 4369, 4731, 4932]}, "edge": {"target": [], "time": []}}}, "displayed_time": "10.16", "trialTime": 10408, "trial_type": "mouselab-mdp", "trial_index": 41, "time_elapsed": 681536, "internal_node_id": "0.0-4.0-3.0-1.0"}}, {"uniqueid": "w97503970:a88283922", "current_trial": 42, "dateTime": 1664464687642, "trialdata": {"revealed_states": [], "num_clicks_accrued": [0, 0, 0, 0, 0, 0, 0, 0, 0, 0, 0, 0, 0], "stateRewards": ["", 2, 8, 48, 24, -4, 4, -48, 24, 2, 8, 48, 48], "withholdReward": true, "trial_id": "mdp_367344599162", "block": "test2", "trialIndex": 34, "score": 62.25, "costs": -0.75, "simulationMode": [null, null, null], "rewards": [2, 8, 48], "path": ["0", "0", "9", "10", "12"], "rt": [4012, 99, 44], "actions": ["left", "left", "down"], "actionTimes": [5075, 5686, 6233], "queries": {"click": {"state": {"target": ["12", "9", "10"], "time": [2164, 4493, 4658]}, "edge": {"target": [], "time": []}}, "mouseover": {"state": {"target": ["0", "9", "5", "6", "5", "0", "12", "5", "6", "7", "9", "10"], "time": [1199, 1302, 1753, 1795, 1908, 1934, 2024, 2371, 2433, 2641, 4302, 4614]}, "edge": {"target": [], "time": []}}, "mouseout": {"state": {"target": ["5", "0", "0", "9", "5", "6", "5", "0", "12", "5", "6", "7", "9", "10", "10", "9"], "time": [558, 593, 1253, 1336, 1780, 1900, 1927, 1955, 2288, 2399, 2441, 4101, 4586, 4718, 4795, 4836]}, "edge": {"target": [], "time": []}}}, "displayed_time": "10.13", "trialTime": 10858, "trial_type": "mouselab-mdp", "trial_index": 42, "time_elapsed": 692465, "internal_node_id": "0.0-4.0-3.0-2.0"}}, {"uniqueid": "w97503970:a88283922", "current_trial": 43, "dateTime": 1664464698838, "trialdata": {"revealed_states": [], "num_clicks_accrued": [0, 0, 0, 0, 0, 0, 0, 0, 0, 0, 0, 0, 0], "stateRewards": ["", -4, 4, -48, -48, -4, 8, -24, 24, 2, -4, 48, 48], "withholdReward": true, "trial_id": "mdp_821566905048", "block": "test2", "trialIndex": 35, "score": 50, "costs": -1, "simulationMode": [null, null, null], "rewards": [2, -4, 48], "path": ["0", "0", "9", "10", "12"], "rt": [3148, 75, 411], "actions": ["left", "left", "down"], "actionTimes": [4163, 4753, 5680], "queries": {"click": {"state": {"target": ["12", "7", "4", "8"], "time": [1699, 2580, 3352, 3944]}, "edge": {"target": [], "time": []}}, "mouseover": {"state": {"target": ["0", "12", "5", "7", "1", "4", "4", "1", "5", "8"], "time": [1356, 1563, 1905, 2140, 2924, 2994, 3229, 3564, 3660, 3758]}, "edge": {"target": [], "time": []}}, "mouseout": {"state": {"target": ["0", "0", "12", "5", "7", "1", "4", "4", "1", "5", "8"], "time": [896, 1397, 1792, 1959, 2855, 2931, 3015, 3487, 3612, 3709, 4070]}, "edge": {"target": [], "time": []}}}, "displayed_time": "10.12", "trialTime": 11129, "trial_type": "mouselab-mdp", "trial_index": 43, "time_elapsed": 703661, "internal_node_id": "0.0-4.0-3.0-3.0"}}, {"uniqueid": "w97503970:a88283922", "current_trial": 44, "dateTime": 1664464709538, "trialdata": {"revealed_states": [], "num_clicks_accrued": [0, 0, 0, 0, 0, 0, 0, 0, 0, 0, 0, 0, 0], "stateRewards": ["", 2, 4, 48, -48, 2, -4, 48, 24, -2, -8, -24, 48], "withholdReward": true, "trial_id": "mdp_962424406744", "block": "test2", "trialIndex": 36, "score": 58.75, "costs": -0.25, "simulationMode": [null, null, null], "rewards": [2, 4, 48], "path": ["0", "0", "1", "2", "3"], "rt": [1912, 65, 11], "actions": ["up", "up", "right"], "actionTimes": [2610, 3187, 3708], "queries": {"click": {"state": {"target": ["3"], "time": [1145]}, "edge": {"target": [], "time": []}}, "mouseover": {"state": {"target": ["1", "3", "1", "9"], "time": [878, 996, 1371, 1524]}, "edge": {"target": [], "time": []}}, "mouseout": {"state": {"target": ["9", "1", "0", "1", "3", "1", "9"], "time": [205, 448, 802, 892, 1267, 1399, 2323]}, "edge": {"target": [], "time": []}}}, "displayed_time": "9.81", "trialTime": 10630, "trial_type": "mouselab-mdp", "trial_index": 44, "time_elapsed": 714361, "internal_node_id": "0.0-4.0-3.0-4.0"}}, {"uniqueid": "w97503970:a88283922", "current_trial": 45, "dateTime": 1664464721345, "trialdata": {"revealed_states": [], "num_clicks_accrued": [0, 0, 0, 0, 0, 0, 0, 0, 0, 0, 0, 0, 0], "stateRewards": ["", -2, 4, -24, 24, -4, -8, 24, -48, -4, -4, -48, -24], "withholdReward": false, "trial_id": "mdp_753137520419", "block": "test2", "trialIndex": 37, "score": 29, "costs": -2, "simulationMode": [null, null, null], "rewards": [-2, 4, 24], "path": ["0", "0", "1", "2", "4"], "rt": [6860, 46, 8], "actions": ["up", "up", "left"], "actionTimes": [7803, 8363, 8880], "queries": {"click": {"state": {"target": ["12", "7", "4", "8", "3", "11", "2", "6"], "time": [1340, 2054, 2716, 3257, 3851, 4423, 6636, 7158]}, "edge": {"target": [], "time": []}}, "mouseover": {"state": {"target": ["12", "6", "7", "7", "1", "4", "1", "5", "8", "5", "3", "11", "10", "5", "1", "2", "6"], "time": [1261, 1657, 1753, 1905, 2295, 2559, 2886, 2962, 3094, 3629, 3712, 4374, 4573, 6039, 6101, 6511, 7032]}, "edge": {"target": [], "time": []}}, "mouseout": {"state": {"target": ["0", "12", "6", "7", "7", "1", "4", "1", "5", "8", "5", "3", "11", "10", "8", "5", "1", "2", "6", "8"], "time": [1115, 1462, 1705, 1774, 2206, 2392, 2823, 2899, 3003, 3559, 3649, 4020, 4532, 4608, 5713, 6066, 6171, 6754, 7233, 7330]}, "edge": {"target": [], "time": []}}}, "displayed_time": "10.03", "trialTime": 11742, "trial_type": "mouselab-mdp", "trial_index": 45, "time_elapsed": 726167, "internal_node_id": "0.0-4.0-3.0-5.0"}}, {"uniqueid": "w97503970:a88283922", "current_trial": 46, "dateTime": 1664464732108, "trialdata": {"revealed_states": [], "num_clicks_accrued": [0, 0, 0, 0, 0, 0, 0, 0, 0, 0, 0, 0, 0], "stateRewards": ["", -4, 4, -24, 24, 2, 4, -24, 48, -4, 8, -48, 48], "withholdReward": true, "trial_id": "mdp_422109108860", "block": "test2", "trialIndex": 38, "score": 56.25, "costs": -0.75, "simulationMode": [null, null, null], "rewards": [-4, 8, 48], "path": ["0", "0", "9", "10", "12"], "rt": [2671, 33, 13], "actions": ["left", "left", "down"], "actionTimes": [3828, 4381, 4907], "queries": {"click": {"state": {"target": ["12", "7", "4"], "time": [1584, 2412, 3055]}, "edge": {"target": [], "time": []}}, "mouseover": {"state": {"target": ["0", "9", "12", "5", "6", "7", "7", "1", "4", "1"], "time": [1282, 1331, 1484, 1782, 1859, 1955, 2094, 2733, 2948, 3289]}, "edge": {"target": [], "time": []}}, "mouseout": {"state": {"target": ["0", "9", "12", "5", "6", "7", "7", "1", "4", "1"], "time": [1296, 1345, 1685, 1823, 1887, 1970, 2608, 2754, 3206, 3351]}, "edge": {"target": [], "time": []}}}, "displayed_time": "10.26", "trialTime": 10693, "trial_type": "mouselab-mdp", "trial_index": 46, "time_elapsed": 736931, "internal_node_id": "0.0-4.0-3.0-6.0"}}, {"uniqueid": "w97503970:a88283922", "current_trial": 47, "dateTime": 1664464742084, "trialdata": {"revealed_states": [], "num_clicks_accrued": [0, 0, 0, 0, 0, 0, 0, 0, 0, 0, 0, 0, 0], "stateRewards": ["", -4, -4, -48, -24, 2, 8, 24, -48, 4, 4, 48, 48], "withholdReward": true, "trial_id": "mdp_693501840209", "block": "test2", "trialIndex": 39, "score": 60.25, "costs": -0.75, "simulationMode": [null, null, null], "rewards": [4, 4, 48], "path": ["0", "0", "9", "10", "11"], "rt": [4875, 89, 117], "actions": ["left", "left", "up"], "actionTimes": [5824, 6428, 7056], "queries": {"click": {"state": {"target": ["12", "7", "11"], "time": [1789, 2300, 3374]}, "edge": {"target": [], "time": []}}, "mouseover": {"state": {"target": ["0", "0", "12", "5", "7", "5", "0", "9", "11", "1", "9", "9", "3", "0"], "time": [1072, 1474, 1613, 1983, 2065, 2683, 3065, 3148, 3231, 3891, 4058, 4899, 5356, 5773]}, "edge": {"target": [], "time": []}}, "mouseout": {"state": {"target": ["0", "0", "0", "12", "5", "7", "5", "0", "9", "11", "1", "9", "9", "3", "0"], "time": [578, 1134, 1502, 1877, 2016, 2579, 2710, 3092, 3162, 3467, 3898, 4064, 4960, 5479, 5801]}, "edge": {"target": [], "time": []}}}, "displayed_time": "9.03", "trialTime": 9910, "trial_type": "mouselab-mdp", "trial_index": 47, "time_elapsed": 746907, "internal_node_id": "0.0-4.0-3.0-7.0"}}, {"uniqueid": "w97503970:a88283922", "current_trial": 48, "dateTime": 1664464751488, "trialdata": {"revealed_states": [], "num_clicks_accrued": [0, 0, 0, 0, 0, 0, 0, 0, 0, 0, 0, 0, 0], "stateRewards": ["", -2, -8, 24, -48, 4, 4, -24, -48, -2, -8, -48, 24], "withholdReward": true, "trial_id": "mdp_556006673466", "block": "test2", "trialIndex": 40, "score": 17.5, "costs": -1.5, "simulationMode": [null, null, null], "rewards": [-2, -8, 24], "path": ["0", "0", "1", "2", "3"], "rt": [5122, 33, 207], "actions": ["up", "up", "right"], "actionTimes": [5785, 6324, 7045], "queries": {"click": {"state": {"target": ["12", "7", "4", "8", "3", "11"], "time": [1017, 1559, 2037, 2550, 3709, 4177]}, "edge": {"target": [], "time": []}}, "mouseover": {"state": {"target": ["0", "9", "12", "5", "6", "7", "1", "4", "8", "0", "1", "2", "3", "2", "11", "10"], "time": [764, 826, 938, 1187, 1230, 1521, 1820, 1973, 2424, 2806, 2896, 3251, 3597, 3820, 4056, 4326]}, "edge": {"target": [], "time": []}}, "mouseout": {"state": {"target": ["0", "0", "9", "12", "5", "6", "7", "1", "4", "8", "0", "1", "2", "3", "2", "11", "10", "12"], "time": [612, 785, 841, 1111, 1209, 1243, 1681, 1861, 2146, 2674, 2814, 2944, 3313, 3785, 3862, 4271, 4417, 4486]}, "edge": {"target": [], "time": []}}}, "displayed_time": "8.76", "trialTime": 9327, "trial_type": "mouselab-mdp", "trial_index": 48, "time_elapsed": 756311, "internal_node_id": "0.0-4.0-3.0-8.0"}}, {"uniqueid": "w97503970:a88283922", "current_trial": 49, "dateTime": 1664464762466, "trialdata": {"revealed_states": [], "num_clicks_accrued": [0, 0, 0, 0, 0, 0, 0, 0, 0, 0, 0, 0, 0], "stateRewards": ["", -2, -8, 48, -24, 2, -4, -48, -24, -2, -4, -48, 48], "withholdReward": true, "trial_id": "mdp_143798438087", "block": "test2", "trialIndex": 41, "score": 46.5, "costs": -0.5, "simulationMode": [null, null, null], "rewards": [-2, -4, 48], "path": ["0", "0", "9", "10", "12"], "rt": [1887, 34, 57], "actions": ["left", "left", "down"], "actionTimes": [2652, 3198, 3763], "queries": {"click": {"state": {"target": ["12", "7"], "time": [1123, 1840]}, "edge": {"target": [], "time": []}}, "mouseover": {"state": {"target": ["12", "5", "6", "7", "1", "9"], "time": [1059, 1323, 1386, 1504, 2165, 2525]}, "edge": {"target": [], "time": []}}, "mouseout": {"state": {"target": ["0", "12", "5", "6", "7", "1", "9"], "time": [879, 1213, 1359, 1393, 1985, 2226, 2587]}, "edge": {"target": [], "time": []}}}, "displayed_time": "9.87", "trialTime": 10913, "trial_type": "mouselab-mdp", "trial_index": 49, "time_elapsed": 767289, "internal_node_id": "0.0-4.0-3.0-9.0"}}, {"uniqueid": "w97503970:a88283922", "current_trial": 50, "dateTime": 1664464772815, "trialdata": {"revealed_states": [], "num_clicks_accrued": [0, 0, 0, 0, 0, 0, 0, 0, 0, 0, 0, 0, 0], "stateRewards": ["", 4, -4, 48, -48, 4, -4, 24, -24, 4, 8, -24, -48], "withholdReward": true, "trial_id": "mdp_433630527224", "block": "test2", "trialIndex": 42, "score": 51.5, "costs": -1.5, "simulationMode": [null, null, null], "rewards": [4, -4, 48], "path": ["0", "0", "1", "2", "3"], "rt": [5492, 11, 17], "actions": ["up", "up", "right"], "actionTimes": [6319, 6843, 7370], "queries": {"click": {"state": {"target": ["12", "7", "4", "8", "3", "11"], "time": [1188, 1712, 2194, 2716, 3134, 5961]}, "edge": {"target": [], "time": []}}, "mouseover": {"state": {"target": ["12", "5", "7", "4", "1", "5", "8", "6", "3", "2", "11", "1", "11", "1", "11", "11", "9"], "time": [1171, 1428, 1601, 2106, 2345, 2414, 2532, 2858, 3004, 3282, 3504, 3838, 4456, 5158, 5413, 5740, 6124]}, "edge": {"target": [], "time": []}}, "mouseout": {"state": {"target": ["0", "12", "5", "7", "4", "1", "5", "8", "6", "3", "2", "4", "11", "1", "11", "1", "11", "11", "9"], "time": [948, 1302, 1484, 1838, 2317, 2386, 2462, 2837, 2865, 3247, 3317, 3372, 3734, 4268, 5039, 5177, 5448, 6053, 6143]}, "edge": {"target": [], "time": []}}}, "displayed_time": "9.88", "trialTime": 10283, "trial_type": "mouselab-mdp", "trial_index": 50, "time_elapsed": 777638, "internal_node_id": "0.0-4.0-3.0-10.0"}}, {"uniqueid": "w97503970:a88283922", "current_trial": 51, "dateTime": 1664464782566, "trialdata": {"revealed_states": [], "num_clicks_accrued": [0, 0, 0, 0, 0, 0, 0, 0, 0, 0, 0, 0, 0], "stateRewards": ["", -4, -8, -48, 24, -4, -4, -24, -48, 2, -8, -24, -48], "withholdReward": true, "trial_id": "mdp_628181832088", "block": "test2", "trialIndex": 43, "score": 15.5, "costs": -1.5, "simulationMode": [null, null, null], "rewards": [-4, -8, 24], "path": ["0", "0", "1", "2", "4"], "rt": [3435, 7, 47], "actions": ["up", "up", "left"], "actionTimes": [4232, 4757, 5309], "queries": {"click": {"state": {"target": ["12", "7", "4", "8", "3", "11"], "time": [1217, 1763, 2172, 2701, 3188, 3630]}, "edge": {"target": [], "time": []}}, "mouseover": {"state": {"target": ["0", "12", "5", "7", "4", "1", "5", "8", "5", "1", "3", "2", "11", "10"], "time": [894, 1082, 1499, 1687, 2069, 2346, 2416, 2555, 2866, 2956, 3117, 3311, 3471, 3764]}, "edge": {"target": [], "time": []}}, "mouseout": {"state": {"target": ["0", "0", "12", "5", "7", "4", "1", "5", "8", "5", "1", "3", "2", "11", "10", "12"], "time": [679, 964, 1333, 1555, 1888, 2312, 2381, 2471, 2818, 2894, 3013, 3283, 3346, 3728, 3818, 3874]}, "edge": {"target": [], "time": []}}}, "displayed_time": "8.88", "trialTime": 9681, "trial_type": "mouselab-mdp", "trial_index": 51, "time_elapsed": 787389, "internal_node_id": "0.0-4.0-3.0-11.0"}}, {"uniqueid": "w97503970:a88283922", "current_trial": 52, "dateTime": 1664464792958, "trialdata": {"revealed_states": [], "num_clicks_accrued": [0, 0, 0, 0, 0, 0, 0, 0, 0, 0, 0, 0, 0], "stateRewards": ["", -2, -8, -48, 24, 2, -4, -48, 48, 2, 4, 24, -24], "withholdReward": false, "trial_id": "mdp_849341543762", "block": "test2", "trialIndex": 44, "score": 49.5, "costs": -1.5, "simulationMode": [null, null, null], "rewards": [2, -4, 48], "path": ["0", "0", "5", "6", "8"], "rt": [2899, 6, 298], "actions": ["right", "right", "down"], "actionTimes": [3545, 4072, 4883], "queries": {"click": {"state": {"target": ["12", "7", "4", "8", "3", "11"], "time": [981, 1442, 1803, 2288, 2804, 3212]}, "edge": {"target": [], "time": []}}, "mouseover": {"state": {"target": ["12", "5", "7", "4", "1", "5", "8", "6", "3", "2", "11", "10"], "time": [972, 1215, 1333, 1729, 1958, 2041, 2138, 2430, 2694, 2958, 3125, 3360]}, "edge": {"target": [], "time": []}}, "mouseout": {"state": {"target": ["0", "12", "5", "7", "4", "1", "5", "8", "6", "3", "2", "11", "10", "6", "7", "3", "2", "4", "9"], "time": [770, 1104, 1263, 1569, 1916, 1986, 2076, 2403, 2451, 2923, 2965, 3319, 3375, 8249, 9006, 9264, 9319, 9458, 9569]}, "edge": {"target": [], "time": []}}}, "displayed_time": "8.71", "trialTime": 10324, "trial_type": "mouselab-mdp", "trial_index": 52, "time_elapsed": 797781, "internal_node_id": "0.0-4.0-3.0-12.0"}}, {"uniqueid": "w97503970:a88283922", "current_trial": 53, "dateTime": 1664464803975, "trialdata": {"revealed_states": [], "num_clicks_accrued": [0, 0, 0, 0, 0, 0, 0, 0, 0, 0, 0, 0, 0], "stateRewards": ["", 4, 4, -48, -24, -2, -4, 48, 24, -4, 4, 24, -48], "withholdReward": true, "trial_id": "mdp_617383046444", "block": "test2", "trialIndex": 45, "score": 46.5, "costs": -0.5, "simulationMode": [null, null, null], "rewards": [-2, -4, 48], "path": ["0", "0", "5", "6", "7"], "rt": [1969, 63, 54], "actions": ["right", "right", "up"], "actionTimes": [2842, 3415, 3974], "queries": {"click": {"state": {"target": ["12", "7"], "time": [1344, 1907]}, "edge": {"target": [], "time": []}}, "mouseover": {"state": {"target": ["0", "12", "0", "5", "7", "2", "1", "5", "6"], "time": [1010, 1156, 1573, 1601, 1774, 2212, 2510, 2732, 2774]}, "edge": {"target": [], "time": []}}, "mouseout": {"state": {"target": ["0", "0", "12", "0", "5", "7", "2", "1", "5", "6"], "time": [683, 1038, 1483, 1580, 1649, 2045, 2455, 2524, 2747, 2809]}, "edge": {"target": [], "time": []}}}, "displayed_time": "9.97", "trialTime": 10948, "trial_type": "mouselab-mdp", "trial_index": 53, "time_elapsed": 808797, "internal_node_id": "0.0-4.0-3.0-13.0"}}, {"uniqueid": "w97503970:a88283922", "current_trial": 54, "dateTime": 1664464814567, "trialdata": {"revealed_states": [], "num_clicks_accrued": [0, 0, 0, 0, 0, 0, 0, 0, 0, 0, 0, 0, 0], "stateRewards": ["", -4, 8, 24, -24, 4, 8, -24, -48, 2, 4, 24, -24], "withholdReward": true, "trial_id": "mdp_782187007008", "block": "test2", "trialIndex": 46, "score": 31, "costs": -2, "simulationMode": [null, null, null], "rewards": [-4, 8, 24], "path": ["0", "0", "1", "2", "3"], "rt": [6202, 115, 24], "actions": ["up", "up", "right"], "actionTimes": [6872, 7498, 8033], "queries": {"click": {"state": {"target": ["12", "4", "8", "7", "11", "3", "10", "2"], "time": [1043, 1839, 2366, 2673, 3222, 3680, 5922, 6371]}, "edge": {"target": [], "time": []}}, "mouseover": {"state": {"target": ["0", "12", "0", "5", "7", "2", "4", "1", "5", "8", "6", "7", "1", "11", "2", "3", "0", "9", "10", "2", "1"], "time": [752, 981, 1218, 1266, 1447, 1641, 1758, 1996, 2114, 2225, 2523, 2606, 2891, 3141, 3440, 3579, 4037, 5648, 5767, 6232, 6578]}, "edge": {"target": [], "time": []}}, "mouseout": {"state": {"target": ["8", "0", "0", "12", "0", "5", "7", "2", "4", "1", "5", "8", "6", "7", "1", "11", "2", "3", "0", "9", "10", "2", "1"], "time": [30, 558, 766, 1148, 1238, 1280, 1523, 1669, 1926, 2023, 2134, 2482, 2530, 2801, 2920, 3309, 3454, 3815, 4079, 5690, 6023, 6537, 6606]}, "edge": {"target": [], "time": []}}}, "displayed_time": "8.77", "trialTime": 10519, "trial_type": "mouselab-mdp", "trial_index": 54, "time_elapsed": 819390, "internal_node_id": "0.0-4.0-3.0-14.0"}}, {"uniqueid": "w97503970:a88283922", "current_trial": 55, "dateTime": 1664464825739, "trialdata": {"revealed_states": [], "num_clicks_accrued": [0, 0, 0, 0, 0, 0, 0, 0, 0, 0, 0, 0, 0], "stateRewards": ["", -4, -8, -48, -48, 4, -8, 48, 48, 2, 8, 48, 24], "withholdReward": true, "trial_id": "mdp_880437222492", "block": "test2", "trialIndex": 47, "score": 61.5, "costs": -1.5, "simulationMode": [null, null, null], "rewards": [2, 8, 48], "path": ["0", "0", "9", "10", "11"], "rt": [4747, 65, 83], "actions": ["left", "left", "up"], "actionTimes": [6176, 6752, 7341], "queries": {"click": {"state": {"target": ["12", "7", "4", "11", "6", "10"], "time": [1778, 2258, 3480, 4281, 5254, 5740]}, "edge": {"target": [], "time": []}}, "mouseover": {"state": {"target": ["0", "9", "12", "0", "5", "7", "4", "2", "2", "11", "5", "6", "5", "0", "9", "10"], "time": [1507, 1562, 1645, 1957, 1999, 2132, 2513, 3632, 4035, 4131, 4513, 5139, 5375, 5437, 5479, 5584]}, "edge": {"target": [], "time": []}}, "mouseout": {"state": {"target": ["0", "0", "9", "12", "0", "5", "7", "4", "2", "2", "11", "5", "6", "5", "0", "9", "10"], "time": [1360, 1535, 1576, 1881, 1972, 2034, 2354, 3604, 3715, 4069, 4402, 4555, 5361, 5403, 5451, 5527, 5889]}, "edge": {"target": [], "time": []}}}, "displayed_time": "10.51", "trialTime": 11105, "trial_type": "mouselab-mdp", "trial_index": 55, "time_elapsed": 830562, "internal_node_id": "0.0-4.0-3.0-15.0"}}, {"uniqueid": "w97503970:a88283922", "current_trial": 56, "dateTime": 1664464836372, "trialdata": {"revealed_states": [], "num_clicks_accrued": [0, 0, 0, 0, 0, 0, 0, 0, 0, 0, 0, 0, 0], "stateRewards": ["", -4, -8, -24, 24, 2, 8, 24, 48, 2, 4, 24, -48], "withholdReward": true, "trial_id": "mdp_122352383932", "block": "test2", "trialIndex": 48, "score": 62, "costs": -1, "simulationMode": [null, null, null], "rewards": [2, 8, 48], "path": ["0", "0", "5", "6", "8"], "rt": [2815, 64, 60], "actions": ["right", "right", "down"], "actionTimes": [3951, 4525, 5090], "queries": {"click": {"state": {"target": ["12", "7", "4", "8"], "time": [1560, 2056, 2568, 3106]}, "edge": {"target": [], "time": []}}, "mouseover": {"state": {"target": ["0", "9", "12", "0", "5", "7", "2", "4", "1", "5", "8", "6"], "time": [1286, 1335, 1418, 1723, 1779, 1869, 2272, 2383, 2726, 2792, 2898, 3849]}, "edge": {"target": [], "time": []}}, "mouseout": {"state": {"target": ["0", "9", "12", "0", "5", "7", "2", "4", "1", "5", "8", "6"], "time": [1292, 1342, 1668, 1751, 1794, 2181, 2321, 2675, 2751, 2842, 3328, 3904]}, "edge": {"target": [], "time": []}}}, "displayed_time": "10.22", "trialTime": 10559, "trial_type": "mouselab-mdp", "trial_index": 56, "time_elapsed": 841195, "internal_node_id": "0.0-4.0-3.0-16.0"}}, {"uniqueid": "w97503970:a88283922", "current_trial": 57, "dateTime": 1664464848021, "trialdata": {"revealed_states": [], "num_clicks_accrued": [0, 0, 0, 0, 0, 0, 0, 0, 0, 0, 0, 0, 0], "stateRewards": ["", 2, -4, -24, 24, 2, 8, 48, 48, 2, -8, 48, -24], "withholdReward": false, "trial_id": "mdp_330392242530", "block": "test2", "trialIndex": 49, "score": 61.75, "costs": -1.25, "simulationMode": [null, null, null], "rewards": [2, 8, 48], "path": ["0", "0", "5", "6", "7"], "rt": [4703, 61, 49], "actions": ["right", "right", "up"], "actionTimes": [5455, 6034, 6592], "queries": {"click": {"state": {"target": ["12", "7", "11", "6", "10"], "time": [1101, 1602, 3295, 4548, 5037]}, "edge": {"target": [], "time": []}}, "mouseover": {"state": {"target": ["9", "12", "0", "7", "4", "11", "4", "1", "6", "5", "10"], "time": [868, 979, 1298, 1466, 1855, 3160, 3494, 4208, 4382, 4660, 4876]}, "edge": {"target": [], "time": []}}, "mouseout": {"state": {"target": ["8", "0", "9", "12", "0", "7", "4", "11", "4", "1", "6", "5", "10"], "time": [389, 840, 903, 1222, 1320, 1702, 3056, 3417, 4146, 4243, 4639, 4688, 5174]}, "edge": {"target": [], "time": []}}}, "displayed_time": "9.85", "trialTime": 11581, "trial_type": "mouselab-mdp", "trial_index": 57, "time_elapsed": 852844, "internal_node_id": "0.0-4.0-3.0-17.0"}}, {"uniqueid": "w97503970:a88283922", "current_trial": 58, "dateTime": 1664464858448, "trialdata": {"revealed_states": [], "num_clicks_accrued": [0, 0, 0, 0, 0, 0, 0, 0, 0, 0, 0, 0, 0], "stateRewards": ["", -2, 4, -24, -48, -4, 8, -24, 48, 4, 4, -48, 24], "withholdReward": false, "trial_id": "mdp_341117665701", "block": "test2", "trialIndex": 50, "score": 56, "costs": -1, "simulationMode": [null, null, null], "rewards": [-4, 8, 48], "path": ["0", "0", "5", "6", "8"], "rt": [3234, 61, 75], "actions": ["right", "right", "down"], "actionTimes": [4173, 4744, 5335], "queries": {"click": {"state": {"target": ["12", "7", "4", "8"], "time": [1498, 2012, 2471, 3090]}, "edge": {"target": [], "time": []}}, "mouseover": {"state": {"target": ["0", "12", "5", "7", "4", "1", "5", "8"], "time": [1014, 1343, 1704, 1864, 2336, 2635, 2725, 2927]}, "edge": {"target": [], "time": []}}, "mouseout": {"state": {"target": ["8", "0", "0", "12", "5", "7", "4", "1", "5", "8"], "time": [308, 864, 1066, 1600, 1746, 2127, 2573, 2649, 2732, 3260]}, "edge": {"target": [], "time": []}}}, "displayed_time": "9.01", "trialTime": 10352, "trial_type": "mouselab-mdp", "trial_index": 58, "time_elapsed": 863271, "internal_node_id": "0.0-4.0-3.0-18.0"}}, {"uniqueid": "w97503970:a88283922", "current_trial": 59, "dateTime": 1664464869046, "trialdata": {"revealed_states": [], "num_clicks_accrued": [0, 0, 0, 0, 0, 0, 0, 0, 0, 0, 0, 0, 0], "stateRewards": ["", -4, -8, 48, -48, 2, -4, 48, -24, 2, -8, -48, -48], "withholdReward": true, "trial_id": "mdp_624553692913", "block": "test2", "trialIndex": 51, "score": 50, "costs": -1, "simulationMode": [null, null, null], "rewards": [2, -4, 48], "path": ["0", "0", "5", "6", "7"], "rt": [3222, 16, 326], "actions": ["right", "right", "up"], "actionTimes": [4106, 4634, 5469], "queries": {"click": {"state": {"target": ["12", "7", "4", "8"], "time": [1222, 1655, 2431, 3351]}, "edge": {"target": [], "time": []}}, "mouseover": {"state": {"target": ["9", "12", "0", "5", "7", "4", "5", "8", "0", "5", "6"], "time": [1006, 1131, 1388, 1415, 1540, 1936, 2971, 3277, 3881, 3951, 4054]}, "edge": {"target": [], "time": []}}, "mouseout": {"state": {"target": ["0", "9", "12", "0", "5", "7", "4", "5", "8", "0", "5", "6"], "time": [978, 1013, 1311, 1394, 1457, 1777, 2680, 2992, 3512, 3916, 4020, 4120]}, "edge": {"target": [], "time": []}}}, "displayed_time": "9.96", "trialTime": 10529, "trial_type": "mouselab-mdp", "trial_index": 59, "time_elapsed": 873869, "internal_node_id": "0.0-4.0-3.0-19.0"}}, {"uniqueid": "w97503970:a88283922", "current_trial": 60, "dateTime": 1664464879477, "trialdata": {"revealed_states": [], "num_clicks_accrued": [0, 0, 0, 0, 0, 0, 0, 0, 0, 0, 0, 0, 0], "stateRewards": ["", -2, 4, 24, 48, 2, 4, -48, -48, 2, 8, 48, -48], "withholdReward": true, "trial_id": "mdp_409609775558", "block": "test2", "trialIndex": 52, "score": 54, "costs": -1, "simulationMode": [null, null, null], "rewards": [-2, 4, 48], "path": ["0", "0", "1", "2", "4"], "rt": [2540, 23, 86], "actions": ["up", "up", "left"], "actionTimes": [3360, 3900, 4496], "queries": {"click": {"state": {"target": ["12", "7", "4", "8"], "time": [1145, 1560, 1950, 2767]}, "edge": {"target": [], "time": []}}, "mouseover": {"state": {"target": ["9", "12", "0", "5", "7", "1", "4", "1", "5", "8", "0", "9"], "time": [945, 1050, 1312, 1354, 1438, 1729, 1812, 2096, 2159, 2520, 2985, 3062]}, "edge": {"target": [], "time": []}}, "mouseout": {"state": {"target": ["0", "9", "12", "0", "5", "7", "1", "4", "1", "5", "8", "0", "9"], "time": [902, 952, 1243, 1333, 1382, 1660, 1756, 2062, 2124, 2215, 2895, 3026, 3069]}, "edge": {"target": [], "time": []}}}, "displayed_time": "9.91", "trialTime": 10362, "trial_type": "mouselab-mdp", "trial_index": 60, "time_elapsed": 884299, "internal_node_id": "0.0-4.0-3.0-20.0"}}, {"uniqueid": "w97503970:a88283922", "current_trial": 61, "dateTime": 1664464890333, "trialdata": {"revealed_states": [], "num_clicks_accrued": [0, 0, 0, 0, 0, 0, 0, 0, 0, 0, 0, 0, 0], "stateRewards": ["", -4, 8, 24, -24, -2, 4, -24, 48, -2, 8, -48, -24], "withholdReward": true, "trial_id": "mdp_799359103169", "block": "test2", "trialIndex": 53, "score": 54, "costs": -1, "simulationMode": [null, null, null], "rewards": [-2, 4, 48], "path": ["0", "0", "5", "6", "8"], "rt": [2615, 118, 123], "actions": ["right", "right", "down"], "actionTimes": [3280, 3920, 4557], "queries": {"click": {"state": {"target": ["12", "7", "4", "8"], "time": [1018, 1474, 1795, 2513]}, "edge": {"target": [], "time": []}}, "mouseover": {"state": {"target": ["12", "5", "7", "2", "4", "1", "5", "8", "8", "0", "9", "9", "0"], "time": [889, 1208, 1319, 1666, 1736, 1958, 2034, 2110, 2402, 2743, 2806, 3110, 3153]}, "edge": {"target": [], "time": []}}, "mouseout": {"state": {"target": ["8", "0", "12", "5", "7", "2", "4", "1", "5", "8", "8", "0", "9", "9", "0", "8"], "time": [187, 784, 1118, 1256, 1569, 1701, 1916, 2000, 2069, 2208, 2639, 2756, 2889, 3139, 3173, 3257]}, "edge": {"target": [], "time": []}}}, "displayed_time": "9.74", "trialTime": 10781, "trial_type": "mouselab-mdp", "trial_index": 61, "time_elapsed": 895155, "internal_node_id": "0.0-4.0-3.0-21.0"}}, {"uniqueid": "w97503970:a88283922", "current_trial": 62, "dateTime": 1664464899907, "trialdata": {"revealed_states": [], "num_clicks_accrued": [0, 0, 0, 0, 0, 0, 0, 0, 0, 0, 0, 0, 0], "stateRewards": ["", 4, -8, 24, 48, 2, -4, 48, 48, 4, -8, 48, 48], "withholdReward": true, "trial_id": "mdp_962498334245", "block": "test2", "trialIndex": 54, "score": 48.25, "costs": -0.75, "simulationMode": [null, null, null], "rewards": [4, -8, 48], "path": ["0", "0", "9", "10", "11"], "rt": [5162, 23, 44], "actions": ["left", "left", "up"], "actionTimes": [5938, 6469, 7024], "queries": {"click": {"state": {"target": ["12", "3", "11"], "time": [1165, 1912, 2751]}, "edge": {"target": [], "time": []}}, "mouseover": {"state": {"target": ["0", "12", "1", "3", "3", "1", "11", "1", "7", "6", "8"], "time": [856, 1120, 1391, 1530, 1786, 2432, 2620, 2925, 3263, 4564, 4661]}, "edge": {"target": [], "time": []}}, "mouseout": {"state": {"target": ["8", "0", "0", "12", "1", "3", "3", "1", "11", "1", "7", "6", "8"], "time": [487, 606, 890, 1259, 1439, 1557, 2051, 2481, 2856, 2967, 4495, 4620, 5203]}, "edge": {"target": [], "time": []}}}, "displayed_time": "8.87", "trialTime": 9490, "trial_type": "mouselab-mdp", "trial_index": 62, "time_elapsed": 904730, "internal_node_id": "0.0-4.0-3.0-22.0"}}, {"uniqueid": "w97503970:a88283922", "current_trial": 63, "dateTime": 1664464912203, "trialdata": {"revealed_states": [], "num_clicks_accrued": [0, 0, 0, 0, 0, 0, 0, 0, 0, 0, 0, 0, 0], "stateRewards": ["", 4, 4, 48, -48, -2, 4, 48, -48, -4, 4, -24, -24], "withholdReward": true, "trial_id": "mdp_753324812898", "block": "test2", "trialIndex": 55, "score": 60.25, "costs": -0.75, "simulationMode": [null, null, null], "rewards": [4, 4, 48], "path": ["0", "0", "1", "2", "3"], "rt": [4576, 461, 27], "actions": ["up", "up", "right"], "actionTimes": [7147, 8124, 8674], "queries": {"click": {"state": {"target": ["12", "3", "8"], "time": [3761, 4445, 6086]}, "edge": {"target": [], "time": []}}, "mouseover": {"state": {"target": ["0", "12", "12", "1", "3", "6", "8"], "time": [3274, 3392, 3600, 3983, 4240, 5767, 5954]}, "edge": {"target": [], "time": []}}, "mouseout": {"state": {"target": ["7", "5", "0", "0", "0", "12", "12", "1", "3", "6", "8", "6", "1", "7"], "time": [1322, 1392, 1933, 3135, 3316, 3442, 3872, 4010, 5655, 5879, 6246, 7788, 8163, 8274]}, "edge": {"target": [], "time": []}}}, "displayed_time": "11.67", "trialTime": 12231, "trial_type": "mouselab-mdp", "trial_index": 63, "time_elapsed": 917026, "internal_node_id": "0.0-4.0-3.0-23.0"}}, {"uniqueid": "w97503970:a88283922", "current_trial": 64, "dateTime": 1664464927758, "trialdata": {"revealed_states": [], "num_clicks_accrued": [0, 0, 0, 0, 0, 0, 0, 0, 0, 0, 0, 0, 0], "stateRewards": ["", -4, -4, -24, 24, -4, 4, -24, 48, -2, 4, 48, -48], "withholdReward": false, "trial_id": "mdp_774757609669", "block": "test2", "trialIndex": 56, "score": 52.75, "costs": -2.25, "simulationMode": [null, null, null], "rewards": [-2, 4, 48], "path": ["0", "0", "9", "10", "11"], "rt": [10135, 473, 124], "actions": ["left", "left", "up"], "actionTimes": [11539, 12520, 13149], "queries": {"click": {"state": {"target": ["12", "3", "8", "11", "10", "6", "4", "5", "9"], "time": [1762, 2185, 2704, 4487, 5706, 6179, 8047, 10229, 10481]}, "edge": {"target": [], "time": []}}, "mouseover": {"state": {"target": ["9", "12", "9", "1", "3", "6", "8", "0", "9", "11", "10", "9", "0", "5", "6", "7", "4", "7", "5", "0", "9", "0"], "time": [1539, 1649, 1892, 1955, 2094, 2462, 2566, 3788, 3830, 3976, 5581, 5844, 5886, 5934, 5983, 7615, 7684, 8420, 9574, 10344, 10380, 10637]}, "edge": {"target": [], "time": []}}, "mouseout": {"state": {"target": ["0", "9", "12", "9", "1", "3", "6", "8", "0", "9", "11", "10", "9", "0", "5", "6", "7", "4", "7", "5", "0", "9", "0"], "time": [1517, 1560, 1859, 1921, 1983, 2330, 2518, 3692, 3810, 3872, 5491, 5823, 5865, 5914, 5962, 6282, 7629, 8164, 9497, 10316, 10358, 10614, 10657]}, "edge": {"target": [], "time": []}}}, "displayed_time": "13.66", "trialTime": 15488, "trial_type": "mouselab-mdp", "trial_index": 64, "time_elapsed": 932580, "internal_node_id": "0.0-4.0-3.0-24.0"}}, {"uniqueid": "w97503970:a88283922", "current_trial": 65, "dateTime": 1664464937240, "trialdata": {"revealed_states": [], "num_clicks_accrued": [0, 0, 0, 0, 0, 0, 0, 0, 0, 0, 0, 0, 0], "stateRewards": ["", 4, 4, 24, 24, 4, -4, 48, 48, 4, 4, 24, -48], "withholdReward": true, "trial_id": "mdp_454251689008", "block": "test2", "trialIndex": 57, "score": 51.5, "costs": -1.5, "simulationMode": [null, null, null], "rewards": [4, -4, 48], "path": ["0", "0", "5", "6", "7"], "rt": [5188, 47, 24], "actions": ["right", "right", "up"], "actionTimes": [6158, 6715, 7245], "queries": {"click": {"state": {"target": ["12", "7", "4", "3", "11", "8"], "time": [1284, 1792, 3023, 4005, 4565, 5078]}, "edge": {"target": [], "time": []}}, "mouseover": {"state": {"target": ["12", "0", "5", "7", "2", "4", "11", "1", "3", "11", "0", "8"], "time": [1152, 1499, 1541, 1632, 2000, 2097, 3258, 3688, 3918, 4486, 4779, 4958]}, "edge": {"target": [], "time": []}}, "mouseout": {"state": {"target": ["6", "5", "0", "12", "0", "5", "7", "2", "4", "11", "1", "3", "11", "0", "8"], "time": [638, 742, 1048, 1409, 1513, 1569, 1923, 2027, 3175, 3654, 3701, 4173, 4674, 4799, 5173]}, "edge": {"target": [], "time": []}}}, "displayed_time": "9.06", "trialTime": 9417, "trial_type": "mouselab-mdp", "trial_index": 65, "time_elapsed": 942062, "internal_node_id": "0.0-4.0-3.0-25.0"}}, {"uniqueid": "w97503970:a88283922", "current_trial": 66, "dateTime": 1664464947963, "trialdata": {"revealed_states": [], "num_clicks_accrued": [0, 0, 0, 0, 0, 0, 0, 0, 0, 0, 0, 0, 0], "stateRewards": ["", -4, -8, 24, 48, 2, -4, -24, 24, -4, 8, 48, 48], "withholdReward": true, "trial_id": "mdp_496672670022", "block": "test2", "trialIndex": 58, "score": 55.75, "costs": -1.25, "simulationMode": [null, null, null], "rewards": [-4, 8, 48], "path": ["0", "0", "9", "10", "12"], "rt": [3742, 60, 73], "actions": ["left", "left", "down"], "actionTimes": [4878, 5452, 6027], "queries": {"click": {"state": {"target": ["12", "7", "4", "2", "10"], "time": [1467, 1955, 2580, 3967, 4258]}, "edge": {"target": [], "time": []}}, "mouseover": {"state": {"target": ["12", "0", "5", "7", "2", "4", "1", "5", "8", "5", "1", "2", "10", "9", "8"], "time": [1393, 1628, 1670, 1747, 2365, 2407, 2767, 2823, 2934, 3615, 3684, 3809, 4212, 4380, 4511]}, "edge": {"target": [], "time": []}}, "mouseout": {"state": {"target": ["6", "5", "0", "12", "0", "5", "7", "2", "4", "1", "5", "8", "5", "1", "2", "10", "9", "8"], "time": [740, 775, 1226, 1573, 1656, 1684, 2254, 2373, 2712, 2788, 2858, 3559, 3643, 3739, 4059, 4372, 4399, 4538]}, "edge": {"target": [], "time": []}}}, "displayed_time": "10.23", "trialTime": 10652, "trial_type": "mouselab-mdp", "trial_index": 66, "time_elapsed": 952786, "internal_node_id": "0.0-4.0-3.0-26.0"}}, {"uniqueid": "w97503970:a88283922", "current_trial": 67, "dateTime": 1664464957014, "trialdata": {"revealed_states": [], "num_clicks_accrued": [0, 0, 0, 0, 0, 0, 0, 0, 0, 0, 0, 0, 0], "stateRewards": ["", 2, 8, 48, -24, -4, 4, 48, 24, -2, 8, 24, 24], "withholdReward": false, "trial_id": "mdp_123436106791", "block": "test2", "trialIndex": 59, "score": 51.75, "costs": -1.25, "simulationMode": [null, null, null], "rewards": [-4, 4, 48], "path": ["0", "0", "5", "6", "7"], "rt": [4987, 51, 34], "actions": ["right", "right", "up"], "actionTimes": [5650, 6217, 6765], "queries": {"click": {"state": {"target": ["12", "7", "11", "4", "8"], "time": [1802, 2366, 3725, 4009, 5302]}, "edge": {"target": [], "time": []}}, "mouseover": {"state": {"target": ["12", "0", "5", "0", "12", "5", "7", "2", "4", "4", "11", "4", "1", "5", "8"], "time": [1071, 1213, 1255, 1512, 1602, 2053, 2255, 2553, 2588, 2894, 3615, 3942, 4221, 4345, 5130]}, "edge": {"target": [], "time": []}}, "mouseout": {"state": {"target": ["8", "0", "12", "0", "5", "0", "12", "5", "7", "2", "4", "4", "11", "4", "1", "5", "8"], "time": [269, 825, 1116, 1234, 1269, 1527, 1928, 2081, 2470, 2567, 2651, 3290, 3811, 4165, 4269, 4457, 5387]}, "edge": {"target": [], "time": []}}}, "displayed_time": "8.77", "trialTime": 8982, "trial_type": "mouselab-mdp", "trial_index": 67, "time_elapsed": 961837, "internal_node_id": "0.0-4.0-3.0-27.0"}}, {"uniqueid": "w97503970:a88283922", "current_trial": 68, "dateTime": 1664464967655, "trialdata": {"revealed_states": [], "num_clicks_accrued": [0, 0, 0, 0, 0, 0, 0, 0, 0, 0, 0, 0, 0], "stateRewards": ["", -2, -4, -24, -24, 4, 8, 24, 24, -2, 8, 48, 48], "withholdReward": true, "trial_id": "mdp_620787912291", "block": "test2", "trialIndex": 60, "score": 58.25, "costs": -0.75, "simulationMode": [null, null, null], "rewards": [-2, 8, 48], "path": ["0", "0", "9", "10", "12"], "rt": [2592, 38, 57], "actions": ["left", "left", "down"], "actionTimes": [3228, 3776, 4340], "queries": {"click": {"state": {"target": ["12", "7", "4"], "time": [924, 1763, 2311]}, "edge": {"target": [], "time": []}}, "mouseover": {"state": {"target": ["12", "5", "7", "4", "1", "5"], "time": [866, 1088, 1144, 2039, 2512, 2602]}, "edge": {"target": [], "time": []}}, "mouseout": {"state": {"target": ["5", "0", "12", "5", "7", "4", "1", "5"], "time": [420, 748, 1018, 1116, 1893, 2463, 2553, 2678]}, "edge": {"target": [], "time": []}}}, "displayed_time": "9.71", "trialTime": 10574, "trial_type": "mouselab-mdp", "trial_index": 68, "time_elapsed": 972478, "internal_node_id": "0.0-4.0-3.0-28.0"}}, {"uniqueid": "w97503970:a88283922", "current_trial": 69, "dateTime": 1664464977245, "trialdata": {"revealed_states": [], "num_clicks_accrued": [0, 0, 0, 0, 0, 0, 0, 0, 0, 0, 0, 0, 0], "stateRewards": ["", -4, 8, 48, -48, 2, -4, 24, -24, -2, 4, -24, -24], "withholdReward": true, "trial_id": "mdp_804988042722", "block": "test2", "trialIndex": 61, "score": 55.75, "costs": -1.25, "simulationMode": [null, null, null], "rewards": [-4, 8, 48], "path": ["0", "0", "1", "2", "3"], "rt": [3491, 86, 72], "actions": ["up", "up", "right"], "actionTimes": [4075, 4682, 5269], "queries": {"click": {"state": {"target": ["12", "7", "4", "8", "3"], "time": [961, 1535, 1941, 2449, 3176]}, "edge": {"target": [], "time": []}}, "mouseover": {"state": {"target": ["12", "5", "6", "7", "4", "1", "5", "8", "3", "2", "11", "1"], "time": [898, 1189, 1244, 1397, 1835, 2141, 2203, 2287, 3056, 3314, 3543, 3953]}, "edge": {"target": [], "time": []}}, "mouseout": {"state": {"target": ["0", "12", "5", "6", "7", "4", "1", "5", "8", "7", "3", "2", "11", "1", "7"], "time": [737, 1064, 1203, 1251, 1654, 2078, 2149, 2231, 2585, 2967, 3286, 3356, 3898, 3973, 4043]}, "edge": {"target": [], "time": []}}}, "displayed_time": "8.65", "trialTime": 9515, "trial_type": "mouselab-mdp", "trial_index": 69, "time_elapsed": 982068, "internal_node_id": "0.0-4.0-3.0-29.0"}}, {"uniqueid": "w97503970:a88283922", "current_trial": 70, "dateTime": 1664464979310, "trialdata": {"rt": 2063, "stimulus": "<h1> End of block! </h1>\n\nYou have reached the end of the block 2/4. If you need a short break, feel free to take one now before moving on.\n\n<br><br>\nIn the next block, you will complete another 30 rounds of this game.\n\n<br><br>\n<div style='text-align: center;'>Press <code>space</code> to begin.</div>\n<br><br>\n<div style='text-align: center;'>(If the experiment doesn't continue, try clicking on the text and then pressing <code>space</code>.)</div>", "response": " ", "trial_id": "mdp_ready_3", "trial_type": "html-keyboard-response", "trial_index": 70, "time_elapsed": 984132, "internal_node_id": "0.0-4.0-4.0"}}, {"uniqueid": "w97503970:a88283922", "current_trial": 71, "dateTime": 1664464988612, "trialdata": {"revealed_states": [], "num_clicks_accrued": [0, 0, 0, 0, 0, 0, 0, 0, 0, 0, 0, 0, 0], "stateRewards": ["", -4, 8, 24, -24, -2, 4, -24, 48, -2, 8, -48, -24], "withholdReward": true, "trial_id": "mdp_799359103169", "block": "test3", "trialIndex": 62, "score": 54, "costs": -1, "simulationMode": [null, null, null], "rewards": [-2, 4, 48], "path": ["0", "0", "5", "6", "8"], "rt": [2491, 38, 44], "actions": ["right", "right", "down"], "actionTimes": [3270, 3818, 4372], "queries": {"click": {"state": {"target": ["12", "7", "4", "8"], "time": [1132, 1577, 1944, 2548]}, "edge": {"target": [], "time": []}}, "mouseover": {"state": {"target": ["0", "12", "0", "5", "7", "4", "1", "5", "8"], "time": [882, 1030, 1300, 1329, 1412, 1856, 2120, 2191, 2315]}, "edge": {"target": [], "time": []}}, "mouseout": {"state": {"target": ["8", "0", "0", "12", "0", "5", "7", "4", "1", "5", "8", "7"], "time": [355, 687, 919, 1224, 1314, 1356, 1731, 2086, 2163, 2239, 2711, 3197]}, "edge": {"target": [], "time": []}}}, "displayed_time": "8.85", "trialTime": 9230, "trial_type": "mouselab-mdp", "trial_index": 71, "time_elapsed": 993435, "internal_node_id": "0.0-4.0-5.0-0.0"}}, {"uniqueid": "w97503970:a88283922", "current_trial": 72, "dateTime": 1664464999424, "trialdata": {"revealed_states": [], "num_clicks_accrued": [0, 0, 0, 0, 0, 0, 0, 0, 0, 0, 0, 0, 0], "stateRewards": ["", 2, 4, 24, 48, -2, 8, 24, -24, -4, -4, 48, 48], "withholdReward": true, "trial_id": "mdp_753439303214", "block": "test3", "trialIndex": 63, "score": 44.25, "costs": -0.75, "simulationMode": [null, null, null], "rewards": [-4, -4, 48], "path": ["0", "0", "9", "10", "11"], "rt": [3612, 85, 66], "actions": ["left", "left", "up"], "actionTimes": [4310, 4907, 5477], "queries": {"click": {"state": {"target": ["12", "7", "11"], "time": [1528, 2187, 3737]}, "edge": {"target": [], "time": []}}, "mouseover": {"state": {"target": ["9", "12", "12", "5", "5", "0", "12", "5", "6", "7", "4", "9", "9", "11", "9"], "time": [793, 897, 1043, 1153, 1223, 1286, 1369, 1697, 1751, 1848, 2696, 3202, 3473, 3598, 3966]}, "edge": {"target": [], "time": []}}, "mouseout": {"state": {"target": ["0", "9", "12", "12", "5", "5", "0", "12", "5", "6", "7", "4", "9", "9", "11", "9"], "time": [779, 813, 918, 1077, 1189, 1271, 1307, 1612, 1723, 1759, 2334, 2910, 3258, 3535, 3883, 4148]}, "edge": {"target": [], "time": []}}}, "displayed_time": "9.78", "trialTime": 10734, "trial_type": "mouselab-mdp", "trial_index": 72, "time_elapsed": 1004247, "internal_node_id": "0.0-4.0-5.0-1.0"}}, {"uniqueid": "w97503970:a88283922", "current_trial": 73, "dateTime": 1664465011291, "trialdata": {"revealed_states": [], "num_clicks_accrued": [0, 0, 0, 0, 0, 0, 0, 0, 0, 0, 0, 0, 0], "stateRewards": ["", -2, -8, -24, 24, -2, -8, -48, 24, -2, -8, 24, 24], "withholdReward": true, "trial_id": "mdp_336617436097", "block": "test3", "trialIndex": 64, "score": 16.75, "costs": -2.25, "simulationMode": [null, null, null], "rewards": [-2, -8, 24], "path": ["0", "0", "9", "10", "11"], "rt": [7909, 486, 305], "actions": ["left", "left", "up"], "actionTimes": [8498, 9491, 10303], "queries": {"click": {"state": {"target": ["12", "3", "4", "8", "7", "11", "6", "10", "2"], "time": [971, 1457, 1798, 2453, 2785, 3258, 6140, 7121, 7596]}, "edge": {"target": [], "time": []}}, "mouseover": {"state": {"target": ["9", "12", "9", "1", "3", "2", "4", "1", "5", "8", "8", "6", "7", "11", "10", "9", "10", "9", "1", "6", "6", "5", "1", "2", "10", "2", "1", "0"], "time": [747, 865, 1108, 1198, 1344, 1591, 1692, 1935, 1990, 2066, 2353, 2615, 2713, 3178, 3386, 4379, 4428, 5179, 5289, 5629, 5872, 6345, 6574, 6762, 6949, 7498, 7775, 7949]}, "edge": {"target": [], "time": []}}, "mouseout": {"state": {"target": ["0", "9", "12", "9", "1", "3", "2", "4", "1", "5", "8", "8", "6", "7", "11", "10", "12", "9", "10", "9", "1", "6", "6", "5", "1", "2", "10", "2", "1", "0"], "time": [720, 761, 1066, 1136, 1234, 1579, 1636, 1907, 1956, 2011, 2115, 2573, 2664, 2907, 3345, 3441, 3553, 4393, 5137, 5187, 5324, 5670, 6304, 6414, 6671, 6803, 7227, 7726, 7845, 7998]}, "edge": {"target": [], "time": []}}}, "displayed_time": "10.81", "trialTime": 11800, "trial_type": "mouselab-mdp", "trial_index": 73, "time_elapsed": 1016114, "internal_node_id": "0.0-4.0-5.0-2.0"}}, {"uniqueid": "w97503970:a88283922", "current_trial": 74, "dateTime": 1664465022122, "trialdata": {"revealed_states": [], "num_clicks_accrued": [0, 0, 0, 0, 0, 0, 0, 0, 0, 0, 0, 0, 0], "stateRewards": ["", -4, -4, -24, 24, 4, 4, -24, -24, -4, 4, 24, 24], "withholdReward": true, "trial_id": "mdp_787781487383", "block": "test3", "trialIndex": 65, "score": 27, "costs": -2, "simulationMode": [null, null, null], "rewards": [-4, 4, 24], "path": ["0", "0", "9", "10", "11"], "rt": [6258, 48, 464], "actions": ["left", "left", "up"], "actionTimes": [7012, 7571, 8549], "queries": {"click": {"state": {"target": ["12", "7", "4", "8", "3", "11", "10", "2"], "time": [1412, 1970, 2366, 2918, 3394, 3882, 5167, 5730]}, "edge": {"target": [], "time": []}}, "mouseover": {"state": {"target": ["9", "12", "0", "7", "2", "4", "1", "5", "8", "6", "3", "11", "10", "10", "9", "1", "2", "6", "5"], "time": [1203, 1272, 1578, 1807, 2161, 2251, 2550, 2627, 2723, 3091, 3335, 3765, 4057, 5022, 5279, 5390, 5556, 6280, 6529]}, "edge": {"target": [], "time": []}}, "mouseout": {"state": {"target": ["0", "9", "12", "0", "7", "2", "4", "1", "5", "8", "6", "3", "11", "10", "12", "12", "10", "9", "1", "2", "6", "5"], "time": [668, 1210, 1515, 1598, 2071, 2210, 2488, 2577, 2661, 3057, 3112, 3578, 4002, 4134, 4196, 4800, 5251, 5335, 5487, 5820, 6474, 6591]}, "edge": {"target": [], "time": []}}}, "displayed_time": "9.88", "trialTime": 10759, "trial_type": "mouselab-mdp", "trial_index": 74, "time_elapsed": 1026945, "internal_node_id": "0.0-4.0-5.0-3.0"}}, {"uniqueid": "w97503970:a88283922", "current_trial": 75, "dateTime": 1664465032739, "trialdata": {"revealed_states": [], "num_clicks_accrued": [0, 0, 0, 0, 0, 0, 0, 0, 0, 0, 0, 0, 0], "stateRewards": ["", -2, 8, -48, 48, -4, 8, -24, 24, 4, -4, 24, -48], "withholdReward": true, "trial_id": "mdp_904238083902", "block": "test3", "trialIndex": 66, "score": 58, "costs": -1, "simulationMode": [null, null, null], "rewards": [-2, 8, 48], "path": ["0", "0", "1", "2", "4"], "rt": [2808, 428, 192], "actions": ["up", "up", "left"], "actionTimes": [3546, 4485, 5187], "queries": {"click": {"state": {"target": ["12", "7", "4", "8"], "time": [1063, 1675, 2203, 3142]}, "edge": {"target": [], "time": []}}, "mouseover": {"state": {"target": ["0", "12", "5", "7", "2", "4", "1", "5", "8", "0", "9"], "time": [827, 973, 1341, 1452, 1938, 2084, 2347, 2410, 2939, 3334, 3382]}, "edge": {"target": [], "time": []}}, "mouseout": {"state": {"target": ["0", "0", "12", "5", "7", "2", "4", "1", "5", "8", "0", "9", "1"], "time": [598, 836, 1188, 1390, 1806, 1959, 2299, 2371, 2466, 3264, 3356, 3404, 3737]}, "edge": {"target": [], "time": []}}}, "displayed_time": "9.83", "trialTime": 10550, "trial_type": "mouselab-mdp", "trial_index": 75, "time_elapsed": 1037562, "internal_node_id": "0.0-4.0-5.0-4.0"}}, {"uniqueid": "w97503970:a88283922", "current_trial": 76, "dateTime": 1664465044298, "trialdata": {"revealed_states": [], "num_clicks_accrued": [0, 0, 0, 0, 0, 0, 0, 0, 0, 0, 0, 0, 0], "stateRewards": ["", 4, -4, 48, -48, -4, -4, 48, -48, 4, 4, -48, -24], "withholdReward": false, "trial_id": "mdp_490058671112", "block": "test3", "trialIndex": 67, "score": 43.5, "costs": -1.5, "simulationMode": [null, null, null], "rewards": [-4, -4, 48], "path": ["0", "0", "5", "6", "7"], "rt": [6413, 72, 51], "actions": ["right", "right", "up"], "actionTimes": [7237, 7819, 8389], "queries": {"click": {"state": {"target": ["12", "7", "4", "3", "2", "6"], "time": [1519, 2036, 3293, 4143, 5286, 5684]}, "edge": {"target": [], "time": []}}, "mouseover": {"state": {"target": ["0", "9", "12", "12", "6", "7", "7", "4", "2", "3", "5", "2", "6", "5", "9", "5"], "time": [891, 925, 988, 1335, 1721, 1815, 1870, 2286, 3808, 3849, 4947, 5127, 5571, 6551, 6606, 6925]}, "edge": {"target": [], "time": []}}, "mouseout": {"state": {"target": ["6", "5", "0", "9", "12", "12", "6", "7", "7", "4", "2", "3", "5", "2", "6", "6", "5", "9", "5", "6"], "time": [557, 592, 898, 939, 1023, 1592, 1738, 1835, 2126, 3780, 3835, 4286, 4967, 5383, 5793, 6545, 6564, 6612, 6947, 6974]}, "edge": {"target": [], "time": []}}}, "displayed_time": "9.89", "trialTime": 11491, "trial_type": "mouselab-mdp", "trial_index": 76, "time_elapsed": 1049120, "internal_node_id": "0.0-4.0-5.0-5.0"}}, {"uniqueid": "w97503970:a88283922", "current_trial": 77, "dateTime": 1664465054741, "trialdata": {"revealed_states": [], "num_clicks_accrued": [0, 0, 0, 0, 0, 0, 0, 0, 0, 0, 0, 0, 0], "stateRewards": ["", -2, -4, -24, -48, -4, -8, -48, 24, -4, -8, -24, -48], "withholdReward": true, "trial_id": "mdp_475782454549", "block": "test3", "trialIndex": 68, "score": 15.5, "costs": -1.5, "simulationMode": [null, null, null], "rewards": [-4, -8, 24], "path": ["0", "0", "5", "6", "8"], "rt": [3769, 139, 90], "actions": ["right", "right", "down"], "actionTimes": [4432, 5083, 5676], "queries": {"click": {"state": {"target": ["12", "7", "4", "8", "3", "11"], "time": [1216, 1708, 2099, 2628, 3228, 3694]}, "edge": {"target": [], "time": []}}, "mouseover": {"state": {"target": ["12", "5", "7", "4", "1", "5", "8", "3", "2", "11", "10", "9"], "time": [1107, 1474, 1573, 1920, 2309, 2392, 2601, 3142, 3399, 3608, 3829, 3899]}, "edge": {"target": [], "time": []}}, "mouseout": {"state": {"target": ["6", "5", "0", "12", "5", "7", "4", "1", "5", "8", "3", "2", "4", "11", "10", "9"], "time": [343, 406, 747, 1353, 1480, 1809, 2225, 2337, 2428, 2844, 3372, 3441, 3496, 3788, 3837, 3920]}, "edge": {"target": [], "time": []}}}, "displayed_time": "9.82", "trialTime": 10374, "trial_type": "mouselab-mdp", "trial_index": 77, "time_elapsed": 1059564, "internal_node_id": "0.0-4.0-5.0-6.0"}}, {"uniqueid": "w97503970:a88283922", "current_trial": 78, "dateTime": 1664465064258, "trialdata": {"revealed_states": [], "num_clicks_accrued": [0, 0, 0, 0, 0, 0, 0, 0, 0, 0, 0, 0, 0], "stateRewards": ["", 2, -4, -48, 24, 4, 4, 48, -48, -2, -4, -24, -48], "withholdRewa