{"condition": 1, "counterbalance": 0, "assignmentId": "a13304162", "workerId": "w61545453", "hitId": "h37463896", "currenttrial": 143, "bonus": 0, "data": [{"uniqueid": "w61545453:a13304162", "current_trial": 0, "dateTime": 1664555035040, "trialdata": {"success": true, "trial_type": "fullscreen", "trial_index": 0, "time_elapsed": 5417, "internal_node_id": "0.0-0.0"}}, {"uniqueid": "w61545453:a13304162", "current_trial": 1, "dateTime": 1664555056640, "trialdata": {"view_history": [{"page_index": 0, "viewing_time": 21596}], "rt": 21597, "trial_id": "exp_instructions_no_distractor", "trial_type": "instructions", "trial_index": 1, "time_elapsed": 27017, "internal_node_id": "0.0-1.0"}}, {"uniqueid": "w61545453:a13304162", "current_trial": 2, "dateTime": 1664555060424, "trialdata": {"success": true, "trial_type": "fullscreen", "trial_index": 2, "time_elapsed": 30801, "internal_node_id": "0.0-2.0-0.0"}}, {"uniqueid": "w61545453:a13304162", "current_trial": 3, "dateTime": 1664555150614, "trialdata": {"view_history": [{"page_index": 0, "viewing_time": 38184}, {"page_index": 1, "viewing_time": 22660}, {"page_index": 2, "viewing_time": 9686}, {"page_index": 3, "viewing_time": 6881}, {"page_index": 4, "viewing_time": 12778}], "rt": 90189, "trial_id": "mouselab_instructions_1", "trial_type": "instructions", "trial_index": 3, "time_elapsed": 120991, "internal_node_id": "0.0-2.0-1.0"}}, {"uniqueid": "w61545453:a13304162", "current_trial": 4, "dateTime": 1664555166062, "trialdata": {"revealed_states": [], "num_clicks_accrued": [0, 0, 0, 0, 0, 0, 0, 0, 0, 0, 0, 0, 0], "stateRewards": ["", 10, 10, -10, 10, 10, 10, -10, -10, -10, 10, 10, -10], "withholdReward": false, "trial_id": "practice_1", "block": "test", "trialIndex": 0, "score": 12, "costs": 0, "simulationMode": [null, null, null], "rewards": [10, 10, -10], "path": ["0", "0", "1", "2", "3"], "rt": [1842, 1736, 860], "actions": ["up", "up", "right"], "actionTimes": [7023, 9255, 10615], "queries": {"click": {"state": {"target": [], "time": []}, "edge": {"target": [], "time": []}}, "mouseover": {"state": {"target": [], "time": []}, "edge": {"target": [], "time": []}}, "mouseout": {"state": {"target": ["8", "8"], "time": [893, 4587]}, "edge": {"target": [], "time": []}}}, "displayed_time": "11.12", "trialTime": 15311, "trial_type": "mouselab-mdp", "trial_index": 4, "time_elapsed": 136439, "internal_node_id": "0.0-2.0-2.0-0.0"}}, {"uniqueid": "w61545453:a13304162", "current_trial": 5, "dateTime": 1664555177790, "trialdata": {"revealed_states": [], "num_clicks_accrued": [0, 0, 0, 0, 0, 0, 0, 0, 0, 0, 0, 0, 0], "stateRewards": ["", 10, 10, -10, -10, 10, -10, 10, -10, -10, 10, -10, -10], "withholdReward": false, "trial_id": "practice_2", "block": "test", "trialIndex": 1, "score": -8, "costs": 0, "simulationMode": [null, null, null], "rewards": [10, -10, -10], "path": ["0", "0", "5", "6", "8"], "rt": [1826, 833, 332], "actions": ["right", "right", "down"], "actionTimes": [5482, 6810, 7642], "queries": {"click": {"state": {"target": [], "time": []}, "edge": {"target": [], "time": []}}, "mouseover": {"state": {"target": [], "time": []}, "edge": {"target": [], "time": []}}, "mouseout": {"state": {"target": ["0"], "time": [9685]}, "edge": {"target": [], "time": []}}}, "displayed_time": "8.14", "trialTime": 11705, "trial_type": "mouselab-mdp", "trial_index": 5, "time_elapsed": 148167, "internal_node_id": "0.0-2.0-2.0-1.0"}}, {"uniqueid": "w61545453:a13304162", "current_trial": 6, "dateTime": 1664555229698, "trialdata": {"view_history": [{"page_index": 0, "viewing_time": 29754}, {"page_index": 1, "viewing_time": 13179}, {"page_index": 2, "viewing_time": 8974}], "rt": 51907, "trial_id": "mouselab_instructions_2_scarce", "trial_type": "instructions", "trial_index": 6, "time_elapsed": 200075, "internal_node_id": "0.0-2.0-3.0"}}, {"uniqueid": "w61545453:a13304162", "current_trial": 7, "dateTime": 1664555254581, "trialdata": {"rt": 24880, "response": {"Q0": "$-48 to $48", "Q1": "There is no cost for clicking on nodes.", "Q2": "The better I perform the higher my bonus will be.", "Q3": "No, the amount of cash at each node of the web may be different each time.", "Q4": "The values of the nodes walked through from start to finish.", "Q5": "No, the spider might forget to count the money on some rounds."}, "question_order": [0, 1, 2, 3, 4, 5], "correct": {"Q0": "$-48 to $48", "Q1": "The cost is always $0.25.", "Q2": "The better I perform the higher my bonus will be.", "Q3": "No, the amount of cash at each node of the web may be different each time.", "Q4": "The values of the nodes walked through from start to finish.", "Q5": "No, the spider might forget to count the money on some rounds."}, "trial_id": "mouselab_quiz_scarce", "trial_type": "survey-multi-choice", "trial_index": 7, "time_elapsed": 224958, "internal_node_id": "0.0-2.0-4.0"}}, {"uniqueid": "w61545453:a13304162", "current_trial": 8, "dateTime": 1664555267415, "trialdata": {"success": true, "trial_type": "fullscreen", "trial_index": 8, "time_elapsed": 237792, "internal_node_id": "0.0-2.1-0.1"}}, {"uniqueid": "w61545453:a13304162", "current_trial": 9, "dateTime": 1664555308071, "trialdata": {"view_history": [{"page_index": 0, "viewing_time": 4715}, {"page_index": 1, "viewing_time": 20400}, {"page_index": 2, "viewing_time": 7445}, {"page_index": 3, "viewing_time": 4838}, {"page_index": 4, "viewing_time": 3256}], "rt": 40654, "trial_id": "mouselab_instructions_1", "trial_type": "instructions", "trial_index": 9, "time_elapsed": 278448, "internal_node_id": "0.0-2.1-1.1"}}, {"uniqueid": "w61545453:a13304162", "current_trial": 10, "dateTime": 1664555314726, "trialdata": {"revealed_states": [], "num_clicks_accrued": [0, 0, 0, 0, 0, 0, 0, 0, 0, 0, 0, 0, 0], "stateRewards": ["", 10, 10, -10, 10, 10, 10, -10, -10, -10, 10, 10, -10], "withholdReward": false, "trial_id": "practice_1", "block": "test", "trialIndex": 2, "score": -8, "costs": 0, "simulationMode": [null, null, null], "rewards": [-10, 10, -10], "path": ["0", "0", "9", "10", "12"], "rt": [789, 96, 34], "actions": ["left", "left", "down"], "actionTimes": [3131, 3722, 4258], "queries": {"click": {"state": {"target": [], "time": []}, "edge": {"target": [], "time": []}}, "mouseover": {"state": {"target": [], "time": []}, "edge": {"target": [], "time": []}}, "mouseout": {"state": {"target": ["0"], "time": [5501]}, "edge": {"target": [], "time": []}}}, "displayed_time": "4.76", "trialTime": 6626, "trial_type": "mouselab-mdp", "trial_index": 10, "time_elapsed": 285103, "internal_node_id": "0.0-2.1-2.1-0.1"}}, {"uniqueid": "w61545453:a13304162", "current_trial": 11, "dateTime": 1664555320997, "trialdata": {"revealed_states": [], "num_clicks_accrued": [0, 0, 0, 0, 0, 0, 0, 0, 0, 0, 0, 0, 0], "stateRewards": ["", 10, 10, -10, -10, 10, -10, 10, -10, -10, 10, -10, -10], "withholdReward": false, "trial_id": "practice_2", "block": "test", "trialIndex": 3, "score": 12, "costs": 0, "simulationMode": [null, null, null], "rewards": [10, 10, -10], "path": ["0", "0", "1", "2", "4"], "rt": [369, 126, 119], "actions": ["up", "up", "left"], "actionTimes": [2579, 3203, 3827], "queries": {"click": {"state": {"target": [], "time": []}, "edge": {"target": [], "time": []}}, "mouseover": {"state": {"target": [], "time": []}, "edge": {"target": [], "time": []}}, "mouseout": {"state": {"target": ["8", "6", "5", "0", "0"], "time": [1673, 1805, 1847, 1895, 4944]}, "edge": {"target": [], "time": []}}}, "displayed_time": "4.33", "trialTime": 6251, "trial_type": "mouselab-mdp", "trial_index": 11, "time_elapsed": 291374, "internal_node_id": "0.0-2.1-2.1-1.1"}}, {"uniqueid": "w61545453:a13304162", "current_trial": 12, "dateTime": 1664555354810, "trialdata": {"view_history": [{"page_index": 0, "viewing_time": 23741}, {"page_index": 1, "viewing_time": 8492}, {"page_index": 2, "viewing_time": 1578}], "rt": 33812, "trial_id": "mouselab_instructions_2_scarce", "trial_type": "instructions", "trial_index": 12, "time_elapsed": 325187, "internal_node_id": "0.0-2.1-3.1"}}, {"uniqueid": "w61545453:a13304162", "current_trial": 13, "dateTime": 1664555381025, "trialdata": {"rt": 26213, "response": {"Q0": "$-48 to $48", "Q1": "The cost is always $0.25.", "Q2": "The better I perform the higher my bonus will be.", "Q3": "No, the amount of cash at each node of the web may be different each time.", "Q4": "The values of the nodes walked through from start to finish.", "Q5": "No, the spider might forget to count the money on some rounds."}, "question_order": [0, 1, 2, 3, 4, 5], "correct": {"Q0": "$-48 to $48", "Q1": "The cost is always $0.25.", "Q2": "The better I perform the higher my bonus will be.", "Q3": "No, the amount of cash at each node of the web may be different each time.", "Q4": "The values of the nodes walked through from start to finish.", "Q5": "No, the spider might forget to count the money on some rounds."}, "trial_id": "mouselab_quiz_scarce", "trial_type": "survey-multi-choice", "trial_index": 13, "time_elapsed": 351402, "internal_node_id": "0.0-2.1-4.1"}}, {"uniqueid": "w61545453:a13304162", "current_trial": 14, "dateTime": 1664555392998, "trialdata": {"rt": 11968, "stimulus": "\n<h1> Get ready to start the game! </h1>\n\nThank you for reading the instructions. Get ready start with the first of 4 block(s) of this game.\n<br><br>\nIn this first block, you will complete 30 rounds of this game before moving on.\n<br><br>\nRemember, the more money the spider gets, the bigger your bonus will be!\n<br><br>\n<div style='text-align: center;'>Press <code>space</code> to begin.</div>\n\n<br><br>\n(If, at any point, the <code>space</code> key does not take you to the next page, click once on the text and try again.)", "response": " ", "trial_id": "mdp_ready_1", "trial_type": "html-keyboard-response", "trial_index": 14, "time_elapsed": 363374, "internal_node_id": "0.0-4.0-0.0"}}, {"uniqueid": "w61545453:a13304162", "current_trial": 15, "dateTime": 1664555409485, "trialdata": {"revealed_states": [], "num_clicks_accrued": [0, 0, 0, 0, 0, 0, 0, 0, 0, 0, 0, 0, 0], "stateRewards": ["", -2, 8, -48, 48, -4, -8, 24, 24, -2, -4, 48, -48], "withholdReward": true, "trial_id": "mdp_867247318592", "block": "test1", "trialIndex": 4, "score": 17, "costs": 0, "simulationMode": [null, null, null], "rewards": [-4, -8, 24], "path": ["0", "0", "5", "6", "8"], "rt": [5560, 2303, 2712], "actions": ["right", "right", "down"], "actionTimes": [8297, 11097, 14305], "queries": {"click": {"state": {"target": [], "time": []}, "edge": {"target": [], "time": []}}, "mouseover": {"state": {"target": ["5"], "time": [6886]}, "edge": {"target": [], "time": []}}, "mouseout": {"state": {"target": ["5", "5", "8"], "time": [2342, 8585, 11544]}, "edge": {"target": [], "time": []}}}, "displayed_time": "14.80", "trialTime": 16465, "trial_type": "mouselab-mdp", "trial_index": 15, "time_elapsed": 379862, "internal_node_id": "0.0-4.0-1.0-0.0"}}, {"uniqueid": "w61545453:a13304162", "current_trial": 16, "dateTime": 1664555421981, "trialdata": {"revealed_states": [], "num_clicks_accrued": [0, 0, 0, 0, 0, 0, 0, 0, 0, 0, 0, 0, 0], "stateRewards": ["", -4, 8, -24, 48, 2, -8, 24, 48, 2, -8, -24, -48], "withholdReward": true, "trial_id": "mdp_493778446445", "block": "test1", "trialIndex": 5, "score": -25.25, "costs": -0.25, "simulationMode": [null, null, null], "rewards": [2, -8, -24], "path": ["0", "0", "9", "10", "11"], "rt": [5339, 855, 309], "actions": ["left", "left", "up"], "actionTimes": [8176, 9528, 10336], "queries": {"click": {"state": {"target": ["12"], "time": [5389]}, "edge": {"target": [], "time": []}}, "mouseover": {"state": {"target": ["9", "10", "12"], "time": [3874, 4541, 4895]}, "edge": {"target": [], "time": []}}, "mouseout": {"state": {"target": ["8", "0", "0", "9", "10", "12"], "time": [575, 1915, 3763, 4374, 4818, 5825]}, "edge": {"target": [], "time": []}}}, "displayed_time": "10.84", "trialTime": 12472, "trial_type": "mouselab-mdp", "trial_index": 16, "time_elapsed": 392358, "internal_node_id": "0.0-4.0-1.0-1.0"}}, {"uniqueid": "w61545453:a13304162", "current_trial": 17, "dateTime": 1664555434133, "trialdata": {"revealed_states": [], "num_clicks_accrued": [0, 0, 0, 0, 0, 0, 0, 0, 0, 0, 0, 0, 0], "stateRewards": ["", -2, -4, 48, 48, 2, 4, -48, 24, 4, -8, 24, -24], "withholdReward": true, "trial_id": "mdp_628613319495", "block": "test1", "trialIndex": 6, "score": 46.75, "costs": -0.25, "simulationMode": [null, null, null], "rewards": [-2, -4, 48], "path": ["0", "0", "1", "2", "4"], "rt": [4278, 714, 537], "actions": ["up", "up", "left"], "actionTimes": [7111, 8327, 9359], "queries": {"click": {"state": {"target": ["4"], "time": [6162]}, "edge": {"target": [], "time": []}}, "mouseover": {"state": {"target": ["0", "1", "1", "2", "2", "4"], "time": [3571, 3766, 4245, 4467, 5258, 5911]}, "edge": {"target": [], "time": []}}, "mouseout": {"state": {"target": ["0", "0", "1", "1", "2", "2", "4"], "time": [3370, 3627, 3911, 4380, 4999, 5807, 7009]}, "edge": {"target": [], "time": []}}}, "displayed_time": "10.83", "trialTime": 12127, "trial_type": "mouselab-mdp", "trial_index": 17, "time_elapsed": 404510, "internal_node_id": "0.0-4.0-1.0-2.0"}}, {"uniqueid": "w61545453:a13304162", "current_trial": 18, "dateTime": 1664555448341, "trialdata": {"revealed_states": [], "num_clicks_accrued": [0, 0, 0, 0, 0, 0, 0, 0, 0, 0, 0, 0, 0], "stateRewards": ["", 2, 8, -24, -48, -4, 8, -48, -48, -2, -8, -24, -24], "withholdReward": true, "trial_id": "mdp_978177451072", "block": "test1", "trialIndex": 7, "score": -29.25, "costs": -0.25, "simulationMode": [null, null, null], "rewards": [-2, -8, -24], "path": ["0", "0", "9", "10", "12"], "rt": [9406, 371, 207], "actions": ["left", "left", "down"], "actionTimes": [10863, 11735, 12439], "queries": {"click": {"state": {"target": ["11"], "time": [7442]}, "edge": {"target": [], "time": []}}, "mouseover": {"state": {"target": ["5", "8", "5", "1", "9", "10", "11", "10", "12"], "time": [4252, 4662, 5676, 5773, 6044, 6801, 7044, 8620, 9092]}, "edge": {"target": [], "time": []}}, "mouseout": {"state": {"target": ["0", "5", "8", "5", "1", "9", "10", "11", "10", "12"], "time": [4197, 4356, 5606, 5704, 5988, 6322, 6940, 8100, 8738, 10099]}, "edge": {"target": [], "time": []}}}, "displayed_time": "12.94", "trialTime": 14183, "trial_type": "mouselab-mdp", "trial_index": 18, "time_elapsed": 418718, "internal_node_id": "0.0-4.0-1.0-3.0"}}, {"uniqueid": "w61545453:a13304162", "current_trial": 19, "dateTime": 1664555458485, "trialdata": {"revealed_states": [], "num_clicks_accrued": [0, 0, 0, 0, 0, 0, 0, 0, 0, 0, 0, 0, 0], "stateRewards": ["", -2, 4, -48, -48, -4, -8, 48, -48, 2, 4, 48, -48], "withholdReward": true, "trial_id": "mdp_258647270500", "block": "test1", "trialIndex": 8, "score": -41, "costs": 0, "simulationMode": [null, null, null], "rewards": [-2, 4, -48], "path": ["0", "0", "1", "2", "4"], "rt": [5612, 198, 208], "actions": ["up", "up", "left"], "actionTimes": [6626, 7330, 8034], "queries": {"click": {"state": {"target": [], "time": []}, "edge": {"target": [], "time": []}}, "mouseover": {"state": {"target": ["5", "6", "7", "3", "3"], "time": [1881, 2019, 2325, 2693, 2950]}, "edge": {"target": [], "time": []}}, "mouseout": {"state": {"target": ["0", "5", "6", "7", "3", "3"], "time": [1365, 1943, 2207, 2658, 2714, 3952]}, "edge": {"target": [], "time": []}}}, "displayed_time": "9.01", "trialTime": 10121, "trial_type": "mouselab-mdp", "trial_index": 19, "time_elapsed": 428862, "internal_node_id": "0.0-4.0-1.0-4.0"}}, {"uniqueid": "w61545453:a13304162", "current_trial": 20, "dateTime": 1664555468245, "trialdata": {"revealed_states": [], "num_clicks_accrued": [0, 0, 0, 0, 0, 0, 0, 0, 0, 0, 0, 0, 0], "stateRewards": ["", 2, -8, 24, 24, 4, -4, -24, -48, 4, 8, 24, 24], "withholdReward": true, "trial_id": "mdp_249803813713", "block": "test1", "trialIndex": 9, "score": -19.25, "costs": -0.25, "simulationMode": [null, null, null], "rewards": [4, -4, -24], "path": ["0", "0", "5", "6", "7"], "rt": [2785, 156, 200], "actions": ["right", "right", "up"], "actionTimes": [3566, 4222, 4926], "queries": {"click": {"state": {"target": ["8"], "time": [2686]}, "edge": {"target": [], "time": []}}, "mouseover": {"state": {"target": ["0", "5", "8"], "time": [1406, 1461, 1767]}, "edge": {"target": [], "time": []}}, "mouseout": {"state": {"target": ["1", "0", "5", "8"], "time": [489, 1427, 1510, 3149]}, "edge": {"target": [], "time": []}}}, "displayed_time": "8.78", "trialTime": 9734, "trial_type": "mouselab-mdp", "trial_index": 20, "time_elapsed": 438622, "internal_node_id": "0.0-4.0-1.0-5.0"}}, {"uniqueid": "w61545453:a13304162", "current_trial": 21, "dateTime": 1664555479029, "trialdata": {"revealed_states": [], "num_clicks_accrued": [0, 0, 0, 0, 0, 0, 0, 0, 0, 0, 0, 0, 0], "stateRewards": ["", 4, 8, 48, 48, 4, 4, -24, -48, 4, 8, -48, -48], "withholdReward": true, "trial_id": "mdp_984548726931", "block": "test1", "trialIndex": 10, "score": 64.75, "costs": -0.25, "simulationMode": [null, null, null], "rewards": [4, 8, 48], "path": ["0", "0", "1", "2", "3"], "rt": [4411, 365, 801], "actions": ["up", "up", "right"], "actionTimes": [6176, 7048, 8352], "queries": {"click": {"state": {"target": ["1"], "time": [4337]}, "edge": {"target": [], "time": []}}, "mouseover": {"state": {"target": ["9", "10", "9", "1"], "time": [2474, 2849, 3287, 3988]}, "edge": {"target": [], "time": []}}, "mouseout": {"state": {"target": ["9", "9", "10", "9", "1", "5"], "time": [1405, 2759, 3037, 3307, 4641, 9328]}, "edge": {"target": [], "time": []}}}, "displayed_time": "9.77", "trialTime": 10760, "trial_type": "mouselab-mdp", "trial_index": 21, "time_elapsed": 449406, "internal_node_id": "0.0-4.0-1.0-6.0"}}, {"uniqueid": "w61545453:a13304162", "current_trial": 22, "dateTime": 1664555490125, "trialdata": {"revealed_states": [], "num_clicks_accrued": [0, 0, 0, 0, 0, 0, 0, 0, 0, 0, 0, 0, 0], "stateRewards": ["", 2, -8, -48, 24, 4, 8, 48, -48, 2, -4, 24, 24], "withholdReward": true, "trial_id": "mdp_130475327289", "block": "test1", "trialIndex": 11, "score": 26.75, "costs": -0.25, "simulationMode": [null, null, null], "rewards": [2, -4, 24], "path": ["0", "0", "9", "10", "11"], "rt": [2573, 110, 193], "actions": ["left", "left", "up"], "actionTimes": [3615, 4223, 4911], "queries": {"click": {"state": {"target": ["11"], "time": [3043]}, "edge": {"target": [], "time": []}}, "mouseover": {"state": {"target": ["0", "12", "10", "11"], "time": [1260, 2037, 2453, 2738]}, "edge": {"target": [], "time": []}}, "mouseout": {"state": {"target": ["0", "0", "12", "10", "11", "10", "9"], "time": [981, 1564, 2092, 2710, 3279, 4564, 5883]}, "edge": {"target": [], "time": []}}}, "displayed_time": "10.04", "trialTime": 11071, "trial_type": "mouselab-mdp", "trial_index": 22, "time_elapsed": 460502, "internal_node_id": "0.0-4.0-1.0-7.0"}}, {"uniqueid": "w61545453:a13304162", "current_trial": 23, "dateTime": 1664555504605, "trialdata": {"revealed_states": [], "num_clicks_accrued": [0, 0, 0, 0, 0, 0, 0, 0, 0, 0, 0, 0, 0], "stateRewards": ["", 2, 4, 48, -24, 2, -8, -24, -24, 2, -8, -24, -48], "withholdReward": false, "trial_id": "mdp_274832552938", "block": "test1", "trialIndex": 12, "score": 58.5, "costs": -0.5, "simulationMode": [null, null, null], "rewards": [2, 4, 48], "path": ["0", "0", "1", "2", "3"], "rt": [5189, 335, 213], "actions": ["up", "up", "right"], "actionTimes": [8519, 9359, 10071], "queries": {"click": {"state": {"target": ["8", "4"], "time": [5759, 7641]}, "edge": {"target": [], "time": []}}, "mouseover": {"state": {"target": ["5", "8", "6", "4"], "time": [3676, 3787, 6850, 7273]}, "edge": {"target": [], "time": []}}, "mouseout": {"state": {"target": ["1", "0", "5", "8", "6", "4", "9"], "time": [3051, 3655, 3718, 6829, 6871, 8419, 11176]}, "edge": {"target": [], "time": []}}}, "displayed_time": "11.33", "trialTime": 14455, "trial_type": "mouselab-mdp", "trial_index": 23, "time_elapsed": 474982, "internal_node_id": "0.0-4.0-1.0-8.0"}}, {"uniqueid": "w61545453:a13304162", "current_trial": 24, "dateTime": 1664555519405, "trialdata": {"revealed_states": [], "num_clicks_accrued": [0, 0, 0, 0, 0, 0, 0, 0, 0, 0, 0, 0, 0], "stateRewards": ["", 2, 8, -48, 24, -2, 4, 48, 48, -2, -8, 48, 24], "withholdReward": false, "trial_id": "mdp_157355418411", "block": "test1", "trialIndex": 13, "score": 54.75, "costs": -0.25, "simulationMode": [null, null, null], "rewards": [-2, 4, 48], "path": ["0", "0", "5", "6", "8"], "rt": [2966, 263, 435], "actions": ["right", "right", "down"], "actionTimes": [4680, 5440, 6376], "queries": {"click": {"state": {"target": ["8"], "time": [3981]}, "edge": {"target": [], "time": []}}, "mouseover": {"state": {"target": ["8"], "time": [3329]}, "edge": {"target": [], "time": []}}, "mouseout": {"state": {"target": ["0", "0", "8"], "time": [1294, 2141, 4475]}, "edge": {"target": [], "time": []}}}, "displayed_time": "11.71", "trialTime": 14776, "trial_type": "mouselab-mdp", "trial_index": 24, "time_elapsed": 489782, "internal_node_id": "0.0-4.0-1.0-9.0"}}, {"uniqueid": "w61545453:a13304162", "current_trial": 25, "dateTime": 1664555530325, "trialdata": {"revealed_states": [], "num_clicks_accrued": [0, 0, 0, 0, 0, 0, 0, 0, 0, 0, 0, 0, 0], "stateRewards": ["", -4, -8, 48, 48, -4, 4, 48, -24, 4, 8, -24, -48], "withholdReward": true, "trial_id": "mdp_142906093415", "block": "test1", "trialIndex": 14, "score": 52.25, "costs": -0.75, "simulationMode": [null, null, null], "rewards": [-4, 4, 48], "path": ["0", "0", "5", "6", "7"], "rt": [5428, 190, 176], "actions": ["right", "right", "up"], "actionTimes": [7381, 8085, 8766], "queries": {"click": {"state": {"target": ["11", "8", "7"], "time": [3049, 4653, 6767]}, "edge": {"target": [], "time": []}}, "mouseover": {"state": {"target": ["11", "11", "9", "9", "0", "5", "8", "6", "7", "6"], "time": [2457, 2652, 3485, 4103, 4152, 4193, 4534, 4943, 6603, 7256]}, "edge": {"target": [], "time": []}}, "mouseout": {"state": {"target": ["0", "11", "11", "9", "9", "0", "5", "8", "6", "7", "6"], "time": [2305, 2472, 3402, 3742, 4131, 4173, 4360, 4916, 5529, 7055, 7388]}, "edge": {"target": [], "time": []}}}, "displayed_time": "9.95", "trialTime": 10894, "trial_type": "mouselab-mdp", "trial_index": 25, "time_elapsed": 500702, "internal_node_id": "0.0-4.0-1.0-10.0"}}, {"uniqueid": "w61545453:a13304162", "current_trial": 26, "dateTime": 1664555540325, "trialdata": {"revealed_states": [], "num_clicks_accrued": [0, 0, 0, 0, 0, 0, 0, 0, 0, 0, 0, 0, 0], "stateRewards": ["", -2, -4, -48, -48, -2, -8, 48, -48, 4, -8, -48, 24], "withholdReward": true, "trial_id": "mdp_468495641521", "block": "test1", "trialIndex": 15, "score": 42, "costs": -1, "simulationMode": [null, null, null], "rewards": [-2, -8, 48], "path": ["0", "0", "5", "6", "7"], "rt": [6242, 108, 81], "actions": ["right", "right", "up"], "actionTimes": [7189, 7805, 8389], "queries": {"click": {"state": {"target": ["11", "8", "12", "7"], "time": [2316, 3487, 5236, 6746]}, "edge": {"target": [], "time": []}}, "mouseover": {"state": {"target": ["11", "10", "8", "12", "0", "7"], "time": [2078, 2648, 3411, 5217, 5988, 6106]}, "edge": {"target": [], "time": []}}, "mouseout": {"state": {"target": ["0", "11", "10", "8", "12", "0", "7", "6"], "time": [1252, 2592, 2911, 4641, 5905, 6002, 7023, 7425]}, "edge": {"target": [], "time": []}}}, "displayed_time": "8.95", "trialTime": 9973, "trial_type": "mouselab-mdp", "trial_index": 26, "time_elapsed": 510702, "internal_node_id": "0.0-4.0-1.0-11.0"}}, {"uniqueid": "w61545453:a13304162", "current_trial": 27, "dateTime": 1664555550965, "trialdata": {"revealed_states": [], "num_clicks_accrued": [0, 0, 0, 0, 0, 0, 0, 0, 0, 0, 0, 0, 0], "stateRewards": ["", -2, 8, -24, 24, 2, -8, 48, -24, 2, 8, -24, -24], "withholdReward": false, "trial_id": "mdp_674708270444", "block": "test1", "trialIndex": 16, "score": 46.5, "costs": -0.5, "simulationMode": [null, null, null], "rewards": [2, -8, 48], "path": ["0", "0", "5", "6", "7"], "rt": [3623, 270, 163], "actions": ["right", "right", "up"], "actionTimes": [4525, 5293, 5957], "queries": {"click": {"state": {"target": ["4", "7"], "time": [2313, 3993]}, "edge": {"target": [], "time": []}}, "mouseover": {"state": {"target": ["4", "5", "6", "7", "6"], "time": [1884, 3238, 3689, 3899, 4168]}, "edge": {"target": [], "time": []}}, "mouseout": {"state": {"target": ["6", "5", "4", "5", "6", "7", "6", "8"], "time": [383, 411, 2536, 3314, 3752, 4133, 4411, 4731]}, "edge": {"target": [], "time": []}}}, "displayed_time": "8.90", "trialTime": 10613, "trial_type": "mouselab-mdp", "trial_index": 27, "time_elapsed": 521342, "internal_node_id": "0.0-4.0-1.0-12.0"}}, {"uniqueid": "w61545453:a13304162", "current_trial": 28, "dateTime": 1664555565141, "trialdata": {"revealed_states": [], "num_clicks_accrued": [0, 0, 0, 0, 0, 0, 0, 0, 0, 0, 0, 0, 0], "stateRewards": ["", 4, 4, -24, -48, -4, 4, -48, 24, 4, -8, -48, 48], "withholdReward": false, "trial_id": "mdp_566768794366", "block": "test1", "trialIndex": 17, "score": 48.25, "costs": -0.75, "simulationMode": [null, null, null], "rewards": [4, -8, 48], "path": ["0", "0", "9", "10", "12"], "rt": [5722, 128, 47], "actions": ["left", "left", "down"], "actionTimes": [7368, 8000, 8544], "queries": {"click": {"state": {"target": ["12", "9", "10"], "time": [2812, 5474, 6806]}, "edge": {"target": [], "time": []}}, "mouseover": {"state": {"target": ["9", "9", "12", "10", "9", "10"], "time": [2031, 2233, 2399, 4358, 5240, 6135]}, "edge": {"target": [], "time": []}}, "mouseout": {"state": {"target": ["0", "9", "9", "12", "10", "9", "10", "12"], "time": [1253, 2115, 2246, 4274, 4792, 5719, 7003, 9469]}, "edge": {"target": [], "time": []}}}, "displayed_time": "10.65", "trialTime": 14152, "trial_type": "mouselab-mdp", "trial_index": 28, "time_elapsed": 535518, "internal_node_id": "0.0-4.0-1.0-13.0"}}, {"uniqueid": "w61545453:a13304162", "current_trial": 29, "dateTime": 1664555576869, "trialdata": {"revealed_states": [], "num_clicks_accrued": [0, 0, 0, 0, 0, 0, 0, 0, 0, 0, 0, 0, 0], "stateRewards": ["", -4, 4, 24, 24, -2, 8, 24, -48, 4, -8, -24, -48], "withholdReward": false, "trial_id": "mdp_651542905861", "block": "test1", "trialIndex": 18, "score": 28, "costs": -1, "simulationMode": [null, null, null], "rewards": [-4, 4, 24], "path": ["0", "0", "1", "2", "4"], "rt": [6276, 1061, 554], "actions": ["up", "up", "left"], "actionTimes": [7542, 9102, 10158], "queries": {"click": {"state": {"target": ["11", "12", "7", "8"], "time": [2628, 3582, 4609, 5416]}, "edge": {"target": [], "time": []}}, "mouseover": {"state": {"target": ["1", "11", "10", "12", "5", "7", "6", "8", "5", "1", "4"], "time": [1853, 2409, 3249, 3297, 4297, 4541, 4804, 5082, 5922, 6124, 6374]}, "edge": {"target": [], "time": []}}, "mouseout": {"state": {"target": ["0", "1", "11", "10", "12", "5", "7", "6", "8", "5", "1", "4", "9"], "time": [1770, 1895, 3228, 3277, 4145, 4381, 4742, 4912, 5647, 5957, 6131, 10416, 11249]}, "edge": {"target": [], "time": []}}}, "displayed_time": "10.66", "trialTime": 11702, "trial_type": "mouselab-mdp", "trial_index": 29, "time_elapsed": 547246, "internal_node_id": "0.0-4.0-1.0-14.0"}}, {"uniqueid": "w61545453:a13304162", "current_trial": 30, "dateTime": 1664555588365, "trialdata": {"revealed_states": [], "num_clicks_accrued": [0, 0, 0, 0, 0, 0, 0, 0, 0, 0, 0, 0, 0], "stateRewards": ["", -4, -8, 24, 48, 2, -4, -24, 24, -4, 8, 48, 48], "withholdReward": true, "trial_id": "mdp_496672670022", "block": "test1", "trialIndex": 19, "score": 56.75, "costs": -0.25, "simulationMode": [null, null, null], "rewards": [-4, 8, 48], "path": ["0", "0", "9", "10", "11"], "rt": [1743, 515, 95], "actions": ["left", "left", "up"], "actionTimes": [2741, 3765, 4365], "queries": {"click": {"state": {"target": ["11"], "time": [2038]}, "edge": {"target": [], "time": []}}, "mouseover": {"state": {"target": ["9", "11", "9"], "time": [1680, 1922, 2263]}, "edge": {"target": [], "time": []}}, "mouseout": {"state": {"target": ["0", "0", "9", "11", "9", "10"], "time": [756, 1416, 1714, 2214, 2446, 5159]}, "edge": {"target": [], "time": []}}}, "displayed_time": "10.00", "trialTime": 11469, "trial_type": "mouselab-mdp", "trial_index": 30, "time_elapsed": 558742, "internal_node_id": "0.0-4.0-1.0-15.0"}}, {"uniqueid": "w61545453:a13304162", "current_trial": 31, "dateTime": 1664555599614, "trialdata": {"revealed_states": [], "num_clicks_accrued": [0, 0, 0, 0, 0, 0, 0, 0, 0, 0, 0, 0, 0], "stateRewards": ["", 4, 8, 48, -48, -4, 8, -24, -24, -4, 8, 48, 48], "withholdReward": false, "trial_id": "mdp_377640328420", "block": "test1", "trialIndex": 20, "score": 56, "costs": -1, "simulationMode": [null, null, null], "rewards": [-4, 8, 48], "path": ["0", "0", "9", "10", "11"], "rt": [5217, 47, 9], "actions": ["left", "left", "up"], "actionTimes": [6373, 6924, 7428], "queries": {"click": {"state": {"target": ["8", "11", "10", "9"], "time": [1818, 2699, 4090, 5263]}, "edge": {"target": [], "time": []}}, "mouseover": {"state": {"target": ["8", "9", "11", "10", "9", "10", "9"], "time": [1572, 2461, 2593, 3029, 3342, 3558, 4599]}, "edge": {"target": [], "time": []}}, "mouseout": {"state": {"target": ["9", "0", "8", "9", "11", "10", "9", "10", "9", "0", "1", "0"], "time": [918, 1384, 2218, 2502, 2926, 3058, 3509, 4440, 5530, 8440, 8884, 9009]}, "edge": {"target": [], "time": []}}}, "displayed_time": "9.16", "trialTime": 11221, "trial_type": "mouselab-mdp", "trial_index": 31, "time_elapsed": 569991, "internal_node_id": "0.0-4.0-1.0-16.0"}}, {"uniqueid": "w61545453:a13304162", "current_trial": 32, "dateTime": 1664555611093, "trialdata": {"revealed_states": [], "num_clicks_accrued": [0, 0, 0, 0, 0, 0, 0, 0, 0, 0, 0, 0, 0], "stateRewards": ["", -2, 4, 48, -24, 2, 8, 24, 48, 2, 4, -24, -48], "withholdReward": false, "trial_id": "mdp_892412058587", "block": "test1", "trialIndex": 21, "score": 54, "costs": -1, "simulationMode": [null, null, null], "rewards": [-2, 4, 48], "path": ["0", "0", "1", "2", "3"], "rt": [6105, 495, 183], "actions": ["up", "up", "right"], "actionTimes": [6982, 7973, 8654], "queries": {"click": {"state": {"target": ["4", "3", "1", "2"], "time": [2615, 3557, 5278, 6381]}, "edge": {"target": [], "time": []}}, "mouseover": {"state": {"target": ["10", "10", "4", "4", "2", "3", "1", "1", "2"], "time": [1818, 2061, 2165, 2554, 3325, 3505, 4970, 5186, 6262]}, "edge": {"target": [], "time": []}}, "mouseout": {"state": {"target": ["0", "10", "10", "4", "4", "2", "3", "1", "1", "2", "1", "0"], "time": [1458, 1859, 2109, 2179, 2929, 3352, 3797, 5019, 6207, 6554, 9204, 9533]}, "edge": {"target": [], "time": []}}}, "displayed_time": "9.16", "trialTime": 11453, "trial_type": "mouselab-mdp", "trial_index": 32, "time_elapsed": 581470, "internal_node_id": "0.0-4.0-1.0-17.0"}}, {"uniqueid": "w61545453:a13304162", "current_trial": 33, "dateTime": 1664555622974, "trialdata": {"revealed_states": [], "num_clicks_accrued": [0, 0, 0, 0, 0, 0, 0, 0, 0, 0, 0, 0, 0], "stateRewards": ["", -2, 4, 24, 48, 2, 4, -48, -48, -2, 8, 48, -24], "withholdReward": false, "trial_id": "mdp_305701202606", "block": "test1", "trialIndex": 22, "score": 58.5, "costs": -0.5, "simulationMode": [null, null, null], "rewards": [-2, 8, 48], "path": ["0", "0", "9", "10", "11"], "rt": [3940, 137, 96], "actions": ["left", "left", "up"], "actionTimes": [4822, 5454, 6045], "queries": {"click": {"state": {"target": ["8", "11"], "time": [2050, 3524]}, "edge": {"target": [], "time": []}}, "mouseover": {"state": {"target": ["0", "8", "9", "10", "11", "10"], "time": [1601, 1907, 3150, 3185, 3317, 4199]}, "edge": {"target": [], "time": []}}, "mouseout": {"state": {"target": ["0", "0", "8", "9", "10", "11", "10", "3", "5"], "time": [844, 1657, 3073, 3164, 3226, 3768, 6671, 8268, 10234]}, "edge": {"target": [], "time": []}}}, "displayed_time": "9.88", "trialTime": 11853, "trial_type": "mouselab-mdp", "trial_index": 33, "time_elapsed": 593351, "internal_node_id": "0.0-4.0-1.0-18.0"}}, {"uniqueid": "w61545453:a13304162", "current_trial": 34, "dateTime": 1664555634982, "trialdata": {"revealed_states": [], "num_clicks_accrued": [0, 0, 0, 0, 0, 0, 0, 0, 0, 0, 0, 0, 0], "stateRewards": ["", 2, -4, -48, -48, -2, -4, -24, -48, -2, 8, 24, 24], "withholdReward": true, "trial_id": "mdp_656069446729", "block": "test1", "trialIndex": 23, "score": 33.5, "costs": -1.5, "simulationMode": [null, null, null], "rewards": [-2, 8, 24], "path": ["0", "0", "9", "10", "11"], "rt": [6719, 213, 48], "actions": ["left", "left", "up"], "actionTimes": [8066, 8778, 9323], "queries": {"click": {"state": {"target": ["8", "7", "11", "12", "3", "4"], "time": [2375, 3291, 3993, 4617, 6139, 7150]}, "edge": {"target": [], "time": []}}, "mouseover": {"state": {"target": ["0", "8", "5", "7", "5", "11", "10", "12", "3", "4"], "time": [1648, 2135, 3052, 3163, 3579, 3795, 4288, 4454, 6079, 6975]}, "edge": {"target": [], "time": []}}, "mouseout": {"state": {"target": ["0", "0", "8", "5", "7", "5", "11", "10", "12", "3", "4", "9"], "time": [1297, 1760, 2802, 3086, 3489, 3621, 4218, 4406, 4788, 6371, 7566, 10211]}, "edge": {"target": [], "time": []}}}, "displayed_time": "10.35", "trialTime": 11978, "trial_type": "mouselab-mdp", "trial_index": 34, "time_elapsed": 605359, "internal_node_id": "0.0-4.0-1.0-19.0"}}, {"uniqueid": "w61545453:a13304162", "current_trial": 35, "dateTime": 1664555649046, "trialdata": {"revealed_states": [], "num_clicks_accrued": [0, 0, 0, 0, 0, 0, 0, 0, 0, 0, 0, 0, 0], "stateRewards": ["", -2, -4, 48, -24, -4, -4, -24, -24, -2, 4, -48, -24], "withholdReward": true, "trial_id": "mdp_410467837196", "block": "test1", "trialIndex": 24, "score": 45.5, "costs": -1.5, "simulationMode": [null, null, null], "rewards": [-2, -4, 48], "path": ["0", "0", "1", "2", "3"], "rt": [7320, 297, 73], "actions": ["up", "up", "right"], "actionTimes": [7933, 8726, 9293], "queries": {"click": {"state": {"target": ["8", "11", "12", "7", "3", "2"], "time": [1513, 2620, 3942, 4770, 5666, 7620]}, "edge": {"target": [], "time": []}}, "mouseover": {"state": {"target": ["8", "9", "11", "11", "10", "12", "7", "2", "3", "2", "2"], "time": [1387, 2012, 2046, 2581, 3213, 3727, 4595, 5512, 5631, 5942, 7525]}, "edge": {"target": [], "time": []}}, "mouseout": {"state": {"target": ["0", "8", "9", "11", "11", "10", "12", "7", "2", "3", "2", "2", "1", "0"], "time": [1012, 1935, 2026, 2053, 3178, 3255, 4157, 4963, 5526, 5848, 6019, 7824, 10032, 10102]}, "edge": {"target": [], "time": []}}}, "displayed_time": "9.80", "trialTime": 14037, "trial_type": "mouselab-mdp", "trial_index": 35, "time_elapsed": 619423, "internal_node_id": "0.0-4.0-1.0-20.0"}}, {"uniqueid": "w61545453:a13304162", "current_trial": 36, "dateTime": 1664555660613, "trialdata": {"revealed_states": [], "num_clicks_accrued": [0, 0, 0, 0, 0, 0, 0, 0, 0, 0, 0, 0, 0], "stateRewards": ["", -2, -8, 24, -48, -4, 8, -48, -24, 4, 8, -24, 24], "withholdReward": true, "trial_id": "mdp_940444641142", "block": "test1", "trialIndex": 25, "score": 39.75, "costs": -1.25, "simulationMode": [null, null, null], "rewards": [4, 8, 24], "path": ["0", "0", "9", "10", "12"], "rt": [5511, 29, 399], "actions": ["left", "left", "down"], "actionTimes": [6895, 7423, 8327], "queries": {"click": {"state": {"target": ["12", "11", "7", "8", "4"], "time": [2191, 3013, 4178, 4901, 5715]}, "edge": {"target": [], "time": []}}, "mouseover": {"state": {"target": ["9", "12", "10", "11", "10", "9", "8", "6", "7", "6", "8", "5", "4", "2"], "time": [1852, 2066, 2755, 2942, 3428, 3505, 3637, 3908, 3991, 4532, 4803, 5345, 5602, 6095]}, "edge": {"target": [], "time": []}}, "mouseout": {"state": {"target": ["0", "9", "12", "10", "11", "10", "9", "8", "6", "7", "6", "8", "5", "4", "2"], "time": [1817, 1880, 2720, 2880, 3324, 3442, 3539, 3671, 3928, 4407, 4560, 5296, 5352, 6032, 6213]}, "edge": {"target": [], "time": []}}}, "displayed_time": "10.38", "trialTime": 11543, "trial_type": "mouselab-mdp", "trial_index": 36, "time_elapsed": 630990, "internal_node_id": "0.0-4.0-1.0-21.0"}}, {"uniqueid": "w61545453:a13304162", "current_trial": 37, "dateTime": 1664555671893, "trialdata": {"revealed_states": [], "num_clicks_accrued": [0, 0, 0, 0, 0, 0, 0, 0, 0, 0, 0, 0, 0], "stateRewards": ["", 2, -4, 48, -48, -4, -8, -48, 24, -4, 4, 48, 48], "withholdReward": true, "trial_id": "mdp_544803968425", "block": "test1", "trialIndex": 26, "score": 52.5, "costs": -0.5, "simulationMode": [null, null, null], "rewards": [-4, 4, 48], "path": ["0", "0", "9", "10", "11"], "rt": [2569, 113, 103], "actions": ["left", "left", "up"], "actionTimes": [3462, 4070, 4678], "queries": {"click": {"state": {"target": ["8", "11"], "time": [1603, 2401]}, "edge": {"target": [], "time": []}}, "mouseover": {"state": {"target": ["8", "10", "11", "10", "10"], "time": [1463, 2088, 2331, 2949, 3311]}, "edge": {"target": [], "time": []}}, "mouseout": {"state": {"target": ["0", "8", "10", "11", "10", "10", "12"], "time": [1241, 2005, 2123, 2791, 3019, 5283, 10269]}, "edge": {"target": [], "time": []}}}, "displayed_time": "9.89", "trialTime": 11254, "trial_type": "mouselab-mdp", "trial_index": 37, "time_elapsed": 642270, "internal_node_id": "0.0-4.0-1.0-22.0"}}, {"uniqueid": "w61545453:a13304162", "current_trial": 38, "dateTime": 1664555682365, "trialdata": {"revealed_states": [], "num_clicks_accrued": [0, 0, 0, 0, 0, 0, 0, 0, 0, 0, 0, 0, 0], "stateRewards": ["", 4, -8, -48, -24, 2, -8, -48, 48, -4, 8, 48, -48], "withholdReward": true, "trial_id": "mdp_605757196263", "block": "test1", "trialIndex": 27, "score": 56.25, "costs": -0.75, "simulationMode": [null, null, null], "rewards": [-4, 8, 48], "path": ["0", "0", "9", "10", "11"], "rt": [3346, 487, 101], "actions": ["left", "left", "up"], "actionTimes": [4272, 5256, 5856], "queries": {"click": {"state": {"target": ["11", "9", "10"], "time": [2028, 2787, 3481]}, "edge": {"target": [], "time": []}}, "mouseover": {"state": {"target": ["0", "9", "10", "10", "11", "10", "9", "10"], "time": [1178, 1234, 1609, 1803, 1935, 2359, 2671, 3310]}, "edge": {"target": [], "time": []}}, "mouseout": {"state": {"target": ["9", "0", "9", "10", "10", "11", "10", "9", "10"], "time": [574, 1206, 1289, 1684, 1887, 2289, 2581, 3039, 3824]}, "edge": {"target": [], "time": []}}}, "displayed_time": "8.93", "trialTime": 10448, "trial_type": "mouselab-mdp", "trial_index": 38, "time_elapsed": 652742, "internal_node_id": "0.0-4.0-1.0-23.0"}}, {"uniqueid": "w61545453:a13304162", "current_trial": 39, "dateTime": 1664555694269, "trialdata": {"revealed_states": [], "num_clicks_accrued": [0, 0, 0, 0, 0, 0, 0, 0, 0, 0, 0, 0, 0], "stateRewards": ["", -4, 8, -24, -24, 4, -8, 48, -24, -4, -8, -24, -48], "withholdReward": true, "trial_id": "mdp_391766721791", "block": "test1", "trialIndex": 28, "score": 47.75, "costs": -1.25, "simulationMode": [null, null, null], "rewards": [4, -8, 48], "path": ["0", "0", "5", "6", "7"], "rt": [4465, 155, 63], "actions": ["right", "right", "up"], "actionTimes": [6870, 7526, 8094], "queries": {"click": {"state": {"target": ["8", "11", "12", "7", "5"], "time": [3220, 4063, 4677, 5377, 6586]}, "edge": {"target": [], "time": []}}, "mouseover": {"state": {"target": ["8", "5", "11", "10", "12", "0", "5", "7", "6", "5", "5"], "time": [3121, 3725, 4051, 4371, 4489, 5037, 5086, 5308, 6044, 6294, 6551]}, "edge": {"target": [], "time": []}}, "mouseout": {"state": {"target": ["0", "8", "5", "11", "10", "12", "0", "5", "7", "6", "5", "5"], "time": [2697, 3697, 3746, 4322, 4433, 4961, 5058, 5162, 5815, 6209, 6357, 7093]}, "edge": {"target": [], "time": []}}}, "displayed_time": "10.40", "trialTime": 11878, "trial_type": "mouselab-mdp", "trial_index": 39, "time_elapsed": 664646, "internal_node_id": "0.0-4.0-1.0-24.0"}}, {"uniqueid": "w61545453:a13304162", "current_trial": 40, "dateTime": 1664555706093, "trialdata": {"revealed_states": [], "num_clicks_accrued": [0, 0, 0, 0, 0, 0, 0, 0, 0, 0, 0, 0, 0], "stateRewards": ["", 4, -8, 24, 48, 2, -4, 48, 48, 4, -8, 48, 48], "withholdReward": true, "trial_id": "mdp_962498334245", "block": "test1", "trialIndex": 29, "score": 50.25, "costs": -0.75, "simulationMode": [null, null, null], "rewards": [2, -4, 48], "path": ["0", "0", "5", "6", "8"], "rt": [2597, 55, 19], "actions": ["right", "right", "down"], "actionTimes": [3571, 4123, 4643], "queries": {"click": {"state": {"target": ["8", "5", "6"], "time": [1658, 2744, 3269]}, "edge": {"target": [], "time": []}}, "mouseover": {"state": {"target": ["5", "8", "5", "6"], "time": [1193, 1491, 2561, 3209]}, "edge": {"target": [], "time": []}}, "mouseout": {"state": {"target": ["5", "0", "5", "8", "5", "6"], "time": [673, 1151, 1221, 2373, 3061, 3890]}, "edge": {"target": [], "time": []}}}, "displayed_time": "9.98", "trialTime": 11795, "trial_type": "mouselab-mdp", "trial_index": 40, "time_elapsed": 676470, "internal_node_id": "0.0-4.0-1.0-25.0"}}, {"uniqueid": "w61545453:a13304162", "current_trial": 41, "dateTime": 1664555719733, "trialdata": {"revealed_states": [], "num_clicks_accrued": [0, 0, 0, 0, 0, 0, 0, 0, 0, 0, 0, 0, 0], "stateRewards": ["", 4, -8, -24, 24, 2, -4, 24, 24, 2, -4, 48, 48], "withholdReward": true, "trial_id": "mdp_457607480918", "block": "test1", "trialIndex": 30, "score": 50.5, "costs": -0.5, "simulationMode": [null, null, null], "rewards": [2, -4, 48], "path": ["0", "0", "9", "10", "11"], "rt": [2713, 71, 47], "actions": ["left", "left", "up"], "actionTimes": [5742, 6318, 6870], "queries": {"click": {"state": {"target": ["11", "9"], "time": [4173, 5470]}, "edge": {"target": [], "time": []}}, "mouseover": {"state": {"target": ["9", "11", "9"], "time": [3545, 3732, 5121]}, "edge": {"target": [], "time": []}}, "mouseout": {"state": {"target": ["0", "9", "11", "9", "9"], "time": [3504, 3656, 4566, 5989, 8100]}, "edge": {"target": [], "time": []}}}, "displayed_time": "12.03", "trialTime": 13614, "trial_type": "mouselab-mdp", "trial_index": 41, "time_elapsed": 690110, "internal_node_id": "0.0-4.0-1.0-26.0"}}, {"uniqueid": "w61545453:a13304162", "current_trial": 42, "dateTime": 1664555729701, "trialdata": {"revealed_states": [], "num_clicks_accrued": [0, 0, 0, 0, 0, 0, 0, 0, 0, 0, 0, 0, 0], "stateRewards": ["", -4, -4, 24, -24, 4, 4, 24, 48, 4, -4, 48, -48], "withholdReward": true, "trial_id": "mdp_522385334882", "block": "test1", "trialIndex": 31, "score": 20.5, "costs": -0.5, "simulationMode": [null, null, null], "rewards": [-4, -4, 24], "path": ["0", "0", "1", "2", "3"], "rt": [2227, 130, 145], "actions": ["up", "up", "right"], "actionTimes": [2910, 3542, 4182], "queries": {"click": {"state": {"target": ["3", "1"], "time": [1168, 1797]}, "edge": {"target": [], "time": []}}, "mouseover": {"state": {"target": ["3", "1", "2"], "time": [1127, 1676, 2447]}, "edge": {"target": [], "time": []}}, "mouseout": {"state": {"target": ["0", "3", "1", "2", "1", "0"], "time": [828, 1412, 2217, 4419, 4737, 7120]}, "edge": {"target": [], "time": []}}}, "displayed_time": "8.68", "trialTime": 9942, "trial_type": "mouselab-mdp", "trial_index": 42, "time_elapsed": 700078, "internal_node_id": "0.0-4.0-1.0-27.0"}}, {"uniqueid": "w61545453:a13304162", "current_trial": 43, "dateTime": 1664555739429, "trialdata": {"revealed_states": [], "num_clicks_accrued": [0, 0, 0, 0, 0, 0, 0, 0, 0, 0, 0, 0, 0], "stateRewards": ["", 2, -8, 24, 24, 2, 4, -48, -48, 4, 4, -24, 48], "withholdReward": true, "trial_id": "mdp_985707010949", "block": "test1", "trialIndex": 32, "score": 59.25, "costs": -1.75, "simulationMode": [null, null, null], "rewards": [4, 4, 48], "path": ["0", "0", "9", "10", "12"], "rt": [5223, 23, 64], "actions": ["left", "left", "down"], "actionTimes": [5869, 6397, 6965], "queries": {"click": {"state": {"target": ["8", "7", "3", "4", "11", "12", "10"], "time": [1088, 1718, 2447, 3243, 4101, 4692, 5685]}, "edge": {"target": [], "time": []}}, "mouseover": {"state": {"target": ["8", "6", "7", "3", "2", "4", "4", "11", "10", "12", "10"], "time": [950, 1512, 1665, 2109, 2845, 2908, 3158, 3755, 4443, 4533, 5505]}, "edge": {"target": [], "time": []}}, "mouseout": {"state": {"target": ["0", "8", "6", "7", "3", "2", "4", "4", "11", "10", "12", "10", "9"], "time": [852, 1470, 1581, 2054, 2804, 2887, 2943, 3463, 4401, 4492, 5394, 6033, 7616]}, "edge": {"target": [], "time": []}}}, "displayed_time": "8.65", "trialTime": 9701, "trial_type": "mouselab-mdp", "trial_index": 43, "time_elapsed": 709806, "internal_node_id": "0.0-4.0-1.0-28.0"}}, {"uniqueid": "w61545453:a13304162", "current_trial": 44, "dateTime": 1664555750365, "trialdata": {"revealed_states": [], "num_clicks_accrued": [0, 0, 0, 0, 0, 0, 0, 0, 0, 0, 0, 0, 0], "stateRewards": ["", -4, -4, 24, 48, 4, -4, -24, 24, -4, -4, 24, 24], "withholdReward": true, "trial_id": "mdp_357725458160", "block": "test1", "trialIndex": 33, "score": 28, "costs": -1, "simulationMode": [null, null, null], "rewards": [4, -4, 24], "path": ["0", "0", "5", "6", "8"], "rt": [4320, 71, 349], "actions": ["right", "right", "down"], "actionTimes": [4973, 5556, 6404], "queries": {"click": {"state": {"target": ["8", "6", "5", "7"], "time": [1421, 2291, 2900, 3671]}, "edge": {"target": [], "time": []}}, "mouseover": {"state": {"target": ["8", "6", "5", "7", "1"], "time": [1332, 2042, 2679, 3623, 4644]}, "edge": {"target": [], "time": []}}, "mouseout": {"state": {"target": ["0", "8", "6", "5", "7", "1", "0"], "time": [873, 1825, 2637, 3387, 3886, 4971, 9950]}, "edge": {"target": [], "time": []}}}, "displayed_time": "9.65", "trialTime": 10908, "trial_type": "mouselab-mdp", "trial_index": 44, "time_elapsed": 720742, "internal_node_id": "0.0-4.0-1.0-29.0"}}, {"uniqueid": "w61545453:a13304162", "current_trial": 45, "dateTime": 1664555758070, "trialdata": {"rt": 7702, "stimulus": "<h1> End of block! </h1>\n\nYou have reached the end of the block 1/4. If you need a short break, feel free to take one now before moving on.\n\n<br><br>\nIn the next block, you will complete another 30 rounds of this game.\n\n<br><br>\n<div style='text-align: center;'>Press <code>space</code> to begin.</div>\n<br><br>\n<div style='text-align: center;'>(If the experiment doesn't continue, try clicking on the text and then pressing <code>space</code>.)</div>", "response": " ", "trial_id": "mdp_ready_2", "trial_type": "html-keyboard-response", "trial_index": 45, "time_elapsed": 728447, "internal_node_id": "0.0-4.0-2.0"}}, {"uniqueid": "w61545453:a13304162", "current_trial": 46, "dateTime": 1664555768925, "trialdata": {"revealed_states": [], "num_clicks_accrued": [0, 0, 0, 0, 0, 0, 0, 0, 0, 0, 0, 0, 0], "stateRewards": ["", -4, -8, 24, 48, 2, -4, -24, 24, -4, 8, 48, 48], "withholdReward": true, "trial_id": "mdp_496672670022", "block": "test2", "trialIndex": 34, "score": 56.75, "costs": -0.25, "simulationMode": [null, null, null], "rewards": [-4, 8, 48], "path": ["0", "0", "9", "10", "12"], "rt": [2426, 185, 125], "actions": ["left", "left", "down"], "actionTimes": [3812, 4495, 5116], "queries": {"click": {"state": {"target": ["12"], "time": [2377]}, "edge": {"target": [], "time": []}}, "mouseover": {"state": {"target": ["12"], "time": [2080]}, "edge": {"target": [], "time": []}}, "mouseout": {"state": {"target": ["0", "12", "10"], "time": [1865, 3052, 5823]}, "edge": {"target": [], "time": []}}}, "displayed_time": "9.39", "trialTime": 10828, "trial_type": "mouselab-mdp", "trial_index": 46, "time_elapsed": 739302, "internal_node_id": "0.0-4.0-3.0-0.0"}}, {"uniqueid": "w61545453:a13304162", "current_trial": 47, "dateTime": 1664555780221, "trialdata": {"revealed_states": [], "num_clicks_accrued": [0, 0, 0, 0, 0, 0, 0, 0, 0, 0, 0, 0, 0], "stateRewards": ["", 2, 8, -24, -48, 2, 4, -24, 48, 2, -8, 48, -24], "withholdReward": false, "trial_id": "mdp_791659307216", "block": "test2", "trialIndex": 35, "score": 58.5, "costs": -0.5, "simulationMode": [null, null, null], "rewards": [2, 4, 48], "path": ["0", "0", "5", "6", "8"], "rt": [2392, 74, 89], "actions": ["right", "right", "down"], "actionTimes": [3406, 3982, 4566], "queries": {"click": {"state": {"target": ["8", "5"], "time": [1769, 2579]}, "edge": {"target": [], "time": []}}, "mouseover": {"state": {"target": ["8", "5", "6", "6"], "time": [1664, 2497, 2879, 3275]}, "edge": {"target": [], "time": []}}, "mouseout": {"state": {"target": ["0", "8", "5", "6", "6"], "time": [1226, 2268, 2831, 2969, 5039]}, "edge": {"target": [], "time": []}}}, "displayed_time": "10.02", "trialTime": 11270, "trial_type": "mouselab-mdp", "trial_index": 47, "time_elapsed": 750598, "internal_node_id": "0.0-4.0-3.0-1.0"}}, {"uniqueid": "w61545453:a13304162", "current_trial": 48, "dateTime": 1664555790389, "trialdata": {"revealed_states": [], "num_clicks_accrued": [0, 0, 0, 0, 0, 0, 0, 0, 0, 0, 0, 0, 0], "stateRewards": ["", 2, 4, 48, 48, 4, -8, 24, -48, -4, -8, -24, -48], "withholdReward": true, "trial_id": "mdp_343818007251", "block": "test2", "trialIndex": 36, "score": 58.5, "costs": -0.5, "simulationMode": [null, null, null], "rewards": [2, 4, 48], "path": ["0", "0", "1", "2", "3"], "rt": [1577, 96, 404], "actions": ["up", "up", "right"], "actionTimes": [2460, 3052, 3964], "queries": {"click": {"state": {"target": ["3", "1"], "time": [1376, 2192]}, "edge": {"target": [], "time": []}}, "mouseover": {"state": {"target": ["3", "1"], "time": [1303, 1949]}, "edge": {"target": [], "time": []}}, "mouseout": {"state": {"target": ["0", "3", "1"], "time": [1039, 1574, 5638]}, "edge": {"target": [], "time": []}}}, "displayed_time": "8.88", "trialTime": 10140, "trial_type": "mouselab-mdp", "trial_index": 48, "time_elapsed": 760766, "internal_node_id": "0.0-4.0-3.0-2.0"}}, {"uniqueid": "w61545453:a13304162", "current_trial": 49, "dateTime": 1664555801453, "trialdata": {"revealed_states": [], "num_clicks_accrued": [0, 0, 0, 0, 0, 0, 0, 0, 0, 0, 0, 0, 0], "stateRewards": ["", -4, 8, 48, -48, 2, -4, 24, -24, -2, 4, -24, -24], "withholdReward": true, "trial_id": "mdp_804988042722", "block": "test2", "trialIndex": 37, "score": 55.5, "costs": -1.5, "simulationMode": [null, null, null], "rewards": [-4, 8, 48], "path": ["0", "0", "1", "2", "3"], "rt": [5461, 40, 3], "actions": ["up", "up", "right"], "actionTimes": [5983, 6519, 7031], "queries": {"click": {"state": {"target": ["11", "12", "7", "8", "4", "3"], "time": [1123, 1716, 2668, 3362, 4801, 5489]}, "edge": {"target": [], "time": []}}, "mouseover": {"state": {"target": ["9", "11", "10", "12", "8", "6", "7", "6", "8", "6", "3", "2", "4", "2", "3"], "time": [819, 1069, 1430, 1534, 2333, 2381, 2589, 2978, 3138, 3798, 4333, 4582, 4687, 5228, 5388]}, "edge": {"target": [], "time": []}}, "mouseout": {"state": {"target": ["0", "9", "11", "10", "12", "8", "6", "7", "6", "8", "6", "3", "2", "4", "2", "3", "1", "0"], "time": [783, 826, 1326, 1492, 2096, 2340, 2485, 2944, 3055, 3714, 4013, 4548, 4638, 5194, 5291, 6138, 10221, 10318]}, "edge": {"target": [], "time": []}}}, "displayed_time": "9.52", "trialTime": 11039, "trial_type": "mouselab-mdp", "trial_index": 49, "time_elapsed": 771830, "internal_node_id": "0.0-4.0-3.0-3.0"}}, {"uniqueid": "w61545453:a13304162", "current_trial": 50, "dateTime": 1664555811565, "trialdata": {"revealed_states": [], "num_clicks_accrued": [0, 0, 0, 0, 0, 0, 0, 0, 0, 0, 0, 0, 0], "stateRewards": ["", 2, -8, 24, 24, 2, 4, -48, -48, 4, 4, -24, 48], "withholdReward": false, "trial_id": "mdp_985707010949", "block": "test2", "trialIndex": 38, "score": 60, "costs": -1, "simulationMode": [null, null, null], "rewards": [4, 4, 48], "path": ["0", "0", "9", "10", "12"], "rt": [5044, 45, 295], "actions": ["left", "left", "down"], "actionTimes": [5885, 6437, 7229], "queries": {"click": {"state": {"target": ["3", "8", "11", "12"], "time": [1427, 2488, 3917, 4481]}, "edge": {"target": [], "time": []}}, "mouseover": {"state": {"target": ["1", "3", "1", "5", "8", "5", "0", "9", "10", "11", "10", "12", "10"], "time": [1169, 1273, 1919, 2204, 2259, 3252, 3600, 3627, 3787, 3857, 4211, 4405, 5239]}, "edge": {"target": [], "time": []}}, "mouseout": {"state": {"target": ["0", "1", "3", "1", "5", "8", "5", "0", "9", "10", "11", "10", "12", "10", "12"], "time": [1072, 1204, 1634, 2128, 2211, 2850, 3301, 3614, 3648, 3822, 4134, 4336, 5155, 8251, 9280]}, "edge": {"target": [], "time": []}}}, "displayed_time": "8.84", "trialTime": 10085, "trial_type": "mouselab-mdp", "trial_index": 50, "time_elapsed": 781942, "internal_node_id": "0.0-4.0-3.0-4.0"}}, {"uniqueid": "w61545453:a13304162", "current_trial": 51, "dateTime": 1664555821373, "trialdata": {"revealed_states": [], "num_clicks_accrued": [0, 0, 0, 0, 0, 0, 0, 0, 0, 0, 0, 0, 0], "stateRewards": ["", 4, -8, 24, 48, -2, -4, -48, 24, 2, 4, -48, -24], "withholdReward": true, "trial_id": "mdp_749974461966", "block": "test2", "trialIndex": 39, "score": 48.5, "costs": -0.5, "simulationMode": [null, null, null], "rewards": [4, -8, 48], "path": ["0", "0", "1", "2", "4"], "rt": [3024, 95, 74], "actions": ["up", "up", "left"], "actionTimes": [3900, 4492, 5068], "queries": {"click": {"state": {"target": ["7", "4"], "time": [1738, 2639]}, "edge": {"target": [], "time": []}}, "mouseover": {"state": {"target": ["0", "7", "7", "6", "8", "0", "4", "1"], "time": [1410, 1459, 1695, 2007, 2202, 2348, 2535, 3327]}, "edge": {"target": [], "time": []}}, "mouseout": {"state": {"target": ["0", "0", "7", "7", "6", "8", "0", "4", "1", "9"], "time": [1098, 1424, 1480, 1952, 2139, 2257, 2355, 2841, 4869, 9292]}, "edge": {"target": [], "time": []}}}, "displayed_time": "8.88", "trialTime": 9780, "trial_type": "mouselab-mdp", "trial_index": 51, "time_elapsed": 791750, "internal_node_id": "0.0-4.0-3.0-5.0"}}, {"uniqueid": "w61545453:a13304162", "current_trial": 52, "dateTime": 1664555831141, "trialdata": {"revealed_states": [], "num_clicks_accrued": [0, 0, 0, 0, 0, 0, 0, 0, 0, 0, 0, 0, 0], "stateRewards": ["", 4, 8, -24, 48, 4, -8, -48, 48, -4, 8, -24, -48], "withholdReward": true, "trial_id": "mdp_376126356841", "block": "test2", "trialIndex": 40, "score": 48, "costs": -1, "simulationMode": [null, null, null], "rewards": [4, -8, 48], "path": ["0", "0", "5", "6", "8"], "rt": [5337, 65, 30], "actions": ["right", "right", "down"], "actionTimes": [5887, 6455, 6983], "queries": {"click": {"state": {"target": ["12", "7", "11", "8"], "time": [1751, 2868, 3945, 4785]}, "edge": {"target": [], "time": []}}, "mouseover": {"state": {"target": ["9", "11", "4", "12", "5", "7", "6", "8", "0", "9", "11", "9", "0", "8"], "time": [945, 1015, 1188, 1577, 2300, 2786, 3258, 3383, 3626, 3661, 3793, 4272, 4313, 4584]}, "edge": {"target": [], "time": []}}, "mouseout": {"state": {"target": ["0", "9", "11", "4", "12", "5", "7", "6", "8", "0", "9", "11", "9", "0", "8"], "time": [876, 980, 1056, 1293, 2091, 2404, 3211, 3334, 3577, 3640, 3667, 4230, 4292, 4334, 5216]}, "edge": {"target": [], "time": []}}}, "displayed_time": "8.55", "trialTime": 9743, "trial_type": "mouselab-mdp", "trial_index": 52, "time_elapsed": 801518, "internal_node_id": "0.0-4.0-3.0-6.0"}}, {"uniqueid": "w61545453:a13304162", "current_trial": 53, "dateTime": 1664555842046, "trialdata": {"revealed_states": [], "num_clicks_accrued": [0, 0, 0, 0, 0, 0, 0, 0, 0, 0, 0, 0, 0], "stateRewards": ["", 2, 4, -48, 24, -4, 4, -24, 48, -2, -8, -48, 48], "withholdReward": false, "trial_id": "mdp_424193661731", "block": "test2", "trialIndex": 41, "score": 52.75, "costs": -0.25, "simulationMode": [null, null, null], "rewards": [-4, 4, 48], "path": ["0", "0", "5", "6", "8"], "rt": [2602, 97, 53], "actions": ["right", "right", "down"], "actionTimes": [3122, 3714, 4274], "queries": {"click": {"state": {"target": ["8"], "time": [2011]}, "edge": {"target": [], "time": []}}, "mouseover": {"state": {"target": ["9", "11", "9", "10", "1", "1", "6", "8", "8"], "time": [895, 950, 1145, 1179, 1325, 1561, 1631, 1659, 1846]}, "edge": {"target": [], "time": []}}, "mouseout": {"state": {"target": ["0", "9", "11", "9", "10", "1", "1", "6", "8", "8"], "time": [874, 922, 978, 1152, 1200, 1346, 1575, 1645, 1665, 2214]}, "edge": {"target": [], "time": []}}}, "displayed_time": "9.52", "trialTime": 10874, "trial_type": "mouselab-mdp", "trial_index": 53, "time_elapsed": 812422, "internal_node_id": "0.0-4.0-3.0-7.0"}}, {"uniqueid": "w61545453:a13304162", "current_trial": 54, "dateTime": 1664555852165, "trialdata": {"revealed_states": [], "num_clicks_accrued": [0, 0, 0, 0, 0, 0, 0, 0, 0, 0, 0, 0, 0], "stateRewards": ["", -2, 8, 48, 48, 2, 4, -48, 24, -4, -8, 48, 24], "withholdReward": true, "trial_id": "mdp_572910394648", "block": "test2", "trialIndex": 42, "score": 40.75, "costs": -0.25, "simulationMode": [null, null, null], "rewards": [-4, -8, 48], "path": ["0", "0", "9", "10", "11"], "rt": [2267, 45, 104], "actions": ["left", "left", "up"], "actionTimes": [3189, 3732, 4341], "queries": {"click": {"state": {"target": ["11"], "time": [1692]}, "edge": {"target": [], "time": []}}, "mouseover": {"state": {"target": ["9", "10", "11", "10"], "time": [1208, 1284, 1585, 2020]}, "edge": {"target": [], "time": []}}, "mouseout": {"state": {"target": ["0", "9", "10", "11", "10", "12", "12"], "time": [1173, 1263, 1305, 1951, 5952, 8031, 9326]}, "edge": {"target": [], "time": []}}}, "displayed_time": "8.92", "trialTime": 10092, "trial_type": "mouselab-mdp", "trial_index": 54, "time_elapsed": 822542, "internal_node_id": "0.0-4.0-3.0-8.0"}}, {"uniqueid": "w61545453:a13304162", "current_trial": 55, "dateTime": 1664555863870, "trialdata": {"revealed_states": [], "num_clicks_accrued": [0, 0, 0, 0, 0, 0, 0, 0, 0, 0, 0, 0, 0], "stateRewards": ["", -4, 4, -24, 48, 2, 4, -48, 24, 4, -8, -24, 24], "withholdReward": true, "trial_id": "mdp_740130150937", "block": "test2", "trialIndex": 43, "score": 51.5, "costs": -1.5, "simulationMode": [null, null, null], "rewards": [-4, 4, 48], "path": ["0", "0", "1", "2", "4"], "rt": [6659, 3, 305], "actions": ["up", "up", "left"], "actionTimes": [7843, 8347, 9163], "queries": {"click": {"state": {"target": ["8", "3", "12", "11", "7", "4"], "time": [1616, 3093, 4374, 6166, 6782, 7484]}, "edge": {"target": [], "time": []}}, "mouseover": {"state": {"target": ["8", "6", "2", "3", "1", "9", "10", "12", "9", "11", "7", "2", "4"], "time": [1462, 2170, 2809, 2899, 3830, 3885, 3906, 4240, 5503, 5824, 6726, 7239, 7420]}, "edge": {"target": [], "time": []}}, "mouseout": {"state": {"target": ["0", "8", "6", "2", "3", "1", "9", "10", "12", "9", "11", "7", "2", "4"], "time": [1385, 2003, 2337, 2871, 3462, 3858, 3892, 3934, 5288, 5580, 6476, 7177, 7281, 8260]}, "edge": {"target": [], "time": []}}}, "displayed_time": "10.19", "trialTime": 11675, "trial_type": "mouselab-mdp", "trial_index": 55, "time_elapsed": 834247, "internal_node_id": "0.0-4.0-3.0-9.0"}}, {"uniqueid": "w61545453:a13304162", "current_trial": 56, "dateTime": 1664555874030, "trialdata": {"revealed_states": [], "num_clicks_accrued": [0, 0, 0, 0, 0, 0, 0, 0, 0, 0, 0, 0, 0], "stateRewards": ["", 2, 8, -48, 48, -4, -8, 24, 24, -2, -8, 24, -24], "withholdReward": true, "trial_id": "mdp_910248289075", "block": "test2", "trialIndex": 44, "score": 62.25, "costs": -0.75, "simulationMode": [null, null, null], "rewards": [2, 8, 48], "path": ["0", "0", "1", "2", "4"], "rt": [3937, 17, 89], "actions": ["up", "up", "left"], "actionTimes": [4392, 4911, 5504], "queries": {"click": {"state": {"target": ["7", "12", "4"], "time": [1281, 2125, 3283]}, "edge": {"target": [], "time": []}}, "mouseover": {"state": {"target": ["5", "6", "7", "6", "5", "12", "9", "1", "4", "1"], "time": [769, 824, 1130, 1685, 1775, 2060, 2637, 2768, 3171, 3852]}, "edge": {"target": [], "time": []}}, "mouseout": {"state": {"target": ["9", "0", "5", "6", "7", "6", "5", "12", "9", "1", "4", "1"], "time": [380, 734, 803, 866, 1505, 1741, 1803, 2574, 2692, 2963, 3560, 4623]}, "edge": {"target": [], "time": []}}}, "displayed_time": "8.46", "trialTime": 10135, "trial_type": "mouselab-mdp", "trial_index": 56, "time_elapsed": 844407, "internal_node_id": "0.0-4.0-3.0-10.0"}}, {"uniqueid": "w61545453:a13304162", "current_trial": 57, "dateTime": 1664555885374, "trialdata": {"revealed_states": [], "num_clicks_accrued": [0, 0, 0, 0, 0, 0, 0, 0, 0, 0, 0, 0, 0], "stateRewards": ["", 4, -8, -48, -24, 2, -8, -48, 48, -4, 8, 48, -48], "withholdReward": false, "trial_id": "mdp_605757196263", "block": "test2", "trialIndex": 45, "score": 46.75, "costs": -0.25, "simulationMode": [null, null, null], "rewards": [2, -8, 48], "path": ["0", "0", "5", "6", "8"], "rt": [1935, 89, 19], "actions": ["right", "right", "down"], "actionTimes": [2812, 3395, 3915], "queries": {"click": {"state": {"target": ["8"], "time": [1498]}, "edge": {"target": [], "time": []}}, "mouseover": {"state": {"target": ["8"], "time": [1327]}, "edge": {"target": [], "time": []}}, "mouseout": {"state": {"target": ["0", "8"], "time": [1202, 2198]}, "edge": {"target": [], "time": []}}}, "displayed_time": "9.88", "trialTime": 11316, "trial_type": "mouselab-mdp", "trial_index": 57, "time_elapsed": 855751, "internal_node_id": "0.0-4.0-3.0-11.0"}}, {"uniqueid": "w61545453:a13304162", "current_trial": 58, "dateTime": 1664555895429, "trialdata": {"revealed_states": [], "num_clicks_accrued": [0, 0, 0, 0, 0, 0, 0, 0, 0, 0, 0, 0, 0], "stateRewards": ["", 4, -8, 24, 48, 2, 4, 48, 48, 2, 8, -48, -48], "withholdReward": true, "trial_id": "mdp_783704746330", "block": "test2", "trialIndex": 46, "score": 58.75, "costs": -0.25, "simulationMode": [null, null, null], "rewards": [2, 4, 48], "path": ["0", "0", "5", "6", "8"], "rt": [1806, 17, 416], "actions": ["right", "right", "down"], "actionTimes": [2411, 2923, 3843], "queries": {"click": {"state": {"target": ["8"], "time": [1271]}, "edge": {"target": [], "time": []}}, "mouseover": {"state": {"target": ["5", "8"], "time": [1003, 1233]}, "edge": {"target": [], "time": []}}, "mouseout": {"state": {"target": ["0", "5", "8", "0", "1", "1"], "time": [976, 1017, 1559, 8399, 8774, 8829]}, "edge": {"target": [], "time": []}}}, "displayed_time": "8.61", "trialTime": 10027, "trial_type": "mouselab-mdp", "trial_index": 58, "time_elapsed": 865806, "internal_node_id": "0.0-4.0-3.0-12.0"}}, {"uniqueid": "w61545453:a13304162", "current_trial": 59, "dateTime": 1664555912373, "trialdata": {"revealed_states": [], "num_clicks_accrued": [0, 0, 0, 0, 0, 0, 0, 0, 0, 0, 0, 0, 0], "stateRewards": ["", -2, -4, -24, -48, -2, 8, -48, 24, 4, -4, -24, -24], "withholdReward": true, "trial_id": "mdp_915304165774", "block": "test2", "trialIndex": 47, "score": -50.25, "costs": -1.25, "simulationMode": [null, null, null], "rewards": [-2, -4, -48], "path": ["0", "0", "1", "2", "4"], "rt": [7387, 567, 217], "actions": ["up", "up", "left"], "actionTimes": [8603, 9667, 10379], "queries": {"click": {"state": {"target": ["12", "3", "11", "8", "7"], "time": [2480, 4028, 6195, 6954, 7893]}, "edge": {"target": [], "time": []}}, "mouseover": {"state": {"target": ["12", "1", "4", "2", "3", "1", "11", "11", "9", "0", "8", "6", "7", "1", "4"], "time": [2086, 3259, 3454, 3662, 3711, 5641, 5690, 6113, 6572, 6606, 6842, 7433, 7621, 8308, 8370]}, "edge": {"target": [], "time": []}}, "mouseout": {"state": {"target": ["0", "12", "1", "4", "2", "3", "1", "11", "11", "9", "0", "8", "6", "7", "1", "4", "9"], "time": [1593, 2981, 3363, 3634, 3690, 4329, 5664, 5697, 6523, 6586, 6648, 7391, 7523, 8197, 8322, 10863, 11537]}, "edge": {"target": [], "time": []}}}, "displayed_time": "10.88", "trialTime": 16915, "trial_type": "mouselab-mdp", "trial_index": 59, "time_elapsed": 882750, "internal_node_id": "0.0-4.0-3.0-13.0"}}, {"uniqueid": "w61545453:a13304162", "current_trial": 60, "dateTime": 1664555922925, "trialdata": {"revealed_states": [], "num_clicks_accrued": [0, 0, 0, 0, 0, 0, 0, 0, 0, 0, 0, 0, 0], "stateRewards": ["", -2, 4, -24, -24, -2, 4, 48, 24, -4, -8, 24, -48], "withholdReward": true, "trial_id": "mdp_191839460481", "block": "test2", "trialIndex": 48, "score": 54.5, "costs": -0.5, "simulationMode": [null, null, null], "rewards": [-2, 4, 48], "path": ["0", "0", "5", "6", "7"], "rt": [3584, 32, 16], "actions": ["right", "right", "up"], "actionTimes": [4666, 5194, 5706], "queries": {"click": {"state": {"target": ["12", "7"], "time": [1835, 2851]}, "edge": {"target": [], "time": []}}, "mouseover": {"state": {"target": ["0", "12", "5", "7", "5", "6", "5"], "time": [1460, 1765, 2585, 2738, 3504, 4099, 4231]}, "edge": {"target": [], "time": []}}, "mouseout": {"state": {"target": ["0", "0", "12", "5", "7", "5", "6", "5"], "time": [974, 1515, 2293, 2626, 3050, 3606, 4182, 6737]}, "edge": {"target": [], "time": []}}}, "displayed_time": "10.08", "trialTime": 10522, "trial_type": "mouselab-mdp", "trial_index": 60, "time_elapsed": 893302, "internal_node_id": "0.0-4.0-3.0-14.0"}}, {"uniqueid": "w61545453:a13304162", "current_trial": 61, "dateTime": 1664555933285, "trialdata": {"revealed_states": [], "num_clicks_accrued": [0, 0, 0, 0, 0, 0, 0, 0, 0, 0, 0, 0, 0], "stateRewards": ["", -4, -4, 24, -48, -2, 8, -24, -48, -4, 4, 24, -48], "withholdReward": false, "trial_id": "mdp_934626330092", "block": "test2", "trialIndex": 49, "score": 27.5, "costs": -1.5, "simulationMode": [null, null, null], "rewards": [-4, 4, 24], "path": ["0", "0", "9", "10", "11"], "rt": [6438, 96, 236], "actions": ["left", "left", "up"], "actionTimes": [7004, 7604, 8348], "queries": {"click": {"state": {"target": ["11", "8", "3", "4", "7", "12"], "time": [1046, 1759, 2698, 3848, 4712, 5790]}, "edge": {"target": [], "time": []}}, "mouseover": {"state": {"target": ["9", "11", "9", "8", "0", "9", "4", "2", "3", "1", "1", "1", "4", "1", "7", "9", "12"], "time": [785, 951, 1465, 1611, 2243, 2264, 2382, 2424, 2625, 2986, 3368, 3514, 3590, 4160, 4674, 5180, 5514]}, "edge": {"target": [], "time": []}}, "mouseout": {"state": {"target": ["0", "9", "11", "9", "8", "0", "9", "11", "4", "2", "3", "1", "1", "1", "4", "1", "7", "9", "12"], "time": [757, 799, 1278, 1472, 2174, 2257, 2271, 2333, 2410, 2437, 2819, 3146, 3382, 3542, 4055, 4187, 4965, 5444, 6042]}, "edge": {"target": [], "time": []}}}, "displayed_time": "8.85", "trialTime": 10332, "trial_type": "mouselab-mdp", "trial_index": 61, "time_elapsed": 903662, "internal_node_id": "0.0-4.0-3.0-15.0"}}, {"uniqueid": "w61545453:a13304162", "current_trial": 62, "dateTime": 1664555943021, "trialdata": {"revealed_states": [], "num_clicks_accrued": [0, 0, 0, 0, 0, 0, 0, 0, 0, 0, 0, 0, 0], "stateRewards": ["", -4, -8, -48, 48, -2, -8, -48, -24, 4, 8, 24, -48], "withholdReward": true, "trial_id": "mdp_509977295685", "block": "test2", "trialIndex": 50, "score": 40.25, "costs": -0.75, "simulationMode": [null, null, null], "rewards": [-4, -8, 48], "path": ["0", "0", "1", "2", "4"], "rt": [4119, 69, 100], "actions": ["up", "up", "left"], "actionTimes": [5403, 5979, 6587], "queries": {"click": {"state": {"target": ["7", "12", "4"], "time": [1897, 2735, 4148]}, "edge": {"target": [], "time": []}}, "mouseover": {"state": {"target": ["5", "6", "7", "6", "12", "4"], "time": [1542, 1576, 1806, 2229, 2687, 4000]}, "edge": {"target": [], "time": []}}, "mouseout": {"state": {"target": ["0", "5", "6", "7", "6", "12", "4", "9"], "time": [1290, 1562, 1597, 2167, 2326, 3861, 4382, 7535]}, "edge": {"target": [], "time": []}}}, "displayed_time": "9.29", "trialTime": 9707, "trial_type": "mouselab-mdp", "trial_index": 62, "time_elapsed": 913398, "internal_node_id": "0.0-4.0-3.0-16.0"}}, {"uniqueid": "w61545453:a13304162", "current_trial": 63, "dateTime": 1664555953413, "trialdata": {"revealed_states": [], "num_clicks_accrued": [0, 0, 0, 0, 0, 0, 0, 0, 0, 0, 0, 0, 0], "stateRewards": ["", -4, -8, 48, 24, 4, -8, 24, -48, -2, -8, 24, -48], "withholdReward": true, "trial_id": "mdp_952038635544", "block": "test2", "trialIndex": 51, "score": 40.25, "costs": -0.75, "simulationMode": [null, null, null], "rewards": [-4, -8, 48], "path": ["0", "0", "1", "2", "3"], "rt": [3903, 76, 324], "actions": ["up", "up", "right"], "actionTimes": [5035, 5611, 6443], "queries": {"click": {"state": {"target": ["8", "11", "3"], "time": [1670, 2546, 3995]}, "edge": {"target": [], "time": []}}, "mouseover": {"state": {"target": ["8", "11", "9", "5", "7", "3"], "time": [1562, 2432, 2805, 3014, 3257, 3687]}, "edge": {"target": [], "time": []}}, "mouseout": {"state": {"target": ["9", "0", "8", "11", "9", "5", "7", "3", "1"], "time": [923, 1319, 1882, 2694, 2812, 3055, 3361, 4139, 8222]}, "edge": {"target": [], "time": []}}}, "displayed_time": "9.13", "trialTime": 10363, "trial_type": "mouselab-mdp", "trial_index": 63, "time_elapsed": 923790, "internal_node_id": "0.0-4.0-3.0-17.0"}}, {"uniqueid": "w61545453:a13304162", "current_trial": 64, "dateTime": 1664555964621, "trialdata": {"revealed_states": [], "num_clicks_accrued": [0, 0, 0, 0, 0, 0, 0, 0, 0, 0, 0, 0, 0], "stateRewards": ["", -4, -4, -24, 48, 2, 4, -24, -48, -2, 4, 24, 24], "withholdReward": false, "trial_id": "mdp_360934723192", "block": "test2", "trialIndex": 52, "score": 29.75, "costs": -1.25, "simulationMode": [null, null, null], "rewards": [-2, 4, 24], "path": ["0", "0", "9", "10", "12"], "rt": [5686, 110, 59], "actions": ["left", "left", "down"], "actionTimes": [6821, 7429, 7989], "queries": {"click": {"state": {"target": ["8", "11", "3", "7", "12"], "time": [1825, 3228, 4557, 5556, 6209]}, "edge": {"target": [], "time": []}}, "mouseover": {"state": {"target": ["8", "12", "10", "11", "11", "10", "2", "3", "3", "2", "1", "7", "5", "0", "12"], "time": [1728, 2512, 2561, 2749, 3172, 3540, 4270, 4360, 4492, 4888, 5172, 5318, 5936, 5971, 6117]}, "edge": {"target": [], "time": []}}, "mouseout": {"state": {"target": ["0", "8", "12", "10", "11", "11", "10", "2", "3", "3", "2", "1", "7", "5", "0", "12"], "time": [1457, 2325, 2533, 2665, 2957, 3471, 3638, 4318, 4367, 4825, 4985, 5207, 5846, 5950, 5992, 8644]}, "edge": {"target": [], "time": []}}}, "displayed_time": "10.14", "trialTime": 11181, "trial_type": "mouselab-mdp", "trial_index": 64, "time_elapsed": 934998, "internal_node_id": "0.0-4.0-3.0-18.0"}}, {"uniqueid": "w61545453:a13304162", "current_trial": 65, "dateTime": 1664555975869, "trialdata": {"revealed_states": [], "num_clicks_accrued": [0, 0, 0, 0, 0, 0, 0, 0, 0, 0, 0, 0, 0], "stateRewards": ["", -4, -8, 48, -48, 2, -4, 48, -24, 2, -8, -48, -48], "withholdReward": true, "trial_id": "mdp_624553692913", "block": "test2", "trialIndex": 53, "score": 40.75, "costs": -0.25, "simulationMode": [null, null, null], "rewards": [-4, -8, 48], "path": ["0", "0", "1", "2", "3"], "rt": [1732, 303, 28], "actions": ["up", "up", "right"], "actionTimes": [3099, 3899, 4435], "queries": {"click": {"state": {"target": ["3"], "time": [1966]}, "edge": {"target": [], "time": []}}, "mouseover": {"state": {"target": ["3"], "time": [1900]}, "edge": {"target": [], "time": []}}, "mouseout": {"state": {"target": ["12", "0", "0", "3", "1"], "time": [781, 941, 1630, 2191, 5305]}, "edge": {"target": [], "time": []}}}, "displayed_time": "10.37", "trialTime": 11219, "trial_type": "mouselab-mdp", "trial_index": 65, "time_elapsed": 946246, "internal_node_id": "0.0-4.0-3.0-19.0"}}, {"uniqueid": "w61545453:a13304162", "current_trial": 66, "dateTime": 1664555985877, "trialdata": {"revealed_states": [], "num_clicks_accrued": [0, 0, 0, 0, 0, 0, 0, 0, 0, 0, 0, 0, 0], "stateRewards": ["", 2, -4, 24, -24, 2, -8, 48, 48, 4, -4, 24, 48], "withholdReward": true, "trial_id": "mdp_947836623875", "block": "test2", "trialIndex": 54, "score": 46.75, "costs": -0.25, "simulationMode": [null, null, null], "rewards": [2, -8, 48], "path": ["0", "0", "5", "6", "8"], "rt": [1899, 79, 95], "actions": ["right", "right", "down"], "actionTimes": [2419, 2995, 3587], "queries": {"click": {"state": {"target": ["8"], "time": [1193]}, "edge": {"target": [], "time": []}}, "mouseover": {"state": {"target": ["8"], "time": [1006]}, "edge": {"target": [], "time": []}}, "mouseout": {"state": {"target": ["0", "0", "8", "8"], "time": [375, 929, 1554, 1693]}, "edge": {"target": [], "time": []}}}, "displayed_time": "8.52", "trialTime": 9979, "trial_type": "mouselab-mdp", "trial_index": 66, "time_elapsed": 956254, "internal_node_id": "0.0-4.0-3.0-20.0"}}, {"uniqueid": "w61545453:a13304162", "current_trial": 67, "dateTime": 1664555997405, "trialdata": {"revealed_states": [], "num_clicks_accrued": [0, 0, 0, 0, 0, 0, 0, 0, 0, 0, 0, 0, 0], "stateRewards": ["", 2, 4, -48, 24, -4, -4, -24, 24, 2, -4, 24, -24], "withholdReward": false, "trial_id": "mdp_163600331068", "block": "test2", "trialIndex": 55, "score": 25.5, "costs": -1.5, "simulationMode": [null, null, null], "rewards": [2, -4, 24], "path": ["0", "0", "9", "10", "11"], "rt": [7342, 501, 20], "actions": ["left", "left", "up"], "actionTimes": [7970, 8970, 9490], "queries": {"click": {"state": {"target": ["12", "3", "11", "8", "7", "4"], "time": [1232, 2204, 3338, 4499, 5525, 6476]}, "edge": {"target": [], "time": []}}, "mouseover": {"state": {"target": ["12", "0", "5", "3", "1", "0", "9", "11", "11", "9", "8", "7", "5", "0", "9", "4"], "time": [1142, 1740, 1795, 2115, 2677, 2740, 2955, 2983, 3233, 3490, 4122, 5469, 5844, 5948, 6024, 6413]}, "edge": {"target": [], "time": []}}, "mouseout": {"state": {"target": ["0", "12", "0", "5", "3", "1", "0", "9", "11", "11", "9", "8", "7", "5", "0", "9", "11", "4"], "time": [920, 1601, 1768, 1913, 2622, 2705, 2760, 2962, 2997, 3462, 3510, 4663, 5712, 5920, 5989, 6087, 6295, 6677]}, "edge": {"target": [], "time": []}}}, "displayed_time": "10.01", "trialTime": 11498, "trial_type": "mouselab-mdp", "trial_index": 67, "time_elapsed": 967782, "internal_node_id": "0.0-4.0-3.0-21.0"}}, {"uniqueid": "w61545453:a13304162", "current_trial": 68, "dateTime": 1664556007477, "trialdata": {"revealed_states": [], "num_clicks_accrued": [0, 0, 0, 0, 0, 0, 0, 0, 0, 0, 0, 0, 0], "stateRewards": ["", -4, 4, 24, 24, 4, -8, 48, -48, -2, -8, 24, 24], "withholdReward": true, "trial_id": "mdp_395264223239", "block": "test2", "trialIndex": 56, "score": 48, "costs": -1, "simulationMode": [null, null, null], "rewards": [4, -8, 48], "path": ["0", "0", "5", "6", "7"], "rt": [4076, 55, 77], "actions": ["right", "right", "up"], "actionTimes": [4928, 5488, 6072], "queries": {"click": {"state": {"target": ["8", "11", "3", "7"], "time": [1732, 2626, 3267, 4079]}, "edge": {"target": [], "time": []}}, "mouseover": {"state": {"target": ["8", "8", "9", "11", "1", "3", "5", "7", "6", "5"], "time": [1272, 1677, 2397, 2584, 3036, 3202, 3529, 4001, 4244, 4286]}, "edge": {"target": [], "time": []}}, "mouseout": {"state": {"target": ["0", "8", "8", "9", "11", "1", "3", "5", "7", "6", "5"], "time": [1112, 1334, 2209, 2473, 2855, 3084, 3404, 3820, 4209, 4251, 4300]}, "edge": {"target": [], "time": []}}}, "displayed_time": "8.85", "trialTime": 10040, "trial_type": "mouselab-mdp", "trial_index": 68, "time_elapsed": 977854, "internal_node_id": "0.0-4.0-3.0-22.0"}}, {"uniqueid": "w61545453:a13304162", "current_trial": 69, "dateTime": 1664556017726, "trialdata": {"revealed_states": [], "num_clicks_accrued": [0, 0, 0, 0, 0, 0, 0, 0, 0, 0, 0, 0, 0], "stateRewards": ["", -2, 4, 24, 48, 2, 4, -48, -48, -2, 8, 48, -24], "withholdReward": true, "trial_id": "mdp_305701202606", "block": "test2", "trialIndex": 57, "score": 58.75, "costs": -0.25, "simulationMode": [null, null, null], "rewards": [-2, 8, 48], "path": ["0", "0", "9", "10", "11"], "rt": [2237, 453, 118], "actions": ["left", "left", "up"], "actionTimes": [3258, 4218, 4834], "queries": {"click": {"state": {"target": ["11"], "time": [1890]}, "edge": {"target": [], "time": []}}, "mouseover": {"state": {"target": ["5", "11", "10"], "time": [1292, 1730, 2174]}, "edge": {"target": [], "time": []}}, "mouseout": {"state": {"target": ["0", "5", "11", "10", "9"], "time": [882, 1375, 2118, 2223, 8529]}, "edge": {"target": [], "time": []}}}, "displayed_time": "9.02", "trialTime": 10218, "trial_type": "mouselab-mdp", "trial_index": 69, "time_elapsed": 988102, "internal_node_id": "0.0-4.0-3.0-23.0"}}, {"uniqueid": "w61545453:a13304162", "current_trial": 70, "dateTime": 1664556028054, "trialdata": {"revealed_states": [], "num_clicks_accrued": [0, 0, 0, 0, 0, 0, 0, 0, 0, 0, 0, 0, 0], "stateRewards": ["", -4, 8, -24, -24, 4, -8, 48, -24, -4, -8, -24, -48], "withholdReward": true, "trial_id": "mdp_391766721791", "block": "test2", "trialIndex": 58, "score": 48.25, "costs": -0.75, "simulationMode": [null, null, null], "rewards": [4, -8, 48], "path": ["0", "0", "5", "6", "7"], "rt": [2961, 99, 358], "actions": ["right", "right", "up"], "actionTimes": [3842, 4442, 5306], "queries": {"click": {"state": {"target": ["8", "4", "7"], "time": [1380, 2371, 3394]}, "edge": {"target": [], "time": []}}, "mouseover": {"state": {"target": ["5", "8", "5", "4", "9", "10", "7", "5"], "time": [1093, 1253, 1767, 2294, 2760, 2961, 3267, 3558]}, "edge": {"target": [], "time": []}}, "mouseout": {"state": {"target": ["9", "0", "5", "8", "5", "4", "9", "10", "7", "5"], "time": [586, 1072, 1107, 1711, 1794, 2537, 2787, 2968, 3523, 3607]}, "edge": {"target": [], "time": []}}}, "displayed_time": "9.88", "trialTime": 10298, "trial_type": "mouselab-mdp", "trial_index": 70, "time_elapsed": 998430, "internal_node_id": "0.0-4.0-3.0-24.0"}}, {"uniqueid": "w61545453:a13304162", "current_trial": 71, "dateTime": 1664556038662, "trialdata": {"revealed_states": [], "num_clicks_accrued": [0, 0, 0, 0, 0, 0, 0, 0, 0, 0, 0, 0, 0], "stateRewards": ["", -2, -4, -24, 24, -2, 4, -24, -24, -4, 4, 24, -24], "withholdReward": true, "trial_id": "mdp_999419261719", "block": "test2", "trialIndex": 59, "score": 27.5, "costs": -1.5, "simulationMode": [null, null, null], "rewards": [-4, 4, 24], "path": ["0", "0", "9", "10", "11"], "rt": [5847, 360, 132], "actions": ["left", "left", "up"], "actionTimes": [6346, 7202, 7842], "queries": {"click": {"state": {"target": ["12", "7", "4", "11", "8", "3"], "time": [1121, 1821, 2803, 4023, 4704, 5223]}, "edge": {"target": [], "time": []}}, "mouseover": {"state": {"target": ["12", "0", "5", "7", "6", "4", "0", "9", "11", "9", "8", "3", "5"], "time": [1036, 1522, 1619, 1675, 2063, 2681, 3806, 3828, 3918, 4251, 4612, 5098, 5855]}, "edge": {"target": [], "time": []}}, "mouseout": {"state": {"target": ["0", "12", "0", "5", "7", "6", "4", "0", "9", "11", "9", "8", "3", "5", "0"], "time": [751, 1355, 1591, 1633, 2022, 2098, 3001, 3823, 3848, 4202, 4300, 4890, 5445, 6084, 9070]}, "edge": {"target": [], "time": []}}}, "displayed_time": "9.50", "trialTime": 10578, "trial_type": "mouselab-mdp", "trial_index": 71, "time_elapsed": 1009038, "internal_node_id": "0.0-4.0-3.0-25.0"}}, {"uniqueid": "w61545453:a13304162", "current_trial": 72, "dateTime": 1664556048758, "trialdata": {"revealed_states": [], "num_clicks_accrued": [0, 0, 0, 0, 0, 0, 0, 0, 0, 0, 0, 0, 0], "stateRewards": ["", -2, 8, -48, 48, -4, -8, 24, 24, -2, -4, 48, -48], "withholdReward": true, "trial_id": "mdp_867247318592", "block": "test2", "trialIndex": 60, "score": 58, "costs": -1, "simulationMode": [null, null, null], "rewards": [-2, 8, 48], "path": ["0", "0", "1", "2", "4"], "rt": [4364, 142, 79], "actions": ["up", "up", "left"], "actionTimes": [5506, 6146, 6722], "queries": {"click": {"state": {"target": ["7", "12", "3", "4"], "time": [1779, 2863, 4075, 5027]}, "edge": {"target": [], "time": []}}, "mouseover": {"state": {"target": ["5", "7", "6", "8", "12", "5", "3", "5", "0", "5", "8", "5", "4", "1"], "time": [1532, 1719, 1955, 2004, 2705, 3643, 3858, 4289, 4414, 4580, 4677, 4726, 4886, 5240]}, "edge": {"target": [], "time": []}}, "mouseout": {"state": {"target": ["0", "5", "7", "6", "8", "12", "5", "3", "5", "0", "5", "8", "5", "4", "1", "0"], "time": [1504, 1559, 1914, 1983, 2108, 3066, 3670, 4212, 4358, 4484, 4601, 4698, 4740, 5170, 5247, 8101]}, "edge": {"target": [], "time": []}}}, "displayed_time": "9.14", "trialTime": 10066, "trial_type": "mouselab-mdp", "trial_index": 72, "time_elapsed": 1019134, "internal_node_id": "0.0-4.0-3.0-26.0"}}, {"uniqueid": "w61545453:a13304162", "current_trial": 73, "dateTime": 1664556059389, "trialdata": {"revealed_states": [], "num_clicks_accrued": [0, 0, 0, 0, 0, 0, 0, 0, 0, 0, 0, 0, 0], "stateRewards": ["", 4, -4, 48, -48, -4, -4, 48, -48, 4, 4, -48, -24], "withholdReward": false, "trial_id": "mdp_490058671112", "block": "test2", "trialIndex": 61, "score": 52.5, "costs": -0.5, "simulationMode": [null, null, null], "rewards": [4, -4, 48], "path": ["0", "0", "1", "2", "3"], "rt": [4240, 68, 385], "actions": ["up", "up", "right"], "actionTimes": [4866, 5434, 6314], "queries": {"click": {"state": {"target": ["11", "3"], "time": [1851, 2892]}, "edge": {"target": [], "time": []}}, "mouseover": {"state": {"target": ["5", "6", "8", "5", "11", "11", "11", "11", "9", "9", "3"], "time": [963, 1047, 1192, 1373, 1429, 1595, 1623, 1727, 2040, 2581, 2838]}, "edge": {"target": [], "time": []}}, "mouseout": {"state": {"target": ["0", "5", "6", "8", "5", "11", "11", "11", "11", "9", "9", "3", "0"], "time": [824, 1019, 1151, 1345, 1387, 1443, 1609, 1658, 1998, 2352, 2588, 3019, 7185]}, "edge": {"target": [], "time": []}}}, "displayed_time": "9.63", "trialTime": 10602, "trial_type": "mouselab-mdp", "trial_index": 73, "time_elapsed": 1029766, "internal_node_id": "0.0-4.0-3.0-27.0"}}, {"uniqueid": "w61545453:a13304162", "current_trial": 74, "dateTime": 1664556069061, "trialdata": {"revealed_states": [], "num_clicks_accrued": [0, 0, 0, 0, 0, 0, 0, 0, 0, 0, 0, 0, 0], "stateRewards": ["", 2, 8, 24, 24, 2, -8, -24, -48, 2, 8, -48, 48], "withholdReward": true, "trial_id": "mdp_745175888812", "block": "test2", "trialIndex": 62, "score": 62.25, "costs": -0.75, "simulationMode": [null, null, null], "rewards": [2, 8, 48], "path": ["0", "0", "9", "10", "12"], "rt": [4108, 56, 4], "actions": ["left", "left", "down"], "actionTimes": [4633, 5185, 5689], "queries": {"click": {"state": {"target": ["8", "11", "12"], "time": [1285, 2137, 3492]}, "edge": {"target": [], "time": []}}, "mouseover": {"state": {"target": ["0", "5", "8", "9", "11", "9", "0", "12"], "time": [803, 900, 1219, 1809, 2011, 2379, 3205, 3441]}, "edge": {"target": [], "time": []}}, "mouseout": {"state": {"target": ["0", "0", "5", "8", "9", "11", "9", "0", "12"], "time": [490, 858, 997, 1629, 1920, 2295, 2566, 3212, 3761]}, "edge": {"target": [], "time": []}}}, "displayed_time": "8.53", "trialTime": 9641, "trial_type": "mouselab-mdp", "trial_index": 74, "time_elapsed": 1039438, "internal_node_id": "0.0-4.0-3.0-28.0"}}, {"uniqueid": "w61545453:a13304162", "current_trial": 75, "dateTime": 1664556079469, "trialdata": {"revealed_states": [], "num_clicks_accrued": [0, 0, 0, 0, 0, 0, 0, 0, 0, 0, 0, 0, 0], "stateRewards": ["", 2, -8, -24, -48, -2, -4, 48, 48, 4, 8, 48, 48], "withholdReward": true, "trial_id": "mdp_347285045422", "block": "test2", "trialIndex": 63, "score": 46.75, "costs": -0.25, "simulationMode": [null, null, null], "rewards": [-2, -4, 48], "path": ["0", "0", "5", "6", "7"], "rt": [1861, 122, 73], "actions": ["right", "right", "up"], "actionTimes": [2697, 3329, 3905], "queries": {"click": {"state": {"target": ["7"], "time": [1532]}, "edge": {"target": [], "time": []}}, "mouseover": {"state": {"target": ["7", "7", "6"], "time": [1082, 1429, 1741]}, "edge": {"target": [], "time": []}}, "mouseout": {"state": {"target": ["9", "7", "7", "6"], "time": [581, 1228, 1700, 2443]}, "edge": {"target": [], "time": []}}}, "displayed_time": "8.84", "trialTime": 10377, "trial_type": "mouselab-mdp", "trial_index": 75, "time_elapsed": 1049846, "internal_node_id": "0.0-4.0-3.0-29.0"}}, {"uniqueid": "w61545453:a13304162", "current_trial": 76, "dateTime": 1664556083742, "trialdata": {"rt": 4270, "stimulus": "<h1> End of block! </h1>\n\nYou have reached the end of the block 2/4. If you need a short break, feel free to take one now before moving on.\n\n<br><br>\nIn the next block, you will complete another 30 rounds of this game.\n\n<br><br>\n<div style='text-align: center;'>Press <code>space</code> to begin.</div>\n<br><br>\n<div style='text-align: center;'>(If the experiment doesn't continue, try clicking on the text and then pressing <code>space</code>.)</div>", "response": " ", "trial_id": "mdp_ready_3", "trial_type": "html-keyboard-response", "trial_index": 76, "time_elapsed": 1054119, "internal_node_id": "0.0-4.0-4.0"}}, {"uniqueid": "w61545453:a13304162", "current_trial": 77, "dateTime": 1664556093173, "trialdata": {"revealed_states": [], "num_clicks_accrued": [0, 0, 0, 0, 0, 0, 0, 0, 0, 0, 0, 0, 0], "stateRewards": ["", -2, -4, -24, 48, -4, 8, 48, 48, 2, 8, -48, -24], "withholdReward": true, "trial_id": "mdp_136376573354", "block": "test3", "trialIndex": 64, "score": 56.5, "costs": -0.5, "simulationMode": [null, null, null], "rewards": [-4, 8, 48], "path": ["0", "0", "5", "6", "7"], "rt": [2616, 27, 428], "actions": ["right", "right", "up"], "actionTimes": [3344, 3872, 4808], "queries": {"click": {"state": {"target": ["12", "7"], "time": [1370, 2068]}, "edge": {"target": [], "time": []}}, "mouseover": {"state": {"target": ["9", "12", "0", "5", "7"], "time": [991, 1255, 1679, 1734, 2033]}, "edge": {"target": [], "time": []}}, "mouseout": {"state": {"target": ["1", "0", "9", "12", "0", "5", "7"], "time": [407, 952, 1005, 1609, 1706, 1838, 2283]}, "edge": {"target": [], "time": []}}}, "displayed_time": "8.73", "trialTime": 9400, "trial_type": "mouselab-mdp", "trial_index": 77, "time_elapsed": 1063550, "internal_node_id": "0.0-4.0-5.0-0.0"}}, {"uniqueid": "w61545453:a13304162", "current_trial": 78, "dateTime": 1664556103638, "trialdata": {"revealed_states": [], "num_clicks_accrued": [0, 0, 0, 0, 0, 0, 0, 0, 0, 0, 0, 0, 0], "stateRewards": ["", -2, 4, -24, 24, -4, -8, 24, -48, -4, -4, -48, -24], "withholdReward": true, "trial_id": "mdp_753137520419", "block": "test3", "trialIndex": 65, "score": 29.5, "costs": -1.5, "simulationMode": [null, null, null], "rewards": [-2, 4, 24], "path": ["0", "0", "1", "2", "4"], "rt": [5826, 80, 454], "actions": ["up", "up", "left"], "actionTimes": [6381, 6957, 7909], "queries": {"click": {"state": {"target": ["7", "12", "4", "8", "11", "3"], "time": [927, 1758, 2692, 3395, 4446, 5386]}, "edge": {"target": [], "time": []}}, "mouseover": {"state": {"target": ["7", "5", "12", "9", "4", "1", "5", "8", "5", "11", "1", "2", "3"], "time": [828, 1231, 1682, 2112, 2550, 2862, 2994, 3258, 3578, 4348, 5147, 5230, 5356]}, "edge": {"target": [], "time": []}}, "mouseout": {"state": {"target": ["5", "0", "7", "5", "12", "9", "4", "1", "5", "8", "5", "11", "1", "2", "3"], "time": [439, 675, 1119, 1272, 2008, 2168, 2814, 2897, 3043, 3554, 3591, 4911, 5161, 5244, 5829]}, "edge": {"target": [], "time": []}}}, "displayed_time": "8.56", "trialTime": 10437, "trial_type": "mouselab-mdp", "trial_index": 78, "time_elapsed": 1074014, "internal_node_id": "0.0-4.0-5.0-1.0"}}, {"uniqueid": "w61545453:a13304162", "current_trial": 79, "dateTime": 1664556114037, "trialdata": {"revealed_states": [], "num_clicks_accrued": [0, 0, 0, 0, 0, 0, 0, 0, 0, 0, 0, 0, 0], "stateRewards": ["", -2, 8, 24, -48, -4, -8, -24, -48, -4, 8, -24, 48], "withholdReward": false, "trial_id": "mdp_464339499860", "block": "test3", "trialIndex": 66, "score": 56.25, "costs": -0.75, "simulationMode": [null, null, null], "rewards": [-4, 8, 48], "path": ["0", "0", "9", "10", "12"], "rt": [2892, 106, 46], "actions": ["left", "left", "down"], "actionTimes": [3397, 4005, 4549], "queries": {"click": {"state": {"target": ["8", "11", "12"], "time": [935, 1697, 2685]}, "edge": {"target": [], "time": []}}, "mouseover": {"state": {"target": ["5", "8", "9", "11", "9", "12"], "time": [766, 891, 1454, 1634, 1926, 2641]}, "edge": {"target": [], "time": []}}, "mouseout": {"state": {"target": ["0", "5", "8", "9", "11", "9", "12"], "time": [745, 801, 1252, 1482, 1863, 2523, 2857]}, "edge": {"target": [], "time": []}}}, "displayed_time": "8.51", "trialTime": 10373, "trial_type": "mouselab-mdp", "trial_index": 79, "time_elapsed": 1084414, "internal_node_id": "0.0-4.0-5.0-2.0"}}, {"uniqueid": "w61545453:a13304162", "current_trial": 80, "dateTime": 1664556124805, "trialdata": {"revealed_states": [], "num_clicks_accrued": [0, 0, 0, 0, 0, 0, 0, 0, 0, 0, 0, 0, 0], "stateRewards": ["", 4, 8, -24, 48, 4, -8, -48, 48, -4, 8, -24, -48], "withholdReward": true, "trial_id": "mdp_376126356841", "block": "test3", "trialIndex": 67, "score": 48, "costs": -1, "simulationMode": [null, null, null], "rewards": [4, -8, 48], "path": ["0", "0", "5", "6", "8"], "rt": [5662, 444, 68], "actions": ["right", "right", "down"], "actionTimes": [6585, 7529, 8097], "queries": {"click": {"state": {"target": ["7", "12", "11", "8"], "time": [1594, 2317, 4609, 5377]}, "edge": {"target": [], "time": []}}, "mouseover": {"state": {"target": ["5", "7", "6", "5", "12", "10", "9", "11", "9", "8", "8"], "time": [1230, 1466, 1945, 1981, 2279, 3057, 3453, 4480, 4827, 5043, 5348]}, "edge": {"target": [], "time": []}}, "mouseout": {"state": {"target": ["0", "5", "7", "6", "5", "12", "10", "9", "11", "9", "8", "8"], "time": [1189, 1307, 1876, 1959, 1994, 2737, 3154, 4384, 4765, 4918, 5070, 9400]}, "edge": {"target": [], "time": []}}}, "displayed_time": "9.92", "trialTime": 10737, "trial_type": "mouselab-mdp", "trial_index": 80, "time_elapsed": 1095182, "internal_node_id": "0.0-4.0-5.0-3.0"}}, {"uniqueid": "w61545453:a13304162", "current_trial": 81, "dateTime": 1664556134317, "trialdata": {"revealed_states": [], "num_clicks_accrued": [0, 0, 0, 0, 0, 0, 0, 0, 0, 0, 0, 0, 0], "stateRewards": ["", -2, 8, 48, -48, 4, -8, 24, 24, 4, 4, -48, -24], "withholdReward": true, "trial_id": "mdp_746937869927", "block": "test3", "trialIndex": 68, "score": 57.75, "costs": -1.25, "simulationMode": [null, null, null], "rewards": [-2, 8, 48], "path": ["0", "0", "1", "2", "3"], "rt": [4596, 115, 448], "actions": ["up", "up", "right"], "actionTimes": [5118, 5742, 6686], "queries": {"click": {"state": {"target": ["8", "11", "7", "12", "3"], "time": [1210, 1873, 2650, 3325, 4630]}, "edge": {"target": [], "time": []}}, "mouseover": {"state": {"target": ["0", "8", "9", "11", "9", "5", "7", "5", "12", "4", "2", "3"], "time": [738, 1168, 1696, 1828, 2168, 2384, 2544, 2898, 3078, 4210, 4495, 4564]}, "edge": {"target": [], "time": []}}, "mouseout": {"state": {"target": ["0", "0", "8", "9", "11", "9", "5", "7", "5", "12", "4", "2", "3"], "time": [488, 766, 1432, 1752, 2106, 2245, 2405, 2835, 2932, 3585, 4391, 4523, 4960]}, "edge": {"target": [], "time": []}}}, "displayed_time": "8.52", "trialTime": 9486, "trial_type": "mouselab-mdp", "trial_index": 81, "time_elapsed": 1104694, "internal_node_id": "0.0-4.0-5.0-4.0"}}, {"uniqueid": "w61545453:a13304162", "current_trial": 82, "dateTime": 1664556144949, "trialdata": {"revealed_states": [], "num_clicks_accrued": [0, 0, 0, 0, 0, 0, 0, 0, 0, 0, 0, 0, 0], "stateRewards": ["", -2, -8, -48, 24, 2, -4, -48, 48, 2, 4, 24, -24], "withholdReward": false, "trial_id": "mdp_849341543762", "block": "test3", "trialIndex": 69, "score": 50.25, "costs": -0.75, "simulationMode": [null, null, null], "rewards": [2, -4, 48], "path": ["0", "0", "5", "6", "8"], "rt": [3641, 99, 6], "actions": ["right", "right", "down"], "actionTimes": [4344, 4944, 5456], "queries": {"click": {"state": {"target": ["3", "12", "8"], "time": [1194, 1864, 3256]}, "edge": {"target": [], "time": []}}, "mouseover": {"state": {"target": ["3", "0", "12", "10", "0", "5", "8"], "time": [1136, 1567, 1837, 2317, 2949, 2976, 3129]}, "edge": {"target": [], "time": []}}, "mouseout": {"state": {"target": ["1", "3", "0", "12", "10", "0", "5", "8"], "time": [337, 1372, 1588, 2268, 2525, 2956, 3011, 3622]}, "edge": {"target": [], "time": []}}}, "displayed_time": "9.70", "trialTime": 10600, "trial_type": "mouselab-mdp", "trial_index": 82, "time_elapsed": 1115326, "internal_node_id": "0.0-4.0-5.0-5.0"}}, {"uniqueid": "w61545453:a13304162", "current_trial": 83, "dateTime": 1664556156213, "trialdata": {"revealed_states": [], "num_clicks_accrued": [0, 0, 0, 0, 0, 0, 0, 0, 0, 0, 0, 0, 0], "stateRewards": ["", 4, 4, 48, -48, -2, -8, -48, -24, 2, 4, -24, -48], "withholdReward": true, "trial_id": "mdp_239929662917", "block": "test3", "trialIndex": 70, "score": 59.5, "costs": -1.5, "simulationMode": [null, null, null], "rewards": [4, 4, 48], "path": ["0", "0", "1", "2", "3"], "rt": [7139, 49, 77], "actions": ["up", "up", "right"], "actionTimes": [7969, 8513, 9097], "queries": {"click": {"state": {"target": ["11", "8", "4", "7", "12", "3"], "time": [2136, 2811, 4218, 5021, 6137, 6765]}, "edge": {"target": [], "time": []}}, "mouseover": {"state": {"target": ["0", "8", "9", "11", "10", "8", "0", "4", "1", "7", "5", "12", "9", "1", "3"], "time": [1074, 1366, 1915, 2040, 2331, 2764, 3831, 4033, 4519, 4894, 5519, 6095, 6442, 6498, 6706]}, "edge": {"target": [], "time": []}}, "mouseout": {"state": {"target": ["0", "0", "8", "9", "11", "10", "8", "0", "4", "1", "7", "5", "12", "9", "1", "3"], "time": [790, 1109, 1741, 1936, 2297, 2366, 3033, 3852, 4387, 4609, 5359, 5602, 6408, 6456, 6519, 7186]}, "edge": {"target": [], "time": []}}}, "displayed_time": "9.60", "trialTime": 11233, "trial_type": "mouselab-mdp", "trial_index": 83, "time_elapsed": 1126590, "internal_node_id": "0.0-4.0-5.0-6.0"}}, {"uniqueid": "w61545453:a13304162", "current_trial": 84, "dateTime": 1664556166797, "trialdata": {"revealed_states": [], "num_clicks_accrued": [0, 0, 0, 0, 0, 0, 0, 0, 0, 0, 0, 0, 0], "stateRewards": ["", 2, 8, -48, -24, 4, 4, 24, 48, 4, -4, -48, 48], "withholdReward": true, "trial_id": "mdp_665096999232", "block": "test3", "trialIndex": 71, "score": 60.25, "costs": -0.75, "simulationMode": [null, null, null], "rewards": [4, 4, 48], "path": ["0", "0", "5", "6", "8"], "rt": [4838, 157, 10], "actions": ["right", "right", "down"], "actionTimes": [5992, 6648, 7160], "queries": {"click": {"state": {"target": ["7", "4", "8"], "time": [1821, 3167, 4365]}, "edge": {"target": [], "time": []}}, "mouseover": {"state": {"target": ["0", "7", "6", "12", "10", "11", "4", "0", "8", "8"], "time": [1173, 1594, 2164, 2497, 2615, 2726, 3004, 3427, 3886, 4185]}, "edge": {"target": [], "time": []}}, "mouseout": {"state": {"target": ["1", "0", "7", "6", "12", "10", "11", "4", "0", "8", "8"], "time": [1045, 1311, 2059, 2178, 2552, 2663, 2962, 3309, 3434, 3955, 4566]}, "edge": {"target": [], "time": []}}}, "displayed_time": "9.15", "trialTime": 10552, "trial_type": "mouselab-mdp", "trial_index": 84, "time_elapsed": 1137174, "internal_node_id": "0.0-4.0-5.0-7.0"}}, {"uniqueid": "w61545453:a13304162", "current_trial": 85, "dateTime": 1664556176477, "trialdata": {"revealed_states": [], "num_clicks_accrued": [0, 0, 0, 0, 0, 0, 0, 0, 0, 0, 0, 0, 0], "stateRewards": ["", -4, -4, -24, -24, -2, 4, 48, -24, -2, -4, -24, 48], "withholdReward": true, "trial_id": "mdp_855903341564", "block": "test3", "trialIndex": 72, "score": 53.75, "costs": -1.25, "simulationMode": [null, null, null], "rewards": [-2, 4, 48], "path": ["0", "0", "5", "6", "7"], "rt": [6115, 116, 65], "actions": ["right", "right", "up"], "actionTimes": [6649, 7273, 7833], "queries": {"click": {"state": {"target": ["11", "8", "3", "4", "7"], "time": [1658, 2453, 3587, 4881, 5517]}, "edge": {"target": [], "time": []}}, "mouseover": {"state": {"target": ["5", "8", "8", "0", "9", "11", "9", "0", "8", "3", "5", "1", "4", "5", "7"], "time": [803, 921, 962, 1198, 1226, 1518, 2150, 2185, 2254, 3476, 3796, 4664, 4712, 5330, 5421]}, "edge": {"target": [], "time": []}}, "mouseout": {"state": {"target": ["0", "5", "8", "8", "0", "9", "11", "9", "0", "8", "3", "5", "1", "4", "5", "7"], "time": [469, 837, 948, 1150, 1212, 1240, 1921, 2171, 2191, 2837, 3705, 3991, 4677, 5039, 5351, 5636]}, "edge": {"target": [], "time": []}}}, "displayed_time": "8.54", "trialTime": 9649, "trial_type": "mouselab-mdp", "trial_index": 85, "time_elapsed": 1146854, "internal_node_id": "0.0-4.0-5.0-8.0"}}, {"uniqueid": "w61545453:a13304162", "current_trial": 86, "dateTime": 1664556187285, "trialdata": {"revealed_states": [], "num_clicks_accrued": [0, 0, 0, 0, 0, 0, 0, 0, 0, 0, 0, 0, 0], "stateRewards": ["", 4, -8, 48, -24, -4, 4, 24, 24, -2, -4, 24, 24], "withholdReward": true, "trial_id": "mdp_542168715839", "block": "test3", "trialIndex": 73, "score": 48.5, "costs": -0.5, "simulationMode": [null, null, null], "rewards": [4, -8, 48], "path": ["0", "0", "1", "2", "3"], "rt": [2669, 16, 353], "actions": ["up", "up", "right"], "actionTimes": [4169, 4681, 5531], "queries": {"click": {"state": {"target": ["12", "3"], "time": [2246, 3179]}, "edge": {"target": [], "time": []}}, "mouseover": {"state": {"target": ["12", "0", "3"], "time": [2206, 2852, 3095]}, "edge": {"target": [], "time": []}}, "mouseout": {"state": {"target": ["9", "0", "12", "0", "3", "0"], "time": [1150, 1727, 2776, 2872, 3352, 9796]}, "edge": {"target": [], "time": []}}}, "displayed_time": "9.50", "trialTime": 10777, "trial_type": "mouselab-mdp", "trial_index": 86, "time_elapsed": 1157662, "internal_node_id": "0.0-4.0-5.0-9.0"}}, {"uniqueid": "w61545453:a13304162", "current_trial": 87, "dateTime": 1664556197061, "trialdata": {"revealed_states": [], "num_clicks_accrued": [0, 0, 0, 0, 0, 0, 0, 0, 0, 0, 0, 0, 0], "stateRewards": ["", 2, -4, 48, 24, 2, 8, 24, 24, -2, 4, 24, 24], "withholdReward": true, "trial_id": "mdp_813974524300", "block": "test3", "trialIndex": 74, "score": 37.75, "costs": -1.25, "simulationMode": [null, null, null], "rewards": [2, 8, 24], "path": ["0", "0", "5", "6", "7"], "rt": [5912, 34, 252], "actions": ["right", "right", "up"], "actionTimes": [6420, 6956, 7717], "queries": {"click": {"state": {"target": ["11", "8", "4", "12", "7"], "time": [1275, 2199, 3768, 5155, 6104]}, "edge": {"target": [], "time": []}}, "mouseover": {"state": {"target": ["11", "10", "9", "0", "5", "8", "0", "4", "0", "12", "0", "5", "7"], "time": [895, 1665, 1735, 1797, 1832, 2179, 3464, 3686, 4686, 5082, 5610, 5637, 5998]}, "edge": {"target": [], "time": []}}, "mouseout": {"state": {"target": ["0", "11", "10", "9", "0", "5", "8", "0", "4", "0", "12", "0", "5", "7", "5"], "time": [415, 1582, 1693, 1777, 1818, 1867, 3408, 3471, 3908, 4741, 5540, 5623, 5644, 8158, 8769]}, "edge": {"target": [], "time": []}}}, "displayed_time": "8.51", "trialTime": 9749, "trial_type": "mouselab-mdp", "trial_index": 87, "time_elapsed": 1167438, "internal_node_id": "0.0-4.0-5.0-10.0"}}, {"uniqueid": "w61545453:a13304162", "current_trial": 88, "dateTime": 1664556207829, "trialdata": {"revealed_states": [], "num_clicks_accrued": [0, 0, 0, 0, 0, 0, 0, 0, 0, 0, 0, 0, 0], "stateRewards": ["", -2, -4, -48, 48, -2, -4, 24, 48, -4, -8, -24, 24], "withholdReward": true, "trial_id": "mdp_917590390609", "block": "test3", "trialIndex": 75, "score": 46.75, "costs": -0.25, "simulationMode": [null, null, null], "rewards": [-2, -4, 48], "path": ["0", "0", "5", "6", "8"], "rt": [1397, 24, 25], "actions": ["right", "right", "down"], "actionTimes": [3159, 3678, 4214], "queries": {"click": {"state": {"target": ["8"], "time": [2139]}, "edge": {"target": [], "time": []}}, "mouseover": {"state": {"target": ["5", "8"], "time": [1946, 2008]}, "edge": {"target": [], "time": []}}, "mouseout": {"state": {"target": ["5", "8"], "time": [1959, 2404]}, "edge": {"target": [], "time": []}}}, "displayed_time": "9.76", "trialTime": 10735, "trial_type": "mouselab-mdp", "trial_index": 88, "time_elapsed": 1178206, "internal_node_id": "0.0-4.0-5.0-11.0"}}, {"uniqueid": "w61545453:a13304162", "current_trial": 89, "dateTime": 1664556216860, "trialdata": {"revealed_states": [], "num_clicks_accrued": [0, 0, 0, 0, 0, 0, 0, 0, 0, 0, 0, 0, 0], "stateRewards": ["", 4, -4, 48, 24, 2, -8, 24, -48, -2, -4, -48, -48], "withholdReward": true, "trial_id": "mdp_655302318695", "block": "test3", "trialIndex": 76, "score": 51.5, "costs": -1.5, "simulationMode": [null, null, null], "rewards": [4, -4, 48], "path": ["0", "0", "1", "2", "3"], "rt": [5339, 128, 14], "actions": ["up", "up", "right"], "actionTimes": [5903, 6535, 7046], "queries": {"click": {"state": {"target": ["11", "8", "12", "7", "4", "3"], "time": [1151, 1937, 2884, 3937, 4723, 5431]}, "edge": {"target": [], "time": []}}, "mouseover": {"state": {"target": ["11", "9", "0", "8", "12", "9", "0", "7", "1", "4", "1", "1", "3"], "time": [1080, 1559, 1601, 1705, 2809, 3594, 3608, 3691, 4531, 4629, 4920, 5198, 5358]}, "edge": {"target": [], "time": []}}, "mouseout": {"state": {"target": ["0", "11", "9", "0", "8", "12", "9", "0", "7", "1", "4", "1", "1", "3"], "time": [518, 1497, 1587, 1615, 2643, 3531, 3601, 3615, 4115, 4553, 4865, 5004, 5233, 6