{"condition": 1, "counterbalance": 0, "assignmentId": "a74934903", "workerId": "w38018329", "hitId": "h43001860", "currenttrial": 9, "bonus": 0, "data": [{"uniqueid": "w38018329:a74934903", "current_trial": 0, "dateTime": 1664374271677, "trialdata": {"success": true, "trial_type": "fullscreen", "trial_index": 0, "time_elapsed": 3754, "internal_node_id": "0.0-0.0"}}, {"uniqueid": "w38018329:a74934903", "current_trial": 1, "dateTime": 1664374273836, "trialdata": {"view_history": [{"page_index": 0, "viewing_time": 2153}], "rt": 2154, "trial_id": "exp_instructions_no_distractor", "trial_type": "instructions", "trial_index": 1, "time_elapsed": 5914, "internal_node_id": "0.0-1.0"}}, {"uniqueid": "w38018329:a74934903", "current_trial": 2, "dateTime": 1664374277060, "trialdata": {"success": true, "trial_type": "fullscreen", "trial_index": 2, "time_elapsed": 9138, "internal_node_id": "0.0-2.0-0.0"}}, {"uniqueid": "w38018329:a74934903", "current_trial": 3, "dateTime": 1664374302232, "trialdata": {"view_history": [{"page_index": 0, "viewing_time": 6770}, {"page_index": 1, "viewing_time": 4480}, {"page_index": 2, "viewing_time": 5620}, {"page_index": 3, "viewing_time": 6747}, {"page_index": 4, "viewing_time": 1552}], "rt": 25170, "trial_id": "mouselab_instructions_1", "trial_type": "instructions", "trial_index": 3, "time_elapsed": 34310, "internal_node_id": "0.0-2.0-1.0"}}, {"uniqueid": "w38018329:a74934903", "current_trial": 4, "dateTime": 1664374316884, "trialdata": {"revealed_states": [], "num_clicks_accrued": [0, 0, 0, 0, 0, 0, 0, 0, 0, 0, 0, 0, 0], "stateRewards": ["", 10, -10, -10, -10, -10, -10, -10, 10, 10, -10, 10, 10], "withholdReward": false, "trial_id": "practice_1", "block": "test", "trialIndex": 0, "score": -28, "costs": 0, "simulationMode": [null, null, null], "rewards": [-10, -10, -10], "path": ["0", "0", "5", "6", "7"], "rt": [1459, 2434, 411], "actions": ["right", "right", "up"], "actionTimes": [6285, 9228, 10156], "queries": {"click": {"state": {"target": [], "time": []}, "edge": {"target": [], "time": []}}, "mouseover": {"state": {"target": [], "time": []}, "edge": {"target": [], "time": []}}, "mouseout": {"state": {"target": [], "time": []}, "edge": {"target": [], "time": []}}}, "displayed_time": "10.66", "trialTime": 14309, "trial_type": "mouselab-mdp", "trial_index": 4, "time_elapsed": 48961, "internal_node_id": "0.0-2.0-2.0-0.0"}}, {"uniqueid": "w38018329:a74934903", "current_trial": 5, "dateTime": 1664374327003, "trialdata": {"revealed_states": [], "num_clicks_accrued": [0, 0, 0, 0, 0, 0, 0, 0, 0, 0, 0, 0, 0], "stateRewards": ["", -10, 10, 10, -10, -10, 10, -10, 10, 10, -10, 10, 10], "withholdReward": false, "trial_id": "practice_2", "block": "test", "trialIndex": 1, "score": 12, "costs": 0, "simulationMode": [null, null, null], "rewards": [-10, 10, 10], "path": ["0", "0", "1", "2", "3"], "rt": [1016, 992, 435], "actions": ["up", "up", "right"], "actionTimes": [5724, 7229, 8188], "queries": {"click": {"state": {"target": [], "time": []}, "edge": {"target": [], "time": []}}, "mouseover": {"state": {"target": [], "time": []}, "edge": {"target": [], "time": []}}, "mouseout": {"state": {"target": ["0"], "time": [202]}, "edge": {"target": [], "time": []}}}, "displayed_time": "8.72", "trialTime": 10020, "trial_type": "mouselab-mdp", "trial_index": 5, "time_elapsed": 59081, "internal_node_id": "0.0-2.0-2.0-1.0"}}, {"uniqueid": "w38018329:a74934903", "current_trial": 6, "dateTime": 1664374334051, "trialdata": {"view_history": [{"page_index": 0, "viewing_time": 2253}, {"page_index": 1, "viewing_time": 2619}, {"page_index": 2, "viewing_time": 2172}], "rt": 7044, "trial_id": "mouselab_instructions_2_scarce", "trial_type": "instructions", "trial_index": 6, "time_elapsed": 66129, "internal_node_id": "0.0-2.0-3.0"}}, {"uniqueid": "w38018329:a74934903", "current_trial": 7, "dateTime": 1664374369549, "trialdata": {"rt": 35491, "response": {"Q0": "$-48 to $48", "Q1": "There is no cost for clicking on nodes.", "Q2": "No.", "Q3": "Yes.", "Q4": "The values of the nodes walked through from start to finish.", "Q5": "Yes."}, "question_order": [0, 1, 2, 3, 4, 5], "correct": {"Q0": "$-48 to $48", "Q1": "The cost is always $0.25.", "Q2": "The better I perform the higher my bonus will be.", "Q3": "No, the amount of cash at each node of the web may be different each time.", "Q4": "The values of the nodes walked through from start to finish.", "Q5": "No, the spider might forget to count the money on some rounds."}, "trial_id": "mouselab_quiz_scarce", "trial_type": "survey-multi-choice", "trial_index": 7, "time_elapsed": 101627, "internal_node_id": "0.0-2.0-4.0"}}, {"uniqueid": "w38018329:a74934903", "current_trial": 8, "dateTime": 1664374377020, "trialdata": {"success": true, "trial_type": "fullscreen", "trial_index": 8, "time_elapsed": 109098, "internal_node_id": "0.0-2.1-0.1"}}], "questiondata": {"params": {"CODE": "C6DMOQA6", "MIN_TIME": 7, "inspectCost": 0.25, "startTime": "Wed Sep 28 2022 16:11:07 GMT+0200 (South Africa Standard Time)", "bonusRate": 0.002, "variance": "2_4_24", "branching": "312"}}, "eventdata": [{"eventtype": "initialized", "value": null, "timestamp": 1664374266348, "interval": 0}, {"eventtype": "window_resize", "value": [1024, 767], "timestamp": 1664374266348, "interval": 0}, {"eventtype": "window_resize", "value": [1024, 767], "timestamp": 1664374266788, "interval": 440}, {"eventtype": "window_resize", "value": [1920, 1080], "timestamp": 1664374270921, "interval": 4133}, {"eventtype": "focus", "value": "off", "timestamp": 1664374277948, "interval": 7027}, {"eventtype": "window_resize", "value": [1920, 1079], "timestamp": 1664374278164, "interval": 216}, {"eventtype": "focus", "value": "on", "timestamp": 1664374279090, "interval": 926}, {"eventtype": "window_resize", "value": [1920, 1080], "timestamp": 1664374279299, "interval": 209}, {"eventtype": "focus", "value": "off", "timestamp": 1664374374664, "interval": 95365}, {"eventtype": "focus", "value": "on", "timestamp": 1664374374666, "interval": 2}, {"eventtype": "window_resize", "value": [1024, 767], "timestamp": 1664374374900, "interval": 234}, {"eventtype": "window_resize", "value": [1920, 1080], "timestamp": 1664374376261, "interval": 1361}, {"eventtype": "window_resize", "value": [1024, 767], "timestamp": 1664374380854, "interval": 4593}, {"eventtype": "focus", "value": "off", "timestamp": 1664374390727, "interval": 9873}, {"eventtype": "focus", "value": "on", "timestamp": 1664380872088, "interval": 6481361}], "useragent": "Mozilla/5.0 (Windows NT 10.0; Win64; x64) AppleWebKit/537.36 (KHTML, like Gecko) Chrome/105.0.0.0 Safari/537.36", "mode": "live", "id": "w38018329:a74934903", "status": "user data saved", "Beginhit": "2022-09-28 14:11:04.142165", "Beginexp": "2022-09-28 14:11:11.593902", "Endhit": null, "psiturkStatus": 6, "browser": "<redacted>", "platform": "windows", "language": "en-GB"}