{"condition": 1, "counterbalance": 0, "assignmentId": "a36176941", "workerId": "w47082201", "hitId": "h13975256", "currenttrial": 143, "bonus": 0, "data": [{"uniqueid": "w47082201:a36176941", "current_trial": 0, "dateTime": 1664463992156, "trialdata": {"success": true, "trial_type": "fullscreen", "trial_index": 0, "time_elapsed": 10722, "internal_node_id": "0.0-0.0"}}, {"uniqueid": "w47082201:a36176941", "current_trial": 1, "dateTime": 1664464001227, "trialdata": {"view_history": [{"page_index": 0, "viewing_time": 9065}], "rt": 9065, "trial_id": "exp_instructions_no_distractor", "trial_type": "instructions", "trial_index": 1, "time_elapsed": 19794, "internal_node_id": "0.0-1.0"}}, {"uniqueid": "w47082201:a36176941", "current_trial": 2, "dateTime": 1664464004898, "trialdata": {"success": true, "trial_type": "fullscreen", "trial_index": 2, "time_elapsed": 23465, "internal_node_id": "0.0-2.0-0.0"}}, {"uniqueid": "w47082201:a36176941", "current_trial": 3, "dateTime": 1664464087896, "trialdata": {"view_history": [{"page_index": 0, "viewing_time": 34853}, {"page_index": 1, "viewing_time": 34848}, {"page_index": 2, "viewing_time": 7304}, {"page_index": 3, "viewing_time": 3056}, {"page_index": 4, "viewing_time": 2936}], "rt": 82997, "trial_id": "mouselab_instructions_1", "trial_type": "instructions", "trial_index": 3, "time_elapsed": 106463, "internal_node_id": "0.0-2.0-1.0"}}, {"uniqueid": "w47082201:a36176941", "current_trial": 4, "dateTime": 1664464108563, "trialdata": {"revealed_states": [], "num_clicks_accrued": [0, 0, 0, 0, 0, 0, 0, 0, 0, 0, 0, 0, 0], "stateRewards": ["", -10, -10, 10, -10, 10, 10, -10, 10, 10, -10, 10, 10], "withholdReward": false, "trial_id": "practice_1", "block": "test", "trialIndex": 0, "score": 11.25, "costs": -0.75, "simulationMode": [null, null, null], "rewards": [10, -10, 10], "path": ["0", "0", "9", "10", "12"], "rt": [6871, 272, 433], "actions": ["left", "left", "down"], "actionTimes": [8603, 9375, 10305], "queries": {"click": {"state": {"target": ["1", "6", "7"], "time": [2661, 4323, 6163]}, "edge": {"target": [], "time": []}}, "mouseover": {"state": {"target": ["0", "1", "1", "5", "6", "5", "7", "8"], "time": [2064, 2277, 2515, 3315, 4099, 5231, 5984, 6685]}, "edge": {"target": [], "time": []}}, "mouseout": {"state": {"target": ["5", "0", "1", "1", "5", "6", "5", "7", "6", "8", "8"], "time": [1446, 2203, 2311, 3131, 3832, 4966, 5750, 6484, 6601, 7583, 19263]}, "edge": {"target": [], "time": []}}}, "displayed_time": "10.81", "trialTime": 20272, "trial_type": "mouselab-mdp", "trial_index": 4, "time_elapsed": 127129, "internal_node_id": "0.0-2.0-2.0-0.0"}}, {"uniqueid": "w47082201:a36176941", "current_trial": 5, "dateTime": 1664464124159, "trialdata": {"revealed_states": [], "num_clicks_accrued": [0, 0, 0, 0, 0, 0, 0, 0, 0, 0, 0, 0, 0], "stateRewards": ["", 10, -10, -10, -10, 10, -10, 10, 10, -10, -10, 10, 10], "withholdReward": false, "trial_id": "practice_2", "block": "test", "trialIndex": 1, "score": 11, "costs": -1, "simulationMode": [null, null, null], "rewards": [10, -10, 10], "path": ["0", "0", "5", "6", "8"], "rt": [6393, 303, 131], "actions": ["right", "right", "down"], "actionTimes": [10421, 11220, 11852], "queries": {"click": {"state": {"target": ["10", "6", "2", "8"], "time": [5024, 6376, 7184, 9372]}, "edge": {"target": [], "time": []}}, "mouseover": {"state": {"target": ["1", "10", "9", "0", "5", "6", "6", "4", "2", "3", "8"], "time": [4496, 4894, 5344, 5394, 5444, 5711, 6095, 6812, 6997, 7363, 9231]}, "edge": {"target": [], "time": []}}, "mouseout": {"state": {"target": ["2", "1", "0", "1", "10", "9", "0", "5", "6", "6", "4", "2", "3", "6", "8"], "time": [1958, 3175, 4329, 4579, 5327, 5377, 5411, 5477, 5780, 6731, 6965, 7346, 7380, 8983, 9548]}, "edge": {"target": [], "time": []}}}, "displayed_time": "12.36", "trialTime": 15564, "trial_type": "mouselab-mdp", "trial_index": 5, "time_elapsed": 142726, "internal_node_id": "0.0-2.0-2.0-1.0"}}, {"uniqueid": "w47082201:a36176941", "current_trial": 6, "dateTime": 1664464157662, "trialdata": {"view_history": [{"page_index": 0, "viewing_time": 19482}, {"page_index": 1, "viewing_time": 8688}, {"page_index": 2, "viewing_time": 5328}], "rt": 33498, "trial_id": "mouselab_instructions_2_scarce", "trial_type": "instructions", "trial_index": 6, "time_elapsed": 176229, "internal_node_id": "0.0-2.0-3.0"}}, {"uniqueid": "w47082201:a36176941", "current_trial": 7, "dateTime": 1664464193229, "trialdata": {"rt": 35566, "response": {"Q0": "$-48 to $48", "Q1": "The cost is always $0.25.", "Q2": "The better I perform the higher my bonus will be.", "Q3": "No, the amount of cash at each node of the web may be different each time.", "Q4": "The values of the nodes walked through from start to finish.", "Q5": "Yes."}, "question_order": [0, 1, 2, 3, 4, 5], "correct": {"Q0": "$-48 to $48", "Q1": "The cost is always $0.25.", "Q2": "The better I perform the higher my bonus will be.", "Q3": "No, the amount of cash at each node of the web may be different each time.", "Q4": "The values of the nodes walked through from start to finish.", "Q5": "No, the spider might forget to count the money on some rounds."}, "trial_id": "mouselab_quiz_scarce", "trial_type": "survey-multi-choice", "trial_index": 7, "time_elapsed": 211796, "internal_node_id": "0.0-2.0-4.0"}}, {"uniqueid": "w47082201:a36176941", "current_trial": 8, "dateTime": 1664464212030, "trialdata": {"success": true, "trial_type": "fullscreen", "trial_index": 8, "time_elapsed": 230596, "internal_node_id": "0.0-2.1-0.1"}}, {"uniqueid": "w47082201:a36176941", "current_trial": 9, "dateTime": 1664464239107, "trialdata": {"view_history": [{"page_index": 0, "viewing_time": 14820}, {"page_index": 1, "viewing_time": 4936}, {"page_index": 2, "viewing_time": 3560}, {"page_index": 3, "viewing_time": 2152}, {"page_index": 4, "viewing_time": 1608}], "rt": 27076, "trial_id": "mouselab_instructions_1", "trial_type": "instructions", "trial_index": 9, "time_elapsed": 257674, "internal_node_id": "0.0-2.1-1.1"}}, {"uniqueid": "w47082201:a36176941", "current_trial": 10, "dateTime": 1664464248636, "trialdata": {"revealed_states": [], "num_clicks_accrued": [0, 0, 0, 0, 0, 0, 0, 0, 0, 0, 0, 0, 0], "stateRewards": ["", -10, -10, 10, -10, 10, 10, -10, 10, 10, -10, 10, 10], "withholdReward": false, "trial_id": "practice_1", "block": "test", "trialIndex": 2, "score": -28, "costs": 0, "simulationMode": [null, null, null], "rewards": [-10, -10, -10], "path": ["0", "0", "1", "2", "4"], "rt": [1050, 2124, 417], "actions": ["up", "up", "left"], "actionTimes": [3102, 5726, 6637], "queries": {"click": {"state": {"target": [], "time": []}, "edge": {"target": [], "time": []}}, "mouseover": {"state": {"target": [], "time": []}, "edge": {"target": [], "time": []}}, "mouseout": {"state": {"target": ["5", "0", "1", "2", "1", "1"], "time": [310, 3315, 4083, 4514, 4748, 5431]}, "edge": {"target": [], "time": []}}}, "displayed_time": "7.14", "trialTime": 9502, "trial_type": "mouselab-mdp", "trial_index": 10, "time_elapsed": 267203, "internal_node_id": "0.0-2.1-2.1-0.1"}}, {"uniqueid": "w47082201:a36176941", "current_trial": 11, "dateTime": 1664464256020, "trialdata": {"revealed_states": [], "num_clicks_accrued": [0, 0, 0, 0, 0, 0, 0, 0, 0, 0, 0, 0, 0], "stateRewards": ["", 10, -10, -10, -10, 10, -10, 10, 10, -10, -10, 10, 10], "withholdReward": false, "trial_id": "practice_2", "block": "test", "trialIndex": 3, "score": -8, "costs": 0, "simulationMode": [null, null, null], "rewards": [-10, -10, 10], "path": ["0", "0", "9", "10", "12"], "rt": [863, 340, 1041], "actions": ["left", "left", "down"], "actionTimes": [2994, 3827, 5361], "queries": {"click": {"state": {"target": [], "time": []}, "edge": {"target": [], "time": []}}, "mouseover": {"state": {"target": [], "time": []}, "edge": {"target": [], "time": []}}, "mouseout": {"state": {"target": ["0"], "time": [6671]}, "edge": {"target": [], "time": []}}}, "displayed_time": "5.86", "trialTime": 7361, "trial_type": "mouselab-mdp", "trial_index": 11, "time_elapsed": 274587, "internal_node_id": "0.0-2.1-2.1-1.1"}}, {"uniqueid": "w47082201:a36176941", "current_trial": 12, "dateTime": 1664464280235, "trialdata": {"view_history": [{"page_index": 0, "viewing_time": 17442}, {"page_index": 1, "viewing_time": 4888}, {"page_index": 2, "viewing_time": 1880}], "rt": 24211, "trial_id": "mouselab_instructions_2_scarce", "trial_type": "instructions", "trial_index": 12, "time_elapsed": 298802, "internal_node_id": "0.0-2.1-3.1"}}, {"uniqueid": "w47082201:a36176941", "current_trial": 13, "dateTime": 1664464324466, "trialdata": {"rt": 44231, "response": {"Q0": "$-48 to $48", "Q1": "The cost is always $0.25.", "Q2": "The better I perform the higher my bonus will be.", "Q3": "No, the amount of cash at each node of the web may be different each time.", "Q4": "The values of the nodes walked through from start to finish.", "Q5": "No, the spider might forget to count the money on some rounds."}, "question_order": [0, 1, 2, 3, 4, 5], "correct": {"Q0": "$-48 to $48", "Q1": "The cost is always $0.25.", "Q2": "The better I perform the higher my bonus will be.", "Q3": "No, the amount of cash at each node of the web may be different each time.", "Q4": "The values of the nodes walked through from start to finish.", "Q5": "No, the spider might forget to count the money on some rounds."}, "trial_id": "mouselab_quiz_scarce", "trial_type": "survey-multi-choice", "trial_index": 13, "time_elapsed": 343032, "internal_node_id": "0.0-2.1-4.1"}}, {"uniqueid": "w47082201:a36176941", "current_trial": 14, "dateTime": 1664464326466, "trialdata": {"rt": 1995, "stimulus": "\n<h1> Get ready to start the game! </h1>\n\nThank you for reading the instructions. Get ready start with the first of 4 block(s) of this game.\n<br><br>\nIn this first block, you will complete 30 rounds of this game before moving on.\n<br><br>\nRemember, the more money the spider gets, the bigger your bonus will be!\n<br><br>\n<div style='text-align: center;'>Press <code>space</code> to begin.</div>\n\n<br><br>\n(If, at any point, the <code>space</code> key does not take you to the next page, click once on the text and try again.)", "response": " ", "trial_id": "mdp_ready_1", "trial_type": "html-keyboard-response", "trial_index": 14, "time_elapsed": 345033, "internal_node_id": "0.0-4.0-0.0"}}, {"uniqueid": "w47082201:a36176941", "current_trial": 15, "dateTime": 1664464338619, "trialdata": {"revealed_states": [], "num_clicks_accrued": [0, 0, 0, 0, 0, 0, 0, 0, 0, 0, 0, 0, 0], "stateRewards": ["", -4, 4, -24, 48, -2, 8, -48, 24, 2, 4, 48, -48], "withholdReward": true, "trial_id": "mdp_366632183904", "block": "test1", "trialIndex": 4, "score": -37.5, "costs": -0.5, "simulationMode": [null, null, null], "rewards": [-2, 8, -48], "path": ["0", "0", "5", "6", "7"], "rt": [3414, 353, 110], "actions": ["right", "right", "up"], "actionTimes": [4896, 5745, 6352], "queries": {"click": {"state": {"target": ["10", "6"], "time": [2597, 3421]}, "edge": {"target": [], "time": []}}, "mouseover": {"state": {"target": ["11", "10", "9", "0", "5", "6", "5"], "time": [2267, 2401, 2851, 2934, 3020, 3287, 3919]}, "edge": {"target": [], "time": []}}, "mouseout": {"state": {"target": ["5", "0", "11", "10", "9", "0", "5", "6", "5", "6"], "time": [899, 2003, 2384, 2818, 2902, 3004, 3102, 3688, 4221, 4269]}, "edge": {"target": [], "time": []}}}, "displayed_time": "9.48", "trialTime": 12121, "trial_type": "mouselab-mdp", "trial_index": 15, "time_elapsed": 357185, "internal_node_id": "0.0-4.0-1.0-0.0"}}, {"uniqueid": "w47082201:a36176941", "current_trial": 16, "dateTime": 1664464352527, "trialdata": {"revealed_states": [], "num_clicks_accrued": [0, 0, 0, 0, 0, 0, 0, 0, 0, 0, 0, 0, 0], "stateRewards": ["", -4, -4, -24, 24, 4, 4, -24, -24, -4, 4, 24, 24], "withholdReward": false, "trial_id": "mdp_787781487383", "block": "test1", "trialIndex": 5, "score": -27, "costs": 0, "simulationMode": [null, null, null], "rewards": [-4, -4, -24], "path": ["0", "0", "1", "2", "3"], "rt": [834, 468, 27], "actions": ["up", "up", "right"], "actionTimes": [4056, 5022, 5551], "queries": {"click": {"state": {"target": [], "time": []}, "edge": {"target": [], "time": []}}, "mouseover": {"state": {"target": [], "time": []}, "edge": {"target": [], "time": []}}, "mouseout": {"state": {"target": ["0", "5"], "time": [2753, 13663]}, "edge": {"target": [], "time": []}}}, "displayed_time": "12.22", "trialTime": 13885, "trial_type": "mouselab-mdp", "trial_index": 16, "time_elapsed": 371094, "internal_node_id": "0.0-4.0-1.0-1.0"}}, {"uniqueid": "w47082201:a36176941", "current_trial": 17, "dateTime": 1664464363088, "trialdata": {"revealed_states": [], "num_clicks_accrued": [0, 0, 0, 0, 0, 0, 0, 0, 0, 0, 0, 0, 0], "stateRewards": ["", 2, -8, -24, 48, -4, -8, 24, -48, 4, -8, -24, -24], "withholdReward": true, "trial_id": "mdp_928911266656", "block": "test1", "trialIndex": 6, "score": -23.75, "costs": -0.75, "simulationMode": [null, null, null], "rewards": [4, -8, -24], "path": ["0", "0", "9", "10", "11"], "rt": [4049, 248, 149], "actions": ["left", "left", "up"], "actionTimes": [5218, 5970, 6618], "queries": {"click": {"state": {"target": ["9", "2", "6"], "time": [2255, 3246, 4151]}, "edge": {"target": [], "time": []}}, "mouseover": {"state": {"target": ["9", "2", "2", "6", "5", "0"], "time": [1614, 2718, 3134, 4035, 4483, 4552]}, "edge": {"target": [], "time": []}}, "mouseout": {"state": {"target": ["0", "9", "2", "2", "6", "5", "0", "9"], "time": [1583, 2601, 2751, 3568, 4436, 4534, 4603, 4771]}, "edge": {"target": [], "time": []}}}, "displayed_time": "9.17", "trialTime": 10531, "trial_type": "mouselab-mdp", "trial_index": 17, "time_elapsed": 381655, "internal_node_id": "0.0-4.0-1.0-2.0"}}, {"uniqueid": "w47082201:a36176941", "current_trial": 18, "dateTime": 1664464375464, "trialdata": {"revealed_states": [], "num_clicks_accrued": [0, 0, 0, 0, 0, 0, 0, 0, 0, 0, 0, 0, 0], "stateRewards": ["", -2, 8, 48, 24, 2, -8, -24, -48, -4, 8, -48, 24], "withholdReward": true, "trial_id": "mdp_224053025943", "block": "test1", "trialIndex": 7, "score": 58.25, "costs": -0.75, "simulationMode": [null, null, null], "rewards": [-2, 8, 48], "path": ["0", "0", "1", "2", "3"], "rt": [4914, 257, 343], "actions": ["up", "up", "right"], "actionTimes": [6242, 6994, 7834], "queries": {"click": {"state": {"target": ["11", "3", "4"], "time": [2470, 3654, 5054]}, "edge": {"target": [], "time": []}}, "mouseover": {"state": {"target": ["9", "10", "11", "7", "3", "3", "6", "1", "4", "1", "6"], "time": [1700, 1731, 2267, 3102, 3336, 3477, 4174, 4570, 4870, 5368, 5518]}, "edge": {"target": [], "time": []}}, "mouseout": {"state": {"target": ["3", "5", "0", "9", "10", "11", "7", "3", "3", "6", "1", "4", "1", "6", "3", "1"], "time": [814, 1082, 1681, 1715, 1764, 2801, 3133, 3366, 3902, 4401, 4601, 5318, 5418, 5572, 11426, 11458]}, "edge": {"target": [], "time": []}}}, "displayed_time": "10.33", "trialTime": 12346, "trial_type": "mouselab-mdp", "trial_index": 18, "time_elapsed": 394031, "internal_node_id": "0.0-4.0-1.0-3.0"}}, {"uniqueid": "w47082201:a36176941", "current_trial": 19, "dateTime": 1664464388376, "trialdata": {"revealed_states": [], "num_clicks_accrued": [0, 0, 0, 0, 0, 0, 0, 0, 0, 0, 0, 0, 0], "stateRewards": ["", 2, -8, 24, -48, 2, 4, 48, -48, -2, -8, -48, 48], "withholdReward": true, "trial_id": "mdp_629420544881", "block": "test1", "trialIndex": 8, "score": 58.25, "costs": -0.75, "simulationMode": [null, null, null], "rewards": [2, 4, 48], "path": ["0", "0", "5", "6", "7"], "rt": [3832, 281, 457], "actions": ["right", "right", "up"], "actionTimes": [5706, 6490, 7450], "queries": {"click": {"state": {"target": ["5", "4", "7"], "time": [2460, 3543, 4590]}, "edge": {"target": [], "time": []}}, "mouseover": {"state": {"target": ["5", "6", "7", "4", "1", "7", "6", "8"], "time": [2385, 2768, 3119, 3286, 3836, 4389, 4854, 4971]}, "edge": {"target": [], "time": []}}, "mouseout": {"state": {"target": ["0", "0", "5", "6", "7", "4", "1", "7", "6", "8"], "time": [1252, 1753, 2719, 3071, 3221, 3770, 3853, 4806, 4940, 4988]}, "edge": {"target": [], "time": []}}}, "displayed_time": "11.88", "trialTime": 12883, "trial_type": "mouselab-mdp", "trial_index": 19, "time_elapsed": 406943, "internal_node_id": "0.0-4.0-1.0-4.0"}}, {"uniqueid": "w47082201:a36176941", "current_trial": 20, "dateTime": 1664464400600, "trialdata": {"revealed_states": [], "num_clicks_accrued": [0, 0, 0, 0, 0, 0, 0, 0, 0, 0, 0, 0, 0], "stateRewards": ["", -2, -8, -24, 24, -2, -8, -48, 24, -2, -8, 24, 24], "withholdReward": false, "trial_id": "mdp_336617436097", "block": "test1", "trialIndex": 9, "score": 18.25, "costs": -0.75, "simulationMode": [null, null, null], "rewards": [-2, -8, 24], "path": ["0", "0", "5", "6", "8"], "rt": [4409, 771, 411], "actions": ["right", "right", "down"], "actionTimes": [6409, 7681, 8585], "queries": {"click": {"state": {"target": ["12", "8", "2"], "time": [2502, 3283, 4301]}, "edge": {"target": [], "time": []}}, "mouseover": {"state": {"target": ["0", "12", "8", "2", "7"], "time": [2002, 2385, 3188, 4153, 4921]}, "edge": {"target": [], "time": []}}, "mouseout": {"state": {"target": ["0", "0", "12", "8", "2", "7", "9"], "time": [1435, 2301, 2754, 3502, 4771, 4937, 11613]}, "edge": {"target": [], "time": []}}}, "displayed_time": "11.00", "trialTime": 12193, "trial_type": "mouselab-mdp", "trial_index": 20, "time_elapsed": 419167, "internal_node_id": "0.0-4.0-1.0-5.0"}}, {"uniqueid": "w47082201:a36176941", "current_trial": 21, "dateTime": 1664464412279, "trialdata": {"revealed_states": [], "num_clicks_accrued": [0, 0, 0, 0, 0, 0, 0, 0, 0, 0, 0, 0, 0], "stateRewards": ["", -4, -8, -24, -48, -2, -8, 24, -48, -4, -8, 24, -48], "withholdReward": true, "trial_id": "mdp_621812384092", "block": "test1", "trialIndex": 10, "score": 18.25, "costs": -0.75, "simulationMode": [null, null, null], "rewards": [-2, -8, 24], "path": ["0", "0", "5", "6", "7"], "rt": [4978, 738, 305], "actions": ["right", "right", "up"], "actionTimes": [7832, 9072, 9872], "queries": {"click": {"state": {"target": ["10", "5", "1"], "time": [4532, 5596, 6694]}, "edge": {"target": [], "time": []}}, "mouseover": {"state": {"target": ["9", "10", "10", "9", "0", "5", "0", "11", "4", "2", "1", "7"], "time": [3409, 3940, 4326, 4927, 4994, 5477, 5959, 6009, 6360, 6512, 6576, 7027]}, "edge": {"target": [], "time": []}}, "mouseout": {"state": {"target": ["0", "0", "9", "10", "10", "9", "0", "5", "0", "11", "4", "2", "1", "7"], "time": [1773, 2340, 3440, 4009, 4908, 4958, 5077, 5942, 5976, 6059, 6412, 6529, 6979, 7045]}, "edge": {"target": [], "time": []}}}, "displayed_time": "10.85", "trialTime": 11647, "trial_type": "mouselab-mdp", "trial_index": 21, "time_elapsed": 430845, "internal_node_id": "0.0-4.0-1.0-6.0"}}, {"uniqueid": "w47082201:a36176941", "current_trial": 22, "dateTime": 1664464422768, "trialdata": {"revealed_states": [], "num_clicks_accrued": [0, 0, 0, 0, 0, 0, 0, 0, 0, 0, 0, 0, 0], "stateRewards": ["", -2, 8, -48, 48, -4, -8, 24, 24, -2, -4, 48, -48], "withholdReward": true, "trial_id": "mdp_867247318592", "block": "test1", "trialIndex": 11, "score": 58.25, "costs": -0.75, "simulationMode": [null, null, null], "rewards": [-2, 8, 48], "path": ["0", "0", "1", "2", "4"], "rt": [4083, 231, 57], "actions": ["up", "up", "left"], "actionTimes": [5358, 6087, 6631], "queries": {"click": {"state": {"target": ["5", "12", "4"], "time": [2138, 2931, 3986]}, "edge": {"target": [], "time": []}}, "mouseover": {"state": {"target": ["5", "5", "12", "12", "9", "4", "2", "3"], "time": [1671, 2052, 2471, 2820, 3256, 3570, 4354, 4388]}, "edge": {"target": [], "time": []}}, "mouseout": {"state": {"target": ["4", "5", "5", "12", "12", "9", "4", "2", "3"], "time": [852, 1718, 2388, 2486, 3153, 3289, 4340, 4371, 4404]}, "edge": {"target": [], "time": []}}}, "displayed_time": "9.28", "trialTime": 10456, "trial_type": "mouselab-mdp", "trial_index": 22, "time_elapsed": 441335, "internal_node_id": "0.0-4.0-1.0-7.0"}}, {"uniqueid": "w47082201:a36176941", "current_trial": 23, "dateTime": 1664464434823, "trialdata": {"revealed_states": [], "num_clicks_accrued": [0, 0, 0, 0, 0, 0, 0, 0, 0, 0, 0, 0, 0], "stateRewards": ["", -2, -4, -48, 48, -2, -4, 24, 48, -4, -8, -24, 24], "withholdReward": false, "trial_id": "mdp_917590390609", "block": "test1", "trialIndex": 12, "score": 46.25, "costs": -0.75, "simulationMode": [null, null, null], "rewards": [-2, -4, 48], "path": ["0", "0", "5", "6", "8"], "rt": [5171, 218, 405], "actions": ["right", "right", "down"], "actionTimes": [6871, 7583, 8487], "queries": {"click": {"state": {"target": ["11", "3", "8"], "time": [3210, 4530, 5682]}, "edge": {"target": [], "time": []}}, "mouseover": {"state": {"target": ["9", "11", "9", "5", "7", "3", "1", "1", "8", "9"], "time": [2649, 3094, 3495, 3593, 4145, 4412, 4980, 5129, 5564, 6229]}, "edge": {"target": [], "time": []}}, "mouseout": {"state": {"target": ["0", "0", "9", "11", "9", "5", "7", "3", "1", "1", "8", "9"], "time": [1307, 2041, 2928, 3427, 3526, 3626, 4160, 4827, 4994, 5144, 5895, 6279]}, "edge": {"target": [], "time": []}}}, "displayed_time": "10.70", "trialTime": 12023, "trial_type": "mouselab-mdp", "trial_index": 23, "time_elapsed": 453389, "internal_node_id": "0.0-4.0-1.0-8.0"}}, {"uniqueid": "w47082201:a36176941", "current_trial": 24, "dateTime": 1664464444959, "trialdata": {"revealed_states": [], "num_clicks_accrued": [0, 0, 0, 0, 0, 0, 0, 0, 0, 0, 0, 0, 0], "stateRewards": ["", -4, 8, 24, -24, -2, 4, -24, 48, -2, 8, -48, -24], "withholdReward": true, "trial_id": "mdp_799359103169", "block": "test1", "trialIndex": 13, "score": 54.25, "costs": -0.75, "simulationMode": [null, null, null], "rewards": [-2, 4, 48], "path": ["0", "0", "5", "6", "8"], "rt": [3864, 141, 343], "actions": ["right", "right", "down"], "actionTimes": [4944, 5576, 6416], "queries": {"click": {"state": {"target": ["1", "10", "8"], "time": [2155, 3139, 3963]}, "edge": {"target": [], "time": []}}, "mouseover": {"state": {"target": ["1", "1", "5", "0", "10", "5", "6", "8"], "time": [1667, 2050, 2565, 2599, 3035, 3552, 3583, 3833]}, "edge": {"target": [], "time": []}}, "mouseout": {"state": {"target": ["0", "1", "1", "5", "0", "10", "5", "6", "8"], "time": [802, 1714, 2434, 2582, 2616, 3366, 3566, 3802, 4219]}, "edge": {"target": [], "time": []}}}, "displayed_time": "9.08", "trialTime": 10104, "trial_type": "mouselab-mdp", "trial_index": 24, "time_elapsed": 463525, "internal_node_id": "0.0-4.0-1.0-9.0"}}, {"uniqueid": "w47082201:a36176941", "current_trial": 25, "dateTime": 1664464455999, "trialdata": {"revealed_states": [], "num_clicks_accrued": [0, 0, 0, 0, 0, 0, 0, 0, 0, 0, 0, 0, 0], "stateRewards": ["", -4, -4, -24, 48, -4, -8, -24, 48, 2, 4, 48, 48], "withholdReward": true, "trial_id": "mdp_810954007398", "block": "test1", "trialIndex": 14, "score": 58.25, "costs": -0.75, "simulationMode": [null, null, null], "rewards": [2, 4, 48], "path": ["0", "0", "9", "10", "11"], "rt": [4244, 247, 149], "actions": ["left", "left", "up"], "actionTimes": [5305, 6041, 6681], "queries": {"click": {"state": {"target": ["2", "6", "11"], "time": [1665, 2628, 4277]}, "edge": {"target": [], "time": []}}, "mouseover": {"state": {"target": ["2", "6", "10", "10", "9", "11", "10", "9", "0", "5", "5"], "time": [1442, 2476, 3377, 3611, 3675, 4161, 4559, 4659, 4726, 4777, 4927]}, "edge": {"target": [], "time": []}}, "mouseout": {"state": {"target": ["5", "0", "2", "6", "10", "10", "9", "11", "10", "9", "0", "5"], "time": [889, 1325, 1857, 2877, 3510, 3644, 4025, 4492, 4626, 4709, 4759, 4809]}, "edge": {"target": [], "time": []}}}, "displayed_time": "10.06", "trialTime": 11009, "trial_type": "mouselab-mdp", "trial_index": 25, "time_elapsed": 474566, "internal_node_id": "0.0-4.0-1.0-10.0"}}, {"uniqueid": "w47082201:a36176941", "current_trial": 26, "dateTime": 1664464466999, "trialdata": {"revealed_states": [], "num_clicks_accrued": [0, 0, 0, 0, 0, 0, 0, 0, 0, 0, 0, 0, 0], "stateRewards": ["", 4, -8, 24, 48, 2, -4, 48, 48, 4, -8, 48, 48], "withholdReward": true, "trial_id": "mdp_962498334245", "block": "test1", "trialIndex": 15, "score": 50.25, "costs": -0.75, "simulationMode": [null, null, null], "rewards": [2, -4, 48], "path": ["0", "0", "5", "6", "8"], "rt": [4809, 229, 259], "actions": ["right", "right", "down"], "actionTimes": [5910, 6630, 7390], "queries": {"click": {"state": {"target": ["2", "5", "10"], "time": [1874, 2723, 3529]}, "edge": {"target": [], "time": []}}, "mouseover": {"state": {"target": ["1", "2", "1", "5", "0", "10", "12", "12", "12", "0", "6"], "time": [1507, 1641, 2191, 2611, 3009, 3428, 3793, 4029, 4162, 4243, 4329]}, "edge": {"target": [], "time": []}}, "mouseout": {"state": {"target": ["5", "1", "2", "1", "5", "5", "0", "10", "12", "12", "12", "0", "5", "6"], "time": [875, 1576, 2144, 2294, 2800, 2992, 3042, 3743, 3810, 4077, 4196, 4260, 4296, 4613]}, "edge": {"target": [], "time": []}}}, "displayed_time": "10.10", "trialTime": 10967, "trial_type": "mouselab-mdp", "trial_index": 26, "time_elapsed": 485566, "internal_node_id": "0.0-4.0-1.0-11.0"}}, {"uniqueid": "w47082201:a36176941", "current_trial": 27, "dateTime": 1664464479797, "trialdata": {"revealed_states": [], "num_clicks_accrued": [0, 0, 0, 0, 0, 0, 0, 0, 0, 0, 0, 0, 0], "stateRewards": ["", -4, -4, 48, 24, -4, -4, -24, -48, -4, 4, 48, -24], "withholdReward": true, "trial_id": "mdp_896503755738", "block": "test1", "trialIndex": 16, "score": -19.75, "costs": -0.75, "simulationMode": [null, null, null], "rewards": [-4, 4, -24], "path": ["0", "0", "9", "10", "12"], "rt": [4783, 252, 254], "actions": ["left", "left", "down"], "actionTimes": [6846, 7598, 8350], "queries": {"click": {"state": {"target": ["1", "10", "6"], "time": [2860, 3483, 5449]}, "edge": {"target": [], "time": []}}, "mouseover": {"state": {"target": ["1", "1", "9", "10", "2", "3", "6", "6", "5", "2"], "time": [2374, 2774, 3242, 3358, 3906, 4023, 4957, 5289, 6360, 6440]}, "edge": {"target": [], "time": []}}, "mouseout": {"state": {"target": ["1", "1", "9", "10", "2", "3", "6", "6", "5", "2", "4"], "time": [2422, 3122, 3256, 3725, 3973, 4540, 5041, 5622, 6425, 6456, 12229]}, "edge": {"target": [], "time": []}}}, "displayed_time": "11.06", "trialTime": 12767, "trial_type": "mouselab-mdp", "trial_index": 27, "time_elapsed": 498364, "internal_node_id": "0.0-4.0-1.0-12.0"}}, {"uniqueid": "w47082201:a36176941", "current_trial": 28, "dateTime": 1664464489131, "trialdata": {"revealed_states": [], "num_clicks_accrued": [0, 0, 0, 0, 0, 0, 0, 0, 0, 0, 0, 0, 0], "stateRewards": ["", 4, 8, -24, 48, -2, -4, 24, -24, -2, 4, 24, 24], "withholdReward": false, "trial_id": "mdp_948713805479", "block": "test1", "trialIndex": 17, "score": 30.25, "costs": -0.75, "simulationMode": [null, null, null], "rewards": [-2, 4, 24], "path": ["0", "0", "9", "10", "12"], "rt": [3417, 513, 593], "actions": ["left", "left", "down"], "actionTimes": [4367, 5367, 6447], "queries": {"click": {"state": {"target": ["2", "10", "5"], "time": [1594, 2514, 3188]}, "edge": {"target": [], "time": []}}, "mouseover": {"state": {"target": ["1", "2", "1", "0", "10", "9", "0", "5"], "time": [1267, 1501, 1949, 2016, 2399, 2802, 2869, 2918]}, "edge": {"target": [], "time": []}}, "mouseout": {"state": {"target": ["0", "1", "2", "1", "0", "10", "9", "0", "5"], "time": [848, 1315, 1901, 1982, 2049, 2733, 2852, 2886, 3520]}, "edge": {"target": [], "time": []}}}, "displayed_time": "7.95", "trialTime": 9302, "trial_type": "mouselab-mdp", "trial_index": 28, "time_elapsed": 507698, "internal_node_id": "0.0-4.0-1.0-13.0"}}, {"uniqueid": "w47082201:a36176941", "current_trial": 29, "dateTime": 1664464510988, "trialdata": {"revealed_states": [], "num_clicks_accrued": [0, 0, 0, 0, 0, 0, 0, 0, 0, 0, 0, 0, 0], "stateRewards": ["", -4, 4, -24, 48, 2, 4, -48, 24, 4, -8, -24, 24], "withholdReward": true, "trial_id": "mdp_740130150937", "block": "test1", "trialIndex": 18, "score": -19.5, "costs": -0.5, "simulationMode": [null, null, null], "rewards": [-4, 4, -24], "path": ["0", "0", "1", "2", "3"], "rt": [4079, 183, 354], "actions": ["up", "up", "right"], "actionTimes": [5052, 5732, 6588], "queries": {"click": {"state": {"target": ["2", "6"], "time": [1575, 2799]}, "edge": {"target": [], "time": []}}, "mouseover": {"state": {"target": ["1", "2", "1", "5", "6", "8"], "time": [1262, 1327, 1830, 1894, 2695, 3115]}, "edge": {"target": [], "time": []}}, "mouseout": {"state": {"target": ["10", "10", "9", "1", "2", "1", "5", "6", "8", "5", "2"], "time": [578, 709, 744, 1293, 1795, 1844, 1945, 3030, 3312, 19898, 20215]}, "edge": {"target": [], "time": []}}}, "displayed_time": "9.97", "trialTime": 21827, "trial_type": "mouselab-mdp", "trial_index": 29, "time_elapsed": 529555, "internal_node_id": "0.0-4.0-1.0-14.0"}}, {"uniqueid": "w47082201:a36176941", "current_trial": 30, "dateTime": 1664464526468, "trialdata": {"revealed_states": [], "num_clicks_accrued": [0, 0, 0, 0, 0, 0, 0, 0, 0, 0, 0, 0, 0], "stateRewards": ["", -2, -4, -24, 24, -2, 4, -24, -24, -4, 4, 24, -24], "withholdReward": true, "trial_id": "mdp_999419261719", "block": "test1", "trialIndex": 19, "score": -17.75, "costs": -0.75, "simulationMode": [null, null, null], "rewards": [-2, 4, -24], "path": ["0", "0", "5", "6", "7"], "rt": [5837, 875, 4863], "actions": ["right", "right", "up"], "actionTimes": [6943, 8304, 13664], "queries": {"click": {"state": {"target": ["9", "2", "5"], "time": [1882, 3219, 4707]}, "edge": {"target": [], "time": []}}, "mouseover": {"state": {"target": ["9", "10", "1", "2", "2", "3", "5", "5"], "time": [1808, 2223, 2490, 2757, 3091, 3508, 4210, 4627]}, "edge": {"target": [], "time": []}}, "mouseout": {"state": {"target": ["12", "12", "0", "9", "10", "9", "1", "2", "2", "3", "5", "5"], "time": [571, 755, 1508, 2192, 2440, 2460, 2740, 2790, 3460, 3525, 4259, 6479]}, "edge": {"target": [], "time": []}}}, "displayed_time": "14.16", "trialTime": 15448, "trial_type": "mouselab-mdp", "trial_index": 30, "time_elapsed": 545035, "internal_node_id": "0.0-4.0-1.0-15.0"}}, {"uniqueid": "w47082201:a36176941", "current_trial": 31, "dateTime": 1664464541915, "trialdata": {"revealed_states": [], "num_clicks_accrued": [0, 0, 0, 0, 0, 0, 0, 0, 0, 0, 0, 0, 0], "stateRewards": ["", 4, 8, -48, 24, -2, 8, -48, -48, -4, 4, 48, -48], "withholdReward": false, "trial_id": "mdp_693807815190", "block": "test1", "trialIndex": 20, "score": -31.5, "costs": -0.5, "simulationMode": [null, null, null], "rewards": [4, 8, -48], "path": ["0", "0", "1", "2", "3"], "rt": [2895, 215, 90], "actions": ["up", "up", "right"], "actionTimes": [6686, 7398, 7989], "queries": {"click": {"state": {"target": ["9", "2"], "time": [4953, 5601]}, "edge": {"target": [], "time": []}}, "mouseover": {"state": {"target": ["9", "9", "9", "2", "2"], "time": [4163, 4444, 4826, 5243, 5462]}, "edge": {"target": [], "time": []}}, "mouseout": {"state": {"target": ["0", "9", "9", "9", "2", "2"], "time": [4146, 4177, 4509, 5212, 5276, 5910]}, "edge": {"target": [], "time": []}}}, "displayed_time": "12.79", "trialTime": 15414, "trial_type": "mouselab-mdp", "trial_index": 31, "time_elapsed": 560481, "internal_node_id": "0.0-4.0-1.0-16.0"}}, {"uniqueid": "w47082201:a36176941", "current_trial": 32, "dateTime": 1664464552427, "trialdata": {"revealed_states": [], "num_clicks_accrued": [0, 0, 0, 0, 0, 0, 0, 0, 0, 0, 0, 0, 0], "stateRewards": ["", 2, 4, -48, -48, 2, 4, 48, -24, -2, 8, 48, -48], "withholdReward": true, "trial_id": "mdp_258528916140", "block": "test1", "trialIndex": 21, "score": 57.75, "costs": -1.25, "simulationMode": [null, null, null], "rewards": [2, 4, 48], "path": ["0", "0", "5", "6", "7"], "rt": [5654, 293, 146], "actions": ["right", "right", "up"], "actionTimes": [7198, 7991, 8632], "queries": {"click": {"state": {"target": ["9", "4", "8", "12", "7"], "time": [2107, 2986, 3944, 4738, 6002]}, "edge": {"target": [], "time": []}}, "mouseover": {"state": {"target": ["9", "2", "4", "6", "8", "12", "5", "7"], "time": [1941, 2611, 2878, 3512, 3862, 4613, 5330, 5814]}, "edge": {"target": [], "time": []}}, "mouseout": {"state": {"target": ["9", "9", "0", "9", "2", "4", "6", "8", "12", "5", "7"], "time": [1125, 1309, 1910, 2427, 2711, 3243, 3595, 4279, 4928, 5395, 6229]}, "edge": {"target": [], "time": []}}}, "displayed_time": "9.54", "trialTime": 10479, "trial_type": "mouselab-mdp", "trial_index": 32, "time_elapsed": 570993, "internal_node_id": "0.0-4.0-1.0-17.0"}}, {"uniqueid": "w47082201:a36176941", "current_trial": 33, "dateTime": 1664464563315, "trialdata": {"revealed_states": [], "num_clicks_accrued": [0, 0, 0, 0, 0, 0, 0, 0, 0, 0, 0, 0, 0], "stateRewards": ["", 2, 4, 48, 48, -2, 4, 48, -24, -4, 8, -48, 48], "withholdReward": true, "trial_id": "mdp_407586865939", "block": "test1", "trialIndex": 22, "score": 58.75, "costs": -0.25, "simulationMode": [null, null, null], "rewards": [2, 4, 48], "path": ["0", "0", "1", "2", "4"], "rt": [1840, 127, 253], "actions": ["up", "up", "left"], "actionTimes": [3975, 4607, 5351], "queries": {"click": {"state": {"target": ["4"], "time": [2962]}, "edge": {"target": [], "time": []}}, "mouseover": {"state": {"target": ["4", "4", "6"], "time": [2543, 2828, 3426]}, "edge": {"target": [], "time": []}}, "mouseout": {"state": {"target": ["7", "1", "0", "0", "4", "4", "6"], "time": [840, 924, 1874, 2393, 2593, 3227, 3444]}, "edge": {"target": [], "time": []}}}, "displayed_time": "10.14", "trialTime": 10855, "trial_type": "mouselab-mdp", "trial_index": 33, "time_elapsed": 581881, "internal_node_id": "0.0-4.0-1.0-18.0"}}, {"uniqueid": "w47082201:a36176941", "current_trial": 34, "dateTime": 1664464576339, "trialdata": {"revealed_states": [], "num_clicks_accrued": [0, 0, 0, 0, 0, 0, 0, 0, 0, 0, 0, 0, 0], "stateRewards": ["", 4, 8, 24, 24, 2, -4, 48, -24, -4, 8, -24, 24], "withholdReward": false, "trial_id": "mdp_932292142091", "block": "test1", "trialIndex": 23, "score": 32.25, "costs": -0.75, "simulationMode": [null, null, null], "rewards": [-4, 8, 24], "path": ["0", "0", "9", "10", "12"], "rt": [4078, 178, 305], "actions": ["left", "left", "down"], "actionTimes": [5342, 6014, 6806], "queries": {"click": {"state": {"target": ["12", "3", "8"], "time": [2001, 3471, 4521]}, "edge": {"target": [], "time": []}}, "mouseover": {"state": {"target": ["0", "9", "12", "10", "11", "2", "3", "3", "7", "6", "8", "8"], "time": [1480, 1528, 1897, 2565, 2848, 2980, 3032, 3380, 3847, 3914, 3980, 4248]}, "edge": {"target": [], "time": []}}, "mouseout": {"state": {"target": ["6", "5", "0", "0", "9", "12", "10", "11", "2", "3", "3", "7", "6", "8", "8"], "time": [979, 1010, 1152, 1511, 1545, 2429, 2630, 2932, 3015, 3063, 3780, 3880, 3947, 4030, 4714]}, "edge": {"target": [], "time": []}}}, "displayed_time": "10.27", "trialTime": 12990, "trial_type": "mouselab-mdp", "trial_index": 34, "time_elapsed": 594906, "internal_node_id": "0.0-4.0-1.0-19.0"}}, {"uniqueid": "w47082201:a36176941", "current_trial": 35, "dateTime": 1664464588411, "trialdata": {"revealed_states": [], "num_clicks_accrued": [0, 0, 0, 0, 0, 0, 0, 0, 0, 0, 0, 0, 0], "stateRewards": ["", -2, 4, 24, 48, 2, 4, -48, -48, 2, 8, 48, -48], "withholdReward": false, "trial_id": "mdp_409609775558", "block": "test1", "trialIndex": 24, "score": 62.25, "costs": -0.75, "simulationMode": [null, null, null], "rewards": [2, 8, 48], "path": ["0", "0", "9", "10", "11"], "rt": [3694, 203, 239], "actions": ["left", "left", "up"], "actionTimes": [5166, 5862, 6598], "queries": {"click": {"state": {"target": ["2", "10", "6"], "time": [2478, 3054, 4225]}, "edge": {"target": [], "time": []}}, "mouseover": {"state": {"target": ["1", "2", "2", "11", "10", "5", "6", "6", "8", "7"], "time": [1767, 1802, 2105, 2720, 3016, 3538, 3755, 4119, 4588, 4825]}, "edge": {"target": [], "time": []}}, "mouseout": {"state": {"target": ["6", "6", "2", "1", "1", "2", "2", "11", "10", "5", "6", "6", "8", "6", "7"], "time": [718, 766, 1101, 1317, 1784, 1818, 2651, 2737, 3321, 3721, 3802, 4522, 4789, 4823, 4839]}, "edge": {"target": [], "time": []}}}, "displayed_time": "9.47", "trialTime": 12038, "trial_type": "mouselab-mdp", "trial_index": 35, "time_elapsed": 606977, "internal_node_id": "0.0-4.0-1.0-20.0"}}, {"uniqueid": "w47082201:a36176941", "current_trial": 36, "dateTime": 1664464599137, "trialdata": {"revealed_states": [], "num_clicks_accrued": [0, 0, 0, 0, 0, 0, 0, 0, 0, 0, 0, 0, 0], "stateRewards": ["", -4, 4, 48, 24, -4, 4, -24, 48, -2, -8, 24, -48], "withholdReward": true, "trial_id": "mdp_261501605436", "block": "test1", "trialIndex": 25, "score": 52.75, "costs": -0.25, "simulationMode": [null, null, null], "rewards": [-4, 4, 48], "path": ["0", "0", "1", "2", "3"], "rt": [2719, 221, 237], "actions": ["up", "up", "right"], "actionTimes": [4460, 5180, 5916], "queries": {"click": {"state": {"target": ["3"], "time": [3192]}, "edge": {"target": [], "time": []}}, "mouseover": {"state": {"target": ["1", "2", "3", "1", "8"], "time": [2310, 2456, 3126, 3526, 3876]}, "edge": {"target": [], "time": []}}, "mouseout": {"state": {"target": ["3", "5", "0", "1", "2", "3", "1", "8"], "time": [808, 839, 1486, 2439, 2473, 3407, 3543, 3891]}, "edge": {"target": [], "time": []}}}, "displayed_time": "9.74", "trialTime": 10692, "trial_type": "mouselab-mdp", "trial_index": 36, "time_elapsed": 617704, "internal_node_id": "0.0-4.0-1.0-21.0"}}, {"uniqueid": "w47082201:a36176941", "current_trial": 37, "dateTime": 1664464612064, "trialdata": {"revealed_states": [], "num_clicks_accrued": [0, 0, 0, 0, 0, 0, 0, 0, 0, 0, 0, 0, 0], "stateRewards": ["", 4, 8, -24, 48, 4, -8, -48, 48, -4, 8, -24, -48], "withholdReward": true, "trial_id": "mdp_376126356841", "block": "test1", "trialIndex": 26, "score": 64.25, "costs": -0.75, "simulationMode": [null, null, null], "rewards": [4, 8, 48], "path": ["0", "0", "1", "2", "4"], "rt": [4482, 151, 76], "actions": ["up", "up", "left"], "actionTimes": [7446, 8102, 8677], "queries": {"click": {"state": {"target": ["6", "11", "4"], "time": [3675, 4937, 6379]}, "edge": {"target": [], "time": []}}, "mouseover": {"state": {"target": ["5", "6", "6", "10", "11", "10", "9", "2", "2", "4", "4", "1"], "time": [3261, 3311, 3458, 4262, 4810, 5177, 5677, 5745, 5978, 6011, 6233, 6681]}, "edge": {"target": [], "time": []}}, "mouseout": {"state": {"target": ["7", "5", "0", "0", "5", "6", "6", "10", "11", "10", "9", "2", "2", "4", "4", "1"], "time": [1591, 1808, 2025, 2793, 3294, 3342, 3911, 4762, 5144, 5263, 5694, 5761, 5994, 6045, 6628, 6695]}, "edge": {"target": [], "time": []}}}, "displayed_time": "10.96", "trialTime": 12894, "trial_type": "mouselab-mdp", "trial_index": 37, "time_elapsed": 630631, "internal_node_id": "0.0-4.0-1.0-22.0"}}, {"uniqueid": "w47082201:a36176941", "current_trial": 38, "dateTime": 1664464624505, "trialdata": {"revealed_states": [], "num_clicks_accrued": [0, 0, 0, 0, 0, 0, 0, 0, 0, 0, 0, 0, 0], "stateRewards": ["", 4, -8, 48, 48, 2, 4, 48, -48, 4, -4, -48, 48], "withholdReward": true, "trial_id": "mdp_519605841135", "block": "test1", "trialIndex": 27, "score": 48.75, "costs": -0.25, "simulationMode": [null, null, null], "rewards": [4, -8, 48], "path": ["0", "0", "1", "2", "4"], "rt": [1956, 123, 1202], "actions": ["up", "up", "left"], "actionTimes": [4407, 5024, 6719], "queries": {"click": {"state": {"target": ["4"], "time": [3451]}, "edge": {"target": [], "time": []}}, "mouseover": {"state": {"target": ["1", "4", "1"], "time": [2813, 3363, 3796]}, "edge": {"target": [], "time": []}}, "mouseout": {"state": {"target": ["3", "5", "0", "1", "4", "1"], "time": [1776, 2195, 2730, 2977, 3729, 3828]}, "edge": {"target": [], "time": []}}}, "displayed_time": "11.45", "trialTime": 12407, "trial_type": "mouselab-mdp", "trial_index": 38, "time_elapsed": 643072, "internal_node_id": "0.0-4.0-1.0-23.0"}}, {"uniqueid": "w47082201:a36176941", "current_trial": 39, "dateTime": 1664464635377, "trialdata": {"revealed_states": [], "num_clicks_accrued": [0, 0, 0, 0, 0, 0, 0, 0, 0, 0, 0, 0, 0], "stateRewards": ["", 2, 8, 48, -24, -4, 4, 48, 24, -2, 8, 24, 24], "withholdReward": false, "trial_id": "mdp_123436106791", "block": "test1", "trialIndex": 28, "score": 62.75, "costs": -0.25, "simulationMode": [null, null, null], "rewards": [2, 8, 48], "path": ["0", "0", "1", "2", "3"], "rt": [2143, 1037, 197], "actions": ["up", "up", "right"], "actionTimes": [3445, 4974, 5669], "queries": {"click": {"state": {"target": ["3"], "time": [1913]}, "edge": {"target": [], "time": []}}, "mouseover": {"state": {"target": ["3", "7"], "time": [1715, 2681]}, "edge": {"target": [], "time": []}}, "mouseout": {"state": {"target": ["5", "0", "3", "7"], "time": [1029, 1480, 2147, 2698]}, "edge": {"target": [], "time": []}}}, "displayed_time": "9.30", "trialTime": 10837, "trial_type": "mouselab-mdp", "trial_index": 39, "time_elapsed": 653944, "internal_node_id": "0.0-4.0-1.0-24.0"}}, {"uniqueid": "w47082201:a36176941", "current_trial": 40, "dateTime": 1664464647529, "trialdata": {"revealed_states": [], "num_clicks_accrued": [0, 0, 0, 0, 0, 0, 0, 0, 0, 0, 0, 0, 0], "stateRewards": ["", 2, -4, -48, -48, -2, -4, -24, -48, -2, 8, 24, 24], "withholdReward": true, "trial_id": "mdp_656069446729", "block": "test1", "trialIndex": 29, "score": 34.25, "costs": -0.75, "simulationMode": [null, null, null], "rewards": [-2, 8, 24], "path": ["0", "0", "9", "10", "12"], "rt": [4870, 139, 89], "actions": ["left", "left", "down"], "actionTimes": [6468, 7101, 7685], "queries": {"click": {"state": {"target": ["7", "12", "4"], "time": [2616, 3674, 5473]}, "edge": {"target": [], "time": []}}, "mouseover": {"state": {"target": ["5", "6", "7", "7", "6", "8", "12", "4", "9"], "time": [1919, 1937, 2219, 2553, 2870, 2903, 3473, 5358, 6123]}, "edge": {"target": [], "time": []}}, "mouseout": {"state": {"target": ["0", "5", "6", "7", "7", "6", "8", "12", "4"], "time": [1902, 1936, 1969, 2253, 2854, 2887, 2920, 3990, 5756]}, "edge": {"target": [], "time": []}}}, "displayed_time": "9.60", "trialTime": 12117, "trial_type": "mouselab-mdp", "trial_index": 40, "time_elapsed": 666096, "internal_node_id": "0.0-4.0-1.0-25.0"}}, {"uniqueid": "w47082201:a36176941", "current_trial": 41, "dateTime": 1664464657857, "trialdata": {"revealed_states": [], "num_clicks_accrued": [0, 0, 0, 0, 0, 0, 0, 0, 0, 0, 0, 0, 0], "stateRewards": ["", -4, -8, 24, -48, 2, 4, -48, -48, 2, -8, 24, 48], "withholdReward": true, "trial_id": "mdp_111262146724", "block": "test1", "trialIndex": 30, "score": 46.25, "costs": -0.75, "simulationMode": [null, null, null], "rewards": [2, -8, 48], "path": ["0", "0", "9", "10", "12"], "rt": [4119, 217, 84], "actions": ["left", "left", "down"], "actionTimes": [5565, 6285, 6869], "queries": {"click": {"state": {"target": ["4", "8", "11"], "time": [2233, 3416, 4625]}, "edge": {"target": [], "time": []}}, "mouseover": {"state": {"target": ["1", "4", "2", "3", "6", "8", "9", "11", "11", "11", "1"], "time": [1682, 2114, 2480, 2700, 2916, 3235, 3883, 4050, 4434, 4536, 5032]}, "edge": {"target": [], "time": []}}, "mouseout": {"state": {"target": ["9", "0", "1", "4", "2", "3", "6", "8", "9", "11", "11", "11", "1"], "time": [880, 962, 1713, 2465, 2514, 2731, 2964, 3633, 3964, 4148, 4465, 5001, 5049]}, "edge": {"target": [], "time": []}}}, "displayed_time": "9.45", "trialTime": 10293, "trial_type": "mouselab-mdp", "trial_index": 41, "time_elapsed": 676423, "internal_node_id": "0.0-4.0-1.0-26.0"}}, {"uniqueid": "w47082201:a36176941", "current_trial": 42, "dateTime": 1664464669696, "trialdata": {"revealed_states": [], "num_clicks_accrued": [0, 0, 0, 0, 0, 0, 0, 0, 0, 0, 0, 0, 0], "stateRewards": ["", -4, -4, -48, 48, -4, -8, -24, -48, -2, 8, 48, 24], "withholdReward": true, "trial_id": "mdp_365393526663", "block": "test1", "trialIndex": 31, "score": 58, "costs": -1, "simulationMode": [null, null, null], "rewards": [-2, 8, 48], "path": ["0", "0", "9", "10", "11"], "rt": [4661, 174, 307], "actions": ["left", "left", "up"], "actionTimes": [5998, 6662, 7462], "queries": {"click": {"state": {"target": ["3", "12", "7", "11"], "time": [2177, 3113, 4193, 5148]}, "edge": {"target": [], "time": []}}, "mouseover": {"state": {"target": ["3", "3", "10", "12", "8", "7", "5", "9", "10", "11"], "time": [1648, 1867, 2797, 2980, 3482, 4098, 4682, 4765, 4803, 4982]}, "edge": {"target": [], "time": []}}, "mouseout": {"state": {"target": ["5", "0", "3", "3", "10", "12", "8", "7", "5", "9", "10", "11"], "time": [1130, 1230, 1695, 2430, 2882, 3400, 3499, 4449, 4715, 4801, 4884, 5434]}, "edge": {"target": [], "time": []}}}, "displayed_time": "9.34", "trialTime": 11806, "trial_type": "mouselab-mdp", "trial_index": 42, "time_elapsed": 688262, "internal_node_id": "0.0-4.0-1.0-27.0"}}, {"uniqueid": "w47082201:a36176941", "current_trial": 43, "dateTime": 1664464678840, "trialdata": {"revealed_states": [], "num_clicks_accrued": [0, 0, 0, 0, 0, 0, 0, 0, 0, 0, 0, 0, 0], "stateRewards": ["", -2, 8, -24, 48, -4, 4, -48, 24, 4, -8, 48, -24], "withholdReward": true, "trial_id": "mdp_425320427962", "block": "test1", "trialIndex": 32, "score": -43.5, "costs": -0.5, "simulationMode": [null, null, null], "rewards": [-4, 4, -48], "path": ["0", "0", "5", "6", "7"], "rt": [3229, 419, 441], "actions": ["right", "right", "up"], "actionTimes": [4398, 5310, 6246], "queries": {"click": {"state": {"target": ["8", "10"], "time": [2127, 3457]}, "edge": {"target": [], "time": []}}, "mouseover": {"state": {"target": ["0", "8", "12", "10", "10", "9", "7"], "time": [1369, 1770, 2570, 3054, 3371, 3687, 3788]}, "edge": {"target": [], "time": []}}, "mouseout": {"state": {"target": ["7", "0", "8", "12", "10", "10", "9"], "time": [935, 1400, 2352, 2618, 3102, 3670, 3703]}, "edge": {"target": [], "time": []}}}, "displayed_time": "8.17", "trialTime": 9111, "trial_type": "mouselab-mdp", "trial_index": 43, "time_elapsed": 697407, "internal_node_id": "0.0-4.0-1.0-28.0"}}, {"uniqueid": "w47082201:a36176941", "current_trial": 44, "dateTime": 1664464691191, "trialdata": {"revealed_states": [], "num_clicks_accrued": [0, 0, 0, 0, 0, 0, 0, 0, 0, 0, 0, 0, 0], "stateRewards": ["", -4, -8, 48, 24, 4, -8, 24, -48, -2, -8, 24, -48], "withholdReward": true, "trial_id": "mdp_952038635544", "block": "test1", "trialIndex": 33, "score": 39.25, "costs": -1.75, "simulationMode": [null, null, null], "rewards": [-4, -8, 48], "path": ["0", "0", "1", "2", "3"], "rt": [7079, 123, 59], "actions": ["up", "up", "right"], "actionTimes": [8941, 9565, 10117], "queries": {"click": {"state": {"target": ["2", "12", "7", "11", "8", "4", "3"], "time": [2686, 3495, 4545, 5208, 5865, 6636, 7176]}, "edge": {"target": [], "time": []}}, "mouseover": {"state": {"target": ["1", "2", "9", "12", "6", "7", "7", "1", "11", "9", "8", "5", "1", "4", "3"], "time": [2201, 2549, 3052, 3335, 3953, 4036, 4389, 4935, 4985, 5471, 5568, 6270, 6288, 6370, 7072]}, "edge": {"target": [], "time": []}}, "mouseout": {"state": {"target": ["7", "2", "9", "12", "9", "1", "2", "9", "12", "6", "7", "7", "1", "11", "9", "8", "5", "1", "4", "2", "3"], "time": [916, 1214, 1249, 1381, 1700, 2268, 2933, 3100, 3718, 4003, 4134, 4920, 4951, 5419, 5485, 6071, 6287, 6303, 6853, 7004, 7437]}, "edge": {"target": [], "time": []}}}, "displayed_time": "10.62", "trialTime": 12317, "trial_type": "mouselab-mdp", "trial_index": 44, "time_elapsed": 709758, "internal_node_id": "0.0-4.0-1.0-29.0"}}, {"uniqueid": "w47082201:a36176941", "current_trial": 45, "dateTime": 1664464694994, "trialdata": {"rt": 3798, "stimulus": "<h1> End of block! </h1>\n\nYou have reached the end of the block 1/4. If you need a short break, feel free to take one now before moving on.\n\n<br><br>\nIn the next block, you will complete another 30 rounds of this game.\n\n<br><br>\n<div style='text-align: center;'>Press <code>space</code> to begin.</div>\n<br><br>\n<div style='text-align: center;'>(If the experiment doesn't continue, try clicking on the text and then pressing <code>space</code>.)</div>", "response": " ", "trial_id": "mdp_ready_2", "trial_type": "html-keyboard-response", "trial_index": 45, "time_elapsed": 713560, "internal_node_id": "0.0-4.0-2.0"}}, {"uniqueid": "w47082201:a36176941", "current_trial": 46, "dateTime": 1664464708399, "trialdata": {"revealed_states": [], "num_clicks_accrued": [0, 0, 0, 0, 0, 0, 0, 0, 0, 0, 0, 0, 0], "stateRewards": ["", 2, 4, 48, -48, 2, 4, 24, -24, 2, -4, -24, -48], "withholdReward": false, "trial_id": "mdp_706591889062", "block": "test2", "trialIndex": 34, "score": 57.75, "costs": -1.25, "simulationMode": [null, null, null], "rewards": [2, 4, 48], "path": ["0", "0", "1", "2", "3"], "rt": [5173, 156, 12], "actions": ["up", "up", "right"], "actionTimes": [8963, 9611, 10114], "queries": {"click": {"state": {"target": ["4", "12", "7", "8", "3"], "time": [4927, 6014, 6759, 7235, 8039]}, "edge": {"target": [], "time": []}}, "mouseover": {"state": {"target": ["1", "2", "4", "10", "12", "6", "7", "6", "8", "6", "3", "3", "2", "2"], "time": [4282, 4482, 4600, 5333, 5900, 6351, 6598, 6999, 7101, 7566, 7616, 7869, 8367, 8503]}, "edge": {"target": [], "time": []}}, "mouseout": {"state": {"target": ["6", "5", "5", "1", "2", "4", "10", "12", "6", "7", "6", "8", "6", "7", "3", "3", "2", "2", "3", "8"], "time": [2997, 3163, 3310, 4382, 4563, 5166, 5400, 6234, 6367, 6968, 7049, 7502, 7585, 7600, 7633, 8352, 8417, 8553, 8586, 12623]}, "edge": {"target": [], "time": []}}}, "displayed_time": "11.79", "trialTime": 13371, "trial_type": "mouselab-mdp", "trial_index": 46, "time_elapsed": 726966, "internal_node_id": "0.0-4.0-3.0-0.0"}}, {"uniqueid": "w47082201:a36176941", "current_trial": 47, "dateTime": 1664464719342, "trialdata": {"revealed_states": [], "num_clicks_accrued": [0, 0, 0, 0, 0, 0, 0, 0, 0, 0, 0, 0, 0], "stateRewards": ["", -4, 8, -24, -48, 2, 8, -48, -24, -2, -4, 48, -48], "withholdReward": true, "trial_id": "mdp_599927291428", "block": "test2", "trialIndex": 35, "score": 47, "costs": 0, "simulationMode": [null, null, null], "rewards": [-2, -4, 48], "path": ["0", "0", "9", "10", "11"], "rt": [1402, 636, 152], "actions": ["left", "left", "up"], "actionTimes": [3375, 4510, 5157], "queries": {"click": {"state": {"target": [], "time": []}, "edge": {"target": [], "time": []}}, "mouseover": {"state": {"target": ["9", "10", "10"], "time": [2671, 2871, 3054]}, "edge": {"target": [], "time": []}}, "mouseout": {"state": {"target": ["12", "0", "9", "10", "10", "12"], "time": [937, 2153, 2721, 3002, 3069, 6558]}, "edge": {"target": [], "time": []}}}, "displayed_time": "9.97", "trialTime": 10909, "trial_type": "mouselab-mdp", "trial_index": 47, "time_elapsed": 737909, "internal_node_id": "0.0-4.0-3.0-1.0"}}, {"uniqueid": "w47082201:a36176941", "current_trial": 48, "dateTime": 1664464730014, "trialdata": {"revealed_states": [], "num_clicks_accrued": [0, 0, 0, 0, 0, 0, 0, 0, 0, 0, 0, 0, 0], "stateRewards": ["", 2, -8, 24, 24, 2, 4, -48, -48, 4, 4, -24, 48], "withholdReward": false, "trial_id": "mdp_985707010949", "block": "test2", "trialIndex": 36, "score": -37, "costs": 0, "simulationMode": [null, null, null], "rewards": [2, 4, -48], "path": ["0", "0", "5", "6", "7"], "rt": [1490, 422, 39], "actions": ["right", "right", "up"], "actionTimes": [2798, 3710, 4245], "queries": {"click": {"state": {"target": [], "time": []}, "edge": {"target": [], "time": []}}, "mouseover": {"state": {"target": ["5"], "time": [1635]}, "edge": {"target": [], "time": []}}, "mouseout": {"state": {"target": ["0", "5", "3", "1", "9", "0"], "time": [1601, 1669, 9326, 9411, 9528, 10046]}, "edge": {"target": [], "time": []}}}, "displayed_time": "9.31", "trialTime": 10637, "trial_type": "mouselab-mdp", "trial_index": 48, "time_elapsed": 748581, "internal_node_id": "0.0-4.0-3.0-2.0"}}, {"uniqueid": "w47082201:a36176941", "current_trial": 49, "dateTime": 1664464741534, "trialdata": {"revealed_states": [], "num_clicks_accrued": [0, 0, 0, 0, 0, 0, 0, 0, 0, 0, 0, 0, 0], "stateRewards": ["", -4, 8, 24, -24, -2, 4, -24, 48, -2, 8, -48, -24], "withholdReward": false, "trial_id": "mdp_799359103169", "block": "test2", "trialIndex": 37, "score": 32.75, "costs": -0.25, "simulationMode": [null, null, null], "rewards": [-4, 8, 24], "path": ["0", "0", "1", "2", "3"], "rt": [1241, 144, 40], "actions": ["up", "up", "right"], "actionTimes": [2756, 3404, 3932], "queries": {"click": {"state": {"target": ["3"], "time": [1976]}, "edge": {"target": [], "time": []}}, "mouseover": {"state": {"target": ["1", "3", "7"], "time": [1740, 1792, 2323]}, "edge": {"target": [], "time": []}}, "mouseout": {"state": {"target": ["0", "1", "3", "7"], "time": [1340, 1757, 2273, 2357]}, "edge": {"target": [], "time": []}}}, "displayed_time": "9.52", "trialTime": 11484, "trial_type": "mouselab-mdp", "trial_index": 49, "time_elapsed": 760101, "internal_node_id": "0.0-4.0-3.0-3.0"}}, {"uniqueid": "w47082201:a36176941", "current_trial": 50, "dateTime": 1664464765470, "trialdata": {"revealed_states": [], "num_clicks_accrued": [0, 0, 0, 0, 0, 0, 0, 0, 0, 0, 0, 0, 0], "stateRewards": ["", 2, -8, -24, -48, -2, -4, 48, 48, 4, 8, 48, 48], "withholdReward": true, "trial_id": "mdp_347285045422", "block": "test2", "trialIndex": 38, "score": 46.75, "costs": -0.25, "simulationMode": [null, null, null], "rewards": [-2, -4, 48], "path": ["0", "0", "5", "6", "8"], "rt": [1964, 163, 368], "actions": ["right", "right", "down"], "actionTimes": [4319, 4982, 5838], "queries": {"click": {"state": {"target": ["8"], "time": [3082]}, "edge": {"target": [], "time": []}}, "mouseover": {"state": {"target": ["0", "8", "8"], "time": [2567, 2669, 3002]}, "edge": {"target": [], "time": []}}, "mouseout": {"state": {"target": ["0", "0", "8", "8", "8", "5", "10"], "time": [1935, 2600, 2700, 3337, 3554, 21753, 21822]}, "edge": {"target": [], "time": []}}}, "displayed_time": "11.36", "trialTime": 23902, "trial_type": "mouselab-mdp", "trial_index": 50, "time_elapsed": 784037, "internal_node_id": "0.0-4.0-3.0-4.0"}}, {"uniqueid": "w47082201:a36176941", "current_trial": 51, "dateTime": 1664464780557, "trialdata": {"revealed_states": [], "num_clicks_accrued": [0, 0, 0, 0, 0, 0, 0, 0, 0, 0, 0, 0, 0], "stateRewards": ["", 2, -4, 48, -48, -4, -8, -48, 24, -4, 4, 48, 48], "withholdReward": true, "trial_id": "mdp_544803968425", "block": "test2", "trialIndex": 39, "score": 52.5, "costs": -0.5, "simulationMode": [null, null, null], "rewards": [-4, 4, 48], "path": ["0", "0", "9", "10", "12"], "rt": [3054, 175, 379], "actions": ["left", "left", "down"], "actionTimes": [4246, 4917, 5788], "queries": {"click": {"state": {"target": ["2", "12"], "time": [2225, 3145]}, "edge": {"target": [], "time": []}}, "mouseover": {"state": {"target": ["1", "2", "2", "1", "9", "12", "10"], "time": [1505, 1553, 1824, 2590, 2706, 3073, 3471]}, "edge": {"target": [], "time": []}}, "mouseout": {"state": {"target": ["0", "1", "3", "1", "2", "2", "1", "9", "12", "10", "4"], "time": [537, 552, 835, 1536, 1586, 2520, 2637, 2771, 3421, 3674, 14349]}, "edge": {"target": [], "time": []}}}, "displayed_time": "10.19", "trialTime": 15052, "trial_type": "mouselab-mdp", "trial_index": 51, "time_elapsed": 799124, "internal_node_id": "0.0-4.0-3.0-5.0"}}, {"uniqueid": "w47082201:a36176941", "current_trial": 52, "dateTime": 1664464792613, "trialdata": {"revealed_states": [], "num_clicks_accrued": [0, 0, 0, 0, 0, 0, 0, 0, 0, 0, 0, 0, 0], "stateRewards": ["", -2, 4, -24, -24, -2, 4, 48, 24, -4, -8, 24, -48], "withholdReward": false, "trial_id": "mdp_191839460481", "block": "test2", "trialIndex": 40, "score": 54, "costs": -1, "simulationMode": [null, null, null], "rewards": [-2, 4, 48], "path": ["0", "0", "5", "6", "7"], "rt": [6029, 184, 393], "actions": ["right", "right", "up"], "actionTimes": [7356, 8036, 8932], "queries": {"click": {"state": {"target": ["8", "4", "12", "7"], "time": [2054, 3581, 4715, 6567]}, "edge": {"target": [], "time": []}}, "mouseover": {"state": {"target": ["0", "5", "6", "8", "5", "4", "2", "9", "10", "12", "9", "11", "11", "1", "7"], "time": [1631, 1662, 1696, 1915, 2649, 3431, 4000, 4334, 4567, 4682, 5001, 5418, 5688, 5835, 6501]}, "edge": {"target": [], "time": []}}, "mouseout": {"state": {"target": ["0", "0", "5", "6", "8", "8", "5", "4", "2", "9", "10", "12", "9", "11", "11", "1", "7"], "time": [1128, 1646, 1679, 1712, 2113, 2614, 2663, 3965, 4031, 4350, 4582, 4932, 5049, 5452, 5716, 5983, 6801]}, "edge": {"target": [], "time": []}}}, "displayed_time": "10.33", "trialTime": 12021, "trial_type": "mouselab-mdp", "trial_index": 52, "time_elapsed": 811180, "internal_node_id": "0.0-4.0-3.0-6.0"}}, {"uniqueid": "w47082201:a36176941", "current_trial": 53, "dateTime": 1664464804766, "trialdata": {"revealed_states": [], "num_clicks_accrued": [0, 0, 0, 0, 0, 0, 0, 0, 0, 0, 0, 0, 0], "stateRewards": ["", -4, 4, -24, 48, -2, 8, -48, 24, 2, 4, 48, -48], "withholdReward": true, "trial_id": "mdp_366632183904", "block": "test2", "trialIndex": 41, "score": 52.75, "costs": -0.25, "simulationMode": [null, null, null], "rewards": [-4, 4, 48], "path": ["0", "0", "1", "2", "4"], "rt": [1502, 152, 159], "actions": ["up", "up", "left"], "actionTimes": [3219, 3875, 4531], "queries": {"click": {"state": {"target": ["4"], "time": [2215]}, "edge": {"target": [], "time": []}}, "mouseover": {"state": {"target": ["4", "1"], "time": [2020, 2587]}, "edge": {"target": [], "time": []}}, "mouseout": {"state": {"target": ["7", "1", "4", "1"], "time": [1168, 1285, 2470, 2621]}, "edge": {"target": [], "time": []}}}, "displayed_time": "10.72", "trialTime": 12116, "trial_type": "mouselab-mdp", "trial_index": 53, "time_elapsed": 823332, "internal_node_id": "0.0-4.0-3.0-7.0"}}, {"uniqueid": "w47082201:a36176941", "current_trial": 54, "dateTime": 1664464830157, "trialdata": {"revealed_states": [], "num_clicks_accrued": [0, 0, 0, 0, 0, 0, 0, 0, 0, 0, 0, 0, 0], "stateRewards": ["", -2, 4, 24, 48, 2, 4, -48, -48, -2, 8, 48, -24], "withholdReward": true, "trial_id": "mdp_305701202606", "block": "test2", "trialIndex": 42, "score": 53.75, "costs": -1.25, "simulationMode": [null, null, null], "rewards": [-2, 4, 48], "path": ["0", "0", "1", "2", "4"], "rt": [5679, 92, 30], "actions": ["up", "up", "left"], "actionTimes": [8181, 8765, 9284], "queries": {"click": {"state": {"target": ["3", "12", "7", "8", "4"], "time": [3421, 4248, 5416, 6372, 7134]}, "edge": {"target": [], "time": []}}, "mouseover": {"state": {"target": ["1", "3", "1", "9", "12", "8", "6", "7", "7", "1", "6", "8", "1", "4", "11"], "time": [2782, 3246, 3766, 3797, 4114, 4617, 4851, 4917, 5299, 5983, 6067, 6269, 6735, 7034, 7435]}, "edge": {"target": [], "time": []}}, "mouseout": {"state": {"target": ["5", "9", "0", "1", "3", "1", "9", "12", "8", "6", "7", "7", "1", "6", "8", "1", "4", "11"], "time": [1013, 1295, 2296, 2813, 3697, 3781, 3814, 4498, 4634, 4901, 4966, 5735, 6000, 6083, 6652, 6753, 7385, 7603]}, "edge": {"target": [], "time": []}}}, "displayed_time": "11.50", "trialTime": 25357, "trial_type": "mouselab-mdp", "trial_index": 54, "time_elapsed": 848724, "internal_node_id": "0.0-4.0-3.0-8.0"}}, {"uniqueid": "w47082201:a36176941", "current_trial": 55, "dateTime": 1664464841755, "trialdata": {"revealed_states": [], "num_clicks_accrued": [0, 0, 0, 0, 0, 0, 0, 0, 0, 0, 0, 0, 0], "stateRewards": ["", 4, -8, -48, -24, 2, -8, -48, 48, -4, 8, 48, -48], "withholdReward": true, "trial_id": "mdp_605757196263", "block": "test2", "trialIndex": 43, "score": 46, "costs": -1, "simulationMode": [null, null, null], "rewards": [2, -8, 48], "path": ["0", "0", "5", "6", "8"], "rt": [4501, 173, 19], "actions": ["right", "right", "down"], "actionTimes": [6800, 7473, 7984], "queries": {"click": {"state": {"target": ["10", "3", "12", "8"], "time": [3076, 3940, 4724, 5772]}, "edge": {"target": [], "time": []}}, "mouseover": {"state": {"target": ["9", "10", "10", "11", "3", "12", "8", "8", "8", "5"], "time": [2611, 2642, 2960, 3343, 3829, 4563, 5064, 5331, 5621, 6236]}, "edge": {"target": [], "time": []}}, "mouseout": {"state": {"target": ["1", "9", "10", "10", "11", "3", "12", "8", "8", "8", "5"], "time": [2141, 2626, 2676, 3310, 3377, 4179, 4997, 5080, 5362, 6014, 10536]}, "edge": {"target": [], "time": []}}}, "displayed_time": "10.30", "trialTime": 11561, "trial_type": "mouselab-mdp", "trial_index": 55, "time_elapsed": 860322, "internal_node_id": "0.0-4.0-3.0-9.0"}}, {"uniqueid": "w47082201:a36176941", "current_trial": 56, "dateTime": 1664464854019, "trialdata": {"revealed_states": [], "num_clicks_accrued": [0, 0, 0, 0, 0, 0, 0, 0, 0, 0, 0, 0, 0], "stateRewards": ["", 4, -4, 48, 24, 2, -8, 24, -48, -2, -4, -48, -48], "withholdReward": false, "trial_id": "mdp_655302318695", "block": "test2", "trialIndex": 44, "score": 22.25, "costs": -0.75, "simulationMode": [null, null, null], "rewards": [2, -8, 24], "path": ["0", "0", "5", "6", "7"], "rt": [4541, 349, 386], "actions": ["right", "right", "up"], "actionTimes": [5413, 6261, 7149], "queries": {"click": {"state": {"target": ["4", "12", "7"], "time": [1804, 2597, 4105]}, "edge": {"target": [], "time": []}}, "mouseover": {"state": {"target": ["1", "4", "4", "9", "12", "0", "1", "11", "1", "7", "8"], "time": [1124, 1326, 1727, 2194, 2428, 2911, 3044, 3362, 3660, 3946, 4928]}, "edge": {"target": [], "time": []}}, "mouseout": {"state": {"target": ["0", "1", "4", "4", "9", "12", "0", "1", "11", "1", "7", "8", "6"], "time": [575, 1157, 1376, 2092, 2259, 2828, 2945, 3128, 3629, 3693, 4530, 5013, 10116]}, "edge": {"target": [], "time": []}}}, "displayed_time": "8.87", "trialTime": 12229, "trial_type": "mouselab-mdp", "trial_index": 56, "time_elapsed": 872586, "internal_node_id": "0.0-4.0-3.0-10.0"}}, {"uniqueid": "w47082201:a36176941", "current_trial": 57, "dateTime": 1664464880554, "trialdata": {"revealed_states": [], "num_clicks_accrued": [0, 0, 0, 0, 0, 0, 0, 0, 0, 0, 0, 0, 0], "stateRewards": ["", -4, 8, 24, -24, 4, 8, -24, -48, 2, 4, 24, -24], "withholdReward": true, "trial_id": "mdp_782187007008", "block": "test2", "trialIndex": 45, "score": 32.25, "costs": -0.75, "simulationMode": [null, null, null], "rewards": [-4, 8, 24], "path": ["0", "0", "1", "2", "3"], "rt": [4071, 337, 207], "actions": ["up", "up", "right"], "actionTimes": [4916, 5748, 6452], "queries": {"click": {"state": {"target": ["3", "11", "8"], "time": [1768, 2864, 3617]}, "edge": {"target": [], "time": []}}, "mouseover": {"state": {"target": ["1", "3", "1", "9", "10", "11", "11", "9", "8", "8", "0", "2"], "time": [1107, 1641, 2055, 2156, 2406, 2439, 2658, 3174, 3257, 3493, 4076, 4310]}, "edge": {"target": [], "time": []}}, "mouseout": {"state": {"target": ["9", "1", "3", "1", "9", "10", "11", "11", "9", "8", "8", "8", "0", "2"], "time": [506, 1305, 2006, 2108, 2239, 2422, 2456, 3123, 3190, 3290, 3876, 4026, 4092, 4427]}, "edge": {"target": [], "time": []}}}, "displayed_time": "9.85", "trialTime": 26500, "trial_type": "mouselab-mdp", "trial_index": 57, "time_elapsed": 899121, "internal_node_id": "0.0-4.0-3.0-11.0"}}, {"uniqueid": "w47082201:a36176941", "current_trial": 58, "dateTime": 1664464895337, "trialdata": {"revealed_states": [], "num_clicks_accrued": [0, 0, 0, 0, 0, 0, 0, 0, 0, 0, 0, 0, 0], "stateRewards": ["", 2, 8, 24, 24, 2, -8, -24, -48, 2, 8, -48, 48], "withholdReward": true, "trial_id": "mdp_745175888812", "block": "test2", "trialIndex": 46, "score": 62.5, "costs": -0.5, "simulationMode": [null, null, null], "rewards": [2, 8, 48], "path": ["0", "0", "9", "10", "12"], "rt": [6338, 475, 282], "actions": ["left", "left", "down"], "actionTimes": [8265, 9233, 10010], "queries": {"click": {"state": {"target": ["3", "12"], "time": [2862, 6965]}, "edge": {"target": [], "time": []}}, "mouseover": {"state": {"target": ["9", "1", "2", "3", "1", "9", "12", "12", "12"], "time": [2370, 2486, 2518, 2602, 3986, 4055, 4303, 5604, 6873]}, "edge": {"target": [], "time": []}}, "mouseout": {"state": {"target": ["9", "1", "2", "3", "1", "9", "12", "12", "12"], "time": [2401, 2501, 2551, 3438, 4003, 4072, 4372, 6322, 7406]}, "edge": {"target": [], "time": []}}}, "displayed_time": "10.51", "trialTime": 14751, "trial_type": "mouselab-mdp", "trial_index": 58, "time_elapsed": 913904, "internal_node_id": "0.0-4.0-3.0-12.0"}}, {"uniqueid": "w47082201:a36176941", "current_trial": 59, "dateTime": 1664464914233, "trialdata": {"revealed_states": [], "num_clicks_accrued": [0, 0, 0, 0, 0, 0, 0, 0, 0, 0, 0, 0, 0], "stateRewards": ["", -4, 8, 24, -48, -4, -8, -24, 24, 2, -4, -48, 24], "withholdReward": true, "trial_id": "mdp_898449441629", "block": "test2", "trialIndex": 47, "score": 32.25, "costs": -0.75, "simulationMode": [null, null, null], "rewards": [-4, 8, 24], "path": ["0", "0", "1", "2", "3"], "rt": [3821, 124, 65], "actions": ["up", "up", "right"], "actionTimes": [5159, 5792, 6350], "queries": {"click": {"state": {"target": ["11", "8", "3"], "time": [2026, 3114, 3786]}, "edge": {"target": [], "time": []}}, "mouseover": {"state": {"target": ["11", "9", "8", "8", "6", "3"], "time": [1864, 2315, 2682, 2950, 3431, 3530]}, "edge": {"target": [], "time": []}}, "mouseout": {"state": {"target": ["0", "11", "9", "8", "8", "6", "3", "8", "8"], "time": [1664, 2246, 2348, 2713, 3397, 3447, 3998, 4665, 5151]}, "edge": {"target": [], "time": []}}}, "displayed_time": "9.34", "trialTime": 18863, "trial_type": "mouselab-mdp", "trial_index": 59, "time_elapsed": 932800, "internal_node_id": "0.0-4.0-3.0-13.0"}}, {"uniqueid": "w47082201:a36176941", "current_trial": 60, "dateTime": 1664464935633, "trialdata": {"revealed_states": [], "num_clicks_accrued": [0, 0, 0, 0, 0, 0, 0, 0, 0, 0, 0, 0, 0], "stateRewards": ["", 4, -8, -48, 24, 4, 4, -24, -24, 2, 4, -48, 24], "withholdReward": true, "trial_id": "mdp_626971397185", "block": "test2", "trialIndex": 48, "score": 34.25, "costs": -0.75, "simulationMode": [null, null, null], "rewards": [2, 4, 24], "path": ["0", "0", "9", "10", "12"], "rt": [3708, 185, 4], "actions": ["left", "left", "down"], "actionTimes": [15219, 15899, 16402], "queries": {"click": {"state": {"target": ["2", "12", "7"], "time": [12214, 12862, 14062]}, "edge": {"target": [], "time": []}}, "mouseover": {"state": {"target": ["1", "2", "10", "12", "8", "7", "9", "10"], "time": [11893, 12093, 12642, 12761, 13461, 13945, 14477, 14494]}, "edge": {"target": [], "time": []}}, "mouseout": {"state": {"target": ["5", "1", "2", "10", "12", "8", "7", "9", "10", "12"], "time": [10892, 11910, 12427, 12675, 13159, 13495, 14446, 14494, 14510, 18900]}, "edge": {"target": [], "time": []}}}, "displayed_time": "20.51", "trialTime": 21363, "trial_type": "mouselab-mdp", "trial_index": 60, "time_elapsed": 954200, "internal_node_id": "0.0-4.0-3.0-14.0"}}, {"uniqueid": "w47082201:a36176941", "current_trial": 61, "dateTime": 1664464947121, "trialdata": {"revealed_states": [], "num_clicks_accrued": [0, 0, 0, 0, 0, 0, 0, 0, 0, 0, 0, 0, 0], "stateRewards": ["", 2, 4, 24, 48, -2, 8, 24, -24, -4, -4, 48, 48], "withholdReward": false, "trial_id": "mdp_753439303214", "block": "test2", "trialIndex": 49, "score": 44.5, "costs": -0.5, "simulationMode": [null, null, null], "rewards": [-4, -4, 48], "path": ["0", "0", "9", "10", "11"], "rt": [2205, 195, 438], "actions": ["left", "left", "up"], "actionTimes": [3196, 3884, 4811], "queries": {"click": {"state": {"target": ["2", "11"], "time": [1464, 2253]}, "edge": {"target": [], "time": []}}, "mouseover": {"state": {"target": ["1", "2", "11", "11", "10", "12"], "time": [1255, 1319, 1820, 2139, 2506, 2621]}, "edge": {"target": [], "time": []}}, "mouseout": {"state": {"target": ["5", "1", "2", "11", "11", "10", "12"], "time": [587, 1286, 1677, 1920, 2471, 2573, 2790]}, "edge": {"target": [], "time": []}}}, "displayed_time": "9.99", "trialTime": 11452, "trial_type": "mouselab-mdp", "trial_index": 61, "time_elapsed": 965688, "internal_node_id": "0.0-4.0-3.0-15.0"}}, {"uniqueid": "w47082201:a36176941", "current_trial": 62, "dateTime": 1664464957327, "trialdata": {"revealed_states": [], "num_clicks_accrued": [0, 0, 0, 0, 0, 0, 0, 0, 0, 0, 0, 0, 0], "stateRewards": ["", 4, -8, 48, 24, 4, -4, 48, 48, -4, 8, -48, 24], "withholdReward": true, "trial_id": "mdp_303828806348", "block": "test2", "trialIndex": 50, "score": 48.75, "costs": -0.25, "simulationMode": [null, null, null], "rewards": [4, -8, 48], "path": ["0", "0", "1", "2", "3"], "rt": [1477, 300, 990], "actions": ["up", "up", "right"], "actionTimes": [2739, 3531, 5018], "queries": {"click": {"state": {"target": ["3"], "time": [1870]}, "edge": {"target": [], "time": []}}, "mouseover": {"state": {"target": ["3", "1"], "time": [1677, 2126]}, "edge": {"target": [], "time": []}}, "mouseout": {"state": {"target": ["0", "3", "1", "0"], "time": [1143, 2078, 2178, 8684]}, "edge": {"target": [], "time": []}}}, "displayed_time": "9.26", "trialTime": 10169, "trial_type": "mouselab-mdp", "trial_index": 62, "time_elapsed": 975894, "internal_node_id": "0.0-4.0-3.0-16.0"}}, {"uniqueid": "w47082201:a36176941", "current_trial": 63, "dateTime": 1664464968656, "trialdata": {"revealed_states": [], "num_clicks_accrued": [0, 0, 0, 0, 0, 0, 0, 0, 0, 0, 0, 0, 0], "stateRewards": ["", 4, 4, 24, -24, -4, -8, 48, -24, 4, 4, 48, 24], "withholdReward": false, "trial_id": "mdp_822446942217", "block": "test2", "trialIndex": 51, "score": 60.25, "costs": -0.75, "simulationMode": [null, null, null], "rewards": [4, 4, 48], "path": ["0", "0", "9", "10", "11"], "rt": [2877, 187, 72], "actions": ["left", "left", "up"], "actionTimes": [3893, 4573, 5172], "queries": {"click": {"state": {"target": ["4", "8", "11"], "time": [1464, 2152, 3064]}, "edge": {"target": [], "time": []}}, "mouseover": {"state": {"target": ["4", "1", "5", "8", "10", "11"], "time": [1297, 1764, 1799, 1830, 2833, 2965]}, "edge": {"target": [], "time": []}}, "mouseout": {"state": {"target": ["4", "1", "5", "8", "10", "11"], "time": [1696, 1782, 1814, 2397, 2867, 3350]}, "edge": {"target": [], "time": []}}}, "displayed_time": "10.02", "trialTime": 11293, "trial_type": "mouselab-mdp", "trial_index": 63, "time_elapsed": 987223, "internal_node_id": "0.0-4.0-3.0-17.0"}}, {"uniqueid": "w47082201:a36176941", "current_trial": 64, "dateTime": 1664464979544, "trialdata": {"revealed_states": [], "num_clicks_accrued": [0, 0, 0, 0, 0, 0, 0, 0, 0, 0, 0, 0, 0], "stateRewards": ["", -4, -4, -48, 48, -4, -8, -24, -48, -2, 8, 48, 24], "withholdReward": true, "trial_id": "mdp_365393526663", "block": "test2", "trialIndex": 52, "score": 58.25, "costs": -0.75, "simulationMode": [null, null, null], "rewards": [-2, 8, 48], "path": ["0", "0", "9", "10", "11"], "rt": [4612, 241, 250], "actions": ["left", "left", "up"], "actionTimes": [6649, 7393, 8137], "queries": {"click": {"state": {"target": ["3", "12", "7"], "time": [3185, 3941, 5748]}, "edge": {"target": [], "time": []}}, "mouseover": {"state": {"target": ["1", "3", "12", "12", "11", "7"], "time": [2396, 3060, 3580, 3814, 4381, 5563]}, "edge": {"target": [], "time": []}}, "mouseout": {"state": {"target": ["5", "5", "1", "3", "12", "12", "11", "7"], "time": [742, 993, 2427, 3428, 3594, 4297, 5229, 5948]}, "edge": {"target": [], "time": []}}}, "displayed_time": "10.04", "trialTime": 10848, "trial_type": "mouselab-mdp", "trial_index": 64, "time_elapsed": 998110, "internal_node_id": "0.0-4.0-3.0-18.0"}}, {"uniqueid": "w47082201:a36176941", "current_trial": 65, "dateTime": 1664464990247, "trialdata": {"revealed_states": [], "num_clicks_accrued": [0, 0, 0, 0, 0, 0, 0, 0, 0, 0, 0, 0, 0], "stateRewards": ["", -2, 8, 48, 24, 2, -8, -24, -48, -4, 8, -48, 24], "withholdReward": true, "trial_id": "mdp_224053025943", "block": "test2", "trialIndex": 53, "score": 32.25, "costs": -0.75, "simulationMode": [null, null, null], "rewards": [-4, 8, 24], "path": ["0", "0", "9", "10", "12"], "rt": [5468, 199, 274], "actions": ["left", "left", "down"], "actionTimes": [6998, 7694, 8469], "queries": {"click": {"state": {"target": ["4", "8", "12"], "time": [4065, 4889, 5641]}, "edge": {"target": [], "time": []}}, "mouseover": {"state": {"target": ["1", "2", "4", "1", "5", "8", "12", "9"], "time": [3525, 3673, 3889, 4459, 4624, 4740, 5510, 6041]}, "edge": {"target": [], "time": []}}, "mouseout": {"state": {"target": ["6", "5", "1", "2", "4", "1", "5", "8", "12", "9"], "time": [721, 754, 3574, 3856, 4359, 4507, 4673, 5176, 6010, 6109]}, "edge": {"target": [], "time": []}}}, "displayed_time": "9.53", "trialTime": 10669, "trial_type": "mouselab-mdp", "trial_index": 65, "time_elapsed": 1008814, "internal_node_id": "0.0-4.0-3.0-19.0"}}, {"uniqueid": "w47082201:a36176941", "current_trial": 66, "dateTime": 1664465005160, "trialdata": {"revealed_states": [], "num_clicks_accrued": [0, 0, 0, 0, 0, 0, 0, 0, 0, 0, 0, 0, 0], "stateRewards": ["", 4, -4, 48, -48, -2, -8, -24, 48, -2, 4, 24, -24], "withholdReward": false, "trial_id": "mdp_507290896735", "block": "test2", "trialIndex": 54, "score": 30.25, "costs": -0.75, "simulationMode": [null, null, null], "rewards": [-2, 4, 24], "path": ["0", "0", "9", "10", "11"], "rt": [3973, 215, 250], "actions": ["left", "left", "up"], "actionTimes": [8958, 9670, 10422], "queries": {"click": {"state": {"target": ["2", "12", "6"], "time": [5618, 6290, 7794]}, "edge": {"target": [], "time": []}}, "mouseover": {"state": {"target": ["1", "2", "9", "12", "0", "5", "7", "6", "7", "1"], "time": [5351, 5498, 6085, 6201, 6602, 6634, 7636, 7752, 8154, 8220]}, "edge": {"target": [], "time": []}}, "mouseout": {"state": {"target": ["4", "4", "0", "1", "2", "9", "12", "0", "5", "7", "6", "7", "1"], "time": [2097, 3531, 5289, 5383, 5818, 6101, 6549, 6619, 6669, 7703, 8051, 8187, 8254]}, "edge": {"target": [], "time": []}}}, "displayed_time": "13.99", "trialTime": 14878, "trial_type": "mouselab-mdp", "trial_index": 66, "time_elapsed": 1023727, "internal_node_id": "0.0-4.0-3.0-20.0"}}, {"uniqueid": "w47082201:a36176941", "current_trial": 67, "dateTime": 1664465015510, "trialdata": {"revealed_states": [], "num_clicks_accrued": [0, 0, 0, 0, 0, 0, 0, 0, 0, 0, 0, 0, 0], "stateRewards": ["", 2, 8, -48, 48, -4, -8, 24, 24, -2, -8, 24, -24], "withholdReward": true, "trial_id": "mdp_910248289075", "block": "test2", "trialIndex": 55, "score": 18.25, "costs": -0.75, "simulationMode": [null, null, null], "rewards": [-2, -8, 24], "path": ["0", "0", "9", "10", "11"], "rt": [4292, 340, 161], "actions": ["left", "left", "up"], "actionTimes": [5435, 6275, 6930], "queries": {"click": {"state": {"target": ["3", "12", "6"], "time": [1606, 2318, 3942]}, "edge": {"target": [], "time": []}}, "mouseover": {"state": {"target": ["1", "3", "1", "9", "12", "10", "11", "11", "5", "6", "6", "8"], "time": [1361, 1428, 1878, 2013, 2146, 2562, 2597, 2830, 3014, 3197, 3448, 4665]}, "edge": {"target": [], "time": []}}, "mouseout": {"state": {"target": ["1", "0", "1", "3", "1", "9", "12", "10", "11", "11", "5", "6", "6", "8"], "time": [811, 1332, 1378, 1812, 1894, 2045, 2529, 2595, 2629, 2895, 3063, 3231, 4146, 4680]}, "edge": {"target": [], "time": []}}}, "displayed_time": "9.14", "trialTime": 10313, "trial_type": "mouselab-mdp", "trial_index": 67, "time_elapsed": 1034077, "internal_node_id": "0.0-4.0-3.0-21.0"}}, {"uniqueid": "w47082201:a36176941", "current_trial": 68, "dateTime": 1664465026486, "trialdata": {"revealed_states": [], "num_clicks_accrued": [0, 0, 0, 0, 0, 0, 0, 0, 0, 0, 0, 0, 0], "stateRewards": ["", 2, 8, -48, -24, 4, 4, 24, 48, 4, -4, -48, 48], "withholdReward": true, "trial_id": "mdp_665096999232", "block": "test2", "trialIndex": 56, "score": 52.5, "costs": -0.5, "simulationMode": [null, null, null], "rewards": [4, -4, 48], "path": ["0", "0", "9", "10", "12"], "rt": [4278, 190, 459], "actions": ["left", "left", "down"], "actionTimes": [5440, 6127, 7080], "queries": {"click": {"state": {"target": ["2", "12"], "time": [2635, 4504]}, "edge": {"target": [], "time": []}}, "mouseover": {"state": {"target": ["1", "2", "4", "2", "1", "9", "10", "12", "12"], "time": [1468, 1718, 1902, 2319, 2936, 3100, 3385, 4168, 4387]}, "edge": {"target": [], "time": []}}, "mouseout": {"state": {"target": ["0", "1", "2", "4", "2", "1", "9", "10", "12", "12"], "time": [1065, 1484, 1885, 2218, 2919, 2983, 3303, 3868, 4185, 4736]}, "edge": {"target": [], "time": []}}}, "displayed_time": "10.16", "trialTime": 10936, "trial_type": "mouselab-mdp", "trial_index": 68, "time_elapsed": 1045053, "internal_node_id": "0.0-4.0-3.0-22.0"}}, {"uniqueid": "w47082201:a36176941", "current_trial": 69, "dateTime": 1664465036646, "trialdata": {"revealed_states": [], "num_clicks_accrued": [0, 0, 0, 0, 0, 0, 0, 0, 0, 0, 0, 0, 0], "stateRewards": ["", 4, 4, 48, -48, -2, -8, -48, -24, 2, 4, -24, -48], "withholdReward": true, "trial_id": "mdp_239929662917", "block": "test2", "trialIndex": 57, "score": 60.75, "costs": -0.25, "simulationMode": [null, null, null], "rewards": [4, 4, 48], "path": ["0", "0", "1", "2", "3"], "rt": [2025, 89, 233], "actions": ["up", "up", "right"], "actionTimes": [3340, 3931, 4659], "queries": {"click": {"state": {"target": ["3"], "time": [2190]}, "edge": {"target": [], "time": []}}, "mouseover": {"state": {"target": ["3", "8", "8", "6"], "time": [2104, 2657, 2790, 2955]}, "edge": {"target": [], "time": []}}, "mouseout": {"state": {"target": ["5", "0", "9", "3", "8", "8", "6"], "time": [854, 886, 1186, 2388, 2688, 2924, 3005]}, "edge": {"target": [], "time": []}}}, "displayed_time": "9.32", "trialTime": 10123, "trial_type": "mouselab-mdp", "trial_index": 69, "time_elapsed": 1055213, "internal_node_id": "0.0-4.0-3.0-23.0"}}, {"uniqueid": "w47082201:a36176941", "current_trial": 70, "dateTime": 1664465046782, "trialdata": {"revealed_states": [], "num_clicks_accrued": [0, 0, 0, 0, 0, 0, 0, 0, 0, 0, 0, 0, 0], "stateRewards": ["", 2, 4, -48, -24, 2, 8, 24, 48, -2, 4, 48, -48], "withholdReward": true, "trial_id": "mdp_551894842204", "block": "test2", "trialIndex": 58, "score": 62.75, "costs": -0.25, "simulationMode": [null, null, null], "rewards": [2, 8, 48], "path": ["0", "0", "5", "6", "8"], "rt": [1597, 319, 127], "actions": ["right", "right", "down"], "actionTimes": [2618, 3427, 4051], "queries": {"click": {"state": {"target": ["8"], "time": [1614]}, "edge": {"target": [], "time": []}}, "mouseover": {"state": {"target": ["8", "8"], "time": [1321, 1472]}, "edge": {"target": [], "time": []}}, "mouseout": {"state": {"target": ["5", "0", "8", "8", "0"], "time": [821, 1256, 1338, 1873, 9781]}, "edge": {"target": [], "time": []}}}, "displayed_time": "9.02", "trialTime": 10099, "trial_type": "mouselab-mdp", "trial_index": 70, "time_elapsed": 1065349, "internal_node_id": "0.0-4.0-3.0-24.0"}}, {"uniqueid": "w47082201:a36176941", "current_trial": 71, "dateTime": 1664465056382, "trialdata": {"revealed_states": [], "num_clicks_accrued": [0, 0, 0, 0, 0, 0, 0, 0, 0, 0, 0, 0, 0], "stateRewards": ["", -2, -8, 48, 24, 2, 4, 24, -24, -2, -4, 48, -48], "withholdReward": true, "trial_id": "mdp_411152402386", "block": "test2", "trialIndex": 59, "score": 46.75, "costs": -0.25, "simulationMode": [null, null, null], "rewards": [-2, -4, 48], "path": ["0", "0", "9", "10", "11"], "rt": [2140, 161, 78], "actions": ["left", "left", "up"], "actionTimes": [2986, 3642, 4210], "queries": {"click": {"state": {"target": ["11"], "time": [2140]}, "edge": {"target": [], "time": []}}, "mouseover": {"state": {"target": ["11", "11"], "time": [1145, 1837]}, "edge": {"target": [], "time": []}}, "mouseout": {"state": {"target": ["11", "11"], "time": [1161, 2511]}, "edge": {"target": [], "time": []}}}, "displayed_time": "8.85", "trialTime": 9562, "trial_type": "mouselab-mdp", "trial_index": 71, "time_elapsed": 1074949, "internal_node_id": "0.0-4.0-3.0-25.0"}}, {"uniqueid": "w47082201:a36176941", "current_trial": 72, "dateTime": 1664465067022, "trialdata": {"revealed_states": [], "num_clicks_accrued": [0, 0, 0, 0, 0, 0, 0, 0, 0, 0, 0, 0, 0], "stateRewards": ["", -2, -4, -48, -48, 4, 8, 24, -48, 4, -8, 24, 24], "withholdReward": true, "trial_id": "mdp_749799219195", "block": "test2", "trialIndex": 60, "score": -31.75, "costs": -0.75, "simulationMode": [null, null, null], "rewards": [4, 8, -48], "path": ["0", "0", "5", "6", "8"], "rt": [3616, 156, 236], "actions": ["right", "right", "down"], "actionTimes": [4585, 5233, 5961], "queries": {"click": {"state": {"target": ["7", "4", "12"], "time": [1530, 2498, 3433]}, "edge": {"target": [], "time": []}}, "mouseover": {"state": {"target": ["5", "7", "2", "4", "10", "12", "12"], "time": [1218, 1421, 2052, 2372, 2856, 2939, 3243]}, "edge": {"target": [], "time": []}}, "mouseout": {"state": {"target": ["1", "9", "0", "5", "7", "2", "4", "10", "12", "12"], "time": [601, 703, 1193, 1269, 1786, 2203, 2687, 2888, 3071, 3754]}, "edge": {"target": [], "time": []}}}, "displayed_time": "9.97", "trialTime": 10601, "trial_type": "mouselab-mdp", "trial_index": 72, "time_elapsed": 1085589, "internal_node_id": "0.0-4.0-3.0-26.0"}}, {"uniqueid": "w47082201:a36176941", "current_trial": 73, "dateTime": 1664465077989, "trialdata": {"revealed_states": [], "num_clicks_accrued": [0, 0, 0, 0, 0, 0, 0, 0, 0, 0, 0, 0, 0], "stateRewards": ["", -4, -4, -24, 48, 2, 4, -24, -48, -2, 4, 24, 24], "withholdReward": true, "trial_id": "mdp_360934723192", "block": "test2", "trialIndex": 61, "score": -13.75, "costs": -0.75, "simulationMode": [null, null, null], "rewards": [2, 4, -24], "path": ["0", "0", "5", "6", "7"], "rt": [3638, 506, 50], "actions": ["right", "right", "up"], "actionTimes": [4786, 5785, 6329], "queries": {"click": {"state": {"target": ["3", "11", "8"], "time": [1722, 2781, 3565]}, "edge": {"target": [], "time": []}}, "mouseover": {"state": {"target": ["3", "1", "9", "11", "10", "8", "6"], "time": [1668, 1993, 2076, 2560, 2975, 3444, 4295]}, "edge": {"target": [], "time": []}}, "mouseout": {"state": {"target": ["0", "3", "1", "9", "11", "10", "8", "8"], "time": [1040, 1941, 2041, 2141, 2959, 3027, 3811, 4178]}, "edge": {"target": [], "time": []}}}, "displayed_time": "10.15", "trialTime": 10929, "trial_type": "mouselab-mdp", "trial_index": 73, "time_elapsed": 1096556, "internal_node_id": "0.0-4.0-3.0-27.0"}}, {"uniqueid": "w47082201:a36176941", "current_trial": 74, "dateTime": 1664465089149, "trialdata": {"revealed_states": [], "num_clicks_accrued": [0, 0, 0, 0, 0, 0, 0, 0, 0, 0, 0, 0, 0], "stateRewards": ["", -2, -8, -24, -48, -2, -4, 48, -48, 4, 4, -48, 48], "withholdReward": true, "trial_id": "mdp_156977432949", "block": "test2", "trialIndex": 62, "score": 60.75, "costs": -0.25, "simulationMode": [null, null, null], "rewards": [4, 4, 48], "path": ["0", "0", "9", "10", "12"], "rt": [2087, 196, 246], "actions": ["left", "left", "down"], "actionTimes": [3132, 3819, 4555], "queries": {"click": {"state": {"target": ["12"], "time": [1831]}, "edge": {"target": [], "time": []}}, "mouseover": {"state": {"target": ["12", "12", "10", "11"], "time": [1435, 1785, 2086, 2155]}, "edge": {"target": [], "time": []}}, "mouseout": {"state": {"target": ["6", "7", "5", "0", "0", "12", "12", "10", "11", "11", "0", "0"], "time": [536, 669, 702, 751, 1270, 1452, 2052, 2120, 6223, 7208, 9860, 10828]}, "edge": {"target": [], "time": []}}}, "displayed_time": "10.04", "trialTime": 11123, "trial_type": "mouselab-mdp", "trial_index": 74, "time_elapsed": 1107716, "internal_node_id": "0.0-4.0-3.0-28.0"}}, {"uniqueid": "w47082201:a36176941", "current_trial": 75, "dateTime": 1664465101237, "trialdata": {"revealed_states": [], "num_clicks_accrued": [0, 0, 0, 0, 0, 0, 0, 0, 0, 0, 0, 0, 0], "stateRewards": ["", 4, 8, -24, 48, 4, -8, -48, 48, -4, 8, -24, -48], "withholdReward": true, "trial_id": "mdp_376126356841", "block": "test2", "trialIndex": 63, "score": 64.5, "costs": -0.5, "simulationMode": [null, null, null], "rewards": [4, 8, 48], "path": ["0", "0", "1", "2", "4"], "rt": [2532, 227, 86], "actions": ["up", "up", "left"], "actionTimes": [4523, 5251, 5826], "queries": {"click": {"state": {"target": ["7", "4"], "time": [2676, 3668]}, "edge": {"target": [], "time": []}}, "mouseover": {"state": {"target": ["7", "3", "2", "4", "1", "0"], "time": [2572, 3039, 3087, 3590, 3906, 3971]}, "edge": {"target": [], "time": []}}, "mouseout": {"state": {"target": ["0", "7", "3", "2", "4", "1", "0", "0"], "time": [2141, 2987, 3053, 3189, 3854, 3940, 8094, 11347]}, "edge": {"target": [], "time": []}}}, "displayed_time": "10.99", "trialTime": 12051, "trial_type": "mouselab-mdp", "trial_index": 75, "time_elapsed": 1119804, "internal_node_id": "0.0-4.0-3.0-29.0"}}, {"uniqueid": "w47082201:a36176941", "current_trial": 76, "dateTime": 1664465104308, "trialdata": {"rt": 3065, "stimulus": "<h1> End of block! </h1>\n\nYou have reached the end of the block 2/4. If you need a short break, feel free to take one now before moving on.\n\n<br><br>\nIn the next block, you will complete another 30 rounds of this game.\n\n<br><br>\n<div style='text-align: center;'>Press <code>space</code> to begin.</div>\n<br><br>\n<div style='text-align: center;'>(If the experiment doesn't continue, try clicking on the text and then pressing <code>space</code>.)</div>", "response": " ", "trial_id": "mdp_ready_3", "trial_type": "html-keyboard-response", "trial_index": 76, "time_elapsed": 1122875, "internal_node_id": "0.0-4.0-4.0"}}, {"uniqueid": "w47082201:a36176941", "current_trial": 77, "dateTime": 1664465115797, "trialdata": {"revealed_states": [], "num_clicks_accrued": [0, 0, 0, 0, 0, 0, 0, 0, 0, 0, 0, 0, 0], "stateRewards": ["", -2, 8, -24, 48, -4, 4, -48, 24, 4, -8, 48, -24], "withholdReward": true, "trial_id": "mdp_425320427962", "block": "test3", "trialIndex": 64, "score": 28.25, "costs": -0.75, "simulationMode": [null, null, null], "rewards": [-4, 4, 24], "path": ["0", "0", "5", "6", "8"], "rt": [4072, 132, 1101], "actions": ["right", "right", "down"], "actionTimes": [6092, 6716, 8316], "queries": {"click": {"state": {"target": ["3", "12", "7"], "time": [3119, 4183, 5079]}, "edge": {"target": [], "time": []}}, "mouseover": {"state": {"target": ["1", "3", "1", "12", "12", "8", "7", "6"], "time": [2259, 2681, 3444, 3713, 4113, 4480, 4847, 5398]}, "edge": {"target": [], "time": []}}, "mouseout": {"state": {"target": ["3", "5", "0", "1", "3", "1", "12", "12", "8", "7", "6"], "time": [642, 775, 2220, 2293, 3396, 3494, 3745, 4394, 4496, 5378, 5412]}, "edge": {"target": [], "time": []}}}, "displayed_time": "10.02", "trialTime": 11452, "trial_type": "mouselab-mdp", "trial_index": 77, "time_elapsed": 1134364, "internal_node_id": "0.0-4.0-5.0-0.0"}}, {"uniqueid": "w47082201:a36176941", "current_trial": 78, "dateTime": 1664465126830, "trialdata": {"revealed_states": [], "num_clicks_accrued": [0, 0, 0, 0, 0, 0, 0, 0, 0, 0, 0, 0, 0], "stateRewards": ["", 2, 8, -48, 24, -4, 8, 48, -24, 2, 8, 24, 24], "withholdReward": true, "trial_id": "mdp_175372499314", "block": "test3", "trialIndex": 65, "score": 56.25, "costs": -0.75, "simulationMode": [null, null, null], "rewards": [-4, 8, 48], "path": ["0", "0", "5", "6", "7"], "rt": [3575, 119, 181], "actions": ["right", "right", "up"], "actionTimes": [4542, 5158, 5837], "queries": {"click": {"state": {"target": ["4", "12", "7"], "time": [1568, 2796, 3785]}, "edge": {"target": [], "time": []}}, "mouseover": {"state": {"target": ["4", "2", "2", "10", "12", "0", "5", "1", "1", "7", "7"], "time": [1469, 1936, 2267, 2620, 2702, 3137, 3185, 3288, 3369, 3419, 3671]}, "edge": {"target": [], "time": []}}, "mouseout": {"state": {"target": ["7", "5", "4", "2", "2", "10", "12", "0", "5", "1", "1", "7", "7"], "time": [635, 768, 1884, 2067, 2353, 2651, 3018, 3153, 3204, 3319, 3386, 3438, 4004]}, "edge": {"target": [], "time": []}}}, "displayed_time": "9.97", "trialTime": 10998, "trial_type": "mouselab-mdp", "trial_index": 78, "time_elapsed": 1145397, "internal_node_id": "0.0-4.0-5.0-1.0"}}, {"uniqueid": "w47082201:a36176941", "current_trial": 79, "dateTime": 1664465138059, "trialdata": {"revealed_states": [], "num_clicks_accrued": [0, 0, 0, 0, 0, 0, 0, 0, 0, 0, 0, 0, 0], "stateRewards": ["", -4, -8, 48, -48, 2, -4, 48, -24, 2, -8, -48, -48], "withholdReward": false, "trial_id": "mdp_624553692913", "block": "test3", "trialIndex": 66, "score": 50.25, "costs": -0.75, "simulationMode": [null, null, null], "rewards": [2, -4, 48], "path": ["0", "0", "5", "6", "7"], "rt": [2858, 185, 196], "actions": ["right", "right", "up"], "actionTimes": [4215, 4896, 5590], "queries": {"click": {"state": {"target": ["2", "12", "7"], "time": [2073, 2696, 3355]}, "edge": {"target": [], "time": []}}, "mouseover": {"state": {"target": ["1", "2", "2", "1", "9", "12", "6", "7", "6", "6"], "time": [1576, 1640, 2009, 2341, 2424, 2592, 2975, 3208, 3592, 3861]}, "edge": {"target": [], "time": []}}, "mouseout": {"state": {"target": ["1", "2", "2", "1", "9", "12", "6", "7", "6", "6", "8"], "time": [1623, 1673, 2307, 2358, 2493, 2891, 2991, 3576, 3676, 10230, 10549]}, "edge": {"target": [], "time": []}}}, "displayed_time": "10.36", "trialTime": 11190, "trial_type": "mouselab-mdp", "trial_index": 79, "time_elapsed": 1156626, "internal_node_id": "0.0-4.0-5.0-2.0"}}, {"uniqueid": "w47082201:a36176941", "current_trial": 80, "dateTime": 1664465148852, "trialdata": {"revealed_states": [], "num_clicks_accrued": [0, 0, 0, 0, 0, 0, 0, 0, 0, 0, 0, 0, 0], "stateRewards": ["", -4, 8, 24, -24, 4, -8, -24, -24, -2, 8, -48, 24], "withholdReward": true, "trial_id": "mdp_240302100183", "block": "test3", "trialIndex": 67, "score": 34.25, "costs": -0.75, "simulationMode": [null, null, null], "rewards": [-2, 8, 24], "path": ["0", "0", "9", "10", "12"], "rt": [3558, 238, 15], "actions": ["left", "left", "down"], "actionTimes": [4580, 5316, 5827], "queries": {"click": {"state": {"target": ["8", "4", "10"], "time": [1623, 2319, 3565]}, "edge": {"target": [], "time": []}}, "mouseover": {"state": {"target": ["5", "8", "8", "5", "1", "4", "2", "3", "1", "10", "12", "10"], "time": [1156, 1190, 1458, 1941, 2026, 2191, 2592, 2793, 2976, 3059, 3243, 3475]}, "edge": {"target": [], "time": []}}, "mouseout": {"state": {"target": ["0", "5", "8", "8", "5", "1", "4", "2", "3", "1", "10", "12", "10"], "time": [891, 1174, 1207, 1894, 1957, 2110, 2560, 2727, 2942, 2993, 3110, 3442, 3826]}, "edge": {"target": [], "time": []}}}, "displayed_time": "10.02", "trialTime": 10756, "trial_type": "mouselab-mdp", "trial_index": 80, "time_elapsed": 1167419, "internal_node_id": "0.0-4.0-5.0-3.0"}}, {"uniqueid": "w47082201:a36176941", "current_trial": 81, "dateTime": 1664465159604, "trialdata": {"revealed_states": [], "num_clicks_accrued": [0, 0, 0, 0, 0, 0, 0, 0, 0, 0, 0, 0, 0], "stateRewards": ["", -2, -4, -48, 48, -2, -4, 24, 48, -4, -8, -24, 24], "withholdReward": true, "trial_id": "mdp_917590390609", "block": "test3", "trialIndex": 68, "score": -31.75, "costs": -0.75, "simulationMode": [null, null, null], "rewards": [-4, -8, -24], "path": ["0", "0", "9", "10", "11"], "rt": [4161, 173, 489], "actions": ["left", "left", "up"], "actionTimes": [5133, 5797, 6781], "queries": {"click": {"state": {"target": ["2", "12", "7"], "time": [1536, 2248, 2952]}, "edge": {"target": [], "time": []}}, "mouseover": {"state": {"target": ["1", "2", "9", "12", "6", "7", "6"], "time": [1304, 1386, 1885, 2153, 2670, 2736, 3170]}, "edge": {"target": [], "time": []}}, "mouseout": {"state": {"target": ["0", "1", "2", "9", "12", "6", "7", "6"], "time": [768, 1352, 1754, 1937, 2436, 2703, 3137, 3222]}, "edge": {"target": [], "time": []}}}, "displayed_time": "9.97", "trialTime": 10709, "trial_type": "mouselab-mdp", "trial_index": 81, "time_elapsed": 1178170, "internal_node_id": "0.0-4.0-5.0-4.0"}}, {"uniqueid": "w47082201:a36176941", "current_trial": 82, "dateTime": 1664465169676, "trialdata": {"revealed_states": [], "num_clicks_accrued": [0, 0, 0, 0, 0, 0, 0, 0, 0, 0, 0, 0, 0], "stateRewards": ["", 2, -8, 24, -24, -2, 8, -48, -48, 2, -8, -24, -48], "withholdReward": true, "trial_id": "mdp_744278669205", "block": "test3", "trialIndex": 69, "score": -37.75, "costs": -0.75, "simulationMode": [null, null, null], "rewards": [-2, 8, -48], "path": ["0", "0", "5", "6", "8"], "rt": [4035, 163, 257], "actions": ["right", "right", "down"], "actionTimes": [4931, 5587, 6346], "queries": {"click": {"state": {"target": ["7", "12", "4"], "time": [1980, 2702, 3422]}, "edge": {"target": [], "time": []}}, "mouseover": {"state": {"target": ["1", "2", "7", "5", "12", "10", "4", "4", "6"], "time": [1083, 1283, 1886, 2217, 2570, 2985, 3037, 3302, 3986]}, "edge": {"target": [], "time": []}}, "mouseout": {"state": {"target": ["6", "0", "1", "2", "7", "5", "12", "10", "4", "4", "6"], "time": [582, 1050, 1235, 1569, 2184, 2251, 2970, 3001, 3069, 3654, 4003]}, "edge": {"target": [], "time": []}}}, "displayed_time": "8.90", "trialTime": 10035, "trial_type": "mouselab-mdp", "trial_index": 82, "time_elapsed": 1188242, "internal_node_id": "0.0-4.0-5.0-5.0"}}, {"uniqueid": "w47082201:a36176941", "current_trial": 83, "dateTime": 1664465180003, "trialdata": {"revealed_states": [], "num_clicks_accrued": [0, 0, 0, 0, 0, 0, 0, 0, 0, 0, 0, 0, 0], "stateRewards": ["", -2, -4, -24, 48, -2, -8, -48, -24, 4, 8, 48, 24], "withholdReward": true, "trial_id": "mdp_625355871626", "block": "test3", "trialIndex": 70, "score": 64.25, "costs": -0.75, "simulationMode": [null, null, null], "rewards": [4, 8, 48], "path": ["0", "0", "9", "10", "11"], "rt": [3783, 173, 122], "actions": ["left", "left", "up"], "actionTimes": [5177, 5849, 6465], "queries": {"click": {"state": {"target": ["3", "8", "11"], "time": [2060, 3657, 4372]}, "edge": {"target": [], "time": []}}, "mouseover": {"state": {"target": ["1", "3", "3", "1", "10", "12", "8", "9", "11", "9"], "time": [1604, 1653, 1954, 2354, 2454, 2687, 3432, 4024, 4257, 4622]}, "edge": {"target": [], "time": []}}, "mouseout": {"state": {"target": ["1", "1", "3", "3", "1", "10", "12", "8", "9", "11", "9"], "time": [668, 1619, 1670, 2320, 2387, 2488, 2704, 3891, 4173, 4556, 4691]}, "edge": {"target": [], "time": []}}}, "displayed_time": "9.39", "trialTime": 10289, "trial_type": "mouselab-mdp", "trial_index": 83, "time_elapsed": 1198570, "internal_node_id": "0.0-4.0-5.0-6.0"}}, {"uniqueid": "w47082201:a36176941", "current_trial": 84, "dateTime": 1664465192196, "trialdata": {"revealed_states": [], "num_clicks_accrued": [0, 0, 0, 0, 0, 0, 0, 0, 0, 0, 0, 0, 0], "stateRewards": ["", -4, 4, -24, 48, -2, 8, -48, 24, 2, 4, 48, -48], "withholdReward": true, "trial_id": "mdp_366632183904", "block": "test3", "trialIndex": 71, "score": 52.5, "costs": -0.5, "simulationMode": [null, null, null], "rewards": [-4, 4, 48], "path": ["0", "0", "1", "2", "4"], "rt": [2627, 47, 121], "actions": ["up", "up", "left"], "actionTimes": [3419, 3954, 4563], "queries": {"click": {"state": {"target": ["7", "4"], "time": [1638, 2566]}, "edge": {"target": [], "time": []}}, "mouseover": {"state": {"target": ["5", "6", "7", "1", "4", "1"], "time": [1021, 1037, 1520, 1939, 2323, 2991]}, "edge": {"target": [], "time": []}}, "mouseout": {"state": {"target": ["5", "6", "7", "1", "4", "1"], "time": [1036, 1053, 1923, 1954, 2888, 3124]}, "edge": {"target": [], "time": []}}}, "displayed_time": "9.79", "trialTime": 12155, "trial_type": "mouselab-mdp", "trial_index": 84, "time_elapsed": 1210762, "internal_node_id": "0.0-4.0-5.0-7.0"}}, {"uniqueid": "w47082201:a36176941", "current_trial": 85, "dateTime": 1664465202026, "trialdata": {"revealed_states": [], "num_clicks_accrued": [0, 0, 0, 0, 0, 0, 0, 0, 0, 0, 0, 0, 0], "stateRewards": ["", -4, -8, -24, -48, -2, -8, 24, -48, -4, -8, 24, -48], "withholdReward": true, "trial_id": "mdp_621812384092", "block": "test3", "trialIndex": 72, "score": -55.75, "costs": -0.75, "simulationMode": [null, null, null], "rewards": [-4, -8, -48], "path": ["0", "0", "1", "2", "4"], "rt": [4061, 661, 177], "actions": ["up", "up", "left"], "actionTimes": [4873, 6026, 6689], "queries": {"click": {"state": {"target": ["3", "12", "8"], "time": [1645, 2373, 3357]}, "edge": {"target": [], "time": []}}, "mouseover": {"state": {"target": ["3", "3", "0", "12", "11", "9", "0", "5", "8", "1"], "time": [1206, 1556, 1989, 2256, 2884, 2959, 2977, 2992, 3257, 3810]}, "edge": {"target": [], "time": []}}, "mouseout": {"state": {"target": ["0", "3", "3", "0", "12", "11", "9", "0", "5", "8", "1", "2", "1", "0"], "time": [639, 1239, 1906, 2023, 2673, 2924, 2975, 2991, 3007, 3658, 3875, 8196, 8229, 8246]}, "edge": {"target": [], "time": []}}}, "displayed_time": "8.81", "trialTime": 9793, "trial_type": "mouselab-mdp", "trial_index": 85, "time_elapsed": 1220593, "internal_node_id": "0.0-4.0-5.0-8.0"}}, {"uniqueid": "w47082201:a36176941", "current_trial": 86, "dateTime": 1664465212210, "trialdata": {"revealed_states": [], "num_clicks_accrued": [0, 0, 0, 0, 0, 0, 0, 0, 0, 0, 0, 0, 0], "stateRewards": ["", 4, -4, 48, -48, 2, 8, -48, 24, -2, -4, -24, 48], "withholdReward": true, "trial_id": "mdp_937564992306", "block": "test3", "trialIndex": 73, "score": 46.5, "costs": -0.5, "simulationMode": [null, null, null], "rewards": [-2, -4, 48], "path": ["0", "0", "9", "10", "12"], "rt": [2665, 269, 405], "actions": ["left", "left", "down"], "actionTimes": [4096, 4856, 5761], "queries": {"click": {"state": {"target": ["7", "12"], "time": [2028, 3012]}, "edge": {"target": [], "time": []}}, "mouseover": {"state": {"target": ["5", "7", "6", "5", "12", "12", "10"], "time": [1683, 1859, 2333, 2400, 2502, 2901, 3353]}, "edge": {"target": [], "time": []}}, "mouseout": {"state": {"target": ["5", "7", "6", "5", "12", "12", "10", "10", "9", "0", "5"], "time": [1700, 2269, 2350, 2417, 2535, 3318, 3551, 9041, 9057, 9074, 9390]}, "edge": {"target": [], "time": []}}}, "displayed_time": "9.43", "trialTime": 10144, "trial_type": "mouselab-mdp", "trial_index": 86, "time_elapsed": 1230777, "internal_node_id": "0.0-4.0-5.0-9.0"}}, {"uniqueid": "w47082201:a36176941", "current_trial": 87, "dateTime": 1664465225538, "trialdata": {"revealed_states": [], "num_clicks_accrued": [0, 0, 0, 0, 0, 0, 0, 0, 0, 0, 0, 0, 0], "stateRewards": ["", 2, 8, 48, 24, -4, 4, -48, 24, 2, 8, 48, 48], "withholdReward": true, "trial_id": "mdp_367344599162", "block": "test3", "trialIndex": 74, "score": 62.25, "costs": -0.75, "simulationMode": [null, null, null], "rewards": [2, 8, 48], "path": ["0", "0", "9", "10", "11"], "rt": [3153, 179, 198], "actions": ["left", "left", "up"], "actionTimes": [7513, 8179, 8865], "queries": {"click": {"state": {"target": ["4", "8", "11"], "time": [5008, 5869, 6517]}, "edge": {"target": [], "time": []}}, "mouseover": {"state": {"target": ["4", "8", "9", "11"], "time": [4915, 5747, 6283, 6331]}, "edge": {"target": [], "time": []}}, "mouseout": {"state": {"target": ["0", "4", "8", "9", "11"], "time": [4617, 5314, 6198, 6298, 6817]}, "edge": {"target": [], "time": []}}}, "displayed_time": "12.36", "trialTime": 13289, "trial_type": "mouselab-mdp", "trial_index": 87, "time_elapsed": 1244104, "internal_node_id": "0.0-4.0-5.0-10.0"}}, {"uniqueid": "w47082201:a36176941", "current_trial": 88, "dateTime": 1664465236050, "trialdata": {"revealed_states": [], "num_clicks_accrued": [0, 0, 0, 0, 0, 0, 0, 0, 0, 0, 0, 0, 0], "stateRewards": ["", -4, -4, -24, 48, -4, -8, -24, 48, 2, 4, 48, 48], "withholdReward": true, "trial_id": "mdp_810954007398", "block": "test3", "trialIndex": 75, "score": 58.5, "costs": -0.5, "simulationMode": [null, null, null], "rewards": [2, 4, 48], "path": ["0", "0", "9", "10", "11"], "rt": [3333, 281, 208], "actions": ["left", "left", "up"], "actionTimes": [4903, 5679, 6391], "queries": {"click": {"state": {"target": ["3", "11"], "time": [2715, 4115]}, "edge": {"target": [], "time": []}}, "mouseover": {"state": {"target": ["1", "2", "3", "1", "0", "12", "10", "11", "9", "0"], "time": [1811, 1861, 2594, 3114, 3280, 3731, 3931, 3979, 4381, 4447]}, "edge": {"target": [], "time": []}}, "mouseout": {"state": {"target": ["0", "1", "2", "3", "1", "0", "12", "10", "11", "9", "0"], "time": [1736, 1844, 1910, 3012, 3196, 3297, 3778, 3962, 4313, 4431, 4479]}, "edge": {"target": [], "time": []}}}, "displayed_time": "9.57", "trialTime": 10471, "trial_type": "mouselab-mdp", "trial_index": 88, "time_elapsed": 1254617, "internal_node_id": "0.0-4.0-5.0-11.0"}}, {"uniqueid": "w47082201:a36176941", "current_trial": 89, "dateTime": 1664465247386, "trialdata": {"revealed_states": [], "num_clicks_accrued": [0, 0, 0, 0, 0, 0, 0, 0, 0, 0, 0, 0, 0], "stateRewards": ["", 2, 4, -24, -48, 4, -4, 24, 48, -4, -4, -24, 48], "withholdReward": true, "trial_id": "mdp_181958792175", "block": "test3", "trialIndex": 76, "score": 44.25, "costs": -0.75, "simulation