{"condition": 1, "counterbalance": 0, "assignmentId": "a30818266", "workerId": "w11892020", "hitId": "h43518751", "currenttrial": 136, "bonus": 0, "data": [{"uniqueid": "w11892020:a30818266", "current_trial": 0, "dateTime": 1664554919886, "trialdata": {"success": true, "trial_type": "fullscreen", "trial_index": 0, "time_elapsed": 7619, "internal_node_id": "0.0-0.0"}}, {"uniqueid": "w11892020:a30818266", "current_trial": 1, "dateTime": 1664554936947, "trialdata": {"view_history": [{"page_index": 0, "viewing_time": 17042}], "rt": 17044, "trial_id": "exp_instructions_no_distractor", "trial_type": "instructions", "trial_index": 1, "time_elapsed": 24681, "internal_node_id": "0.0-1.0"}}, {"uniqueid": "w11892020:a30818266", "current_trial": 2, "dateTime": 1664554942442, "trialdata": {"success": true, "trial_type": "fullscreen", "trial_index": 2, "time_elapsed": 30175, "internal_node_id": "0.0-2.0-0.0"}}, {"uniqueid": "w11892020:a30818266", "current_trial": 3, "dateTime": 1664555106623, "trialdata": {"view_history": [{"page_index": 0, "viewing_time": 58346}, {"page_index": 1, "viewing_time": 37007}, {"page_index": 2, "viewing_time": 15232}, {"page_index": 3, "viewing_time": 27095}, {"page_index": 4, "viewing_time": 26487}], "rt": 164168, "trial_id": "mouselab_instructions_1", "trial_type": "instructions", "trial_index": 3, "time_elapsed": 194357, "internal_node_id": "0.0-2.0-1.0"}}, {"uniqueid": "w11892020:a30818266", "current_trial": 4, "dateTime": 1664555126611, "trialdata": {"revealed_states": [], "num_clicks_accrued": [0, 0, 0, 0, 0, 0, 0, 0, 0, 0, 0, 0, 0], "stateRewards": ["", -10, -10, 10, -10, -10, 10, -10, -10, 10, -10, 10, -10], "withholdReward": false, "trial_id": "practice_1", "block": "test", "trialIndex": 0, "score": -8, "costs": 0, "simulationMode": [null, null, null], "rewards": [-10, 10, -10], "path": ["0", "0", "5", "6", "8"], "rt": [7840, 2069, 1143], "actions": ["right", "right", "down"], "actionTimes": [10922, 13484, 15125], "queries": {"click": {"state": {"target": [], "time": []}, "edge": {"target": [], "time": []}}, "mouseover": {"state": {"target": [], "time": []}, "edge": {"target": [], "time": []}}, "mouseout": {"state": {"target": ["0"], "time": [18267]}, "edge": {"target": [], "time": []}}}, "displayed_time": "15.62", "trialTime": 19107, "trial_type": "mouselab-mdp", "trial_index": 4, "time_elapsed": 214344, "internal_node_id": "0.0-2.0-2.0-0.0"}}, {"uniqueid": "w11892020:a30818266", "current_trial": 5, "dateTime": 1664555142898, "trialdata": {"revealed_states": [], "num_clicks_accrued": [0, 0, 0, 0, 0, 0, 0, 0, 0, 0, 0, 0, 0], "stateRewards": ["", 10, -10, 10, 10, 10, 10, -10, 10, -10, -10, 10, -10], "withholdReward": false, "trial_id": "practice_2", "block": "test", "trialIndex": 1, "score": 11.75, "costs": -0.25, "simulationMode": [null, null, null], "rewards": [10, -10, 10], "path": ["0", "0", "1", "2", "4"], "rt": [3957, 3238, 669], "actions": ["up", "up", "left"], "actionTimes": [5612, 9345, 10513], "queries": {"click": {"state": {"target": ["1"], "time": [3215]}, "edge": {"target": [], "time": []}}, "mouseover": {"state": {"target": ["1"], "time": [2632]}, "edge": {"target": [], "time": []}}, "mouseout": {"state": {"target": ["0", "1", "0"], "time": [2583, 12682, 12731]}, "edge": {"target": [], "time": []}}}, "displayed_time": "11.01", "trialTime": 16155, "trial_type": "mouselab-mdp", "trial_index": 5, "time_elapsed": 230632, "internal_node_id": "0.0-2.0-2.0-1.0"}}, {"uniqueid": "w11892020:a30818266", "current_trial": 6, "dateTime": 1664555252589, "trialdata": {"view_history": [{"page_index": 0, "viewing_time": 76819}, {"page_index": 1, "viewing_time": 19051}, {"page_index": 2, "viewing_time": 13811}], "rt": 109681, "trial_id": "mouselab_instructions_2_scarce", "trial_type": "instructions", "trial_index": 6, "time_elapsed": 340323, "internal_node_id": "0.0-2.0-3.0"}}, {"uniqueid": "w11892020:a30818266", "current_trial": 7, "dateTime": 1664555314951, "trialdata": {"rt": 62355, "response": {"Q0": "$-48 to $48", "Q1": "The cost is always $0.25.", "Q2": "The better I perform the higher my bonus will be.", "Q3": "No, the amount of cash at each node of the web may be different each time.", "Q4": "The values of the nodes walked through from start to finish.", "Q5": "No, the spider might forget to count the money on some rounds."}, "question_order": [0, 1, 2, 3, 4, 5], "correct": {"Q0": "$-48 to $48", "Q1": "The cost is always $0.25.", "Q2": "The better I perform the higher my bonus will be.", "Q3": "No, the amount of cash at each node of the web may be different each time.", "Q4": "The values of the nodes walked through from start to finish.", "Q5": "No, the spider might forget to count the money on some rounds."}, "trial_id": "mouselab_quiz_scarce", "trial_type": "survey-multi-choice", "trial_index": 7, "time_elapsed": 402685, "internal_node_id": "0.0-2.0-4.0"}}, {"uniqueid": "w11892020:a30818266", "current_trial": 8, "dateTime": 1664555342309, "trialdata": {"rt": 27335, "stimulus": "\n<h1> Get ready to start the game! </h1>\n\nThank you for reading the instructions. Get ready start with the first of 4 block(s) of this game.\n<br><br>\nIn this first block, you will complete 30 rounds of this game before moving on.\n<br><br>\nRemember, the more money the spider gets, the bigger your bonus will be!\n<br><br>\n<div style='text-align: center;'>Press <code>space</code> to begin.</div>\n\n<br><br>\n(If, at any point, the <code>space</code> key does not take you to the next page, click once on the text and try again.)", "response": " ", "trial_id": "mdp_ready_1", "trial_type": "html-keyboard-response", "trial_index": 8, "time_elapsed": 430042, "internal_node_id": "0.0-4.0-0.0"}}, {"uniqueid": "w11892020:a30818266", "current_trial": 9, "dateTime": 1664555365087, "trialdata": {"revealed_states": [], "num_clicks_accrued": [0, 0, 0, 0, 0, 0, 0, 0, 0, 0, 0, 0, 0], "stateRewards": ["", 2, -8, 48, -24, -4, -8, -24, 48, -2, 4, 24, -48], "withholdReward": true, "trial_id": "mdp_186932504904", "block": "test1", "trialIndex": 2, "score": -31.25, "costs": -0.25, "simulationMode": [null, null, null], "rewards": [-4, -8, -24], "path": ["0", "0", "5", "6", "7"], "rt": [8512, 2321, 935], "actions": ["right", "right", "up"], "actionTimes": [11546, 14358, 15794], "queries": {"click": {"state": {"target": ["9"], "time": [7138]}, "edge": {"target": [], "time": []}}, "mouseover": {"state": {"target": ["9", "5"], "time": [5345, 8633]}, "edge": {"target": [], "time": []}}, "mouseout": {"state": {"target": ["0", "0", "9", "5", "6", "6", "7", "5"], "time": [1156, 5262, 8232, 12973, 13170, 15114, 17549, 17593]}, "edge": {"target": [], "time": []}}}, "displayed_time": "16.29", "trialTime": 22667, "trial_type": "mouselab-mdp", "trial_index": 9, "time_elapsed": 452820, "internal_node_id": "0.0-4.0-1.0-0.0"}}, {"uniqueid": "w11892020:a30818266", "current_trial": 10, "dateTime": 1664555381837, "trialdata": {"revealed_states": [], "num_clicks_accrued": [0, 0, 0, 0, 0, 0, 0, 0, 0, 0, 0, 0, 0], "stateRewards": ["", -2, 8, 48, -48, 4, -8, 24, 24, 4, 4, -48, -24], "withholdReward": true, "trial_id": "mdp_746937869927", "block": "test1", "trialIndex": 3, "score": -11.5, "costs": -0.5, "simulationMode": [null, null, null], "rewards": [4, 4, -24], "path": ["0", "0", "9", "10", "12"], "rt": [6393, 1179, 910], "actions": ["left", "left", "down"], "actionTimes": [10406, 12087, 13502], "queries": {"click": {"state": {"target": ["1", "9"], "time": [7683, 9583]}, "edge": {"target": [], "time": []}}, "mouseover": {"state": {"target": ["5", "9", "1", "9"], "time": [5651, 6185, 7119, 9022]}, "edge": {"target": [], "time": []}}, "mouseout": {"state": {"target": ["0", "0", "5", "9", "1", "9"], "time": [2080, 5518, 6017, 7035, 8855, 15062]}, "edge": {"target": [], "time": []}}}, "displayed_time": "14.00", "trialTime": 16663, "trial_type": "mouselab-mdp", "trial_index": 10, "time_elapsed": 469571, "internal_node_id": "0.0-4.0-1.0-1.0"}}, {"uniqueid": "w11892020:a30818266", "current_trial": 11, "dateTime": 1664555404738, "trialdata": {"revealed_states": [], "num_clicks_accrued": [0, 0, 0, 0, 0, 0, 0, 0, 0, 0, 0, 0, 0], "stateRewards": ["", -4, -8, -48, 24, -4, -4, -24, -48, 2, -8, -24, -48], "withholdReward": true, "trial_id": "mdp_628181832088", "block": "test1", "trialIndex": 4, "score": -25.25, "costs": -0.25, "simulationMode": [null, null, null], "rewards": [2, -8, -24], "path": ["0", "0", "9", "10", "11"], "rt": [9814, 530, 4870], "actions": ["left", "left", "up"], "actionTimes": [12441, 13467, 18842], "queries": {"click": {"state": {"target": ["9"], "time": [10926]}, "edge": {"target": [], "time": []}}, "mouseover": {"state": {"target": ["5", "9"], "time": [7595, 9495]}, "edge": {"target": [], "time": []}}, "mouseout": {"state": {"target": ["0", "5", "9"], "time": [2105, 9428, 11783]}, "edge": {"target": [], "time": []}}}, "displayed_time": "19.35", "trialTime": 22804, "trial_type": "mouselab-mdp", "trial_index": 11, "time_elapsed": 492472, "internal_node_id": "0.0-4.0-1.0-2.0"}}, {"uniqueid": "w11892020:a30818266", "current_trial": 12, "dateTime": 1664555419835, "trialdata": {"revealed_states": [], "num_clicks_accrued": [0, 0, 0, 0, 0, 0, 0, 0, 0, 0, 0, 0, 0], "stateRewards": ["", 2, 8, -48, 24, -2, 4, 48, 48, -2, -8, 48, 24], "withholdReward": true, "trial_id": "mdp_157355418411", "block": "test1", "trialIndex": 5, "score": -33, "costs": 0, "simulationMode": [null, null, null], "rewards": [2, 8, -48], "path": ["0", "0", "1", "2", "3"], "rt": [3225, 1166, 4405], "actions": ["up", "up", "right"], "actionTimes": [6002, 7663, 12586], "queries": {"click": {"state": {"target": [], "time": []}, "edge": {"target": [], "time": []}}, "mouseover": {"state": {"target": [], "time": []}, "edge": {"target": [], "time": []}}, "mouseout": {"state": {"target": ["0", "0"], "time": [1567, 13904]}, "edge": {"target": [], "time": []}}}, "displayed_time": "13.09", "trialTime": 15006, "trial_type": "mouselab-mdp", "trial_index": 12, "time_elapsed": 507569, "internal_node_id": "0.0-4.0-1.0-3.0"}}, {"uniqueid": "w11892020:a30818266", "current_trial": 13, "dateTime": 1664555434174, "trialdata": {"revealed_states": [], "num_clicks_accrued": [0, 0, 0, 0, 0, 0, 0, 0, 0, 0, 0, 0, 0], "stateRewards": ["", 2, 8, -48, 24, -4, 8, 48, -24, 2, 8, 24, 24], "withholdReward": true, "trial_id": "mdp_175372499314", "block": "test1", "trialIndex": 6, "score": 57, "costs": 0, "simulationMode": [null, null, null], "rewards": [-4, 8, 48], "path": ["0", "0", "5", "6", "7"], "rt": [5500, 464, 1856], "actions": ["right", "right", "up"], "actionTimes": [8186, 9149, 11508], "queries": {"click": {"state": {"target": [], "time": []}, "edge": {"target": [], "time": []}}, "mouseover": {"state": {"target": [], "time": []}, "edge": {"target": [], "time": []}}, "mouseout": {"state": {"target": [], "time": []}, "edge": {"target": [], "time": []}}}, "displayed_time": "12.01", "trialTime": 14215, "trial_type": "mouselab-mdp", "trial_index": 13, "time_elapsed": 521908, "internal_node_id": "0.0-4.0-1.0-4.0"}}, {"uniqueid": "w11892020:a30818266", "current_trial": 14, "dateTime": 1664555448287, "trialdata": {"revealed_states": [], "num_clicks_accrued": [0, 0, 0, 0, 0, 0, 0, 0, 0, 0, 0, 0, 0], "stateRewards": ["", -2, 8, 48, 24, 2, -8, -24, -48, -4, 8, -48, 24], "withholdReward": true, "trial_id": "mdp_224053025943", "block": "test1", "trialIndex": 7, "score": -25, "costs": 0, "simulationMode": [null, null, null], "rewards": [2, -8, -24], "path": ["0", "0", "5", "6", "7"], "rt": [4981, 465, 2942], "actions": ["right", "right", "up"], "actionTimes": [6306, 7270, 10715], "queries": {"click": {"state": {"target": [], "time": []}, "edge": {"target": [], "time": []}}, "mouseover": {"state": {"target": [], "time": []}, "edge": {"target": [], "time": []}}, "mouseout": {"state": {"target": [], "time": []}, "edge": {"target": [], "time": []}}}, "displayed_time": "11.23", "trialTime": 14018, "trial_type": "mouselab-mdp", "trial_index": 14, "time_elapsed": 536021, "internal_node_id": "0.0-4.0-1.0-5.0"}}, {"uniqueid": "w11892020:a30818266", "current_trial": 15, "dateTime": 1664555464659, "trialdata": {"revealed_states": [], "num_clicks_accrued": [0, 0, 0, 0, 0, 0, 0, 0, 0, 0, 0, 0, 0], "stateRewards": ["", 2, 4, 48, 48, -2, 4, 48, -24, -4, 8, -48, 48], "withholdReward": true, "trial_id": "mdp_407586865939", "block": "test1", "trialIndex": 8, "score": 59, "costs": 0, "simulationMode": [null, null, null], "rewards": [2, 4, 48], "path": ["0", "0", "1", "2", "4"], "rt": [2294, 450, 3069], "actions": ["up", "up", "left"], "actionTimes": [3681, 4624, 8194], "queries": {"click": {"state": {"target": [], "time": []}, "edge": {"target": [], "time": []}}, "mouseover": {"state": {"target": [], "time": []}, "edge": {"target": [], "time": []}}, "mouseout": {"state": {"target": ["0"], "time": [9461]}, "edge": {"target": [], "time": []}}}, "displayed_time": "9.39", "trialTime": 16279, "trial_type": "mouselab-mdp", "trial_index": 15, "time_elapsed": 552393, "internal_node_id": "0.0-4.0-1.0-6.0"}}, {"uniqueid": "w11892020:a30818266", "current_trial": 16, "dateTime": 1664555487296, "trialdata": {"revealed_states": [], "num_clicks_accrued": [0, 0, 0, 0, 0, 0, 0, 0, 0, 0, 0, 0, 0], "stateRewards": ["", -2, -8, 48, -24, 2, -4, -48, -24, -2, -4, -48, 48], "withholdReward": false, "trial_id": "mdp_143798438087", "block": "test1", "trialIndex": 9, "score": -21.25, "costs": -0.25, "simulationMode": [null, null, null], "rewards": [2, -4, -24], "path": ["0", "0", "5", "6", "8"], "rt": [10952, 1472, 1677], "actions": ["right", "right", "down"], "actionTimes": [13181, 15150, 17324], "queries": {"click": {"state": {"target": ["9"], "time": [11923]}, "edge": {"target": [], "time": []}}, "mouseover": {"state": {"target": ["9", "5", "0", "9", "9"], "time": [5714, 7302, 10491, 10540, 11389]}, "edge": {"target": [], "time": []}}, "mouseout": {"state": {"target": ["0", "9", "5", "0", "9", "9", "12"], "time": [5680, 6537, 10489, 10522, 10639, 19248, 19900]}, "edge": {"target": [], "time": []}}}, "displayed_time": "17.83", "trialTime": 22538, "trial_type": "mouselab-mdp", "trial_index": 16, "time_elapsed": 575029, "internal_node_id": "0.0-4.0-1.0-7.0"}}, {"uniqueid": "w11892020:a30818266", "current_trial": 17, "dateTime": 1664555500699, "trialdata": {"revealed_states": [], "num_clicks_accrued": [0, 0, 0, 0, 0, 0, 0, 0, 0, 0, 0, 0, 0], "stateRewards": ["", 2, 4, -48, -48, 4, 4, -48, -48, -2, -8, 48, -24], "withholdReward": true, "trial_id": "mdp_175327338412", "block": "test1", "trialIndex": 10, "score": -37.25, "costs": -0.25, "simulationMode": [null, null, null], "rewards": [2, 4, -48], "path": ["0", "0", "1", "2", "4"], "rt": [2767, 3629, 571], "actions": ["up", "up", "left"], "actionTimes": [4956, 9083, 10150], "queries": {"click": {"state": {"target": ["1"], "time": [3884]}, "edge": {"target": [], "time": []}}, "mouseover": {"state": {"target": ["1"], "time": [2902]}, "edge": {"target": [], "time": []}}, "mouseout": {"state": {"target": ["0", "0", "1", "3", "1"], "time": [1049, 2852, 4537, 7590, 8424]}, "edge": {"target": [], "time": []}}}, "displayed_time": "12.19", "trialTime": 13288, "trial_type": "mouselab-mdp", "trial_index": 17, "time_elapsed": 588433, "internal_node_id": "0.0-4.0-1.0-8.0"}}, {"uniqueid": "w11892020:a30818266", "current_trial": 18, "dateTime": 1664555523251, "trialdata": {"revealed_states": [], "num_clicks_accrued": [0, 0, 0, 0, 0, 0, 0, 0, 0, 0, 0, 0, 0], "stateRewards": ["", 4, -4, 48, -48, -2, -8, -24, 48, -2, 4, 24, -24], "withholdReward": true, "trial_id": "mdp_507290896735", "block": "test1", "trialIndex": 11, "score": 30.5, "costs": -0.5, "simulationMode": [null, null, null], "rewards": [-2, 4, 24], "path": ["0", "0", "9", "10", "11"], "rt": [16552, 340, 284], "actions": ["left", "left", "up"], "actionTimes": [18068, 18910, 19688], "queries": {"click": {"state": {"target": ["9", "11"], "time": [8427, 15651]}, "edge": {"target": [], "time": []}}, "mouseover": {"state": {"target": ["5", "0", "9", "11"], "time": [5186, 6539, 7356, 13060]}, "edge": {"target": [], "time": []}}, "mouseout": {"state": {"target": ["0", "5", "0", "9", "11", "9"], "time": [5125, 6521, 6587, 12745, 20989, 21054]}, "edge": {"target": [], "time": []}}}, "displayed_time": "20.19", "trialTime": 22439, "trial_type": "mouselab-mdp", "trial_index": 18, "time_elapsed": 610985, "internal_node_id": "0.0-4.0-1.0-9.0"}}, {"uniqueid": "w11892020:a30818266", "current_trial": 19, "dateTime": 1664555535072, "trialdata": {"revealed_states": [], "num_clicks_accrued": [0, 0, 0, 0, 0, 0, 0, 0, 0, 0, 0, 0, 0], "stateRewards": ["", 4, -4, 48, 24, 2, 4, 24, -24, 2, 4, 24, 48], "withholdReward": false, "trial_id": "mdp_736351885282", "block": "test1", "trialIndex": 12, "score": 52.75, "costs": -0.25, "simulationMode": [null, null, null], "rewards": [4, -4, 48], "path": ["0", "0", "1", "2", "3"], "rt": [6106, 192, 184], "actions": ["up", "up", "right"], "actionTimes": [7111, 7808, 8485], "queries": {"click": {"state": {"target": ["3"], "time": [4717]}, "edge": {"target": [], "time": []}}, "mouseover": {"state": {"target": ["2", "2", "3", "2"], "time": [3060, 3393, 3977, 5746]}, "edge": {"target": [], "time": []}}, "mouseout": {"state": {"target": ["0", "2", "2", "3", "2"], "time": [2495, 3075, 3927, 5695, 6698]}, "edge": {"target": [], "time": []}}}, "displayed_time": "9.01", "trialTime": 11725, "trial_type": "mouselab-mdp", "trial_index": 19, "time_elapsed": 622806, "internal_node_id": "0.0-4.0-1.0-10.0"}}, {"uniqueid": "w11892020:a30818266", "current_trial": 20, "dateTime": 1664555548676, "trialdata": {"revealed_states": [], "num_clicks_accrued": [0, 0, 0, 0, 0, 0, 0, 0, 0, 0, 0, 0, 0], "stateRewards": ["", -2, 4, -48, -48, -4, -8, 48, -48, 2, 4, 48, -48], "withholdReward": true, "trial_id": "mdp_258647270500", "block": "test1", "trialIndex": 13, "score": 40.75, "costs": -0.25, "simulationMode": [null, null, null], "rewards": [-4, -8, 48], "path": ["0", "0", "5", "6", "7"], "rt": [3798, 298, 319], "actions": ["right", "right", "up"], "actionTimes": [6205, 7004, 7824], "queries": {"click": {"state": {"target": ["7"], "time": [5238]}, "edge": {"target": [], "time": []}}, "mouseover": {"state": {"target": ["7", "7"], "time": [3551, 3883]}, "edge": {"target": [], "time": []}}, "mouseout": {"state": {"target": ["2", "1", "7"], "time": [1024, 1431, 3634]}, "edge": {"target": [], "time": []}}}, "displayed_time": "11.41", "trialTime": 13506, "trial_type": "mouselab-mdp", "trial_index": 20, "time_elapsed": 636409, "internal_node_id": "0.0-4.0-1.0-11.0"}}, {"uniqueid": "w11892020:a30818266", "current_trial": 21, "dateTime": 1664555568557, "trialdata": {"revealed_states": [], "num_clicks_accrued": [0, 0, 0, 0, 0, 0, 0, 0, 0, 0, 0, 0, 0], "stateRewards": ["", -2, 4, 24, 48, 2, 4, -48, -48, 2, 8, 48, -48], "withholdReward": true, "trial_id": "mdp_409609775558", "block": "test1", "trialIndex": 14, "score": 54.5, "costs": -0.5, "simulationMode": [null, null, null], "rewards": [-2, 4, 48], "path": ["0", "0", "1", "2", "4"], "rt": [8351, 259, 310], "actions": ["up", "up", "left"], "actionTimes": [11098, 11856, 12656], "queries": {"click": {"state": {"target": ["12", "4"], "time": [5707, 10163]}, "edge": {"target": [], "time": []}}, "mouseover": {"state": {"target": ["12", "10", "4"], "time": [5204, 6772, 7472]}, "edge": {"target": [], "time": []}}, "mouseout": {"state": {"target": ["7", "5", "0", "12", "10"], "time": [1533, 1648, 5086, 6740, 6789]}, "edge": {"target": [], "time": []}}}, "displayed_time": "13.15", "trialTime": 19774, "trial_type": "mouselab-mdp", "trial_index": 21, "time_elapsed": 656291, "internal_node_id": "0.0-4.0-1.0-12.0"}}, {"uniqueid": "w11892020:a30818266", "current_trial": 22, "dateTime": 1664555580643, "trialdata": {"revealed_states": [], "num_clicks_accrued": [0, 0, 0, 0, 0, 0, 0, 0, 0, 0, 0, 0, 0], "stateRewards": ["", 4, -8, -48, 48, -2, 8, -48, 48, -2, -4, 24, -48], "withholdReward": true, "trial_id": "mdp_400558136089", "block": "test1", "trialIndex": 15, "score": 48.75, "costs": -0.25, "simulationMode": [null, null, null], "rewards": [4, -8, 48], "path": ["0", "0", "1", "2", "4"], "rt": [3901, 205, 386], "actions": ["up", "up", "left"], "actionTimes": [5911, 6609, 7490], "queries": {"click": {"state": {"target": ["4"], "time": [5149]}, "edge": {"target": [], "time": []}}, "mouseover": {"state": {"target": ["1", "4", "4"], "time": [3797, 3863, 4214]}, "edge": {"target": [], "time": []}}, "mouseout": {"state": {"target": ["4", "1", "0", "1", "4"], "time": [826, 894, 3748, 3830, 3896]}, "edge": {"target": [], "time": []}}}, "displayed_time": "11.01", "trialTime": 11981, "trial_type": "mouselab-mdp", "trial_index": 22, "time_elapsed": 668377, "internal_node_id": "0.0-4.0-1.0-13.0"}}, {"uniqueid": "w11892020:a30818266", "current_trial": 23, "dateTime": 1664555594924, "trialdata": {"revealed_states": [], "num_clicks_accrued": [0, 0, 0, 0, 0, 0, 0, 0, 0, 0, 0, 0, 0], "stateRewards": ["", -4, -8, -48, 48, -2, -8, -48, -24, 4, 8, 24, -48], "withholdReward": true, "trial_id": "mdp_509977295685", "block": "test1", "trialIndex": 16, "score": 40.75, "costs": -0.25, "simulationMode": [null, null, null], "rewards": [-4, -8, 48], "path": ["0", "0", "1", "2", "4"], "rt": [8052, 234, 277], "actions": ["up", "up", "left"], "actionTimes": [10012, 10750, 11529], "queries": {"click": {"state": {"target": ["4"], "time": [9194]}, "edge": {"target": [], "time": []}}, "mouseover": {"state": {"target": ["4"], "time": [8212]}, "edge": {"target": [], "time": []}}, "mouseout": {"state": {"target": ["4", "0"], "time": [1070, 7662]}, "edge": {"target": [], "time": []}}}, "displayed_time": "12.02", "trialTime": 14174, "trial_type": "mouselab-mdp", "trial_index": 23, "time_elapsed": 682658, "internal_node_id": "0.0-4.0-1.0-14.0"}}, {"uniqueid": "w11892020:a30818266", "current_trial": 24, "dateTime": 1664555613659, "trialdata": {"revealed_states": [], "num_clicks_accrued": [0, 0, 0, 0, 0, 0, 0, 0, 0, 0, 0, 0, 0], "stateRewards": ["", 2, 4, -48, 24, -4, -4, -24, 24, 2, -4, 24, -24], "withholdReward": true, "trial_id": "mdp_163600331068", "block": "test1", "trialIndex": 17, "score": 34.5, "costs": -0.5, "simulationMode": [null, null, null], "rewards": [2, 4, 24], "path": ["0", "0", "1", "2", "4"], "rt": [10606, 244, 208], "actions": ["up", "up", "left"], "actionTimes": [13571, 14309, 15007], "queries": {"click": {"state": {"target": ["7", "4"], "time": [8845, 12088]}, "edge": {"target": [], "time": []}}, "mouseover": {"state": {"target": ["7", "1", "4"], "time": [7839, 10125, 11577]}, "edge": {"target": [], "time": []}}, "mouseout": {"state": {"target": ["4", "7", "1", "4"], "time": [1280, 10042, 10159, 12895]}, "edge": {"target": [], "time": []}}}, "displayed_time": "15.50", "trialTime": 18637, "trial_type": "mouselab-mdp", "trial_index": 24, "time_elapsed": 701393, "internal_node_id": "0.0-4.0-1.0-15.0"}}, {"uniqueid": "w11892020:a30818266", "current_trial": 25, "dateTime": 1664555631326, "trialdata": {"revealed_states": [], "num_clicks_accrued": [0, 0, 0, 0, 0, 0, 0, 0, 0, 0, 0, 0, 0], "stateRewards": ["", 4, 4, 48, -48, 4, 4, -48, 24, 2, 8, 24, -48], "withholdReward": false, "trial_id": "mdp_291674656283", "block": "test1", "trialIndex": 18, "score": 36.5, "costs": -0.5, "simulationMode": [null, null, null], "rewards": [4, 4, 24], "path": ["0", "0", "5", "6", "8"], "rt": [5708, 158, 147], "actions": ["right", "right", "down"], "actionTimes": [7398, 8054, 8690], "queries": {"click": {"state": {"target": ["12", "8"], "time": [3320, 5720]}, "edge": {"target": [], "time": []}}, "mouseover": {"state": {"target": ["12", "8"], "time": [2802, 5022]}, "edge": {"target": [], "time": []}}, "mouseout": {"state": {"target": ["0", "12", "8"], "time": [2686, 4171, 10978]}, "edge": {"target": [], "time": []}}}, "displayed_time": "10.69", "trialTime": 17552, "trial_type": "mouselab-mdp", "trial_index": 25, "time_elapsed": 719060, "internal_node_id": "0.0-4.0-1.0-16.0"}}, {"uniqueid": "w11892020:a30818266", "current_trial": 26, "dateTime": 1664555663113, "trialdata": {"revealed_states": [], "num_clicks_accrued": [0, 0, 0, 0, 0, 0, 0, 0, 0, 0, 0, 0, 0], "stateRewards": ["", 2, 8, -24, -48, -4, 8, -48, -48, -2, -8, -24, -24], "withholdReward": true, "trial_id": "mdp_978177451072", "block": "test1", "trialIndex": 19, "score": -40.25, "costs": -1.25, "simulationMode": [null, null, null], "rewards": [-4, 8, -48], "path": ["0", "0", "5", "6", "8"], "rt": [24253, 278, 350], "actions": ["right", "right", "down"], "actionTimes": [26145, 26925, 27766], "queries": {"click": {"state": {"target": ["3", "7", "12", "11", "4"], "time": [4177, 16529, 20077, 22170, 24569]}, "edge": {"target": [], "time": []}}, "mouseover": {"state": {"target": ["1", "3", "7", "1", "10", "12", "10", "11", "1", "2", "4"], "time": [3569, 3650, 15348, 18086, 18554, 18654, 20940, 21657, 23593, 23642, 24077]}, "edge": {"target": [], "time": []}}, "mouseout": {"state": {"target": ["0", "1", "3", "7", "7", "1", "10", "12", "10", "11", "1", "2", "4", "5"], "time": [1014, 3602, 5471, 17068, 17668, 18103, 18572, 20906, 21624, 22909, 23610, 24045, 25295, 29816]}, "edge": {"target": [], "time": []}}}, "displayed_time": "28.26", "trialTime": 31684, "trial_type": "mouselab-mdp", "trial_index": 26, "time_elapsed": 750847, "internal_node_id": "0.0-4.0-1.0-17.0"}}, {"uniqueid": "w11892020:a30818266", "current_trial": 27, "dateTime": 1664555675034, "trialdata": {"revealed_states": [], "num_clicks_accrued": [0, 0, 0, 0, 0, 0, 0, 0, 0, 0, 0, 0, 0], "stateRewards": ["", 4, 4, 24, 24, 4, -4, 48, 48, 4, 4, 24, -48], "withholdReward": true, "trial_id": "mdp_454251689008", "block": "test1", "trialIndex": 20, "score": 36.75, "costs": -0.25, "simulationMode": [null, null, null], "rewards": [4, 4, 24], "path": ["0", "0", "1", "2", "3"], "rt": [2824, 215, 152], "actions": ["up", "up", "right"], "actionTimes": [4403, 5121, 5778], "queries": {"click": {"state": {"target": ["3"], "time": [3419]}, "edge": {"target": [], "time": []}}, "mouseover": {"state": {"target": ["1", "3"], "time": [2687, 2787]}, "edge": {"target": [], "time": []}}, "mouseout": {"state": {"target": ["0", "1", "3"], "time": [2660, 2721, 4056]}, "edge": {"target": [], "time": []}}}, "displayed_time": "10.58", "trialTime": 11786, "trial_type": "mouselab-mdp", "trial_index": 27, "time_elapsed": 762768, "internal_node_id": "0.0-4.0-1.0-18.0"}}, {"uniqueid": "w11892020:a30818266", "current_trial": 28, "dateTime": 1664555692171, "trialdata": {"revealed_states": [], "num_clicks_accrued": [0, 0, 0, 0, 0, 0, 0, 0, 0, 0, 0, 0, 0], "stateRewards": ["", 2, -8, 48, -24, 2, -4, 24, 48, 4, -4, 48, -24], "withholdReward": true, "trial_id": "mdp_656500928756", "block": "test1", "trialIndex": 21, "score": 52.25, "costs": -0.75, "simulationMode": [null, null, null], "rewards": [4, -4, 48], "path": ["0", "0", "9", "10", "11"], "rt": [9770, 344, 460], "actions": ["left", "left", "up"], "actionTimes": [12022, 12863, 13827], "queries": {"click": {"state": {"target": ["12", "4", "11"], "time": [6315, 8830, 10698]}, "edge": {"target": [], "time": []}}, "mouseover": {"state": {"target": ["8", "8", "12", "4", "11"], "time": [3873, 4473, 5375, 8154, 9730]}, "edge": {"target": [], "time": []}}, "mouseout": {"state": {"target": ["0", "8", "8", "12", "4"], "time": [3807, 3907, 4840, 7144, 9680]}, "edge": {"target": [], "time": []}}}, "displayed_time": "14.32", "trialTime": 17027, "trial_type": "mouselab-mdp", "trial_index": 28, "time_elapsed": 779904, "internal_node_id": "0.0-4.0-1.0-19.0"}}, {"uniqueid": "w11892020:a30818266", "current_trial": 29, "dateTime": 1664555713023, "trialdata": {"revealed_states": [], "num_clicks_accrued": [0, 0, 0, 0, 0, 0, 0, 0, 0, 0, 0, 0, 0], "stateRewards": ["", -4, 8, -24, -24, 4, -8, 48, -24, -4, -8, -24, -48], "withholdReward": false, "trial_id": "mdp_391766721791", "block": "test1", "trialIndex": 22, "score": -55.75, "costs": -0.75, "simulationMode": [null, null, null], "rewards": [-4, -8, -48], "path": ["0", "0", "9", "10", "12"], "rt": [12338, 337, 321], "actions": ["left", "left", "down"], "actionTimes": [14570, 15409, 16230], "queries": {"click": {"state": {"target": ["8", "11", "3"], "time": [4110, 8479, 10783]}, "edge": {"target": [], "time": []}}, "mouseover": {"state": {"target": ["8", "6", "7", "11", "11", "4", "2", "3"], "time": [3557, 4892, 5543, 7328, 8047, 9280, 9330, 9730]}, "edge": {"target": [], "time": []}}, "mouseout": {"state": {"target": ["11", "9", "0", "8", "6", "7", "11", "11", "4", "2", "3", "0"], "time": [1173, 1337, 3357, 4876, 4942, 6476, 7528, 9248, 9313, 9363, 18056, 18526]}, "edge": {"target": [], "time": []}}}, "displayed_time": "16.73", "trialTime": 20744, "trial_type": "mouselab-mdp", "trial_index": 29, "time_elapsed": 800757, "internal_node_id": "0.0-4.0-1.0-20.0"}}, {"uniqueid": "w11892020:a30818266", "current_trial": 30, "dateTime": 1664555725357, "trialdata": {"revealed_states": [], "num_clicks_accrued": [0, 0, 0, 0, 0, 0, 0, 0, 0, 0, 0, 0, 0], "stateRewards": ["", -4, 8, -24, 24, -2, -8, 24, -24, 4, -4, -48, 48], "withholdReward": false, "trial_id": "mdp_297684722007", "block": "test1", "trialIndex": 23, "score": 52.5, "costs": -0.5, "simulationMode": [null, null, null], "rewards": [4, -4, 48], "path": ["0", "0", "9", "10", "12"], "rt": [4735, 204, 244], "actions": ["left", "left", "down"], "actionTimes": [7006, 7702, 8441], "queries": {"click": {"state": {"target": ["3", "12"], "time": [4118, 5631]}, "edge": {"target": [], "time": []}}, "mouseover": {"state": {"target": ["3", "3", "1", "9", "12"], "time": [3358, 3642, 4776, 4810, 4841]}, "edge": {"target": [], "time": []}}, "mouseout": {"state": {"target": ["0", "3", "3", "1", "9", "12"], "time": [3238, 3407, 4759, 4793, 4826, 11433]}, "edge": {"target": [], "time": []}}}, "displayed_time": "10.27", "trialTime": 12238, "trial_type": "mouselab-mdp", "trial_index": 30, "time_elapsed": 813091, "internal_node_id": "0.0-4.0-1.0-21.0"}}, {"uniqueid": "w11892020:a30818266", "current_trial": 31, "dateTime": 1664555739885, "trialdata": {"revealed_states": [], "num_clicks_accrued": [0, 0, 0, 0, 0, 0, 0, 0, 0, 0, 0, 0, 0], "stateRewards": ["", -2, 4, -48, -48, 4, 4, 48, -48, 2, 8, 24, 48], "withholdReward": false, "trial_id": "mdp_686771069745", "block": "test1", "trialIndex": 24, "score": 38.25, "costs": -0.75, "simulationMode": [null, null, null], "rewards": [2, 8, 24], "path": ["0", "0", "9", "10", "11"], "rt": [8085, 257, 181], "actions": ["left", "left", "up"], "actionTimes": [10321, 11079, 11756], "queries": {"click": {"state": {"target": ["8", "11", "3"], "time": [5913, 7552, 9180]}, "edge": {"target": [], "time": []}}, "mouseover": {"state": {"target": ["5", "8", "0", "9", "11", "3"], "time": [5185, 5317, 6583, 6617, 7067, 8502]}, "edge": {"target": [], "time": []}}, "mouseout": {"state": {"target": ["0", "5", "8", "0", "9", "11"], "time": [5152, 5216, 6550, 6600, 6650, 8402]}, "edge": {"target": [], "time": []}}}, "displayed_time": "12.26", "trialTime": 14423, "trial_type": "mouselab-mdp", "trial_index": 31, "time_elapsed": 827618, "internal_node_id": "0.0-4.0-1.0-22.0"}}, {"uniqueid": "w11892020:a30818266", "current_trial": 32, "dateTime": 1664555753472, "trialdata": {"revealed_states": [], "num_clicks_accrued": [0, 0, 0, 0, 0, 0, 0, 0, 0, 0, 0, 0, 0], "stateRewards": ["", 2, 4, 48, 24, -2, -8, 24, 24, -2, 4, -48, 24], "withholdReward": true, "trial_id": "mdp_130849500124", "block": "test1", "trialIndex": 25, "score": 30.5, "costs": -0.5, "simulationMode": [null, null, null], "rewards": [-2, 4, 24], "path": ["0", "0", "9", "10", "12"], "rt": [5656, 197, 175], "actions": ["left", "left", "down"], "actionTimes": [9839, 10537, 11214], "queries": {"click": {"state": {"target": ["7", "12"], "time": [5888, 8748]}, "edge": {"target": [], "time": []}}, "mouseover": {"state": {"target": ["5", "7", "12"], "time": [4782, 4865, 8151]}, "edge": {"target": [], "time": []}}, "mouseout": {"state": {"target": ["3", "0", "5", "7", "12"], "time": [2712, 4749, 4814, 6683, 12528]}, "edge": {"target": [], "time": []}}}, "displayed_time": "12.18", "trialTime": 13510, "trial_type": "mouselab-mdp", "trial_index": 32, "time_elapsed": 841206, "internal_node_id": "0.0-4.0-1.0-23.0"}}, {"uniqueid": "w11892020:a30818266", "current_trial": 33, "dateTime": 1664555769009, "trialdata": {"revealed_states": [], "num_clicks_accrued": [0, 0, 0, 0, 0, 0, 0, 0, 0, 0, 0, 0, 0], "stateRewards": ["", -4, 4, -24, 24, 2, 4, -24, 48, -4, 8, -48, 48], "withholdReward": true, "trial_id": "mdp_422109108860", "block": "test1", "trialIndex": 26, "score": 56.75, "costs": -0.25, "simulationMode": [null, null, null], "rewards": [-4, 8, 48], "path": ["0", "0", "9", "10", "12"], "rt": [9990, 236, 362], "actions": ["left", "left", "down"], "actionTimes": [12255, 12994, 13855], "queries": {"click": {"state": {"target": ["12"], "time": [11083]}, "edge": {"target": [], "time": []}}, "mouseover": {"state": {"target": ["3", "3", "2", "4", "10", "12"], "time": [5048, 8804, 9488, 9569, 10590, 10671]}, "edge": {"target": [], "time": []}}, "mouseout": {"state": {"target": ["6", "5", "0", "3", "3", "2", "4", "10", "12"], "time": [1126, 1242, 4980, 5115, 9486, 9536, 10194, 10637, 11740]}, "edge": {"target": [], "time": []}}}, "displayed_time": "14.36", "trialTime": 15414, "trial_type": "mouselab-mdp", "trial_index": 33, "time_elapsed": 856743, "internal_node_id": "0.0-4.0-1.0-24.0"}}, {"uniqueid": "w11892020:a30818266", "current_trial": 34, "dateTime": 1664555783333, "trialdata": {"revealed_states": [], "num_clicks_accrued": [0, 0, 0, 0, 0, 0, 0, 0, 0, 0, 0, 0, 0], "stateRewards": ["", 4, 8, -24, 48, 4, -8, -48, 48, -4, 8, -24, -48], "withholdReward": false, "trial_id": "mdp_376126356841", "block": "test1", "trialIndex": 27, "score": 48.75, "costs": -0.25, "simulationMode": [null, null, null], "rewards": [4, -8, 48], "path": ["0", "0", "5", "6", "8"], "rt": [2381, 241, 244], "actions": ["right", "right", "down"], "actionTimes": [5143, 5881, 6618], "queries": {"click": {"state": {"target": ["8"], "time": [4327]}, "edge": {"target": [], "time": []}}, "mouseover": {"state": {"target": ["8"], "time": [3503]}, "edge": {"target": [], "time": []}}, "mouseout": {"state": {"target": ["10", "9", "0", "8"], "time": [867, 1767, 3403, 11779]}, "edge": {"target": [], "time": []}}}, "displayed_time": "10.76", "trialTime": 14210, "trial_type": "mouselab-mdp", "trial_index": 34, "time_elapsed": 871066, "internal_node_id": "0.0-4.0-1.0-25.0"}}, {"uniqueid": "w11892020:a30818266", "current_trial": 35, "dateTime": 1664555798933, "trialdata": {"revealed_states": [], "num_clicks_accrued": [0, 0, 0, 0, 0, 0, 0, 0, 0, 0, 0, 0, 0], "stateRewards": ["", -4, 8, -48, -48, -2, -8, -24, -48, 2, -4, -48, 24], "withholdReward": false, "trial_id": "mdp_743906784415", "block": "test1", "trialIndex": 28, "score": 25.75, "costs": -1.25, "simulationMode": [null, null, null], "rewards": [2, -4, 24], "path": ["0", "0", "9", "10", "12"], "rt": [9649, 118, 465], "actions": ["left", "left", "down"], "actionTimes": [12070, 12685, 13649], "queries": {"click": {"state": {"target": ["4", "3", "7", "8", "11"], "time": [4014, 5458, 6618, 7974, 10787]}, "edge": {"target": [], "time": []}}, "mouseover": {"state": {"target": ["1", "4", "2", "3", "7", "6", "8", "9", "11"], "time": [3219, 3570, 4838, 4920, 6106, 7159, 7190, 8692, 9259]}, "edge": {"target": [], "time": []}}, "mouseout": {"state": {"target": ["0", "1", "4", "2", "3", "7", "6", "8", "9"], "time": [3183, 3237, 4821, 4871, 6072, 7157, 7174, 8642, 9156]}, "edge": {"target": [], "time": []}}}, "displayed_time": "14.15", "trialTime": 15495, "trial_type": "mouselab-mdp", "trial_index": 35, "time_elapsed": 886667, "internal_node_id": "0.0-4.0-1.0-26.0"}}, {"uniqueid": "w11892020:a30818266", "current_trial": 36, "dateTime": 1664555809417, "trialdata": {"revealed_states": [], "num_clicks_accrued": [0, 0, 0, 0, 0, 0, 0, 0, 0, 0, 0, 0, 0], "stateRewards": ["", -2, -8, 24, -48, 4, 4, -24, -48, -2, -8, -48, 24], "withholdReward": true, "trial_id": "mdp_556006673466", "block": "test1", "trialIndex": 29, "score": 18.75, "costs": -0.25, "simulationMode": [null, null, null], "rewards": [-2, -8, 24], "path": ["0", "0", "1", "2", "3"], "rt": [3101, 876, 163], "actions": ["up", "up", "right"], "actionTimes": [4863, 6237, 6894], "queries": {"click": {"state": {"target": ["3"], "time": [3836]}, "edge": {"target": [], "time": []}}, "mouseover": {"state": {"target": ["1", "3"], "time": [2772, 3339]}, "edge": {"target": [], "time": []}}, "mouseout": {"state": {"target": ["11", "0", "1"], "time": [864, 2739, 2806]}, "edge": {"target": [], "time": []}}}, "displayed_time": "8.76", "trialTime": 10381, "trial_type": "mouselab-mdp", "trial_index": 36, "time_elapsed": 897151, "internal_node_id": "0.0-4.0-1.0-27.0"}}, {"uniqueid": "w11892020:a30818266", "current_trial": 37, "dateTime": 1664555822916, "trialdata": {"revealed_states": [], "num_clicks_accrued": [0, 0, 0, 0, 0, 0, 0, 0, 0, 0, 0, 0, 0], "stateRewards": ["", 4, 4, 48, -24, -4, -8, 24, -24, 2, -8, -24, 24], "withholdReward": true, "trial_id": "mdp_933201675789", "block": "test1", "trialIndex": 30, "score": 22.75, "costs": -0.25, "simulationMode": [null, null, null], "rewards": [2, -8, 24], "path": ["0", "0", "9", "10", "12"], "rt": [2292, 201, 197], "actions": ["left", "left", "down"], "actionTimes": [4286, 4984, 5681], "queries": {"click": {"state": {"target": ["12"], "time": [3749]}, "edge": {"target": [], "time": []}}, "mouseover": {"state": {"target": ["12", "12"], "time": [2864, 3231]}, "edge": {"target": [], "time": []}}, "mouseout": {"state": {"target": ["3", "0", "12"], "time": [910, 2798, 2929]}, "edge": {"target": [], "time": []}}}, "displayed_time": "10.99", "trialTime": 13393, "trial_type": "mouselab-mdp", "trial_index": 37, "time_elapsed": 910650, "internal_node_id": "0.0-4.0-1.0-28.0"}}, {"uniqueid": "w11892020:a30818266", "current_trial": 38, "dateTime": 1664555838952, "trialdata": {"revealed_states": [], "num_clicks_accrued": [0, 0, 0, 0, 0, 0, 0, 0, 0, 0, 0, 0, 0], "stateRewards": ["", 4, 8, -48, -48, 2, 4, -24, -48, 2, 8, 48, -48], "withholdReward": true, "trial_id": "mdp_902172716465", "block": "test1", "trialIndex": 31, "score": 61.75, "costs": -1.25, "simulationMode": [null, null, null], "rewards": [2, 8, 48], "path": ["0", "0", "9", "10", "11"], "rt": [9089, 124, 300], "actions": ["left", "left", "up"], "actionTimes": [10934, 11569, 12369], "queries": {"click": {"state": {"target": ["7", "8", "4", "3", "12"], "time": [3693, 4849, 6827, 8535, 10307]}, "edge": {"target": [], "time": []}}, "mouseover": {"state": {"target": ["8", "6", "7", "6", "8", "5", "2", "4", "2", "3", "10", "12"], "time": [2705, 2772, 2905, 4306, 4356, 5625, 6107, 6394, 7677, 7795, 9198, 9715]}, "edge": {"target": [], "time": []}}, "mouseout": {"state": {"target": ["12", "0", "8", "6", "7", "6", "8", "5", "2", "4", "2", "3", "10"], "time": [902, 2338, 2755, 2805, 4290, 4339, 5608, 5641, 6343, 7645, 7711, 9131, 9231]}, "edge": {"target": [], "time": []}}}, "displayed_time": "12.87", "trialTime": 15937, "trial_type": "mouselab-mdp", "trial_index": 38, "time_elapsed": 926686, "internal_node_id": "0.0-4.0-1.0-29.0"}}, {"uniqueid": "w11892020:a30818266", "current_trial": 39, "dateTime": 1664555861844, "trialdata": {"rt": 22885, "stimulus": "<h1> End of block! </h1>\n\nYou have reached the end of the block 1/4. If you need a short break, feel free to take one now before moving on.\n\n<br><br>\nIn the next block, you will complete another 30 rounds of this game.\n\n<br><br>\n<div style='text-align: center;'>Press <code>space</code> to begin.</div>\n<br><br>\n<div style='text-align: center;'>(If the experiment doesn't continue, try clicking on the text and then pressing <code>space</code>.)</div>", "response": " ", "trial_id": "mdp_ready_2", "trial_type": "html-keyboard-response", "trial_index": 39, "time_elapsed": 949578, "internal_node_id": "0.0-4.0-2.0"}}, {"uniqueid": "w11892020:a30818266", "current_trial": 40, "dateTime": 1664555882192, "trialdata": {"revealed_states": [], "num_clicks_accrued": [0, 0, 0, 0, 0, 0, 0, 0, 0, 0, 0, 0, 0], "stateRewards": ["", 2, -4, -48, 24, 4, 4, 48, -48, -2, -4, -24, -48], "withholdReward": false, "trial_id": "mdp_858916930936", "block": "test2", "trialIndex": 32, "score": 60.75, "costs": -0.25, "simulationMode": [null, null, null], "rewards": [4, 4, 48], "path": ["0", "0", "5", "6", "7"], "rt": [4447, 236, 300], "actions": ["right", "right", "up"], "actionTimes": [7129, 7868, 8668], "queries": {"click": {"state": {"target": ["7"], "time": [4981]}, "edge": {"target": [], "time": []}}, "mouseover": {"state": {"target": ["7"], "time": [4461]}, "edge": {"target": [], "time": []}}, "mouseout": {"state": {"target": ["12", "9", "0"], "time": [1889, 1974, 4295]}, "edge": {"target": [], "time": []}}}, "displayed_time": "10.68", "trialTime": 20236, "trial_type": "mouselab-mdp", "trial_index": 40, "time_elapsed": 969926, "internal_node_id": "0.0-4.0-3.0-0.0"}}, {"uniqueid": "w11892020:a30818266", "current_trial": 41, "dateTime": 1664555894609, "trialdata": {"revealed_states": [], "num_clicks_accrued": [0, 0, 0, 0, 0, 0, 0, 0, 0, 0, 0, 0, 0], "stateRewards": ["", 4, -8, -24, 48, -4, 8, -24, -48, -4, -4, 24, 48], "withholdReward": true, "trial_id": "mdp_282352776624", "block": "test2", "trialIndex": 33, "score": 20.5, "costs": -0.5, "simulationMode": [null, null, null], "rewards": [-4, -4, 24], "path": ["0", "0", "9", "10", "11"], "rt": [6557, 248, 320], "actions": ["left", "left", "up"], "actionTimes": [9086, 9824, 10646], "queries": {"click": {"state": {"target": ["11", "3"], "time": [4301, 6969]}, "edge": {"target": [], "time": []}}, "mouseover": {"state": {"target": ["11", "11", "2", "3"], "time": [3416, 3764, 5752, 6587]}, "edge": {"target": [], "time": []}}, "mouseout": {"state": {"target": ["7", "5", "0", "11", "11", "2"], "time": [1396, 1479, 1914, 3700, 5637, 5768]}, "edge": {"target": [], "time": []}}}, "displayed_time": "11.15", "trialTime": 12285, "trial_type": "mouselab-mdp", "trial_index": 41, "time_elapsed": 982343, "internal_node_id": "0.0-4.0-3.0-1.0"}}, {"uniqueid": "w11892020:a30818266", "current_trial": 42, "dateTime": 1664555906142, "trialdata": {"revealed_states": [], "num_clicks_accrued": [0, 0, 0, 0, 0, 0, 0, 0, 0, 0, 0, 0, 0], "stateRewards": ["", 2, -8, 48, -24, 2, 8, 24, -24, 4, -4, -48, -48], "withholdReward": false, "trial_id": "mdp_130946197263", "block": "test2", "trialIndex": 34, "score": 38.5, "costs": -0.5, "simulationMode": [null, null, null], "rewards": [2, 8, 24], "path": ["0", "0", "5", "6", "7"], "rt": [4516, 182, 155], "actions": ["right", "right", "up"], "actionTimes": [6123, 6800, 7457], "queries": {"click": {"state": {"target": ["11", "7"], "time": [3362, 5194]}, "edge": {"target": [], "time": []}}, "mouseover": {"state": {"target": ["11", "11", "1", "7"], "time": [2560, 2879, 4196, 4714]}, "edge": {"target": [], "time": []}}, "mouseout": {"state": {"target": ["3", "11", "11", "1"], "time": [809, 2595, 4163, 4213]}, "edge": {"target": [], "time": []}}}, "displayed_time": "10.61", "trialTime": 11415, "trial_type": "mouselab-mdp", "trial_index": 42, "time_elapsed": 993875, "internal_node_id": "0.0-4.0-3.0-2.0"}}, {"uniqueid": "w11892020:a30818266", "current_trial": 43, "dateTime": 1664555919190, "trialdata": {"revealed_states": [], "num_clicks_accrued": [0, 0, 0, 0, 0, 0, 0, 0, 0, 0, 0, 0, 0], "stateRewards": ["", 2, -4, 48, -24, 4, -8, -24, 48, -2, -4, 24, -48], "withholdReward": true, "trial_id": "mdp_357328205509", "block": "test2", "trialIndex": 35, "score": 50.5, "costs": -0.5, "simulationMode": [null, null, null], "rewards": [2, -4, 48], "path": ["0", "0", "1", "2", "3"], "rt": [4203, 246, 93], "actions": ["up", "up", "right"], "actionTimes": [6228, 6966, 7561], "queries": {"click": {"state": {"target": ["12", "3"], "time": [3385, 5311]}, "edge": {"target": [], "time": []}}, "mouseover": {"state": {"target": ["9", "12", "2", "3"], "time": [2761, 2828, 4548, 4881]}, "edge": {"target": [], "time": []}}, "mouseout": {"state": {"target": ["7", "0", "9", "12", "2"], "time": [792, 2728, 2778, 4047, 4564]}, "edge": {"target": [], "time": []}}}, "displayed_time": "11.03", "trialTime": 12935, "trial_type": "mouselab-mdp", "trial_index": 43, "time_elapsed": 1006924, "internal_node_id": "0.0-4.0-3.0-3.0"}}, {"uniqueid": "w11892020:a30818266", "current_trial": 44, "dateTime": 1664555933269, "trialdata": {"revealed_states": [], "num_clicks_accrued": [0, 0, 0, 0, 0, 0, 0, 0, 0, 0, 0, 0, 0], "stateRewards": ["", 2, -4, -24, -48, -2, 8, -24, 48, -2, 8, 24, -48], "withholdReward": true, "trial_id": "mdp_566582551557", "block": "test2", "trialIndex": 36, "score": 58.5, "costs": -0.5, "simulationMode": [null, null, null], "rewards": [-2, 8, 48], "path": ["0", "0", "5", "6", "8"], "rt": [6988, 200, 160], "actions": ["right", "right", "down"], "actionTimes": [9509, 10205, 10861], "queries": {"click": {"state": {"target": ["7", "8"], "time": [6091, 8663]}, "edge": {"target": [], "time": []}}, "mouseover": {"state": {"target": ["7", "7", "1", "5", "6", "8"], "time": [5096, 5663, 6916, 7766, 7815, 8199]}, "edge": {"target": [], "time": []}}, "mouseout": {"state": {"target": ["3", "0", "7", "7", "1", "5", "6"], "time": [807, 4972, 5213, 6881, 6948, 7782, 8165]}, "edge": {"target": [], "time": []}}}, "displayed_time": "11.52", "trialTime": 13979, "trial_type": "mouselab-mdp", "trial_index": 44, "time_elapsed": 1021003, "internal_node_id": "0.0-4.0-3.0-4.0"}}, {"uniqueid": "w11892020:a30818266", "current_trial": 45, "dateTime": 1664555944574, "trialdata": {"revealed_states": [], "num_clicks_accrued": [0, 0, 0, 0, 0, 0, 0, 0, 0, 0, 0, 0, 0], "stateRewards": ["", 4, 8, 24, 24, 2, -4, 48, -24, -4, 8, -24, 24], "withholdReward": true, "trial_id": "mdp_932292142091", "block": "test2", "trialIndex": 37, "score": 32.75, "costs": -0.25, "simulationMode": [null, null, null], "rewards": [-4, 8, 24], "path": ["0", "0", "9", "10", "12"], "rt": [2469, 122, 99], "actions": ["left", "left", "down"], "actionTimes": [4529, 5144, 5739], "queries": {"click": {"state": {"target": ["12"], "time": [3605]}, "edge": {"target": [], "time": []}}, "mouseover": {"state": {"target": ["0", "12"], "time": [2904, 3003]}, "edge": {"target": [], "time": []}}, "mouseout": {"state": {"target": ["8", "0", "0"], "time": [883, 1484, 2919]}, "edge": {"target": [], "time": []}}}, "displayed_time": "10.06", "trialTime": 11195, "trial_type": "mouselab-mdp", "trial_index": 45, "time_elapsed": 1032308, "internal_node_id": "0.0-4.0-3.0-5.0"}}, {"uniqueid": "w11892020:a30818266", "current_trial": 46, "dateTime": 1664555956577, "trialdata": {"revealed_states": [], "num_clicks_accrued": [0, 0, 0, 0, 0, 0, 0, 0, 0, 0, 0, 0, 0], "stateRewards": ["", -2, -4, -24, 24, -2, 4, -24, -24, -4, 4, 24, -24], "withholdReward": true, "trial_id": "mdp_999419261719", "block": "test2", "trialIndex": 38, "score": 22.75, "costs": -0.25, "simulationMode": [null, null, null], "rewards": [-2, -4, 24], "path": ["0", "0", "1", "2", "4"], "rt": [2171, 145, 125], "actions": ["up", "up", "left"], "actionTimes": [4602, 5238, 5855], "queries": {"click": {"state": {"target": ["4"], "time": [3851]}, "edge": {"target": [], "time": []}}, "mouseover": {"state": {"target": ["4"], "time": [3406]}, "edge": {"target": [], "time": []}}, "mouseout": {"state": {"target": ["12", "0"], "time": [870, 3340]}, "edge": {"target": [], "time": []}}}, "displayed_time": "10.43", "trialTime": 11904, "trial_type": "mouselab-mdp", "trial_index": 46, "time_elapsed": 1044311, "internal_node_id": "0.0-4.0-3.0-6.0"}}, {"uniqueid": "w11892020:a30818266", "current_trial": 47, "dateTime": 1664555968970, "trialdata": {"revealed_states": [], "num_clicks_accrued": [0, 0, 0, 0, 0, 0, 0, 0, 0, 0, 0, 0, 0], "stateRewards": ["", -4, -4, -48, -24, 2, 8, 24, -48, 4, 4, 48, 48], "withholdReward": false, "trial_id": "mdp_693501840209", "block": "test2", "trialIndex": 39, "score": 60.75, "costs": -0.25, "simulationMode": [null, null, null], "rewards": [4, 4, 48], "path": ["0", "0", "9", "10", "12"], "rt": [3102, 152, 158], "actions": ["left", "left", "down"], "actionTimes": [4739, 5395, 6051], "queries": {"click": {"state": {"target": ["12"], "time": [3861]}, "edge": {"target": [], "time": []}}, "mouseover": {"state": {"target": ["9", "12"], "time": [2890, 3474]}, "edge": {"target": [], "time": []}}, "mouseout": {"state": {"target": ["4", "0", "9"], "time": [736, 2856, 2923]}, "edge": {"target": [], "time": []}}}, "displayed_time": "9.64", "trialTime": 12266, "trial_type": "mouselab-mdp", "trial_index": 47, "time_elapsed": 1056703, "internal_node_id": "0.0-4.0-3.0-7.0"}}, {"uniqueid": "w11892020:a30818266", "current_trial": 48, "dateTime": 1664555978655, "trialdata": {"revealed_states": [], "num_clicks_accrued": [0, 0, 0, 0, 0, 0, 0, 0, 0, 0, 0, 0, 0], "stateRewards": ["", -4, -8, -48, 48, -2, 8, 48, 48, -2, -4, -48, -48], "withholdReward": true, "trial_id": "mdp_752833580638", "block": "test2", "trialIndex": 40, "score": 58.75, "costs": -0.25, "simulationMode": [null, null, null], "rewards": [-2, 8, 48], "path": ["0", "0", "5", "6", "7"], "rt": [4498, 218, 527], "actions": ["right", "right", "up"], "actionTimes": [6056, 6774, 7800], "queries": {"click": {"state": {"target": ["7"], "time": [5228]}, "edge": {"target": [], "time": []}}, "mouseover": {"state": {"target": ["7"], "time": [4735]}, "edge": {"target": [], "time": []}}, "mouseout": {"state": {"target": ["12", "0"], "time": [762, 1062]}, "edge": {"target": [], "time": []}}}, "displayed_time": "8.56", "trialTime": 9564, "trial_type": "mouselab-mdp", "trial_index": 48, "time_elapsed": 1066389, "internal_node_id": "0.0-4.0-3.0-8.0"}}, {"uniqueid": "w11892020:a30818266", "current_trial": 49, "dateTime": 1664555991091, "trialdata": {"revealed_states": [], "num_clicks_accrued": [0, 0, 0, 0, 0, 0, 0, 0, 0, 0, 0, 0, 0], "stateRewards": ["", -4, -4, -24, -24, -2, 4, 48, -24, -2, -4, -24, 48], "withholdReward": true, "trial_id": "mdp_855903341564", "block": "test2", "trialIndex": 41, "score": 46.25, "costs": -0.75, "simulationMode": [null, null, null], "rewards": [-2, -4, 48], "path": ["0", "0", "9", "10", "12"], "rt": [7327, 195, 248], "actions": ["left", "left", "down"], "actionTimes": [9195, 9893, 10630], "queries": {"click": {"state": {"target": ["3", "11", "12"], "time": [4625, 6820, 8524]}, "edge": {"target": [], "time": []}}, "mouseover": {"state": {"target": ["3", "2", "4", "11", "12"], "time": [4125, 5362, 5425, 6328, 7894]}, "edge": {"target": [], "time": []}}, "mouseout": {"state": {"target": ["7", "3", "2", "4", "11"], "time": [1120, 5360, 5392, 6310, 7461]}, "edge": {"target": [], "time": []}}}, "displayed_time": "11.13", "trialTime": 12312, "trial_type": "mouselab-mdp", "trial_index": 49, "time_elapsed": 1078825, "internal_node_id": "0.0-4.0-3.0-9.0"}}, {"uniqueid": "w11892020:a30818266", "current_trial": 50, "dateTime": 1664556001885, "trialdata": {"revealed_states": [], "num_clicks_accrued": [0, 0, 0, 0, 0, 0, 0, 0, 0, 0, 0, 0, 0], "stateRewards": ["", 2, -8, -48, 24, 4, 8, 48, -48, 2, -4, 24, 24], "withholdReward": true, "trial_id": "mdp_130475327289", "block": "test2", "trialIndex": 42, "score": 26.5, "costs": -0.5, "simulationMode": [null, null, null], "rewards": [2, -4, 24], "path": ["0", "0", "9", "10", "11"], "rt": [3772, 223, 143], "actions": ["left", "left", "up"], "actionTimes": [5658, 6376, 7012], "queries": {"click": {"state": {"target": ["8", "11"], "time": [3110, 4901]}, "edge": {"target": [], "time": []}}, "mouseover": {"state": {"target": ["0", "8", "11", "11"], "time": [2497, 2581, 3949, 4466]}, "edge": {"target": [], "time": []}}, "mouseout": {"state": {"target": ["12", "0", "8", "11"], "time": [811, 2514, 3865, 3965]}, "edge": {"target": [], "time": []}}}, "displayed_time": "9.89", "trialTime": 10683, "trial_type": "mouselab-mdp", "trial_index": 50, "time_elapsed": 1089618, "internal_node_id": "0.0-4.0-3.0-10.0"}}, {"uniqueid": "w11892020:a30818266", "current_trial": 51, "dateTime": 1664556013011, "trialdata": {"revealed_states": [], "num_clicks_accrued": [0, 0, 0, 0, 0, 0, 0, 0, 0, 0, 0, 0, 0], "stateRewards": ["", 2, -4, -48, -48, -2, -4, -24, -48, -2, 8, 24, 24], "withholdReward": true, "trial_id": "mdp_656069446729", "block": "test2", "trialIndex": 43, "score": 34.5, "costs": -0.5, "simulationMode": [null, null, null], "rewards": [-2, 8, 24], "path": ["0", "0", "9", "10", "11"], "rt": [4406, 137, 140], "actions": ["left", "left", "up"], "actionTimes": [6720, 7357, 7993], "queries": {"click": {"state": {"target": ["7", "11"], "time": [3641, 5872]}, "edge": {"target": [], "time": []}}, "mouseover": {"state": {"target": ["7", "1", "11"], "time": [3146, 4447, 5465]}, "edge": {"target": [], "time": []}}, "mouseout": {"state": {"target": ["11", "9", "0", "7", "1"], "time": [1043, 1142, 2010, 4346, 4882]}, "edge": {"target": [], "time": []}}}, "displayed_time": "10.32", "trialTime": 11028, "trial_type": "mouselab-mdp", "trial_index": 51, "time_elapsed": 1100744, "internal_node_id": "0.0-4.0-3.0-11.0"}}, {"uniqueid": "w11892020:a30818266", "current_trial": 52, "dateTime": 1664556025035, "trialdata": {"revealed_states": [], "num_clicks_accrued": [0, 0, 0, 0, 0, 0, 0, 0, 0, 0, 0, 0, 0], "stateRewards": ["", -4, -8, 24, 48, 2, -4, -24, 24, -4, 8, 48, 48], "withholdReward": true, "trial_id": "mdp_496672670022", "block": "test2", "trialIndex": 44, "score": 16.5, "costs": -0.5, "simulationMode": [null, null, null], "rewards": [-4, -8, 24], "path": ["0", "0", "1", "2", "3"], "rt": [4079, 182, 52], "actions": ["up", "up", "right"], "actionTimes": [5892, 6569, 7123], "queries": {"click": {"state": {"target": ["7", "3"], "time": [3092, 4816]}, "edge": {"target": [], "time": []}}, "mouseover": {"state": {"target": ["7", "1", "3"], "time": [2602, 3881, 4382]}, "edge": {"target": [], "time": []}}, "mouseout": {"state": {"target": ["11", "0", "7", "1", "3"], "time": [1161, 2513, 3832, 4332, 5469]}, "edge": {"target": [], "time": []}}}, "displayed_time": "9.81", "trialTime": 11924, "trial_type": "mouselab-mdp", "trial_index": 52, "time_elapsed": 1112769, "internal_node_id": "0.0-4.0-3.0-12.0"}}, {"uniqueid": "w11892020:a30818266", "current_trial": 53, "dateTime": 1664556037737, "trialdata": {"revealed_states": [], "num_clicks_accrued": [0, 0, 0, 0, 0, 0, 0, 0, 0, 0, 0, 0, 0], "stateRewards": ["", -2, -4, -48, -48, 4, 8, 24, -48, 4, -8, 24, 24], "withholdReward": true, "trial_id": "mdp_749799219195", "block": "test2", "trialIndex": 45, "score": 24.75, "costs": -0.25, "simulationMode": [null, null, null], "rewards": [4, -8, 24], "path": ["0", "0", "9", "10", "12"], "rt": [3790, 227, 249], "actions": ["left", "left", "down"], "actionTimes": [5370, 6087, 6826], "queries": {"click": {"state": {"target": ["12"], "time": [4473]}, "edge": {"target": [], "time": []}}, "mouseover": {"state": {"target": ["12"], "time": [3840]}, "edge": {"target": [], "time": []}}, "mouseout": {"state": {"target": ["2", "0", "12"], "time": [703, 3708, 11015]}, "edge": {"target": [], "time": []}}}, "displayed_time": "9.58", "trialTime": 12570, "trial_type": "mouselab-mdp", "trial_index": 53, "time_elapsed": 1125471, "internal_node_id": "0.0-4.0-3.0-13.0"}}, {"uniqueid": "w11892020:a30818266", "current_trial": 54, "dateTime": 1664556050089, "trialdata": {"revealed_states": [], "num_clicks_accrued": [0, 0, 0, 0, 0, 0, 0, 0, 0, 0, 0, 0, 0], "stateRewards": ["", -2, 4, -48, 24, -4, 8, 48, 24, -2, 4, -48, -24], "withholdReward": true, "trial_id": "mdp_740882974347", "block": "test2", "trialIndex": 46, "score": 32.5, "costs": -0.5, "simulationMode": [null, null, null], "rewards": [-4, 8, 24], "path": ["0", "0", "5", "6", "8"], "rt": [5175, 212, 235], "actions": ["right", "right", "down"], "actionTimes": [6697, 7415, 8153], "queries": {"click": {"state": {"target": ["12", "8"], "time": [4140, 5832]}, "edge": {"target": [], "time": []}}, "mouseover": {"state": {"target": ["12", "8"], "time": [3630, 5382]}, "edge": {"target": [], "time": []}}, "mouseout": {"state": {"target": ["0", "12"], "time": [3228, 4881]}, "edge": {"target": [], "time": []}}}, "displayed_time": "10.52", "trialTime": 12214, "trial_type": "mouselab-mdp", "trial_index": 54, "time_elapsed": 1137822, "internal_node_id": "0.0-4.0-3.0-14.0"}}, {"uniqueid": "w11892020:a30818266", "current_trial": 55, "dateTime": 1664556060716, "trialdata": {"revealed_states": [], "num_clicks_accrued": [0, 0, 0, 0, 0, 0, 0, 0, 0, 0, 0, 0, 0], "stateRewards": ["", 4, -8, 24, 48, -2, -4, -48, 24, 2, 4, -48, -24], "withholdReward": true, "trial_id": "mdp_749974461966", "block": "test2", "trialIndex": 47, "score": 24.75, "costs": -0.25, "simulationMode": [null, null, null], "rewards": [4, -8, 24], "path": ["0", "0", "1", "2", "3"], "rt": [4148, 193, 146], "actions": ["up", "up", "right"], "actionTimes": [5817, 6513, 7150], "queries": {"click": {"state": {"target": ["3"], "time": [5088]}, "edge": {"target": [], "time": []}}, "mouseover": {"state": {"target": ["3", "3"], "time": [4200, 4500]}, "edge": {"target": [], "time": []}}, "mouseout": {"state": {"target": ["8", "0", "3"], "time": [763, 1245, 4234]}, "edge": {"target": [], "time": []}}}, "displayed_time": "9.67", "trialTime": 10514, "trial_type": "mouselab-mdp", "trial_index": 55, "time_elapsed": 1148450, "internal_node_id": "0.0-4.0-3.0-15.0"}}, {"uniqueid": "w11892020:a30818266", "current_trial": 56, "dateTime": 1664556082678, "trialdata": {"revealed_states": [], "num_clicks_accrued": [0, 0, 0, 0, 0, 0, 0, 0, 0, 0, 0, 0, 0], "stateRewards": ["", -4, -4, -24, -48, -4, 8, -24, -48, 4, -8, 24, -24], "withholdReward": false, "trial_id": "mdp_924927483179", "block": "test2", "trialIndex": 48, "score": 23.75, "costs": -1.25, "simulationMode": [null, null, null], "rewards": [4, -8, 24], "path": ["0", "0", "9", "10", "11"], "rt": [15453, 175, 204], "actions": ["left", "left", "up"], "actionTimes": [17471, 18148, 18845], "queries": {"click": {"state": {"target": ["7", "8", "3", "12", "4"], "time": [6416, 8800, 10729, 13300, 15016]}, "edge": {"target": [], "time": []}}, "mouseover": {"state": {"target": ["7", "6", "8", "5", "1", "2", "3", "2", "4", "11", "10", "12", "4"], "time": [5940, 7359, 7459, 9647, 9679, 10114, 10197, 11399, 11482, 12233, 12265, 12766, 14486]}, "edge": {"target": [], "time": []}}, "mouseout": {"state": {"target": ["3", "1", "0", "7", "6", "8", "5", "1", "2", "3", "2", "4", "11", "10", "12"], "time": [768, 968, 5141, 7326, 7410, 9630, 9662, 9713, 10148, 11382, 11432, 12216, 12248, 12718, 13968]}, "edge": {"target": [], "time": []}}}, "displayed_time": "19.34", "trialTime": 21819, "trial_type": "mouselab-mdp", "trial_index": 56, "time_elapsed": 1170412, "internal_node_id": "0.0-4.0-3.0-16.0"}}, {"uniqueid": "w11892020:a30818266", "current_trial": 57, "dateTime": 1664556097372, "trialdata": {"revealed_states": [], "num_clicks_accrued": [0, 0, 0, 0, 0, 0, 0, 0, 0, 0, 0, 0, 0], "stateRewards": ["", -2, -4, -24, -48, -2, 8, -48, 24, 4, -4, -24, -24], "withholdReward": true, "trial_id": "mdp_915304165774", "block": "test2", "trialIndex": 49, "score": 33.75, "costs": -1.25, "simulationMode": [null, null, null], "rewards": [-2, 8, 24], "path": ["0", "0", "5", "6", "8"], "rt": [8951, 155, 139], "actions": ["right", "right", "down"], "actionTimes": [11619, 12275, 12911], "queries": {"click": {"state": {"target": ["11", "12", "3", "4", "7"], "time": [4095, 5907, 7683, 9513, 11179]}, "edge": {"target": [], "time": []}}, "mouseover": {"state": {"target": ["11", "10", "12", "12", "9", "1", "3", "2", "4", "2", "7"], "time": [3577, 4963, 5014, 5344, 6631, 6679, 7164, 8700, 9083, 10101, 10635]}, "edge": {"target": [], "time": []}}, "mouseout": {"state": {"target": ["4", "1", "0", "0", "11", "10", "12", "12", "9", "1", "3", "2", "4", "2"], "time": [722, 789, 1289, 3441, 4929, 4996, 5129, 6614, 6646, 6696, 8683, 9000, 10085, 10118]}, "edge": {"target": [], "time": []}}}, "displayed_time": "13.40", "trialTime": 14593, "trial_type": "mouselab-mdp", "trial_index": 57, "time_elapsed": 1185106, "internal_node_id": "0.0-4.0-3.0-17.0"}}, {"uniqueid": "w11892020:a30818266", "current_trial": 58, "dateTime": 1664556108045, "trialdata": {"revealed_states": [], "num_clicks_accrued": [0, 0, 0, 0, 0, 0, 0, 0, 0, 0, 0, 0, 0], "stateRewards": ["", -4, -8, 24, -48, 2, 4, -48, -48, 2, -8, 24, 48], "withholdReward": false, "trial_id": "mdp_111262146724", "block": "test2", "trialIndex": 50, "score": 16.75, "costs": -0.25, "simulationMode": [null, null, null], "rewards": [-4, -8, 24], "path": ["0", "0", "1", "2", "3"], "rt": [5328, 228, 332], "actions": ["up", "up", "right"], "actionTimes": [6963, 7680, 8502], "queries": {"click": {"state": {"target": ["3"], "time": [6086]}, "edge": {"target": [], "time": []}}, "mouseover": {"state": {"target": ["1", "3"], "time": [2713, 3247]}, "edge": {"target": [], "time": []}}, "mouseout": {"state": {"target": ["7", "0", "1"], "time": [811, 2682, 2730]}, "edge": {"target": [], "time": []}}}, "displayed_time": "9.63", "trialTime": 10552, "trial_type": "mouselab-mdp", "trial_index": 58, "time_elapsed": 1195779, "internal_node_id": "0.0-4.0-3.0-18.0"}}, {"uniqueid": "w11892020:a30818266", "current_trial": 59, "dateTime": 1664556120046, "trialdata": {"revealed_states": [], "num_clicks_accrued": [0, 0, 0, 0, 0, 0, 0, 0, 0, 0, 0, 0, 0], "stateRewards": ["", -4, 8, 48, -48, 2, -4, 24, -24, -2, 4, -24, -24], "withholdReward": true, "trial_id": "mdp_804988042722", "block": "test2", "trialIndex": 51, "score": 26.75, "costs": -0.25, "simulationMode": [null, null, null], "rewards": [2, -4, 24], "path": ["0", "0", "5", "6", "7"], "rt": [2489, 223, 183], "actions": ["right", "right", "up"], "actionTimes": [4945, 5663, 6340], "queries": {"click": {"state": {"target": ["7"], "time": [4162]}, "edge": {"target": [], "time": []}}, "mouseover": {"state": {"target": ["7", "7"], "time": [3287, 3653]}, "edge": {"target": [], "time": []}}, "mouseout": {"state": {"target": ["3", "0", "0", "7"], "time": [967, 1050, 1951, 3336]}, "edge": {"target": [], "time": []}}}, "displayed_time": "10.46", "trialTime": 11898, "trial_type": "mouselab-mdp", "trial_index": 59, "time_elapsed": 1207780, "internal_node_id": "0.0-4.0-3.0-19.0"}}, {"uniqueid": "w11892020:a30818266", "current_trial": 60, "dateTime": 1664556132441, "trialdata": {"revealed_states": [], "num_clicks_accrued": [0, 0, 0, 0, 0, 0, 0, 0, 0, 0, 0, 0, 0], "stateRewards": ["", -2, 8, -24, 24, -4, -8, -24, 48, -2, -8, -48, 48], "withholdReward": true, "trial_id": "mdp_238332601315", "block": "test2", "trialIndex": 52, "score": 42.75, "costs": -0.25, "simulationMode": [null, null, null], "rewards": [-2, -8, 48], "path": ["0", "0", "9", "10", "12"], "rt": [2814, 297, 173], "actions": ["left", "left", "down"], "actionTimes": [4571, 5371, 6048], "queries": {"click": {"state": {"target": ["12"], "time": [3368]}, "edge": {"target": [], "time": []}}, "mouseover": {"state": {"target": ["12", "12"], "time": [2486, 2855]}, "edge": {"target": [], "time": []}}, "mouseout": {"state": {"target": ["7", "5", "12"], "time": [851, 935, 2554]}, "edge": {"target": [], "time": []}}}, "displayed_time": "10.76", "trialTime": 12264, "trial_type": "mouselab-mdp", "trial_index": 60, "time_elapsed": 1220175, "internal_node_id": "0.0-4.0-3.0-20.0"}}, {"uniqueid": "w11892020:a30818266", "current_trial": 61, "dateTime": 1664556147462, "trialdata": {"revealed_states": [], "num_clicks_accrued": [0, 0, 0, 0, 0, 0, 0, 0, 0, 0, 0, 0, 0], "stateRewards": ["", -4, 4, -24, -24, -4, -8, 24, 48, 4, -4, 24, 48], "withholdReward": false, "trial_id": "mdp_175395325183", "block": "test2", "trialIndex": 53, "score": 40, "costs": -1, "simulationMode": [null, null, null], "rewards": [-4, -8, 48], "path": ["0", "0", "5", "6", "8"], "rt": [9315, 204, 121], "actions": ["right", "right", "down"], "actionTimes": [11278, 11975, 12591], "queries": {"click": {"state": {"target": ["3", "4", "11", "8"], "time": [3687, 5205, 6763, 10356]}, "edge": {"target": [], "time": []}}, "mouseover": {"state": {"target": ["1", "3", "3", "2", "4", "11", "11", "5", "6", "8"], "time": [2788, 2855, 3223, 4408, 4642, 5759, 6161, 9147, 9180, 9848]}, "edge": {"target": [], "time": []}}, "mouseout": {"state": {"target": ["12", "9", "1", "3", "3", "2", "4", "11", "11", "5", "6"], "time": [702, 787, 2804, 2871, 4375, 4574, 5742, 5775, 9095, 9164, 9196]}, "edge": {"target": [], "time": []}}}, "displayed_time": "13.09", "trialTime": 14888, "trial_type": "mouselab-mdp", "trial_index": 61, "time_elapsed": 1235196, "internal_node_id": "0.0-4.0-3.0-21.0"}}, {"uniqueid": "w11892020:a30818266", "current_trial": 62, "dateTime": 1664556163881, "trialdata": {"revealed_states": [], "num_clicks_accrued": [0, 0, 0, 0, 0, 0, 0, 0, 0, 0, 0, 0, 0], "stateRewards": ["", -2, 8, 48, -24, 2, 4, -48, -24, -4, 8, -48, -48], "withholdReward": true, "trial_id": "mdp_539167561933", "block": "test2", "trialIndex": 54, "score": 57.75, "costs": -1.25, "simulationMode": [null, null, null], "rewards": [-2, 8, 48], "path": ["0", "0", "1", "2", "3"], "rt": [8877, 181, 112], "actions": ["up", "up", "right"], "actionTimes": [11137, 11813, 12428], "queries": {"click": {"state": {"target": ["4", "12", "7", "8", "3"], "time": [4158, 5806, 7494, 8600, 10278]}, "edge": {"target": [], "time": []}}, "mouseover": {"state": {"target": ["4", "12", "0", "7", "6", "8", "6", "3"], "time": [3639, 5324, 6475, 7089, 8094, 8144, 9198, 9694]}, "edge": {"target": [], "time": []}}, "mouseout": {"state": {"target": ["8", "0", "4", "12", "0", "7", "6", "8", "6"], "time": [1137, 3242, 4873, 6443, 6491, 8077, 8127, 9196, 9229]}, "edge": {"target": [], "time": []}}}, "displayed_time": "12.92", "trialTime": 16304, "trial_type": "mouselab-mdp", "trial_index": 62, "time_elapsed": 1251614, "internal_node_id": "0.0-4.0-3.0-22.0"}}, {"uniqueid": "w11892020:a30818266", "current_trial": 63, "dateTime": 1664556181017, "trialdata": {"revealed_states": [], "num_clicks_accrued": [0, 0, 0, 0, 0, 0, 0, 0, 0, 0, 0, 0, 0], "stateRewards": ["", -4, 4, -24, 24, 2, 4, -24, 48, -4, 8, -48, 48], "withholdReward": true, "trial_id": "mdp_422109108860", "block": "test2", "trialIndex": 55, "score": 56.25, "costs": -0.75, "simulationMode": [null, null, null], "rewards": [-4, 8, 48], "path": ["0", "0", "9", "10", "12"], "rt": [5513, 235, 136], "actions": ["left", "left", "down"], "actionTimes": [7075, 7813, 8449], "queries": {"click": {"state": {"target": ["7", "11", "12"], "time": [3292, 4920, 6168]}, "edge": {"target": [], "time": []}}, "mouseover": {"state": {"target": ["7", "1", "11", "10", "12"], "time": [2706, 3992, 4576, 5560, 5611]}, "edge": {"target": [], "time": []}}, "mouseout": {"state": {"target": ["3", "1", "7", "1", "11", "10", "12"], "time": [738, 836, 3959, 4008, 5543, 5593, 15855]}, "edge": {"target": [], "time": []}}}, "displayed_time": "10.56", "trialTime": 17024, "trial_type": "mouselab-mdp", "trial_index": 63, "time_elapsed": 1268751, "internal_node_id": "0.0-4.0-3.0-23.0"}}, {"uniqueid": "w11892020:a30818266", "current_trial": 64, "dateTime": 1664556195258, "trialdata": {"revealed_states": [], "num_clicks_accrued": [0, 0, 0, 0, 0, 0, 0, 0, 0, 0, 0, 0, 0], "stateRewards": ["", 4, -8, 48, 24, 4, -4, 48, 48, -4, 8, -48, 24], "withholdReward": false, "trial_id": "mdp_303828806348", "block": "test2", "trialIndex": 56, "score": 52.75, "costs": -0.25, "simulationMode": [null, null, null], "rewards": [4, -4, 48], "path": ["0", "0", "5", "6", "7"], "rt": [2362, 164, 92], "actions": ["right", "right", "up"], "actionTimes": [5800, 6455, 7051], "queries": {"click": {"state": {"target": ["7"], "time": [4948]}, "edge": {"target": [], "time": []}}, "mouseover": {"state": {"target": ["7"], "time": [4589]}, "edge": {"target": [], "time": []}}, "mouseout": {"state": {"target": ["0", "7", "7", "5"], "time": [3003, 12117, 12148, 12198]}, "edge": {"target": [], "time": []}}}, "displayed_time": "11.44", "trialTime": 14108, "trial_type": "mouselab-mdp", "trial_index": 64, "time_elapsed": 1282992, "internal_node_id": "0.0-4.0-3.0-24.0"}}, {"uniqueid": "w11892020:a30818266", "current_trial": 65, "dateTime": 1664556206113, "trialdata": {"revealed_states": [], "num_clicks_accrued": [0, 0, 0, 0, 0, 0, 0, 0, 0, 0, 0, 0, 0], "stateRewards": ["", -2, 4, -24, -24, -2, 4, 48, 24, -4, -8, 24, -48], "withholdReward": true, "trial_id": "mdp_191839460481", "block": "test2", "trialIndex": 57, "score": 16.75, "costs": -0.25, "simulationMode": [null, null, null], "rewards": [-4, -8, 24], "path": ["0", "0", "9", "10", "11"], "rt": [2620, 210, 329], "actions": ["left", "left", "up"], "actionTimes": [4794, 5492, 6312], "queries": {"click": {"state": {"target": ["11"], "time": [3492]}, "edge": {"target": [], "time": []}}, "mouseover": {"state": {"target": ["11", "1"], "time": [3013, 4532]}, "edge": {"target": [], "time": []}}, "mouseout": {"state": {"target": ["12", "9", "11"], "time": [1193, 1260, 4331]}, "edge": {"target": [], "time": []}}}, "displayed_time": "10.17", "trialTime": 10722, "trial_type": "mouselab-mdp", "trial_index": 65, "time_elapsed": 1293847, "internal_node_id": "0.0-4.0-3.0-25.0"}}, {"uniqueid": "w11892020:a30818266", "current_trial": 66, "dateTime": 1664556218654, "trialdata": {"revealed_states": [], "num_clicks_accrued": [0, 0, 0, 0, 0, 0, 0, 0, 0, 0, 0, 0, 0], "stateRewards": ["", -2, 4, 24, 48, 2, 4, -48, -48, 2, 8, 48, -48], "withholdReward": false, "trial_id": "mdp_409609775558", "block": "test2", "trialIndex": 58, "score": 62, "costs": -1, "simulationMode": [null, null, null], "rewards": [2, 8, 48], "path": ["0", "0", "9", "10", "11"], "rt": [6446, 245, 271], "actions": ["left", "left", "up"], "actionTimes": [7830, 8568, 9327], "queries": {"click": {"state": {"target": ["12", "7", "8", "11"], "time": [2671, 4055, 5219, 7023]}, "edge": {"target": [], "time": []}}, "mouseover": {"state": {"target": ["0", "12", "5", "7", "6", "8", "5", "11"], "time": [1964, 2164, 3299, 3483, 4635, 4718, 5786, 6538]}, "edge": {"target": [], "time": []}}, "mouseout": {"state": {"target": ["1", "0", "12", "5", "7", "6", "8", "5"], "time": [713, 1981, 3233, 3317, 4618, 4684, 5771, 5803]}, "edge": {"target": [], "time": []}}}, "displayed_time": "9.82", "trialTime": 12404, "trial_type": "mouselab-mdp", "trial_index": 66, "time_elapsed": 1306388, "internal_node_id": "0.0-4.0-3.0-26.0"}}, {"uniqueid": "w11892020:a30818266", "current_trial": 67, "dateTime": 1664556231031, "trialdata": {"revealed_states": [], "num_clicks_accrued": [0, 0, 0, 0, 0, 0, 0, 0, 0, 0, 0, 0, 0], "stateRewards": ["", 2, 4, -24, -48, 4, -4, 24, 48, -4, -4, -24, 48], "withholdReward": true, "trial_id": "mdp_181958792175", "block": "test2", "trialIndex": 59, "score": 52, "costs": -1, "simulationMode": [null, null, null], "rewards": [4, -4, 48], "path": ["0", "0", "5", "6", "8"], "rt": [7068, 271, 118], "actions": ["right", "right", "down"], "actionTimes": [8961, 9719, 10335], "queries": {"click": {"state": {"target": ["4", "3", "7", "8"], "time": [3428, 5144, 6216, 8336]}, "edge": {"target": [], "time": []}}, "mouseover": {"state": {"target": ["4", "2", "3", "7", "6", "8"], "time": [2591, 4209, 4293, 5744, 7247, 7980]}, "edge": {"target": [], "time": []}}, "mouseout": {"state": {"target": ["11", "0", "4", "2", "3", "7", "6"], "time": [788, 2507, 4192, 4259, 5677, 7230, 7346]}, "edge": {"target": [], "time": []}}}, "displayed_time": "10.83", "trialTime": 12241, "trial_type": "mouselab-mdp", "trial_index": 67, "time_elapsed": 1318765, "internal_node_id": "0.0-4.0-3.0-27.0"}}, {"uniqueid": "w11892020:a30818266", "current_trial": 68, "dateTime": 1664556244685, "trialdata": {"revealed_states": [], "num_clicks_accrued": [0, 0, 0, 0, 0, 0, 0, 0, 0, 0, 0, 0, 0], "stateRewards": ["", 2, 4, -24, -24, 4, 8, -48, 48, 2, 4, -24, -48], "withholdReward": true, "trial_id": "mdp_565165082781", "block": "test2", "trialIndex": 60, "score": 63.75, "costs": -1.25, "simulationMode": [null, null, null], "rewards": [4, 8, 48], "path": ["0", "0", "5", "6", "8"], "rt": [8509, 161, 127], "actions": ["right", "right", "down"], "actionTimes": [11109, 11765, 12381], "queries": {"click": {"state": {"target": ["12", "11", "4", "3", "7"], "time": [4511, 6382, 7655, 8959, 10366]}, "edge": {"target": [], "time": []}}, "mouseover": {"state": {"target": ["12", "10", "11", "4", "2", "3", "7"], "time": [4161, 5163, 5229, 7031, 8249, 8434, 9669]}, "edge": {"target": [], "time": []}}, "mouseout": {"state": {"target": ["8", "5", "0", "12", "10", "11", "4", "2", "3"], "time": [1026, 1654, 3161, 5146, 5195, 6998, 8217, 8299, 9567]}, "edge": {"target": [], "time": []}}}, "displayed_time": "12.87", "trialTime": 13550, "trial_type": "mouselab-mdp", "trial_index": 68, "time_elapsed": 1332418, "internal_node_id": "0.0-4.0-3.0-28.0"}}, {"uniqueid": "w11892020:a30818266", "current_trial": 69, "dateTime": 1664556255008, "trialdata": {"revealed_states": [], "num_clicks_accrued": [0, 0, 0, 0, 0, 0, 0, 0, 0, 0, 0, 0, 0], "stateRewards": ["", -2, -8, 48, -24, 2, -4, -48, -24, -2, -4, -48, 48], "withholdReward": true, "trial_id": "mdp_143798438087", "block": "test2", "trialIndex": 61, "score": 42.25, "costs": -0.75, "simulationMode": [null, null, null], "rewards": [-2, -8, 48], "path": ["0", "0", "1", "2", "3"], "rt": [5145, 181, 112], "actions": ["up", "up", "right"], "actionTimes": [6738, 7415, 8030], "queries": {"click": {"state": {"target": ["8", "7", "3"], "time": [2748, 3969, 5329]}, "edge": {"target": [], "time": []}}, "mouseover": {"state": {"target": ["5", "8", "6", "7", "3", "3"], "time": [2092, 2193, 3377, 3461, 4530, 4896]}, "edge": {"target": [], "time": []}}, "mouseout": {"state": {"target": ["7", "0", "0", "5", "8", "6", "7", "3"], "time": [725, 974, 2060, 2125, 3349, 3427, 4479, 4545]}, "edge": {"target": [], "time": []}}}, "displayed_time": "9.59", "trialTime": 10224, "trial_type": "mouselab-mdp", "trial_index": 69, "time_elapsed": 1342742, "internal_node_id": "0.0-4.0-3.0-29.0"}}, {"uniqueid": "w11892020:a30818266", "current_trial": 70, "dateTime": 1664556262680, "trialdata": {"rt": 7664, "stimulus": "<h1> End of block! </h1>\n\nYou have reached the end of the block 2/4. If you need a short break, feel free to take one now before moving on.\n\n<br><br>\nIn the next block, you will complete another 30 rounds of this game.\n\n<br><br>\n<div style='text-align: center;'>Press <code>space</code> to begin.</div>\n<br><br>\n<div style='text-align: center;'>(If the experiment doesn't continue, try clicking on the text and then pressing <code>space</code>.)</div>", "response": " ", "trial_id": "mdp_ready_3", "trial_type": "html-keyboard-response", "trial_index": 70, "time_elapsed": 1350414, "internal_node_id": "0.0-4.0-4.0"}}, {"uniqueid": "w11892020:a30818266", "current_trial": 71, "dateTime": 1664556275524, "trialdata": {"revealed_states": [], "num_clicks_accrued": [0, 0, 0, 0, 0, 0, 0, 0, 0, 0, 0, 0, 0], "stateRewards": ["", 2, -8, -48, 24, 4, 8, 48, -48, 2, -4, 24, 24], "withholdReward": true, "trial_id": "mdp_130475327289", "block": "test3", "trialIndex": 62, "score": 22.75, "costs": -0.25, "simulationMode": [null, null, null], "rewards": [2, -8, 24], "path": ["0", "0", "1", "2", "4"], "rt": [1731, 71, 79], "actions": ["up", "up", "left"], "actionTimes": [3690, 4264, 4839], "queries": {"click": {"state": {"target": ["4"], "time": [3062]}, "edge": {"target": [], "time": []}}, "mouseover": {"state": {"target": ["4"], "time": [2558]}, "edge": {"target": [], "time": []}}, "mouseout": {"state": {"target": ["3"], "time": [1105]}, "edge": {"target": [], "time": []}}}, "displayed_time": "10.96", "trialTime": 12715, "trial_type": "mouselab-mdp", "trial_index": 71, "time_elapsed": 1363258, "internal_node_id": "0.0-4.0-5.0-0.0"}}, {"uniqueid": "w11892020:a30818266", "current_trial": 72, "dateTime": 1664556288048, "trialdata": {"revealed_states": [], "num_clicks_accrued": [0, 0, 0, 0, 0, 0, 0, 0, 0, 0, 0, 0, 0], "stateRewards": ["", 2, 8, -24, -48, -4, 8, -48, -48, -2, -8, -24, -24], "withholdReward": true, "trial_id": "mdp_978177451072", "block": "test3", "trialIndex": 63, "score": -30.25, "costs": -1.25, "simulationMode": [null, null, null], "rewards": [-2, -8, -24], "path": ["0", "0", "9", "10", "12"], "rt": [6870, 410, 186], "actions": ["left", "left", "down"], "actionTimes": [9546, 10448, 11125], "queries": {"click": {"state": {"target": ["8", "7", "3", "4", "11"], "time": [4190, 5368, 6746, 8026, 9102]}, "edge": {"target": [], "time": []}}, "mouseover": {"state": {"target": ["8", "6", "7", "3", "2", "4", "4", "4", "11"], "time": [3713, 4781, 4830, 6133, 7267, 7316, 7518, 7618, 8569]}, "edge": {"target": [], "time": []}}, "mouseout": {"state": {"target": ["4", "1", "0", "0", "8", "6", "7", "3", "2", "4", "4", "4"], "time": [1111, 1610, 1694, 3330, 4748, 4798, 5883, 7251, 7284, 7368, 7534, 8502]}, "edge": {"target": [], "time": []}}}, "displayed_time": "11.68", "trialTime": 12397, "trial_type": "mouselab-mdp", "trial_index": 72, "time_elapsed": 1375782, "internal_node_id": "0.0-4.0-5.0-1.0"}}, {"uniqueid": "w11892020:a30818266", "current_trial": 73, "dateTime": 1664556300258, "trialdata": {"revealed_states": [], "num_clicks_accrued": [0, 0, 0, 0, 0, 0, 0, 0, 0, 0, 0, 0, 0], "stateRewards": ["", 2, 4, -48, -24, -4, 4, -24, 24, -2, -8, -24, 24], "withholdReward": true, "trial_id": "mdp_640720803523", "block": "test3", "trialIndex": 64, "score": 28.5, "costs": -0.5, "simulationMode": [null, null, null], "rewards": [-4, 4, 24], "path": ["0", "0", "5", "6", "8"], "rt": [4676, 91, 123], "actions": ["right", "right", "down"], "actionTimes": [6436, 7031, 7646], "queries": {"click": {"state": {"target": ["8", "7"], "time": [3056, 5004]}, "edge": {"target": [], "time": []}}, "mouseover": {"state": {"target": ["5", "8", "6", "7", "3"], "time": [2417, 2516, 3835, 4619, 5686]}, "edge": {"target": [], "time": []}}, "mouseout": {"state": {"target": ["11", "5", "8", "6", "7"], "time": [997, 2434, 3818, 3867, 5603]}, "edge": {"target": [], "time": []}}}, "displayed_time": "10.76", "trialTime": 12097, "trial_type": "mouselab-mdp", "trial_index": 73, "time_elapsed": 1387992, "internal_node_id": "0.0-4.0-5.0-2.0"}}, {"uniqueid": "w11892020:a30818266", "current_trial": 74, "dateTime": 1664556311775, "trialdata": {"revealed_states": [], "num_clicks_accrued": [0, 0, 0, 0, 0, 0, 0, 0, 0, 0, 0, 0, 0], "stateRewards": ["", 2, -4, 24, 48, -2, 4, -48, -48, -4, 4, 24, -24], "withholdReward": true, "trial_id": "mdp_900363662757", "block": "test3", "trialIndex": 65, "score": 28.75, "costs": -0.25, "simulationMode": [null, null, null], "rewards": [-4, 4, 24], "path": ["0", "0", "9", "10", "11"], "rt": [4399, 137, 201], "actions": ["left", "left", "up"], "actionTimes": [6133, 6769, 7466], "queries": {"click": {"state": {"target": ["11"], "time": [4598]}, "edge": {"target": [], "time": []}}, "mouseover": {"state": {"target": ["11", "11", "11"], "time": [3178, 3378, 4328]}, "edge": {"target": [], "time": []}}, "mouseout": {"state": {"target": ["3", "0", "11", "11"], "time": [824, 2644, 3211, 3495]}, "edge": {"target": [], "time": []}}}, "displayed_time": "9.74", "trialTime": 11426, "trial_type": "mouselab-mdp", "trial_index": 74, "time_elapsed": 1399509, "internal_node_id": "0.0-4.0-5.0-3.0"}}, {"uniqueid": "w11892020:a30818266", "current_trial": 75, "dateTime": 1664556322894, "trialdata": {"revealed_states": [], "num_clicks_accrued": [0, 0, 0, 0, 0, 0, 0, 0, 0, 0, 0, 0, 0], "stateRewards": ["", -2, -4, -24, -48, 2, -8, -24, -24, 4, -8, 48, 48], "withholdReward": false, "trial_id": "mdp_950599994674", "block": "test3", "trialIndex": 66, "score": 48.75, "costs": -0.25, "simulationMode": [null, null, null], "rewards": [4, -8, 48], "path": ["0", "0", "9", "10", "12"], "rt": [2009, 368, 115], "actions": ["left", "left", "down"], "actionTimes": [3553, 4415, 5030], "queries": {"click": {"state": {"target": ["12"], "time": [2662]}, "edge": {"target": [], "time": []}}, "mouseover": {"state": {"target": ["12"], "time": [2111]}, "edge": {"target": [], "time": []}}, "mouseout": {"state": {"target": ["11", "9", "0"], "time": [709, 791, 2028]}, "edge": {"target": [], "time": []}}}, "displayed_time": "9.54", "trialTime": 10999, "trial_type": "mouselab-mdp", "trial_index": 75, "time_elapsed": 1410627, "internal_node_id": "0.0-4.0-5.0-4.0"}}, {"uniqueid": "w11892020:a30818266", "current_trial": 76, "dateTime": 1664556335493, "trialdata": {"revealed_states": [], "num_clicks_accrued": [0, 0, 0, 0, 0, 0, 0, 0, 0, 0, 0, 0, 0], "stateRewards": ["", -4, 4, -24, 24, 2, 4, -24, 48, -4, 8, -48, 48], "withholdReward": true, "trial_id": "mdp_422109108860", "block": "test3", "trialIndex": 67, "score": 56.75, "costs": -0.25, "simulationMode": [null, null, null], "rewards": [-4, 8, 48], "path": ["0", "0", "9", "10", "12"], "rt": [1835, 240, 265], "actions": ["left", "left", "down"], "actionTimes": [4201, 4939, 5698], "queries": {"click": {"state": {"target": ["12"], "time": [3467]}, "edge": {"target": [], "time": []}}, "mouseover": {"state": {"target": ["9", "12"], "time": [2830, 2963]}, "edge": {"target": [], "time": []}}, "mouseout": {"state": {"target": ["12", "9", "0", "9"], "time": [744, 1360, 2796, 2862]}, "edge": {"target": [], "time": []}}}, "displayed_time": "11.37", "trialTime": 12487, "trial_type": "mouselab-mdp", "trial_index": 76, "time_elapsed": 1423227, "internal_node_id": "0.0-4.0-5.0-5.0"}}, {"uniqueid": "w11892020:a30818266", "current_trial": 77, "dateTime": 1664556346942, "trialdata": {"revealed_states": [], "num_clicks_accrued": [0, 0, 0, 0, 0, 0, 0, 0, 0, 0, 0, 0, 0], "stateRewards": ["", 2, 8, -48, -24, 4, 4, 24, 48, 4, -4, -48, 48], "withholdReward": true, "trial_id": "mdp_665096999232", "block": "test3", "trialIndex": 68, "score": 60.75, "costs": -0.25, "simulationMode": [null, null, null], "rewards": [4, 4, 48], "path": ["0", "0", "5", "6", "8"], "rt": [2439, 229, 168], "actions": ["right", "right", "down"], "actionTimes": [4325, 5043, 5700], "queries": {"click": {"state": {"target": ["8"], "time": [3447]}, "edge": {"target": [], "time": []}}, "mouseover": {"state": {"target": ["5", "6", "8"], "time": [2645, 2695, 2945]}, "edge": {"target": [], "time": []}}, "mouseout": {"state": {"target": ["12", "9", "0", "5", "6"], "time": [842, 942, 2611, 2678, 2710]}, "edge": {"target": [], "time": []}}}, "displayed_time": "9.89", "trialTime": 11319, "trial_type": "mouselab-mdp", "trial_index": 77, "time_elapsed": 1434676, "internal_node_id": "0.0-4.0-5.0-6.0"}}, {"uniqueid": "w11892020:a30818266", "current_trial": 78, "dateTime": 1664556358022, "trialdata": {"revealed_states": [], "num_clicks_accrued": [0, 0, 0, 0, 0, 0, 0, 0, 0, 0, 0, 0, 0], "stateRewards": ["", -2, -4, 48, 48, 2, 4, -48, 24, 4, -8, 24, -24], "withholdReward": true, "trial_id": "mdp_628613319495", "block": "test3", "trialIndex": 69, "score": 46.75, "costs": -0.25, "simulationMode": [null, null, null], "rewards": [-2, -4, 48], "path": ["0", "0", "1", "2", "4"], "rt": [2105, 164, 154], "actions": ["up", "up", "left"], "actionTimes": [3671, 4327, 4983], "queries": {"click": {"state": {"target": ["4"], "time": [2780]}, "edge": {"target": [], "time": []}}, "mouseover": {"state": {"target": ["4"], "time": [2260]}, "edge": {"target": [], "time": []}}, "mouseout": {"state": {"target": ["8", "0"], "time": [792, 2165]}, "edge": {"target": [], "time": []}}}, "displayed_time": "9.57", "trialTime": 10952, "trial_type": "mouselab-mdp", "trial_index": 78, "time_elapsed": 1445755, "internal_node_id": "0.0-4.0-5.0-7.0"}}, {"uniqueid": "w11892020:a30818266", "current_trial": 79, "dateTime": 1664556375915, "trialdata": {"revealed_states": [], "num_clicks_accrued": [0, 0, 0, 0, 0, 0, 0, 0, 0, 0, 0, 0, 0], "stateRewards": ["", -4, -4, 24, -48, -2, 8, -24, -48, -4, 4, 24, -48], "withholdReward": false, "trial_id": "mdp_934626330092", "block": "test3", "trialIndex": 70, "score": 28.5, "costs": -0.5, "simulationMode": [null, null, null], "rewards": [-4, 4, 24], "path": ["0", "0", "9", "10", "11"], "rt": [3168, 115, 257], "actions": ["left", "left", "up"], "actionTimes": [8372, 8988, 9747], "queries": {"click": {"state": {"target": ["7", "11"], "time": [6237, 7397]}, "edge": {"target": [], "time": []}}, "mouseover": {"state": {"target": ["7", "1", "11"], "time": [5735, 6804, 6852]}, "edge": {"target": [], "time": []}}, "mouseout": {"state": {"target": ["4", "1", "0", "7", "1"], "time": [3933, 4015, 5630, 6786, 6819]}, "edge": {"target": [], "time": []}}}, "displayed_time": "14.21", "trialTime": 17788, "trial_type": "mouselab-mdp", "trial_index": 79, "time_elapsed": 1463649, "internal_node_id": "0.0-4.0-5.0-8.0"}}, {"uniqueid": "w11892020:a30818266", "current_trial": 80, "dateTime": 1664556387447, "trialdata": {"revealed_states": [], "num_clicks_accrued": [0, 0, 0, 0, 0, 0, 0, 0, 0, 0, 0, 0, 0], "stateRewards": ["", 4, 4, 24, -24, -4, -8, 48, -24, 4, 4, 48, 24], "withholdReward": false, "trial_id": "mdp_822446942217", "block": "test3", "trialIndex": 71, "score": 36.5, "costs": -0.5, "simulationMode": [null, null, null], "rewards": [4, 4, 24], "path": ["0", "0", "1", "2", "3"], "rt": [4208, 76, 103], "actions": ["up", "up", "right"], "actionTimes": [6183, 6758, 7352], "queries": {"click": {"state": {"target": ["4", "3"], "time": [3309, 4648]}, "edge": {"target": [], "time": []}}, "mouseover": {"state": {"target": ["1", "4", "2", "3"], "time": [2543, 2827, 4078, 4145]}, "edge": {"target": [], "time": []}}, "mouseout": {"state": {"target": ["11", "0", "0", "1", "4", "2"], "time": [773, 1157, 2511, 2576, 4045, 4111]}, "edge": {"target": [], "time": []}}}, "displayed_time": "9.97", "trialTime": 11392, "trial_type": "mouselab-mdp", "trial_index": 80, "time_elapsed": 1475181, "internal_node_id": "0.0-4.0-5.0-9.0"}}, {"uniqueid": "w11892020:a30818266", "current_trial": 81, "dateTime": 1664556399067, "trialdata": {"revealed_states": [], "num_clicks_accrued": [0, 0, 0, 0, 0, 0, 0, 0, 0, 0, 0, 0, 0], "stateRewards": ["", 2, 4, -48, 24, -4, 4, -24, 48, -2, -8, -48, 48], "withholdReward": true, "trial_id": "mdp_424193661731", "block": "test3", "trialIndex": 72, "score": 42.25, "costs": -0.75, "simulationMode": [null, null, null], "rewards": [-2, -8, 48], "path": ["0", "0", "9", "10", "12"], "rt": [5219, 278, 905], "actions": ["left", "left", "down"], "actionTimes": [6797, 7576, 8971], "queries": {"click": {"state": {"target": ["7", "11", "12"], "time": [2958, 4584, 5749]}, "edge": {"target": [], "time": []}}, "mouseover": {"state": {"target": ["7", "1", "11", "10", "12"], "time": [2427, 3677, 4127, 5179, 5245]}, "edge": {"target": [], "time": []}}, "mouseout": {"state": {"target": ["3", "7", "1", "11", "10", "12"], "time": [690, 3627, 3727, 5162, 5213, 6247]}, "edge": {"target": [], "time": []}}}, "displayed_time": "9.58", "trialTime": 11515, "trial_type": "mouselab-mdp", "trial_index": 81, "time_elapsed": 1486800, "internal_node_id": "0.0-4.0-5.0-10.0"}}, {"uniqueid": "w11892020:a30818266", "current_trial": 82, "dateTime": 1664556415868, "trialdata": {"revealed_states": [], "num_clicks_accrued": [0, 0, 0, 0, 0, 0, 0, 0, 0, 0, 0, 0, 0], "stateRewards": ["", -2, 4, -24, -24, -2, 4, 48, 24, -4, -8, 24, -48], "withholdReward": true, "trial_id": "mdp_191839460481", "block": "test3", "trialIndex": 73, "score": 54.75, "costs": -0.25, "simulationMode": [null, null, null], "rewards": [-2, 4, 48], "path": ["0", "0", "5", "6", "7"], "rt": [2521, 1314, 3311], "actions": ["right", "right", "up"], "actionTimes": [7390, 9195, 13010], "queries": {"click": {"state": {"target": ["7"], "time": [6458]}, "edge": {"target": [], "time": []}}, "mouseover": {"state": {"target": ["7", "7"], "time": [5729, 6028]}, "edge": {"target": [], "time": []}}, "mouseout": {"state": {"target": ["0", "7"], "time": [3973, 5761]}, "edge": {"target": [], "time": []}}}, "displayed_time": "13.52", "trialTime": 16702, "trial_type": "mouselab-mdp", "trial_index": 82, "time_elapsed": 1503602, "internal_node_id": "0.0-4.0-5.0-11.0"}}, {"uniqueid": "w11892020:a30818266", "current_trial": 83, "dateTime": 1664556431136, "trialdata": {"revealed_states": [], "num_clicks_accrued": [0, 0, 0, 0, 0, 0, 0, 0, 0, 0, 0, 0, 0], "stateRewards": ["", 2, -8, 48, -24, -4, -8, -24, 48, -2, 4, 24, -48], "withholdReward": true, "trial_id": "mdp_186932504904", "block": "test3", "trialIndex": 74, "score": 30.75, "costs": -0.25, "simulationMode": [null, null, null], "rewards": [-2, 4, 24], "path": ["0", "0", "9", "10", "11"], "rt": [4456, 158, 165], "actions": ["left", "left", "up"], "actionTimes": [6852, 7508, 8164], "queries": {"click": {"state": {"target": ["11"], "time": [5886]}, "edge": {"target": [], "time": []}}, "mouseover": {"state": {"target": ["9", "11"], "time": [4258, 5310]}, "edge": {"target": [], "time": []}}, "mouseout": {"state": {"target": ["7", "0", "9"], "time": [1314, 4242, 4727]}, "edge": {"target": [], "time": []}}}, "displayed_time": "10.40", "trialTime": 15117, "trial_type": "mouselab-mdp", "trial_index": 83, "time_elapsed": 1518870, "internal_node_id": "0.0-4.0-5.0-12.0"}}, {"uniqueid": "w11892020:a30818266", "current_trial": 84, "dateTime": 1664556449630, "trialdata": {"revealed_states": [], "num_clicks_accrued": [0, 0, 0, 0, 0, 0, 0, 0, 0, 0, 0, 0, 0], "stateRewards": ["", 4, 4, -24, -48, -4, 4, -48, 24, 4, -8, -48, 48], "withholdReward": true, "trial_id": "mdp_566768794366", "block": "test3", "trialIndex": 75, "score": 47.75, "costs": -1.25, "simulationMode": [null, null, null], "rewards": [4, -8, 48], "path": ["0", "0", "9", "10", "12"], "rt": [9187, 205, 654], "actions": ["left", "left", "down"], "actionTimes": [12157, 12854, 14003], "queries": {"click": {"state": {"target": ["7", "3", "11", "4", "12"], "time": [4334, 6490, 7738, 8944, 11218]}, "edge": {"target": [], "time": []}}, "mouseover": {"state": {"target": ["7", "7", "3", "2", "4", "11", "4", "10", "12"], "time": [3653, 3905, 5776, 7125, 7157, 7224, 8426, 9661, 10212]}, "edge": {"target": [], "time": []}}, "mouseout": {"state": {"target": ["11", "1", "7", "7", "3", "2", "4", "11", "4", "10"], "time": [1601, 1701, 3725, 5006, 7091, 7141, 7190, 8343, 9561, 10095]}, "edge": {"target": [], "time": []}}}, "displayed_time": "14.50", "trialTime": 18371, "trial_type": "mouselab-mdp", "trial_index": 84, "time_elapsed": 1537363, "internal_node_id": "0.0-4.0-5.0-13.0"}}, {"uniqueid": "w11892020:a30818266", "current_trial": 85, "dateTime": 1664556464120, "trialdata": {"revealed_states": [], "num_clicks_accrued": [0, 0, 0, 0, 0, 0, 0, 0, 0, 0, 0, 0, 0], "stateRewards": ["", 2, -8, 24, -24, -2, 8, -48, -48, 2, -8, -24, -48], "withholdReward": true, "trial_id": "mdp_744278669205", "block": "test3", "trialIndex": 76, "score": 21.75, "costs": -1.25, "simulationMode": [null, null, null], "rewards": [2, -8, 24], "path": ["0", "0", "1", "2", "3"], "rt": [8648, 160, 781], "actions": ["up", "up", "right"], "actionTimes": [10351, 11007, 12279], "queries": {"click": {"state": {"target": ["8", "12", "11", "4", "3"], "time": [2868, 4448, 5616, 6744, 8347]}, "edge": {"target": [], "time": []}}, "mouseover": {"state": {"target": ["5", "8", "12", "10", "11", "4", "2", "3"], "time": [2271, 2337, 3604, 5141, 5206, 6208, 7342, 7659]}, "edge": {"target": [], "time": []}}, "mouseout": {"state": {"target": ["12", "9", "0", "5", "8", "12", "10", "11", "4", "2"], "time": [843, 917, 2254, 2288, 3491, 5124, 5173, 6174, 7310, 7375]}, "edge": {"target": [], "time": []}}}, "displayed_time": "12.78", "trialTime": 14391, "trial_type": "mouselab-mdp", "trial_index": 85, "time_elapsed": 1551853, "internal_node_id": "0.0-4.0-5.0-14.0"}}, {"uniqueid": "w11892020:a30818266", "current_trial": 86, "dateTime": 1664556474789, "trialdata": {"revealed_states": [], "num_clicks_accrued": [0, 0, 0, 0, 0, 0, 0, 0, 0, 0, 0, 0, 0], "stateRewards": ["", 4, 4, 24, 24, 4, -4, 48, 48, 4, 4, 24, -48], "withholdReward": true, "trial_id": "mdp_454251689008", "block": "test3", "trialIndex": 77, "score": 52.75, "costs": -0.25, "simulationMode": [null, null, null], "rewards": [4, -4, 48], "path": ["0", "0", "5", "6", "7"], "rt": [2423, 195, 229], "actions": ["right", "right", "up"], "actionTimes": [4405, 5103, 5821], "queries": {"click": {"state": {"target": ["7"], "time": [3573]}, "edge": {"target": [], "time": []}}, "mouseover": {"state": {"target": ["7"], "time": [3156]}, "edge": {"target": [], "time": []}}, "mouseout": {"state": {"target": ["3", "1", "0", "0"], "time": [720, 786, 836, 2806]}, "edge": {"target": [], "time": []}}}, "displayed_time": "9.98", "trialTime": 10578, "trial_type": "mouselab-mdp", "trial_index": 86, "time_elapsed": 1562523, "internal_node_id": "0.0-4.0-5.0-15.0"}}, {"uniqueid": "w11892020:a30818266", "current_trial": 87, "dateTime": 1664556488394, "trialdata": {"revealed_states": [], "num_clicks_accrued": [0, 0, 0, 0, 0, 0, 0, 0, 0, 0, 0, 0, 0], "stateRewards": ["", -4, 4, 24, 24, 4, -8, 48, -48, -2, -8, 24, 24], "withholdReward": true, "trial_id": "mdp_395264223239", "block": "test3", "trialIndex": 78, "score": 48.5, "costs": -0.5, "simulationMode": [null, null, null], "rewards": [4, -8, 48], "path": ["0", "0", "5", "6", "7"], "rt": [3304, 228, 189], "actions": ["right", "right", "up"], "actionTimes": [5310, 6028, 6705], "queries": {"click": {"state": {"target": ["8", "7"], "time": [3311, 4507]}, "edge": {"target": [], "time": []}}, "mouseover": {"state": {"target": ["5", "8", "6", "7"], "time": [2645, 2761, 3963, 3995]}, "edge": {"target": [], "time": []}}, "mouseout": {"state": {"target": ["7", "0", "0", "5", "8", "6"], "time": [775, 875, 1342, 2663, 3946, 3978]}, "edge": {"target": [], "time": []}}}, "displayed_time": "10.01", "trialTime": 13494, "trial_type": "mouselab-mdp", "trial_index": 87, "time_elapsed": 1576128, "internal_node_id": "0.0-4.0-5.0-16.0"}}, {"uniqueid": "w11892020:a30818266", "current_trial": 88, "dateTime": 1664556507127, "trialdata": {"revealed_states": [], "num_clicks_accrued": [0, 0, 0, 0, 0, 0, 0, 0, 0, 0, 0, 0, 0], "stateRewards": ["", -2, -8, 48, 24, 4, -8, 24, 48, 4, -4, 24, -48], "withholdReward": true, "trial_id": "mdp_871576155740", "block": "test3", "trialIndex": 79, "score": 18.75, "costs": -0.25, "simulationMode": [null, null, null], "rewards": [-2, -8, 24], "path": ["0", "0", "1", "2", "4"], "rt": [2490, 141, 204], "actions": ["up", "up", "left"], "actionTimes": [4272, 4910, 5607], "queries": {"click": {"state": {"target": ["4"], "time": [3108]}, "edge": {"target": [], "time": []}}, "mouseover": {"state": {"target": ["4"], "time": [2498]}, "edge": {"target": [], "time": []}}, "mouseout": {"state": {"target": ["7", "0"], "time": [746, 2381]}, "edge": {"target": [], "time": []}}}, "displayed_time": "9.79", "trialTime": 18632, "trial_type": "mouselab-mdp", "trial_index": 88, "time_elapsed": 1594861, "internal_node_id": "0.0-4.0-5.0-17.0"}}, {"uniqueid": "w11892020:a30818266", "current_trial": 89, "dateTime": 1664556517817, "trialdata": {"revealed_states": [], "num_clicks_accrued": [0, 0, 0, 0, 0, 0, 0, 0, 0, 0, 0, 0, 0], "stateRewards": ["", -4, -4, 24, -24, 4, 4, 24, 48, 4, -4, 48, -48], "withholdReward": true, "trial_id": "mdp_522385334882", "block": "test3", "trialIndex": 80, "score": 20.75, "costs": -0.25, "simulationMode": [null, null, null], "rewards": [-4, -4, 24], "path": ["0", "0", "1", "2", "3"], "rt": [2234, 145, 83], "actions": ["up", "up", "right"], "actionTimes": [4006, 4641, 5215], "queries": {"click": {"state": {"target": ["3"], "time": [3031]}, "edge": {"target": [], "time": []}}, "mouseover": {"state": {"target": ["3"], "time": [2561]}, "edge": {"target": [], "time": []}}, "mouseout": {"state": {"target": ["4", "1"], "time": [624, 1141]}, "edge": {"target": [], "time": []}}}, "displayed_time": "9.77", "trialTime": 10528, "trial_type": "mouselab-mdp", "trial_index": 89, "time_elapsed": 1605551, "internal_node_id": "0.0-4.0-5.0-18.0"}}, {"uniqueid": "w11892020:a30818266", "current_trial": 90, "dateTime": 1664556528757, "trialdata": {"revealed_states": [], "num_clicks_accrued": [0, 0, 0, 0, 0, 0, 0, 0, 0, 0, 0, 0, 0], "stateRewards": ["", -2, 4, 48, -24, 2, 8, 24, 48, 2, 4, -24, -48], "withholdReward": false, "trial_id": "mdp_892412058587", "block": "test3", "trialIndex": 81, "score": 54.5, "costs": -0.5, "simulationMode": [null, null, null], "rewards": [-2, 4, 48], "path": ["0", "0", "1", "2", "3"], "rt": [3860, 136, 98], "actions": ["up", "up", "right"], "actionTimes": [5374, 6009, 6605], "queries": {"click": {"state": {"target": ["11", "3"], "time": [2937, 4377]}, "edge": {"target": [], "time": []}}, "mouseover": {"state": {"target": ["11", "4", "2", "3"], "time": [2419, 3621, 3669, 3956]}, "edge": {"target": [], "time": []}}, "mouseout": {"state": {"target": ["3", "1", "0", "11", "4", "2"], "time": [699, 783, 2251, 3604, 3653, 3686]}, "edge": {"target": [], "time": []}}}, "displayed_time": "9.52", "trialTime": 10830, "trial_type": "mouselab-mdp", "trial_index": 90, "time_elapsed": 1616490, "internal_node_id": "0.0-4.0-5.0-19.0"}}, {"uniqueid": "w11892020:a30818266", "current_trial": 91, "dateTime": 1664556543231, "trialdata": {"revealed_states": [], "num_clicks_accrued": [0, 0, 0, 0, 0, 0, 0, 0, 0, 0, 0, 0, 0], "stateRewards": ["", -4, 8, -24, 24, -2, -8, 24, -24, 4, -4, -48, 48], "withholdReward": false, "trial_id": "mdp_297684722007", "block": "test3", "trialIndex": 82, "score": 51.5, "costs": -1.5, "simulationMode": [null, null, null], "rewards": [4, -4, 48], "path": ["0", "0", "9", "10", "12"], "rt": [9685, 176, 104], "actions": ["left", "left", "down"], "actionTimes": [11735, 12412, 13007], "queries": {"click": {"state": {"target": ["8", "7", "3", "11", "4", "12"], "time": [3433, 4601, 6789, 8245, 9433, 11009]}, "edge": {"target": [], "time": []}}, "mouseover": {"state": {"target": ["5", "8", "6", "7", "3", "3", "11", "4", "10", "12"], "time": [2724, 2924, 4025, 4092, 5394, 5778, 7747, 8948, 10131, 10567]}, "edge": {"target": [], "time": []}}, "mouseout": {"state": {"target": ["3", "0", "5", "8", "6", "7", "3", "3", "11", "4", "10"], "time": [838, 2707, 2757, 4001, 4059, 5361, 5427, 7463, 8868, 10081, 10533]}, "edge": {"target": [], "time": []}}}, "displayed_time": "13.50", "trialTime": 14380, "trial_type": "mouselab-mdp", "trial_index": 91, "time_elapsed": 1630965, "internal_node_id": "0.0-4.0-5.0-20.0"}}, {"uniqueid": "w11892020:a30818266", "current_trial": 92, "dateTime": 1664556555593, "trialdata": {"revealed_states": [], "num_clicks_accrued": [0, 0, 0, 0, 0, 0, 0, 0, 0, 0, 0, 0, 0], "stateRewards": ["", -2, -4, 48, -24, -4, -4, -24, -24, -2, 4, -48, -24], "withholdReward": true, "trial_id": "mdp_410467837196", "block": "test3", "trialIndex": 83, "score": 46, "costs": -1, "simulationMode": [null, null, null], "rewards": [-2, -4, 48], "path": ["0", "0", "1", "2", "3"], "rt": [6817, 195, 494], "actions": ["up", "up", "right"], "actionTimes": [8551, 9248, 10233], "queries": {"click": {"state": {"target": ["12", "11", "4", "3"], "time": [3187, 5202, 6527, 7738]}, "edge": {"target": [], "time": []}}, "mouseover": {"state": {"target": ["12", "10", "11", "4", "4", "2", "3"], "time": [2513, 3864, 4332, 5700, 6048, 6984, 7318]}, "edge": {"target": [], "time": []}}, "mouseout": {"state": {"target": ["12", "0", "12", "10", "11", "4", "4", "2"], "time": [792, 2430, 3848, 4315, 5666, 5749, 6951, 7017]}, "edge": {"target": [], "time": []}}}, "displayed_time": "10.73", "trialTime": 12265, "trial_type": "mouselab-mdp", "trial_index": 92, "time_elapsed": 1643327, "internal_node_id": "0.0-4.0-5.0-21.0"}}, {"uniqueid": "w11892020:a30818266", "current_trial": 93, "dateTime": 1664556570581, "trialdata": {"revealed_states": [], "num_clicks_accrued": [0, 0, 0, 0, 0, 0, 0, 0, 0, 0, 0, 0, 0], "stateRewards": ["", -2, -4, -48, -48, 4, 8, 24, -48, 4, -8, 24, 24], "withholdReward": true, "trial_id": "mdp_749799219195", "block": "test3", "trialIndex": 84, "score": 23.5, "costs": -1.5, "simulationMode": [null, null, null], "rewards": [4, -8, 24], "path": ["0", "0", "9", "10", "12"], "rt": [9758, 145, 250], "actions": ["left", "left", "down"], "actionTimes": [12211, 12847, 13585], "queries": {"click": {"state": {"target": ["8", "7", "3", "4", "11", "12"], "time": [4138, 5544, 6760, 8000, 9788, 11004]}, "edge": {"target": [], "time": []}}, "mouseover": {"state": {"target": ["5", "8", "