{"condition": 1, "counterbalance": 0, "assignmentId": "a12363233", "workerId": "w11057925", "hitId": "h48872399", "currenttrial": 143, "bonus": 0, "data": [{"uniqueid": "w11057925:a12363233", "current_trial": 0, "dateTime": 1664463907101, "trialdata": {"success": true, "trial_type": "fullscreen", "trial_index": 0, "time_elapsed": 8396, "internal_node_id": "0.0-0.0"}}, {"uniqueid": "w11057925:a12363233", "current_trial": 1, "dateTime": 1664463922686, "trialdata": {"view_history": [{"page_index": 0, "viewing_time": 15581}], "rt": 15582, "trial_id": "exp_instructions_no_distractor", "trial_type": "instructions", "trial_index": 1, "time_elapsed": 23981, "internal_node_id": "0.0-1.0"}}, {"uniqueid": "w11057925:a12363233", "current_trial": 2, "dateTime": 1664463926324, "trialdata": {"success": true, "trial_type": "fullscreen", "trial_index": 2, "time_elapsed": 27619, "internal_node_id": "0.0-2.0-0.0"}}, {"uniqueid": "w11057925:a12363233", "current_trial": 3, "dateTime": 1664464061548, "trialdata": {"view_history": [{"page_index": 0, "viewing_time": 52344}, {"page_index": 1, "viewing_time": 30185}, {"page_index": 2, "viewing_time": 15493}, {"page_index": 3, "viewing_time": 8993}, {"page_index": 4, "viewing_time": 28206}], "rt": 135221, "trial_id": "mouselab_instructions_1", "trial_type": "instructions", "trial_index": 3, "time_elapsed": 162842, "internal_node_id": "0.0-2.0-1.0"}}, {"uniqueid": "w11057925:a12363233", "current_trial": 4, "dateTime": 1664464081899, "trialdata": {"revealed_states": [], "num_clicks_accrued": [0, 0, 0, 0, 0, 0, 0, 0, 0, 0, 0, 0, 0], "stateRewards": ["", -10, 10, 10, -10, -10, -10, 10, -10, -10, 10, -10, -10], "withholdReward": false, "trial_id": "practice_1", "block": "test", "trialIndex": 0, "score": 11.25, "costs": -0.75, "simulationMode": [null, null, null], "rewards": [-10, 10, 10], "path": ["0", "0", "1", "2", "3"], "rt": [8003, 2309, 2757], "actions": ["up", "up", "right"], "actionTimes": [9922, 12736, 15993], "queries": {"click": {"state": {"target": ["5", "1", "9"], "time": [3544, 4300, 4881]}, "edge": {"target": [], "time": []}}, "mouseover": {"state": {"target": ["5", "1", "9", "0", "2"], "time": [3102, 4069, 4668, 7568, 8985]}, "edge": {"target": [], "time": []}}, "mouseout": {"state": {"target": ["5", "8", "0", "5", "1", "9", "0", "1", "1", "1", "1", "2", "3", "2", "2", "2", "2", "1", "0"], "time": [18, 185, 2969, 3860, 4461, 5076, 7576, 8009, 8285, 8719, 8968, 9018, 10485, 10593, 11284, 13260, 13351, 16510, 16576]}, "edge": {"target": [], "time": []}}}, "displayed_time": "16.50", "trialTime": 19998, "trial_type": "mouselab-mdp", "trial_index": 4, "time_elapsed": 183194, "internal_node_id": "0.0-2.0-2.0-0.0"}}, {"uniqueid": "w11057925:a12363233", "current_trial": 5, "dateTime": 1664464093725, "trialdata": {"revealed_states": [], "num_clicks_accrued": [0, 0, 0, 0, 0, 0, 0, 0, 0, 0, 0, 0, 0], "stateRewards": ["", 10, 10, -10, -10, -10, -10, -10, -10, 10, 10, -10, -10], "withholdReward": false, "trial_id": "practice_2", "block": "test", "trialIndex": 1, "score": 11.75, "costs": -0.25, "simulationMode": [null, null, null], "rewards": [10, 10, -10], "path": ["0", "0", "9", "10", "12"], "rt": [2760, 1555, 948], "actions": ["left", "left", "down"], "actionTimes": [4790, 6856, 8317], "queries": {"click": {"state": {"target": ["9"], "time": [3374]}, "edge": {"target": [], "time": []}}, "mouseover": {"state": {"target": ["9", "9"], "time": [2733, 2949]}, "edge": {"target": [], "time": []}}, "mouseout": {"state": {"target": ["0", "9", "9", "10"], "time": [2699, 2792, 3525, 7114]}, "edge": {"target": [], "time": []}}}, "displayed_time": "8.83", "trialTime": 11790, "trial_type": "mouselab-mdp", "trial_index": 5, "time_elapsed": 195020, "internal_node_id": "0.0-2.0-2.0-1.0"}}, {"uniqueid": "w11057925:a12363233", "current_trial": 6, "dateTime": 1664464179141, "trialdata": {"view_history": [{"page_index": 0, "viewing_time": 39697}, {"page_index": 1, "viewing_time": 30706}, {"page_index": 2, "viewing_time": 15009}], "rt": 85413, "trial_id": "mouselab_instructions_2_scarce", "trial_type": "instructions", "trial_index": 6, "time_elapsed": 280435, "internal_node_id": "0.0-2.0-3.0"}}, {"uniqueid": "w11057925:a12363233", "current_trial": 7, "dateTime": 1664464241009, "trialdata": {"rt": 61864, "response": {"Q0": "$-48 to $48", "Q1": "The cost is always $0.25.", "Q2": "The better I perform the higher my bonus will be.", "Q3": "No, the structure of the web will be different each time.", "Q4": "The values of the nodes walked through from start to finish.", "Q5": "No, the spider might forget to count the money on some rounds."}, "question_order": [0, 1, 2, 3, 4, 5], "correct": {"Q0": "$-48 to $48", "Q1": "The cost is always $0.25.", "Q2": "The better I perform the higher my bonus will be.", "Q3": "No, the amount of cash at each node of the web may be different each time.", "Q4": "The values of the nodes walked through from start to finish.", "Q5": "No, the spider might forget to count the money on some rounds."}, "trial_id": "mouselab_quiz_scarce", "trial_type": "survey-multi-choice", "trial_index": 7, "time_elapsed": 342304, "internal_node_id": "0.0-2.0-4.0"}}, {"uniqueid": "w11057925:a12363233", "current_trial": 8, "dateTime": 1664464249312, "trialdata": {"success": true, "trial_type": "fullscreen", "trial_index": 8, "time_elapsed": 350607, "internal_node_id": "0.0-2.1-0.1"}}, {"uniqueid": "w11057925:a12363233", "current_trial": 9, "dateTime": 1664464279815, "trialdata": {"view_history": [{"page_index": 0, "viewing_time": 7409}, {"page_index": 1, "viewing_time": 8038}, {"page_index": 2, "viewing_time": 2562}, {"page_index": 3, "viewing_time": 1379}, {"page_index": 4, "viewing_time": 11113}], "rt": 30501, "trial_id": "mouselab_instructions_1", "trial_type": "instructions", "trial_index": 9, "time_elapsed": 381110, "internal_node_id": "0.0-2.1-1.1"}}, {"uniqueid": "w11057925:a12363233", "current_trial": 10, "dateTime": 1664464288234, "trialdata": {"revealed_states": [], "num_clicks_accrued": [0, 0, 0, 0, 0, 0, 0, 0, 0, 0, 0, 0, 0], "stateRewards": ["", -10, 10, 10, -10, -10, -10, 10, -10, -10, 10, -10, -10], "withholdReward": false, "trial_id": "practice_1", "block": "test", "trialIndex": 2, "score": -28, "costs": 0, "simulationMode": [null, null, null], "rewards": [-10, -10, -10], "path": ["0", "0", "5", "6", "8"], "rt": [1492, 544, 135], "actions": ["right", "right", "down"], "actionTimes": [4304, 5360, 6005], "queries": {"click": {"state": {"target": [], "time": []}, "edge": {"target": [], "time": []}}, "mouseover": {"state": {"target": ["0"], "time": [3106]}, "edge": {"target": [], "time": []}}, "mouseout": {"state": {"target": ["10", "9", "0", "0"], "time": [2581, 2606, 2697, 3739]}, "edge": {"target": [], "time": []}}}, "displayed_time": "6.50", "trialTime": 8385, "trial_type": "mouselab-mdp", "trial_index": 10, "time_elapsed": 389529, "internal_node_id": "0.0-2.1-2.1-0.1"}}, {"uniqueid": "w11057925:a12363233", "current_trial": 11, "dateTime": 1664464296443, "trialdata": {"revealed_states": [], "num_clicks_accrued": [0, 0, 0, 0, 0, 0, 0, 0, 0, 0, 0, 0, 0], "stateRewards": ["", 10, 10, -10, -10, -10, -10, -10, -10, 10, 10, -10, -10], "withholdReward": false, "trial_id": "practice_2", "block": "test", "trialIndex": 3, "score": 12, "costs": 0, "simulationMode": [null, null, null], "rewards": [10, 10, -10], "path": ["0", "0", "9", "10", "12"], "rt": [812, 48, 29], "actions": ["left", "left", "down"], "actionTimes": [3518, 4072, 4612], "queries": {"click": {"state": {"target": [], "time": []}, "edge": {"target": [], "time": []}}, "mouseover": {"state": {"target": [], "time": []}, "edge": {"target": [], "time": []}}, "mouseout": {"state": {"target": ["8", "5", "0", "1", "5", "8"], "time": [1736, 2478, 6070, 6269, 6294, 6320]}, "edge": {"target": [], "time": []}}}, "displayed_time": "5.12", "trialTime": 8192, "trial_type": "mouselab-mdp", "trial_index": 11, "time_elapsed": 397738, "internal_node_id": "0.0-2.1-2.1-1.1"}}, {"uniqueid": "w11057925:a12363233", "current_trial": 12, "dateTime": 1664464308462, "trialdata": {"view_history": [{"page_index": 0, "viewing_time": 9569}, {"page_index": 1, "viewing_time": 1534}, {"page_index": 2, "viewing_time": 914}], "rt": 12017, "trial_id": "mouselab_instructions_2_scarce", "trial_type": "instructions", "trial_index": 12, "time_elapsed": 409757, "internal_node_id": "0.0-2.1-3.1"}}, {"uniqueid": "w11057925:a12363233", "current_trial": 13, "dateTime": 1664464335062, "trialdata": {"rt": 26598, "response": {"Q0": "$-48 to $48", "Q1": "The cost is always $0.25.", "Q2": "The better I perform the higher my bonus will be.", "Q3": "No, the amount of cash at each node of the web may be different each time.", "Q4": "The values of the nodes walked through from start to finish.", "Q5": "No, the spider might forget to count the money on some rounds."}, "question_order": [0, 1, 2, 3, 4, 5], "correct": {"Q0": "$-48 to $48", "Q1": "The cost is always $0.25.", "Q2": "The better I perform the higher my bonus will be.", "Q3": "No, the amount of cash at each node of the web may be different each time.", "Q4": "The values of the nodes walked through from start to finish.", "Q5": "No, the spider might forget to count the money on some rounds."}, "trial_id": "mouselab_quiz_scarce", "trial_type": "survey-multi-choice", "trial_index": 13, "time_elapsed": 436357, "internal_node_id": "0.0-2.1-4.1"}}, {"uniqueid": "w11057925:a12363233", "current_trial": 14, "dateTime": 1664464351805, "trialdata": {"rt": 16735, "stimulus": "\n<h1> Get ready to start the game! </h1>\n\nThank you for reading the instructions. Get ready start with the first of 4 block(s) of this game.\n<br><br>\nIn this first block, you will complete 30 rounds of this game before moving on.\n<br><br>\nRemember, the more money the spider gets, the bigger your bonus will be!\n<br><br>\n<div style='text-align: center;'>Press <code>space</code> to begin.</div>\n\n<br><br>\n(If, at any point, the <code>space</code> key does not take you to the next page, click once on the text and try again.)", "response": " ", "trial_id": "mdp_ready_1", "trial_type": "html-keyboard-response", "trial_index": 14, "time_elapsed": 453100, "internal_node_id": "0.0-4.0-0.0"}}, {"uniqueid": "w11057925:a12363233", "current_trial": 15, "dateTime": 1664464363880, "trialdata": {"revealed_states": [], "num_clicks_accrued": [0, 0, 0, 0, 0, 0, 0, 0, 0, 0, 0, 0, 0], "stateRewards": ["", -2, -8, -24, -48, -2, -4, 48, -48, 4, 4, -48, 48], "withholdReward": false, "trial_id": "mdp_156977432949", "block": "test1", "trialIndex": 4, "score": -35.75, "costs": -0.75, "simulationMode": [null, null, null], "rewards": [4, 4, -48], "path": ["0", "0", "9", "10", "11"], "rt": [4211, 32, 347], "actions": ["left", "left", "up"], "actionTimes": [5113, 5663, 6536], "queries": {"click": {"state": {"target": ["1", "9", "5"], "time": [1708, 2405, 3150]}, "edge": {"target": [], "time": []}}, "mouseover": {"state": {"target": ["1", "9", "5", "0", "4"], "time": [1463, 2345, 3079, 3379, 4046]}, "edge": {"target": [], "time": []}}, "mouseout": {"state": {"target": ["4", "1", "9", "5", "0", "9", "4", "0"], "time": [66, 1896, 2563, 3329, 3421, 3587, 4429, 6859]}, "edge": {"target": [], "time": []}}}, "displayed_time": "9.90", "trialTime": 12023, "trial_type": "mouselab-mdp", "trial_index": 15, "time_elapsed": 465175, "internal_node_id": "0.0-4.0-1.0-0.0"}}, {"uniqueid": "w11057925:a12363233", "current_trial": 16, "dateTime": 1664464376763, "trialdata": {"revealed_states": [], "num_clicks_accrued": [0, 0, 0, 0, 0, 0, 0, 0, 0, 0, 0, 0, 0], "stateRewards": ["", 4, 4, -24, -48, 2, 4, 24, -48, 2, 4, 24, 24], "withholdReward": true, "trial_id": "mdp_223558518218", "block": "test1", "trialIndex": 5, "score": -36.25, "costs": -1.25, "simulationMode": [null, null, null], "rewards": [4, 4, -48], "path": ["0", "0", "1", "2", "4"], "rt": [5903, 687, 202], "actions": ["up", "up", "left"], "actionTimes": [7381, 8585, 9314], "queries": {"click": {"state": {"target": ["9", "1", "5", "2", "3"], "time": [1996, 2318, 2891, 4856, 6883]}, "edge": {"target": [], "time": []}}, "mouseover": {"state": {"target": ["9", "1", "5", "5", "2", "2", "3", "0"], "time": [1827, 2152, 2502, 2793, 4043, 4677, 5668, 7293]}, "edge": {"target": [], "time": []}}, "mouseout": {"state": {"target": ["9", "1", "5", "5", "5", "1", "2", "2", "3", "0", "1", "0"], "time": [2101, 2460, 2535, 3018, 3427, 4002, 4460, 5068, 6985, 7310, 8972, 9085]}, "edge": {"target": [], "time": []}}}, "displayed_time": "10.48", "trialTime": 12862, "trial_type": "mouselab-mdp", "trial_index": 16, "time_elapsed": 478057, "internal_node_id": "0.0-4.0-1.0-1.0"}}, {"uniqueid": "w11057925:a12363233", "current_trial": 17, "dateTime": 1664464388484, "trialdata": {"revealed_states": [], "num_clicks_accrued": [0, 0, 0, 0, 0, 0, 0, 0, 0, 0, 0, 0, 0], "stateRewards": ["", -2, -8, 48, 24, 2, 4, 24, -24, -2, -4, 48, -48], "withholdReward": false, "trial_id": "mdp_411152402386", "block": "test1", "trialIndex": 6, "score": 34, "costs": -1, "simulationMode": [null, null, null], "rewards": [2, 4, 24], "path": ["0", "0", "5", "6", "7"], "rt": [3600, 62, 41], "actions": ["right", "right", "up"], "actionTimes": [4491, 5056, 5623], "queries": {"click": {"state": {"target": ["9", "1", "5", "7"], "time": [1890, 2227, 2568, 3860]}, "edge": {"target": [], "time": []}}, "mouseover": {"state": {"target": ["9", "1", "5", "8", "6", "7", "6"], "time": [1769, 2077, 2486, 3052, 3169, 3435, 4019]}, "edge": {"target": [], "time": []}}, "mouseout": {"state": {"target": ["0", "9", "1", "5", "8", "6", "7", "6"], "time": [1568, 2027, 2377, 2735, 3110, 3369, 3993, 4035]}, "edge": {"target": [], "time": []}}}, "displayed_time": "9.89", "trialTime": 11693, "trial_type": "mouselab-mdp", "trial_index": 17, "time_elapsed": 489779, "internal_node_id": "0.0-4.0-1.0-2.0"}}, {"uniqueid": "w11057925:a12363233", "current_trial": 18, "dateTime": 1664464401637, "trialdata": {"revealed_states": [], "num_clicks_accrued": [0, 0, 0, 0, 0, 0, 0, 0, 0, 0, 0, 0, 0], "stateRewards": ["", 2, 4, -48, 24, -4, -4, -24, 24, 2, -4, 24, -24], "withholdReward": true, "trial_id": "mdp_163600331068", "block": "test1", "trialIndex": 7, "score": 34, "costs": -1, "simulationMode": [null, null, null], "rewards": [2, 4, 24], "path": ["0", "0", "1", "2", "4"], "rt": [4894, 118, 573], "actions": ["up", "up", "left"], "actionTimes": [6537, 7157, 8240], "queries": {"click": {"state": {"target": ["1", "9", "5", "4"], "time": [2434, 2807, 3656, 5631]}, "edge": {"target": [], "time": []}}, "mouseover": {"state": {"target": ["1", "9", "5", "5", "4", "0"], "time": [2339, 2704, 3163, 3498, 5330, 5913]}, "edge": {"target": [], "time": []}}, "mouseout": {"state": {"target": ["0", "1", "9", "5", "5", "9", "4", "0"], "time": [1071, 2554, 3004, 3196, 3804, 5163, 5837, 5929]}, "edge": {"target": [], "time": []}}}, "displayed_time": "11.64", "trialTime": 13131, "trial_type": "mouselab-mdp", "trial_index": 18, "time_elapsed": 502932, "internal_node_id": "0.0-4.0-1.0-3.0"}}, {"uniqueid": "w11057925:a12363233", "current_trial": 19, "dateTime": 1664464416129, "trialdata": {"revealed_states": [], "num_clicks_accrued": [0, 0, 0, 0, 0, 0, 0, 0, 0, 0, 0, 0, 0], "stateRewards": ["", -4, -8, -24, 24, 4, 4, -48, -48, -4, -4, 24, -48], "withholdReward": false, "trial_id": "mdp_431592223624", "block": "test1", "trialIndex": 8, "score": 15, "costs": -2, "simulationMode": [null, null, null], "rewards": [-4, -8, 24], "path": ["0", "0", "1", "2", "4"], "rt": [10322, 303, 102], "actions": ["up", "up", "left"], "actionTimes": [11345, 12165, 12764], "queries": {"click": {"state": {"target": ["1", "9", "7", "8", "12", "3", "4", "11"], "time": [2006, 2541, 3990, 4617, 7164, 8465, 10062, 10653]}, "edge": {"target": [], "time": []}}, "mouseover": {"state": {"target": ["1", "9", "5", "6", "7", "6", "8", "5", "12", "2", "3", "3", "4", "4", "11"], "time": [1752, 2401, 3268, 3701, 3901, 4185, 4310, 5635, 7027, 7743, 8218, 8443, 9693, 10010, 10585]}, "edge": {"target": [], "time": []}}, "mouseout": {"state": {"target": ["0", "1", "9", "5", "6", "7", "6", "8", "8", "5", "12", "2", "3", "3", "9", "4", "4", "11", "9", "0"], "time": [1635, 2276, 2668, 3643, 3868, 4143, 4252, 4727, 5385, 5701, 7301, 7826, 8235, 8735, 9076, 9806, 10301, 10810, 10951, 11603]}, "edge": {"target": [], "time": []}}}, "displayed_time": "13.28", "trialTime": 14463, "trial_type": "mouselab-mdp", "trial_index": 19, "time_elapsed": 517424, "internal_node_id": "0.0-4.0-1.0-4.0"}}, {"uniqueid": "w11057925:a12363233", "current_trial": 20, "dateTime": 1664464427294, "trialdata": {"revealed_states": [], "num_clicks_accrued": [0, 0, 0, 0, 0, 0, 0, 0, 0, 0, 0, 0, 0], "stateRewards": ["", -2, 8, -24, 48, -4, 4, -48, 24, 4, -8, 48, -24], "withholdReward": false, "trial_id": "mdp_425320427962", "block": "test1", "trialIndex": 9, "score": 48, "costs": -1, "simulationMode": [null, null, null], "rewards": [4, -8, 48], "path": ["0", "0", "9", "10", "11"], "rt": [3621, 503, 258], "actions": ["left", "left", "up"], "actionTimes": [4372, 5388, 6151], "queries": {"click": {"state": {"target": ["1", "9", "5", "11"], "time": [1871, 2301, 3085, 3778]}, "edge": {"target": [], "time": []}}, "mouseover": {"state": {"target": ["1", "9", "5", "10", "11", "10", "12"], "time": [1767, 2224, 3058, 3591, 3675, 3941, 4016]}, "edge": {"target": [], "time": []}}, "mouseout": {"state": {"target": ["0", "1", "9", "5", "10", "11", "10", "12"], "time": [666, 2042, 2449, 3167, 3599, 3916, 3975, 5866]}, "edge": {"target": [], "time": []}}}, "displayed_time": "9.75", "trialTime": 11118, "trial_type": "mouselab-mdp", "trial_index": 20, "time_elapsed": 528589, "internal_node_id": "0.0-4.0-1.0-5.0"}}, {"uniqueid": "w11057925:a12363233", "current_trial": 21, "dateTime": 1664464438229, "trialdata": {"revealed_states": [], "num_clicks_accrued": [0, 0, 0, 0, 0, 0, 0, 0, 0, 0, 0, 0, 0], "stateRewards": ["", 4, 4, 48, -48, -2, 4, 48, -48, -4, 4, -24, -24], "withholdReward": false, "trial_id": "mdp_753324812898", "block": "test1", "trialIndex": 10, "score": 59.75, "costs": -1.25, "simulationMode": [null, null, null], "rewards": [4, 4, 48], "path": ["0", "0", "1", "2", "3"], "rt": [3685, 84, 21], "actions": ["up", "up", "right"], "actionTimes": [4502, 5096, 5635], "queries": {"click": {"state": {"target": ["1", "9", "5", "4", "3"], "time": [1349, 1769, 2398, 3242, 3966]}, "edge": {"target": [], "time": []}}, "mouseover": {"state": {"target": ["1", "9", "5", "4", "3"], "time": [1161, 1727, 2177, 3128, 3752]}, "edge": {"target": [], "time": []}}, "mouseout": {"state": {"target": ["9", "0", "1", "9", "5", "1", "4", "1", "3", "5", "5"], "time": [618, 1127, 1560, 1918, 2510, 2761, 3393, 3619, 4094, 5027, 6277]}, "edge": {"target": [], "time": []}}}, "displayed_time": "9.82", "trialTime": 10889, "trial_type": "mouselab-mdp", "trial_index": 21, "time_elapsed": 539524, "internal_node_id": "0.0-4.0-1.0-6.0"}}, {"uniqueid": "w11057925:a12363233", "current_trial": 22, "dateTime": 1664464447893, "trialdata": {"revealed_states": [], "num_clicks_accrued": [0, 0, 0, 0, 0, 0, 0, 0, 0, 0, 0, 0, 0], "stateRewards": ["", 2, -4, 48, -48, -4, -8, -48, 24, -4, 4, 48, 48], "withholdReward": true, "trial_id": "mdp_544803968425", "block": "test1", "trialIndex": 11, "score": 49.75, "costs": -1.25, "simulationMode": [null, null, null], "rewards": [2, -4, 48], "path": ["0", "0", "1", "2", "3"], "rt": [4487, 148, 128], "actions": ["up", "up", "right"], "actionTimes": [5300, 5958, 6596], "queries": {"click": {"state": {"target": ["1", "9", "5", "4", "3"], "time": [1919, 3026, 3433, 4393, 4892]}, "edge": {"target": [], "time": []}}, "mouseover": {"state": {"target": ["1", "0", "0", "9", "5", "0", "2", "4", "3"], "time": [1850, 2408, 2592, 2919, 3299, 3974, 4083, 4274, 4800]}, "edge": {"target": [], "time": []}}, "mouseout": {"state": {"target": ["0", "1", "0", "0", "9", "5", "0", "2", "4", "1", "3"], "time": [1299, 2083, 2425, 2600, 3192, 3599, 3983, 4158, 4533, 4575, 5041]}, "edge": {"target": [], "time": []}}}, "displayed_time": "8.81", "trialTime": 9626, "trial_type": "mouselab-mdp", "trial_index": 22, "time_elapsed": 549188, "internal_node_id": "0.0-4.0-1.0-7.0"}}, {"uniqueid": "w11057925:a12363233", "current_trial": 23, "dateTime": 1664464460142, "trialdata": {"revealed_states": [], "num_clicks_accrued": [0, 0, 0, 0, 0, 0, 0, 0, 0, 0, 0, 0, 0], "stateRewards": ["", 2, -4, 48, -48, -2, 8, -48, 24, -2, -8, 48, 48], "withholdReward": true, "trial_id": "mdp_949326095747", "block": "test1", "trialIndex": 12, "score": 49.75, "costs": -1.25, "simulationMode": [null, null, null], "rewards": [2, -4, 48], "path": ["0", "0", "1", "2", "3"], "rt": [3743, 683, 194], "actions": ["up", "up", "right"], "actionTimes": [4785, 5989, 6700], "queries": {"click": {"state": {"target": ["1", "9", "5", "4", "3"], "time": [1471, 2211, 2548, 3701, 4480]}, "edge": {"target": [], "time": []}}, "mouseover": {"state": {"target": ["1", "0", "0", "9", "5", "2", "4", "2", "3", "3", "8"], "time": [1397, 1939, 2114, 2147, 2423, 3022, 3406, 3989, 4247, 4430, 4747]}, "edge": {"target": [], "time": []}}, "mouseout": {"state": {"target": ["0", "1", "0", "0", "9", "5", "1", "2", "4", "2", "3", "3", "8", "8"], "time": [913, 1597, 1972, 2122, 2330, 2705, 2997, 3213, 3855, 3997, 4272, 4680, 4755, 7245]}, "edge": {"target": [], "time": []}}}, "displayed_time": "11.04", "trialTime": 12223, "trial_type": "mouselab-mdp", "trial_index": 23, "time_elapsed": 561437, "internal_node_id": "0.0-4.0-1.0-8.0"}}, {"uniqueid": "w11057925:a12363233", "current_trial": 24, "dateTime": 1664464473301, "trialdata": {"revealed_states": [], "num_clicks_accrued": [0, 0, 0, 0, 0, 0, 0, 0, 0, 0, 0, 0, 0], "stateRewards": ["", 2, 4, 48, -24, 2, -8, -24, -24, 2, -8, -24, -48], "withholdReward": true, "trial_id": "mdp_274832552938", "block": "test1", "trialIndex": 13, "score": 56.75, "costs": -2.25, "simulationMode": [null, null, null], "rewards": [2, 4, 48], "path": ["0", "0", "1", "2", "3"], "rt": [7554, 36, 32], "actions": ["up", "up", "right"], "actionTimes": [8735, 9279, 9829], "queries": {"click": {"state": {"target": ["1", "9", "5", "4", "8", "12", "11", "7", "3"], "time": [2324, 3405, 3793, 4720, 5866, 6633, 7260, 7866, 8396]}, "edge": {"target": [], "time": []}}, "mouseover": {"state": {"target": ["1", "1", "1", "0", "5", "0", "9", "0", "5", "2", "4", "0", "7", "6", "8", "12", "10", "11", "7", "6", "3"], "time": [1612, 1863, 2229, 2496, 3045, 3163, 3354, 3587, 3695, 4462, 4587, 4970, 5545, 5712, 5745, 6537, 7095, 7146, 7745, 8062, 8270]}, "edge": {"target": [], "time": []}}, "mouseout": {"state": {"target": ["0", "1", "1", "1", "0", "5", "0", "9", "0", "5", "2", "4", "0", "5", "7", "6", "8", "12", "10", "11", "9", "5", "7", "6", "5", "3", "5"], "time": [1579, 1662, 1970, 2463, 2512, 3146, 3229, 3562, 3621, 4004, 4554, 4879, 5021, 5137, 5679, 5729, 6054, 6795, 7129, 7420, 7479, 7637, 8046, 8079, 8229, 8529, 8562]}, "edge": {"target": [], "time": []}}}, "displayed_time": "10.36", "trialTime": 13131, "trial_type": "mouselab-mdp", "trial_index": 24, "time_elapsed": 574596, "internal_node_id": "0.0-4.0-1.0-9.0"}}, {"uniqueid": "w11057925:a12363233", "current_trial": 25, "dateTime": 1664464492632, "trialdata": {"revealed_states": [], "num_clicks_accrued": [0, 0, 0, 0, 0, 0, 0, 0, 0, 0, 0, 0, 0], "stateRewards": ["", 4, 4, 24, 24, 4, -4, 48, 48, 4, 4, 24, -48], "withholdReward": true, "trial_id": "mdp_454251689008", "block": "test1", "trialIndex": 14, "score": 52.5, "costs": -0.5, "simulationMode": [null, null, null], "rewards": [4, -4, 48], "path": ["0", "0", "5", "6", "8"], "rt": [1666, 41, 11], "actions": ["right", "right", "down"], "actionTimes": [2986, 3535, 4062], "queries": {"click": {"state": {"target": ["3", "8"], "time": [1768, 2297]}, "edge": {"target": [], "time": []}}, "mouseover": {"state": {"target": ["3", "7", "8"], "time": [1608, 1917, 2184]}, "edge": {"target": [], "time": []}}, "mouseout": {"state": {"target": ["0", "1", "0", "3", "7", "8"], "time": [768, 1008, 1191, 1891, 1950, 2466]}, "edge": {"target": [], "time": []}}}, "displayed_time": "10.32", "trialTime": 19300, "trial_type": "mouselab-mdp", "trial_index": 25, "time_elapsed": 593927, "internal_node_id": "0.0-4.0-1.0-10.0"}}, {"uniqueid": "w11057925:a12363233", "current_trial": 26, "dateTime": 1664464503739, "trialdata": {"revealed_states": [], "num_clicks_accrued": [0, 0, 0, 0, 0, 0, 0, 0, 0, 0, 0, 0, 0], "stateRewards": ["", -4, 4, -24, 24, -2, -4, 48, 24, 2, 8, -48, 24], "withholdReward": true, "trial_id": "mdp_150340189492", "block": "test1", "trialIndex": 15, "score": 45.75, "costs": -1.25, "simulationMode": [null, null, null], "rewards": [-2, -4, 48], "path": ["0", "0", "5", "6", "7"], "rt": [4749, 36, 8], "actions": ["right", "right", "up"], "actionTimes": [6059, 6605, 7121], "queries": {"click": {"state": {"target": ["11", "3", "12", "4", "7"], "time": [2177, 2725, 3826, 4813, 5543]}, "edge": {"target": [], "time": []}}, "mouseover": {"state": {"target": ["11", "3", "3", "9", "12", "12", "6", "4", "1", "5", "6", "6", "7"], "time": [1848, 2440, 2682, 3023, 3416, 3723, 4415, 4707, 4982, 5073, 5241, 5381, 5507]}, "edge": {"target": [], "time": []}}, "mouseout": {"state": {"target": ["11", "3", "3", "9", "12", "12", "6", "3", "4", "1", "5", "6", "6", "7"], "time": [2341, 2448, 2956, 3031, 3606, 3981, 4432, 4573, 4932, 5015, 5148, 5281, 5423, 5682]}, "edge": {"target": [], "time": []}}}, "displayed_time": "10.31", "trialTime": 11080, "trial_type": "mouselab-mdp", "trial_index": 26, "time_elapsed": 605034, "internal_node_id": "0.0-4.0-1.0-11.0"}}, {"uniqueid": "w11057925:a12363233", "current_trial": 27, "dateTime": 1664464513561, "trialdata": {"revealed_states": [], "num_clicks_accrued": [0, 0, 0, 0, 0, 0, 0, 0, 0, 0, 0, 0, 0], "stateRewards": ["", 4, 4, 48, -24, 2, -4, 48, 24, -4, -4, -48, 24], "withholdReward": true, "trial_id": "mdp_496003763005", "block": "test1", "trialIndex": 16, "score": 50.75, "costs": -0.25, "simulationMode": [null, null, null], "rewards": [2, -4, 48], "path": ["0", "0", "5", "6", "7"], "rt": [1484, 47, 485], "actions": ["right", "right", "up"], "actionTimes": [2599, 3171, 4179], "queries": {"click": {"state": {"target": ["7"], "time": [2042]}, "edge": {"target": [], "time": []}}, "mouseover": {"state": {"target": ["6", "7", "7", "8", "5"], "time": [1520, 1670, 1920, 2362, 2470]}, "edge": {"target": [], "time": []}}, "mouseout": {"state": {"target": ["5", "0", "0", "6", "7", "7", "8", "5", "8", "6", "8", "8"], "time": [478, 570, 1412, 1645, 1703, 2187, 2428, 2537, 6653, 6686, 6970, 7379]}, "edge": {"target": [], "time": []}}}, "displayed_time": "9.12", "trialTime": 9775, "trial_type": "mouselab-mdp", "trial_index": 27, "time_elapsed": 614856, "internal_node_id": "0.0-4.0-1.0-12.0"}}, {"uniqueid": "w11057925:a12363233", "current_trial": 28, "dateTime": 1664464522873, "trialdata": {"revealed_states": [], "num_clicks_accrued": [0, 0, 0, 0, 0, 0, 0, 0, 0, 0, 0, 0, 0], "stateRewards": ["", -2, -8, 48, 24, 4, -8, 24, 48, 4, -4, 24, -48], "withholdReward": true, "trial_id": "mdp_871576155740", "block": "test1", "trialIndex": 17, "score": 42.75, "costs": -0.25, "simulationMode": [null, null, null], "rewards": [-2, -8, 48], "path": ["0", "0", "1", "2", "3"], "rt": [1015, 5, 2], "actions": ["up", "up", "right"], "actionTimes": [1625, 2155, 2684], "queries": {"click": {"state": {"target": ["3"], "time": [1073]}, "edge": {"target": [], "time": []}}, "mouseover": {"state": {"target": ["3", "5"], "time": [970, 1304]}, "edge": {"target": [], "time": []}}, "mouseout": {"state": {"target": ["9", "1", "0", "3", "5", "5"], "time": [287, 412, 804, 1262, 1346, 4712]}, "edge": {"target": [], "time": []}}}, "displayed_time": "8.61", "trialTime": 9271, "trial_type": "mouselab-mdp", "trial_index": 28, "time_elapsed": 624168, "internal_node_id": "0.0-4.0-1.0-13.0"}}, {"uniqueid": "w11057925:a12363233", "current_trial": 29, "dateTime": 1664464534071, "trialdata": {"revealed_states": [], "num_clicks_accrued": [0, 0, 0, 0, 0, 0, 0, 0, 0, 0, 0, 0, 0], "stateRewards": ["", -4, 8, -24, 24, -2, -8, 24, -24, 4, -4, -48, 48], "withholdReward": true, "trial_id": "mdp_297684722007", "block": "test1", "trialIndex": 18, "score": 51.75, "costs": -1.25, "simulationMode": [null, null, null], "rewards": [4, -4, 48], "path": ["0", "0", "9", "10", "12"], "rt": [4561, 113, 16], "actions": ["left", "left", "down"], "actionTimes": [5087, 5713, 6229], "queries": {"click": {"state": {"target": ["4", "11", "7", "8", "12"], "time": [1919, 2629, 3222, 3800, 4486]}, "edge": {"target": [], "time": []}}, "mouseover": {"state": {"target": ["1", "3", "2", "4", "0", "9", "11", "9", "6", "7", "6", "8", "12"], "time": [771, 1350, 1471, 1821, 2187, 2429, 2513, 2804, 3004, 3071, 3371, 3704, 4462]}, "edge": {"target": [], "time": []}}, "mouseout": {"state": {"target": ["0", "1", "3", "2", "4", "0", "9", "11", "9", "6", "7", "6", "8", "12", "0", "3", "1", "9", "9", "0"], "time": [412, 804, 1455, 1488, 2087, 2246, 2446, 2779, 2830, 3046, 3354, 3379, 3929, 4604, 7104, 7704, 7746, 7804, 10221, 10321]}, "edge": {"target": [], "time": []}}}, "displayed_time": "9.53", "trialTime": 11152, "trial_type": "mouselab-mdp", "trial_index": 29, "time_elapsed": 635365, "internal_node_id": "0.0-4.0-1.0-14.0"}}, {"uniqueid": "w11057925:a12363233", "current_trial": 30, "dateTime": 1664464544944, "trialdata": {"revealed_states": [], "num_clicks_accrued": [0, 0, 0, 0, 0, 0, 0, 0, 0, 0, 0, 0, 0], "stateRewards": ["", -4, -4, -48, -24, 2, 8, 24, -48, 4, 4, 48, 48], "withholdReward": false, "trial_id": "mdp_693501840209", "block": "test1", "trialIndex": 19, "score": 60.75, "costs": -0.25, "simulationMode": [null, null, null], "rewards": [4, 4, 48], "path": ["0", "0", "9", "10", "11"], "rt": [1486, 17, 485], "actions": ["left", "left", "up"], "actionTimes": [2536, 3067, 4074], "queries": {"click": {"state": {"target": ["11"], "time": [1895]}, "edge": {"target": [], "time": []}}, "mouseover": {"state": {"target": ["11", "1"], "time": [1597, 2231]}, "edge": {"target": [], "time": []}}, "mouseout": {"state": {"target": ["0", "0", "11", "1", "8", "8"], "time": [722, 1272, 2139, 2372, 5989, 7789]}, "edge": {"target": [], "time": []}}}, "displayed_time": "8.05", "trialTime": 10828, "trial_type": "mouselab-mdp", "trial_index": 30, "time_elapsed": 646239, "internal_node_id": "0.0-4.0-1.0-15.0"}}, {"uniqueid": "w11057925:a12363233", "current_trial": 31, "dateTime": 1664464567479, "trialdata": {"revealed_states": [], "num_clicks_accrued": [0, 0, 0, 0, 0, 0, 0, 0, 0, 0, 0, 0, 0], "stateRewards": ["", -2, 8, 24, -48, -4, -8, -24, -48, -4, 8, -24, 48], "withholdReward": true, "trial_id": "mdp_464339499860", "block": "test1", "trialIndex": 20, "score": 55.75, "costs": -1.25, "simulationMode": [null, null, null], "rewards": [-4, 8, 48], "path": ["0", "0", "9", "10", "12"], "rt": [4943, 550, 138], "actions": ["left", "left", "down"], "actionTimes": [5688, 6753, 7415], "queries": {"click": {"state": {"target": ["7", "3", "4", "11", "12"], "time": [1304, 2489, 3509, 4075, 5149]}, "edge": {"target": [], "time": []}}, "mouseover": {"state": {"target": ["6", "7", "6", "8", "8", "6", "3", "1", "11", "4", "11", "10", "11", "9", "12", "12"], "time": [1147, 1181, 1514, 1581, 1889, 2230, 2289, 2739, 2948, 3430, 3822, 3889, 4005, 4280, 4714, 4947]}, "edge": {"target": [], "time": []}}, "mouseout": {"state": {"target": ["0", "6", "7", "6", "8", "8", "6", "3", "1", "11", "4", "11", "10", "11", "9", "12", "12"], "time": [989, 1164, 1464, 1564, 1597, 2222, 2247, 2697, 2756, 2989, 3672, 3839, 3972, 4239, 4314, 4722, 5314]}, "edge": {"target": [], "time": []}}}, "displayed_time": "9.74", "trialTime": 22505, "trial_type": "mouselab-mdp", "trial_index": 31, "time_elapsed": 668774, "internal_node_id": "0.0-4.0-1.0-16.0"}}, {"uniqueid": "w11057925:a12363233", "current_trial": 32, "dateTime": 1664464579124, "trialdata": {"revealed_states": [], "num_clicks_accrued": [0, 0, 0, 0, 0, 0, 0, 0, 0, 0, 0, 0, 0], "stateRewards": ["", 4, 4, -48, -24, -2, -4, 48, 24, -4, 4, 24, -48], "withholdReward": true, "trial_id": "mdp_617383046444", "block": "test1", "trialIndex": 21, "score": 46, "costs": -1, "simulationMode": [null, null, null], "rewards": [-2, -4, 48], "path": ["0", "0", "5", "6", "7"], "rt": [2785, 4, 514], "actions": ["right", "right", "up"], "actionTimes": [4784, 5304, 6345], "queries": {"click": {"state": {"target": ["12", "11", "3", "7"], "time": [2566, 3212, 3693, 4224]}, "edge": {"target": [], "time": []}}, "mouseover": {"state": {"target": ["9", "12", "9", "11", "1", "3", "7", "7", "8"], "time": [2298, 2399, 2764, 3114, 3381, 3523, 3889, 4148, 4573]}, "edge": {"target": [], "time": []}}, "mouseout": {"state": {"target": ["8", "6", "5", "0", "9", "9", "9", "12", "9", "11", "1", "3", "7", "7", "8"], "time": [873, 906, 1167, 1431, 1456, 1798, 2323, 2723, 2798, 3348, 3398, 3856, 3964, 4373, 4739]}, "edge": {"target": [], "time": []}}}, "displayed_time": "10.00", "trialTime": 11618, "trial_type": "mouselab-mdp", "trial_index": 32, "time_elapsed": 680419, "internal_node_id": "0.0-4.0-1.0-17.0"}}, {"uniqueid": "w11057925:a12363233", "current_trial": 33, "dateTime": 1664464589289, "trialdata": {"revealed_states": [], "num_clicks_accrued": [0, 0, 0, 0, 0, 0, 0, 0, 0, 0, 0, 0, 0], "stateRewards": ["", -4, -4, -24, -48, -4, 8, -24, -48, 4, -8, 24, -24], "withholdReward": true, "trial_id": "mdp_924927483179", "block": "test1", "trialIndex": 22, "score": -24.25, "costs": -1.25, "simulationMode": [null, null, null], "rewards": [4, -8, -24], "path": ["0", "0", "9", "10", "12"], "rt": [3631, 56, 18], "actions": ["left", "left", "down"], "actionTimes": [4222, 4796, 5329], "queries": {"click": {"state": {"target": ["7", "8", "3", "4", "11"], "time": [1100, 1569, 2235, 2979, 3420]}, "edge": {"target": [], "time": []}}, "mouseover": {"state": {"target": ["5", "7", "6", "8", "8", "5", "2", "3", "2", "4", "11", "10", "12", "12"], "time": [744, 1026, 1326, 1368, 1468, 1768, 1844, 2143, 2493, 2776, 3285, 3593, 3810, 4110]}, "edge": {"target": [], "time": []}}, "mouseout": {"state": {"target": ["0", "5", "7", "6", "8", "8", "5", "2", "3", "2", "4", "11", "10", "12", "12", "11", "11", "10"], "time": [726, 760, 1293, 1351, 1385, 1677, 1785, 1868, 2435, 2577, 3202, 3568, 3618, 3976, 4540, 7784, 8151, 8160]}, "edge": {"target": [], "time": []}}}, "displayed_time": "9.59", "trialTime": 10137, "trial_type": "mouselab-mdp", "trial_index": 33, "time_elapsed": 690584, "internal_node_id": "0.0-4.0-1.0-18.0"}}, {"uniqueid": "w11057925:a12363233", "current_trial": 34, "dateTime": 1664464600351, "trialdata": {"revealed_states": [], "num_clicks_accrued": [0, 0, 0, 0, 0, 0, 0, 0, 0, 0, 0, 0, 0], "stateRewards": ["", -4, 8, 24, -24, 4, 8, -24, -48, 2, 4, 24, -24], "withholdReward": true, "trial_id": "mdp_782187007008", "block": "test1", "trialIndex": 23, "score": -8.25, "costs": -1.25, "simulationMode": [null, null, null], "rewards": [4, 8, -24], "path": ["0", "0", "5", "6", "7"], "rt": [4632, 157, 15], "actions": ["right", "right", "up"], "actionTimes": [5564, 6228, 6764], "queries": {"click": {"state": {"target": ["11", "3", "8", "12", "4"], "time": [1669, 2660, 3181, 3877, 4865]}, "edge": {"target": [], "time": []}}, "mouseover": {"state": {"target": ["0", "9", "10", "11", "11", "9", "3", "7", "6", "8", "12", "12", "10", "4", "4", "1", "5"], "time": [1100, 1244, 1285, 1327, 1535, 1827, 2594, 2852, 2886, 3077, 3544, 3819, 4070, 4327, 4794, 5102, 5144]}, "edge": {"target": [], "time": []}}, "mouseout": {"state": {"target": ["0", "0", "9", "10", "11", "11", "9", "3", "7", "6", "8", "12", "12", "10", "11", "4", "4", "1", "5", "6", "7", "3"], "time": [860, 1160, 1269, 1293, 1335, 1810, 1844, 2819, 2869, 2919, 3419, 3669, 4044, 4102, 4127, 4669, 5027, 5119, 5635, 5678, 6386, 10060]}, "edge": {"target": [], "time": []}}}, "displayed_time": "9.93", "trialTime": 11033, "trial_type": "mouselab-mdp", "trial_index": 34, "time_elapsed": 701646, "internal_node_id": "0.0-4.0-1.0-19.0"}}, {"uniqueid": "w11057925:a12363233", "current_trial": 35, "dateTime": 1664464610406, "trialdata": {"revealed_states": [], "num_clicks_accrued": [0, 0, 0, 0, 0, 0, 0, 0, 0, 0, 0, 0, 0], "stateRewards": ["", -4, -4, 24, -48, -2, 8, -24, -48, -4, 4, 24, -48], "withholdReward": true, "trial_id": "mdp_934626330092", "block": "test1", "trialIndex": 24, "score": -38.25, "costs": -1.25, "simulationMode": [null, null, null], "rewards": [-2, 8, -48], "path": ["0", "0", "5", "6", "8"], "rt": [3141, 93, 78], "actions": ["right", "right", "down"], "actionTimes": [4410, 5015, 5613], "queries": {"click": {"state": {"target": ["4", "3", "11", "7", "12"], "time": [1696, 2272, 2838, 3340, 3900]}, "edge": {"target": [], "time": []}}, "mouseover": {"state": {"target": ["4", "1", "3", "1", "9", "10", "11", "5", "7", "6", "12"], "time": [1589, 2088, 2130, 2455, 2513, 2564, 2647, 3030, 3164, 3505, 3672]}, "edge": {"target": [], "time": []}}, "mouseout": {"state": {"target": ["5", "9", "0", "4", "1", "3", "1", "9", "10", "11", "5", "7", "6", "12", "5", "2", "4", "9", "8", "5"], "time": [588, 1072, 1163, 1964, 2113, 2430, 2472, 2547, 2574, 2981, 3039, 3480, 3538, 4105, 8947, 9013, 9080, 9130, 9288, 9563]}, "edge": {"target": [], "time": []}}}, "displayed_time": "9.27", "trialTime": 10008, "trial_type": "mouselab-mdp", "trial_index": 35, "time_elapsed": 711701, "internal_node_id": "0.0-4.0-1.0-20.0"}}, {"uniqueid": "w11057925:a12363233", "current_trial": 36, "dateTime": 1664464620171, "trialdata": {"revealed_states": [], "num_clicks_accrued": [0, 0, 0, 0, 0, 0, 0, 0, 0, 0, 0, 0, 0], "stateRewards": ["", -4, 8, 24, 24, 2, 4, -48, 24, -2, -4, -24, -24], "withholdReward": false, "trial_id": "mdp_752328329546", "block": "test1", "trialIndex": 25, "score": -26.25, "costs": -1.25, "simulationMode": [null, null, null], "rewards": [-2, -4, -24], "path": ["0", "0", "9", "10", "11"], "rt": [4314, 39, 107], "actions": ["left", "left", "up"], "actionTimes": [4863, 5413, 6023], "queries": {"click": {"state": {"target": ["8", "4", "12", "3", "7"], "time": [1073, 2244, 2850, 3811, 4237]}, "edge": {"target": [], "time": []}}, "mouseover": {"state": {"target": ["8", "6", "7", "3", "2", "4", "11", "10", "12", "12", "5", "3", "3", "7", "6"], "time": [999, 1474, 1491, 1941, 2057, 2124, 2449, 2474, 2674, 2790, 3115, 3165, 3599, 3990, 4474]}, "edge": {"target": [], "time": []}}, "mouseout": {"state": {"target": ["0", "8", "6", "7", "3", "2", "4", "11", "10", "12", "12", "5", "3", "3", "7", "6", "0"], "time": [824, 1282, 1482, 1508, 1957, 2083, 2424, 2457, 2524, 2733, 3015, 3124, 3174, 3957, 4415, 4516, 6300]}, "edge": {"target": [], "time": []}}}, "displayed_time": "8.55", "trialTime": 9716, "trial_type": "mouselab-mdp", "trial_index": 36, "time_elapsed": 721466, "internal_node_id": "0.0-4.0-1.0-21.0"}}, {"uniqueid": "w11057925:a12363233", "current_trial": 37, "dateTime": 1664464630865, "trialdata": {"revealed_states": [], "num_clicks_accrued": [0, 0, 0, 0, 0, 0, 0, 0, 0, 0, 0, 0, 0], "stateRewards": ["", -4, -8, -48, -48, 4, -8, 48, 48, 2, 8, 48, 24], "withholdReward": true, "trial_id": "mdp_880437222492", "block": "test1", "trialIndex": 26, "score": 62.75, "costs": -0.25, "simulationMode": [null, null, null], "rewards": [2, 8, 48], "path": ["0", "0", "9", "10", "11"], "rt": [1233, 30, 485], "actions": ["left", "left", "up"], "actionTimes": [2022, 2572, 3573], "queries": {"click": {"state": {"target": ["11"], "time": [1408]}, "edge": {"target": [], "time": []}}, "mouseover": {"state": {"target": ["11", "1", "3"], "time": [1372, 1639, 1892]}, "edge": {"target": [], "time": []}}, "mouseout": {"state": {"target": ["0", "11", "1", "3", "5"], "time": [1089, 1556, 1656, 1947, 9814]}, "edge": {"target": [], "time": []}}}, "displayed_time": "9.79", "trialTime": 10643, "trial_type": "mouselab-mdp", "trial_index": 37, "time_elapsed": 732160, "internal_node_id": "0.0-4.0-1.0-22.0"}}, {"uniqueid": "w11057925:a12363233", "current_trial": 38, "dateTime": 1664464642450, "trialdata": {"revealed_states": [], "num_clicks_accrued": [0, 0, 0, 0, 0, 0, 0, 0, 0, 0, 0, 0, 0], "stateRewards": ["", -4, 8, 24, -24, 4, -8, -24, -24, -2, 8, -48, 24], "withholdReward": true, "trial_id": "mdp_240302100183", "block": "test1", "trialIndex": 27, "score": 33.5, "costs": -1.5, "simulationMode": [null, null, null], "rewards": [-2, 8, 24], "path": ["0", "0", "9", "10", "12"], "rt": [5652, 892, 98], "actions": ["left", "left", "down"], "actionTimes": [7356, 8766, 9389], "queries": {"click": {"state": {"target": ["3", "11", "8", "7", "12", "4"], "time": [2621, 3205, 3893, 4325, 4951, 5547]}, "edge": {"target": [], "time": []}}, "mouseover": {"state": {"target": ["3", "3", "1", "11", "9", "8", "7", "5", "0", "12", "12", "1", "4", "2"], "time": [1906, 2381, 2889, 3074, 3372, 3839, 4214, 4514, 4549, 4623, 4789, 5156, 5481, 5689]}, "edge": {"target": [], "time": []}}, "mouseout": {"state": {"target": ["0", "3", "3", "3", "1", "11", "9", "8", "7", "5", "0", "12", "12", "1", "4", "2", "7", "8", "5"], "time": [189, 1064, 1914, 2798, 2906, 3340, 3390, 4131, 4490, 4532, 4556, 4681, 5081, 5172, 5673, 5705, 5772, 8198, 11247]}, "edge": {"target": [], "time": []}}}, "displayed_time": "10.71", "trialTime": 11537, "trial_type": "mouselab-mdp", "trial_index": 38, "time_elapsed": 743745, "internal_node_id": "0.0-4.0-1.0-23.0"}}, {"uniqueid": "w11057925:a12363233", "current_trial": 39, "dateTime": 1664464653081, "trialdata": {"revealed_states": [], "num_clicks_accrued": [0, 0, 0, 0, 0, 0, 0, 0, 0, 0, 0, 0, 0], "stateRewards": ["", -2, -4, 48, -24, 2, -4, -24, -48, 2, 8, -48, -24], "withholdReward": true, "trial_id": "mdp_238243948191", "block": "test1", "trialIndex": 28, "score": 46.75, "costs": -0.25, "simulationMode": [null, null, null], "rewards": [-2, -4, 48], "path": ["0", "0", "1", "2", "3"], "rt": [1513, 499, 81], "actions": ["up", "up", "right"], "actionTimes": [2197, 3206, 3800], "queries": {"click": {"state": {"target": ["3"], "time": [1643]}, "edge": {"target": [], "time": []}}, "mouseover": {"state": {"target": ["0", "5", "3", "7"], "time": [980, 1056, 1438, 1805]}, "edge": {"target": [], "time": []}}, "mouseout": {"state": {"target": ["0", "0", "5", "3", "7"], "time": [581, 1031, 1063, 1780, 10238]}, "edge": {"target": [], "time": []}}}, "displayed_time": "9.69", "trialTime": 10600, "trial_type": "mouselab-mdp", "trial_index": 39, "time_elapsed": 754376, "internal_node_id": "0.0-4.0-1.0-24.0"}}, {"uniqueid": "w11057925:a12363233", "current_trial": 40, "dateTime": 1664464663536, "trialdata": {"revealed_states": [], "num_clicks_accrued": [0, 0, 0, 0, 0, 0, 0, 0, 0, 0, 0, 0, 0], "stateRewards": ["", -4, -8, -48, 48, -2, -8, -48, -24, 4, 8, 24, -48], "withholdReward": false, "trial_id": "mdp_509977295685", "block": "test1", "trialIndex": 29, "score": 39.75, "costs": -1.25, "simulationMode": [null, null, null], "rewards": [-4, -8, 48], "path": ["0", "0", "1", "2", "4"], "rt": [2486, 378, 116], "actions": ["up", "up", "left"], "actionTimes": [3746, 4641, 5264], "queries": {"click": {"state": {"target": ["7", "8", "3", "4", "11"], "time": [1697, 2164, 2690, 3084, 3443]}, "edge": {"target": [], "time": []}}, "mouseover": {"state": {"target": ["5", "7", "6", "8", "6", "3", "2", "4", "11"], "time": [1456, 1539, 1889, 2099, 2439, 2539, 2848, 2906, 3298]}, "edge": {"target": [], "time": []}}, "mouseout": {"state": {"target": ["5", "0", "5", "7", "6", "8", "6", "3", "2", "4", "11", "9", "9"], "time": [1047, 1406, 1498, 1865, 1939, 2431, 2448, 2823, 2881, 3248, 3731, 3859, 6314]}, "edge": {"target": [], "time": []}}}, "displayed_time": "9.26", "trialTime": 10424, "trial_type": "mouselab-mdp", "trial_index": 40, "time_elapsed": 764831, "internal_node_id": "0.0-4.0-1.0-25.0"}}, {"uniqueid": "w11057925:a12363233", "current_trial": 41, "dateTime": 1664464673731, "trialdata": {"revealed_states": [], "num_clicks_accrued": [0, 0, 0, 0, 0, 0, 0, 0, 0, 0, 0, 0, 0], "stateRewards": ["", -4, -8, 24, -48, 2, 4, -48, -48, 2, -8, 24, 48], "withholdReward": true, "trial_id": "mdp_111262146724", "block": "test1", "trialIndex": 30, "score": 46.5, "costs": -0.5, "simulationMode": [null, null, null], "rewards": [2, -8, 48], "path": ["0", "0", "9", "10", "12"], "rt": [2521, 97, 158], "actions": ["left", "left", "down"], "actionTimes": [3068, 3675, 4336], "queries": {"click": {"state": {"target": ["4", "12"], "time": [1248, 2468]}, "edge": {"target": [], "time": []}}, "mouseover": {"state": {"target": ["1", "2", "4", "9", "10", "10", "12"], "time": [785, 852, 1018, 1518, 1652, 2252, 2377]}, "edge": {"target": [], "time": []}}, "mouseout": {"state": {"target": ["0", "1", "2", "4", "9", "10", "10", "12", "5"], "time": [743, 818, 993, 1418, 1552, 1677, 2293, 2669, 7827]}, "edge": {"target": [], "time": []}}}, "displayed_time": "9.55", "trialTime": 10165, "trial_type": "mouselab-mdp", "trial_index": 41, "time_elapsed": 775026, "internal_node_id": "0.0-4.0-1.0-26.0"}}, {"uniqueid": "w11057925:a12363233", "current_trial": 42, "dateTime": 1664464684336, "trialdata": {"revealed_states": [], "num_clicks_accrued": [0, 0, 0, 0, 0, 0, 0, 0, 0, 0, 0, 0, 0], "stateRewards": ["", -2, 4, -48, 24, -4, 8, 48, 24, -2, 4, -48, -24], "withholdReward": true, "trial_id": "mdp_740882974347", "block": "test1", "trialIndex": 31, "score": 30, "costs": -1, "simulationMode": [null, null, null], "rewards": [-2, 4, 24], "path": ["0", "0", "1", "2", "4"], "rt": [3228, 1212, 188], "actions": ["up", "up", "left"], "actionTimes": [4012, 5740, 6441], "queries": {"click": {"state": {"target": ["4", "11", "8", "7"], "time": [1442, 2130, 2762, 3469]}, "edge": {"target": [], "time": []}}, "mouseover": {"state": {"target": ["1", "2", "4", "10", "11", "8", "8", "7", "7", "3"], "time": [1089, 1289, 1339, 1880, 2064, 2530, 2639, 2972, 3372, 3689]}, "edge": {"target": [], "time": []}}, "mouseout": {"state": {"target": ["0", "1", "2", "4", "10", "11", "8", "8", "7", "7", "3", "8"], "time": [1039, 1164, 1314, 1614, 1897, 2264, 2547, 2906, 3030, 3614, 4073, 9814]}, "edge": {"target": [], "time": []}}}, "displayed_time": "9.78", "trialTime": 10574, "trial_type": "mouselab-mdp", "trial_index": 42, "time_elapsed": 785631, "internal_node_id": "0.0-4.0-1.0-27.0"}}, {"uniqueid": "w11057925:a12363233", "current_trial": 43, "dateTime": 1664464695092, "trialdata": {"revealed_states": [], "num_clicks_accrued": [0, 0, 0, 0, 0, 0, 0, 0, 0, 0, 0, 0, 0], "stateRewards": ["", 2, -8, -24, -48, -2, -4, 48, 48, 4, 8, 48, 48], "withholdReward": true, "trial_id": "mdp_347285045422", "block": "test1", "trialIndex": 32, "score": 46.75, "costs": -0.25, "simulationMode": [null, null, null], "rewards": [-2, -4, 48], "path": ["0", "0", "5", "6", "7"], "rt": [1767, 120, 6], "actions": ["right", "right", "up"], "actionTimes": [2478, 3128, 3651], "queries": {"click": {"state": {"target": ["7"], "time": [1628]}, "edge": {"target": [], "time": []}}, "mouseover": {"state": {"target": ["5", "7", "3"], "time": [1068, 1535, 1901]}, "edge": {"target": [], "time": []}}, "mouseout": {"state": {"target": ["0", "5", "7", "3", "6"], "time": [1019, 1101, 1868, 1927, 8460]}, "edge": {"target": [], "time": []}}}, "displayed_time": "9.71", "trialTime": 10725, "trial_type": "mouselab-mdp", "trial_index": 43, "time_elapsed": 796387, "internal_node_id": "0.0-4.0-1.0-28.0"}}, {"uniqueid": "w11057925:a12363233", "current_trial": 44, "dateTime": 1664464704708, "trialdata": {"revealed_states": [], "num_clicks_accrued": [0, 0, 0, 0, 0, 0, 0, 0, 0, 0, 0, 0, 0], "stateRewards": ["", -2, -4, -24, 48, -4, 8, 48, 48, 2, 8, -48, -24], "withholdReward": true, "trial_id": "mdp_136376573354", "block": "test1", "trialIndex": 33, "score": 56.75, "costs": -0.25, "simulationMode": [null, null, null], "rewards": [-4, 8, 48], "path": ["0", "0", "5", "6", "7"], "rt": [1145, 194, 106], "actions": ["right", "right", "up"], "actionTimes": [1810, 2501, 3123], "queries": {"click": {"state": {"target": ["7"], "time": [1246]}, "edge": {"target": [], "time": []}}, "mouseover": {"state": {"target": ["5", "7", "6"], "time": [989, 1181, 1447]}, "edge": {"target": [], "time": []}}, "mouseout": {"state": {"target": ["0", "5", "7", "6", "6", "8"], "time": [956, 1039, 1422, 1464, 4298, 5930]}, "edge": {"target": [], "time": []}}}, "displayed_time": "8.67", "trialTime": 9563, "trial_type": "mouselab-mdp", "trial_index": 44, "time_elapsed": 806003, "internal_node_id": "0.0-4.0-1.0-29.0"}}, {"uniqueid": "w11057925:a12363233", "current_trial": 45, "dateTime": 1664464747535, "trialdata": {"rt": 42823, "stimulus": "<h1> End of block! </h1>\n\nYou have reached the end of the block 1/4. If you need a short break, feel free to take one now before moving on.\n\n<br><br>\nIn the next block, you will complete another 30 rounds of this game.\n\n<br><br>\n<div style='text-align: center;'>Press <code>space</code> to begin.</div>\n<br><br>\n<div style='text-align: center;'>(If the experiment doesn't continue, try clicking on the text and then pressing <code>space</code>.)</div>", "response": " ", "trial_id": "mdp_ready_2", "trial_type": "html-keyboard-response", "trial_index": 45, "time_elapsed": 848830, "internal_node_id": "0.0-4.0-2.0"}}, {"uniqueid": "w11057925:a12363233", "current_trial": 46, "dateTime": 1664464759461, "trialdata": {"revealed_states": [], "num_clicks_accrued": [0, 0, 0, 0, 0, 0, 0, 0, 0, 0, 0, 0, 0], "stateRewards": ["", -4, -4, -24, 48, 2, 4, -24, -48, -2, 4, 24, 24], "withholdReward": false, "trial_id": "mdp_360934723192", "block": "test2", "trialIndex": 34, "score": 44.75, "costs": -0.25, "simulationMode": [null, null, null], "rewards": [-4, -4, 48], "path": ["0", "0", "1", "2", "4"], "rt": [2568, 574, 73], "actions": ["up", "up", "left"], "actionTimes": [4450, 5549, 6132], "queries": {"click": {"state": {"target": ["4"], "time": [2352]}, "edge": {"target": [], "time": []}}, "mouseover": {"state": {"target": ["4", "11", "9", "1", "2"], "time": [2150, 2575, 2817, 2950, 2975]}, "edge": {"target": [], "time": []}}, "mouseout": {"state": {"target": ["3", "5", "4", "11", "9", "1", "2", "2", "8"], "time": [842, 925, 2492, 2792, 2834, 2967, 4458, 4775, 7325]}, "edge": {"target": [], "time": []}}}, "displayed_time": "10.88", "trialTime": 11895, "trial_type": "mouselab-mdp", "trial_index": 46, "time_elapsed": 860756, "internal_node_id": "0.0-4.0-3.0-0.0"}}, {"uniqueid": "w11057925:a12363233", "current_trial": 47, "dateTime": 1664464768460, "trialdata": {"revealed_states": [], "num_clicks_accrued": [0, 0, 0, 0, 0, 0, 0, 0, 0, 0, 0, 0, 0], "stateRewards": ["", -2, -4, -24, -24, 4, 8, 24, 24, -2, 8, 48, 48], "withholdReward": true, "trial_id": "mdp_620787912291", "block": "test2", "trialIndex": 35, "score": 58.25, "costs": -0.75, "simulationMode": [null, null, null], "rewards": [-2, 8, 48], "path": ["0", "0", "9", "10", "12"], "rt": [2380, 6, 65], "actions": ["left", "left", "down"], "actionTimes": [2912, 3425, 3998], "queries": {"click": {"state": {"target": ["3", "8", "12"], "time": [963, 1633, 2236]}, "edge": {"target": [], "time": []}}, "mouseover": {"state": {"target": ["1", "3", "6", "8", "12", "10", "11"], "time": [715, 781, 1190, 1614, 2123, 2431, 2598]}, "edge": {"target": [], "time": []}}, "mouseout": {"state": {"target": ["0", "1", "3", "6", "8", "12", "10", "11", "9", "0"], "time": [331, 731, 1123, 1215, 1898, 2406, 2507, 8156, 8189, 8198]}, "edge": {"target": [], "time": []}}}, "displayed_time": "8.53", "trialTime": 8967, "trial_type": "mouselab-mdp", "trial_index": 47, "time_elapsed": 869755, "internal_node_id": "0.0-4.0-3.0-1.0"}}, {"uniqueid": "w11057925:a12363233", "current_trial": 48, "dateTime": 1664464779159, "trialdata": {"revealed_states": [], "num_clicks_accrued": [0, 0, 0, 0, 0, 0, 0, 0, 0, 0, 0, 0, 0], "stateRewards": ["", -4, 4, -24, 24, -2, -4, 48, 24, 2, 8, -48, 24], "withholdReward": false, "trial_id": "mdp_150340189492", "block": "test2", "trialIndex": 36, "score": 46.5, "costs": -0.5, "simulationMode": [null, null, null], "rewards": [-2, -4, 48], "path": ["0", "0", "5", "6", "7"], "rt": [1891, 139, 140], "actions": ["right", "right", "up"], "actionTimes": [2561, 3215, 3858], "queries": {"click": {"state": {"target": ["3", "7"], "time": [1118, 2015]}, "edge": {"target": [], "time": []}}, "mouseover": {"state": {"target": ["1", "3", "6", "7", "1"], "time": [854, 937, 1329, 1946, 2296]}, "edge": {"target": [], "time": []}}, "mouseout": {"state": {"target": ["5", "0", "1", "3", "6", "7", "1", "0", "8"], "time": [437, 812, 862, 1270, 1346, 2220, 2329, 5454, 9604]}, "edge": {"target": [], "time": []}}}, "displayed_time": "9.67", "trialTime": 10665, "trial_type": "mouselab-mdp", "trial_index": 48, "time_elapsed": 880454, "internal_node_id": "0.0-4.0-3.0-2.0"}}, {"uniqueid": "w11057925:a12363233", "current_trial": 49, "dateTime": 1664464789204, "trialdata": {"revealed_states": [], "num_clicks_accrued": [0, 0, 0, 0, 0, 0, 0, 0, 0, 0, 0, 0, 0], "stateRewards": ["", 2, -4, -24, -48, -2, 8, -24, 48, -2, 8, 24, -48], "withholdReward": true, "trial_id": "mdp_566582551557", "block": "test2", "trialIndex": 37, "score": 58, "costs": -1, "simulationMode": [null, null, null], "rewards": [-2, 8, 48], "path": ["0", "0", "5", "6", "8"], "rt": [2711, 4, 2], "actions": ["right", "right", "down"], "actionTimes": [3253, 3774, 4291], "queries": {"click": {"state": {"target": ["4", "11", "12", "8"], "time": [1041, 1467, 1868, 2637]}, "edge": {"target": [], "time": []}}, "mouseover": {"state": {"target": ["4", "11", "10", "12", "8", "6", "7"], "time": [936, 1261, 1628, 1661, 2520, 2811, 2836]}, "edge": {"target": [], "time": []}}, "mouseout": {"state": {"target": ["8", "5", "4", "11", "10", "12", "8", "6", "7", "6"], "time": [219, 303, 1236, 1611, 1644, 2053, 2803, 2828, 5403, 5453]}, "edge": {"target": [], "time": []}}}, "displayed_time": "9.54", "trialTime": 9992, "trial_type": "mouselab-mdp", "trial_index": 49, "time_elapsed": 890499, "internal_node_id": "0.0-4.0-3.0-3.0"}}, {"uniqueid": "w11057925:a12363233", "current_trial": 50, "dateTime": 1664464801522, "trialdata": {"revealed_states": [], "num_clicks_accrued": [0, 0, 0, 0, 0, 0, 0, 0, 0, 0, 0, 0, 0], "stateRewards": ["", -4, 8, -24, -24, 4, -8, 48, -24, -4, -8, -24, -48], "withholdReward": true, "trial_id": "mdp_391766721791", "block": "test2", "trialIndex": 38, "score": 47.75, "costs": -1.25, "simulationMode": [null, null, null], "rewards": [4, -8, 48], "path": ["0", "0", "5", "6", "7"], "rt": [3653, 484, 155], "actions": ["right", "right", "up"], "actionTimes": [5679, 6676, 7339], "queries": {"click": {"state": {"target": ["4", "11", "12", "8", "7"], "time": [2517, 3362, 3818, 4628, 5135]}, "edge": {"target": [], "time": []}}, "mouseover": {"state": {"target": ["4", "10", "10", "11", "10", "12", "8", "7"], "time": [2314, 2764, 2864, 3223, 3514, 3714, 4556, 4931]}, "edge": {"target": [], "time": []}}, "mouseout": {"state": {"target": ["0", "1", "2", "0", "0", "1", "0", "4", "10", "10", "11", "10", "12", "8", "7", "7", "7", "1", "9", "0"], "time": [689, 756, 906, 1131, 1382, 1836, 2202, 2689, 2781, 2881, 3489, 3522, 3956, 4781, 5398, 5725, 10572, 10672, 11473, 11573]}, "edge": {"target": [], "time": []}}}, "displayed_time": "11.03", "trialTime": 12272, "trial_type": "mouselab-mdp", "trial_index": 50, "time_elapsed": 902817, "internal_node_id": "0.0-4.0-3.0-4.0"}}, {"uniqueid": "w11057925:a12363233", "current_trial": 51, "dateTime": 1664464810099, "trialdata": {"revealed_states": [], "num_clicks_accrued": [0, 0, 0, 0, 0, 0, 0, 0, 0, 0, 0, 0, 0], "stateRewards": ["", 2, 4, 48, 24, -4, 8, 48, 48, 2, -4, -48, -24], "withholdReward": true, "trial_id": "mdp_822099887466", "block": "test2", "trialIndex": 39, "score": 56.75, "costs": -0.25, "simulationMode": [null, null, null], "rewards": [-4, 8, 48], "path": ["0", "0", "5", "6", "7"], "rt": [1345, 512, 170], "actions": ["right", "right", "up"], "actionTimes": [1854, 2879, 3564], "queries": {"click": {"state": {"target": ["7"], "time": [1173]}, "edge": {"target": [], "time": []}}, "mouseover": {"state": {"target": ["5", "7", "6", "8"], "time": [930, 1012, 1430, 1754]}, "edge": {"target": [], "time": []}}, "mouseout": {"state": {"target": ["0", "5", "7", "6", "8", "5", "5"], "time": [896, 954, 1404, 1721, 1787, 7288, 8021]}, "edge": {"target": [], "time": []}}}, "displayed_time": "7.51", "trialTime": 8530, "trial_type": "mouselab-mdp", "trial_index": 51, "time_elapsed": 911394, "internal_node_id": "0.0-4.0-3.0-5.0"}}, {"uniqueid": "w11057925:a12363233", "current_trial": 52, "dateTime": 1664464820523, "trialdata": {"revealed_states": [], "num_clicks_accrued": [0, 0, 0, 0, 0, 0, 0, 0, 0, 0, 0, 0, 0], "stateRewards": ["", -4, -4, -24, -48, -4, 8, -24, -48, 4, -8, 24, -24], "withholdReward": true, "trial_id": "mdp_924927483179", "block": "test2", "trialIndex": 40, "score": 23.5, "costs": -1.5, "simulationMode": [null, null, null], "rewards": [4, -8, 24], "path": ["0", "0", "9", "10", "11"], "rt": [4713, 2, 5], "actions": ["left", "left", "up"], "actionTimes": [5246, 5746, 6266], "queries": {"click": {"state": {"target": ["7", "3", "4", "11", "12", "8"], "time": [1674, 2103, 2571, 3029, 3521, 4245]}, "edge": {"target": [], "time": []}}, "mouseover": {"state": {"target": ["1", "7", "3", "2", "4", "11", "10", "12", "8"], "time": [843, 1550, 1959, 2301, 2452, 2909, 3201, 3301, 4127]}, "edge": {"target": [], "time": []}}, "mouseout": {"state": {"target": ["0", "1", "7", "3", "2", "4", "11", "10", "12", "8"], "time": [418, 893, 1917, 2284, 2350, 2834, 3131, 3250, 3684, 4367]}, "edge": {"target": [], "time": []}}}, "displayed_time": "9.54", "trialTime": 10385, "trial_type": "mouselab-mdp", "trial_index": 52, "time_elapsed": 921818, "internal_node_id": "0.0-4.0-3.0-6.0"}}, {"uniqueid": "w11057925:a12363233", "current_trial": 53, "dateTime": 1664464831098, "trialdata": {"revealed_states": [], "num_clicks_accrued": [0, 0, 0, 0, 0, 0, 0, 0, 0, 0, 0, 0, 0], "stateRewards": ["", -4, 4, -48, -48, -4, 8, -24, 24, 2, -4, 48, 48], "withholdReward": true, "trial_id": "mdp_821566905048", "block": "test2", "trialIndex": 41, "score": 50.5, "costs": -0.5, "simulationMode": [null, null, null], "rewards": [2, -4, 48], "path": ["0", "0", "9", "10", "11"], "rt": [2798, 499, 174], "actions": ["left", "left", "up"], "actionTimes": [3482, 4485, 5171], "queries": {"click": {"state": {"target": ["4", "11"], "time": [2394, 2858]}, "edge": {"target": [], "time": []}}, "mouseover": {"state": {"target": ["1", "4", "4", "11", "10"], "time": [1892, 2167, 2354, 2692, 3150]}, "edge": {"target": [], "time": []}}, "mouseout": {"state": {"target": ["0", "1", "4", "4", "11", "10"], "time": [1834, 2126, 2217, 2642, 2992, 3175]}, "edge": {"target": [], "time": []}}}, "displayed_time": "9.68", "trialTime": 10544, "trial_type": "mouselab-mdp", "trial_index": 53, "time_elapsed": 932393, "internal_node_id": "0.0-4.0-3.0-7.0"}}, {"uniqueid": "w11057925:a12363233", "current_trial": 54, "dateTime": 1664464841791, "trialdata": {"revealed_states": [], "num_clicks_accrued": [0, 0, 0, 0, 0, 0, 0, 0, 0, 0, 0, 0, 0], "stateRewards": ["", 2, -8, -24, 48, 4, -8, -24, -24, 2, 8, -24, 24], "withholdReward": false, "trial_id": "mdp_480787552818", "block": "test2", "trialIndex": 42, "score": 46.75, "costs": -0.25, "simulationMode": [null, null, null], "rewards": [2, -8, 48], "path": ["0", "0", "1", "2", "4"], "rt": [1162, 49, 382], "actions": ["up", "up", "left"], "actionTimes": [1799, 2370, 3268], "queries": {"click": {"state": {"target": ["4"], "time": [1261]}, "edge": {"target": [], "time": []}}, "mouseover": {"state": {"target": ["1", "4", "11", "9"], "time": [985, 1210, 1468, 1797]}, "edge": {"target": [], "time": []}}, "mouseout": {"state": {"target": ["0", "1", "4", "11", "9", "0"], "time": [935, 1019, 1427, 1760, 1843, 9985]}, "edge": {"target": [], "time": []}}}, "displayed_time": "9.64", "trialTime": 10662, "trial_type": "mouselab-mdp", "trial_index": 54, "time_elapsed": 943085, "internal_node_id": "0.0-4.0-3.0-8.0"}}, {"uniqueid": "w11057925:a12363233", "current_trial": 55, "dateTime": 1664464858396, "trialdata": {"revealed_states": [], "num_clicks_accrued": [0, 0, 0, 0, 0, 0, 0, 0, 0, 0, 0, 0, 0], "stateRewards": ["", -2, -4, -24, -48, -4, -8, -48, 24, -4, -8, -24, -48], "withholdReward": true, "trial_id": "mdp_475782454549", "block": "test2", "trialIndex": 43, "score": 15.5, "costs": -1.5, "simulationMode": [null, null, null], "rewards": [-4, -8, 24], "path": ["0", "0", "5", "6", "8"], "rt": [4491, 5, 1029], "actions": ["right", "right", "down"], "actionTimes": [5026, 5526, 7076], "queries": {"click": {"state": {"target": ["11", "12", "8", "7", "3", "4"], "time": [1563, 2362, 3334, 3799, 4201, 4660]}, "edge": {"target": [], "time": []}}, "mouseover": {"state": {"target": ["1", "4", "10", "11", "10", "12", "8", "6", "7", "3", "2", "4", "1"], "time": [870, 1020, 1320, 1487, 1737, 2328, 3245, 3579, 3695, 4062, 4403, 4537, 4820]}, "edge": {"target": [], "time": []}}, "mouseout": {"state": {"target": ["0", "1", "4", "10", "11", "10", "12", "8", "6", "7", "3", "2", "4", "1", "8"], "time": [470, 895, 1287, 1454, 1720, 1762, 2512, 3520, 3612, 4004, 4370, 4463, 4803, 4828, 8729]}, "edge": {"target": [], "time": []}}}, "displayed_time": "9.53", "trialTime": 16579, "trial_type": "mouselab-mdp", "trial_index": 55, "time_elapsed": 959691, "internal_node_id": "0.0-4.0-3.0-9.0"}}, {"uniqueid": "w11057925:a12363233", "current_trial": 56, "dateTime": 1664464868266, "trialdata": {"revealed_states": [], "num_clicks_accrued": [0, 0, 0, 0, 0, 0, 0, 0, 0, 0, 0, 0, 0], "stateRewards": ["", -2, -4, -48, 48, -4, 4, -48, 24, -4, -8, 24, 48], "withholdReward": true, "trial_id": "mdp_264482284450", "block": "test2", "trialIndex": 44, "score": 46.75, "costs": -0.25, "simulationMode": [null, null, null], "rewards": [-2, -4, 48], "path": ["0", "0", "1", "2", "4"], "rt": [1558, 108, 385], "actions": ["up", "up", "left"], "actionTimes": [2726, 3368, 4259], "queries": {"click": {"state": {"target": ["4"], "time": [2161]}, "edge": {"target": [], "time": []}}, "mouseover": {"state": {"target": ["0", "1", "4", "11"], "time": [1299, 1749, 2082, 2541]}, "edge": {"target": [], "time": []}}, "mouseout": {"state": {"target": ["0", "0", "1", "4", "11"], "time": [1091, 1707, 1782, 2516, 2933]}, "edge": {"target": [], "time": []}}}, "displayed_time": "9.17", "trialTime": 9844, "trial_type": "mouselab-mdp", "trial_index": 56, "time_elapsed": 969560, "internal_node_id": "0.0-4.0-3.0-10.0"}}, {"uniqueid": "w11057925:a12363233", "current_trial": 57, "dateTime": 1664464878434, "trialdata": {"revealed_states": [], "num_clicks_accrued": [0, 0, 0, 0, 0, 0, 0, 0, 0, 0, 0, 0, 0], "stateRewards": ["", 2, 4, -24, -24, 4, 8, -48, 48, 2, 4, -24, -48], "withholdReward": true, "trial_id": "mdp_565165082781", "block": "test2", "trialIndex": 45, "score": 64.25, "costs": -0.75, "simulationMode": [null, null, null], "rewards": [4, 8, 48], "path": ["0", "0", "5", "6", "8"], "rt": [2723, 143, 151], "actions": ["right", "right", "down"], "actionTimes": [3204, 3853, 4520], "queries": {"click": {"state": {"target": ["4", "12", "8"], "time": [1458, 2077, 2639]}, "edge": {"target": [], "time": []}}, "mouseover": {"state": {"target": ["4", "4", "11", "10", "12", "8"], "time": [834, 1359, 1734, 1801, 1867, 2467]}, "edge": {"target": [], "time": []}}, "mouseout": {"state": {"target": ["0", "4", "4", "11", "10", "12", "8", "7", "6", "5", "0", "9", "10"], "time": [717, 967, 1651, 1784, 1834, 2225, 2825, 5276, 8725, 8734, 8751, 8775, 8817]}, "edge": {"target": [], "time": []}}}, "displayed_time": "8.48", "trialTime": 10114, "trial_type": "mouselab-mdp", "trial_index": 57, "time_elapsed": 979729, "internal_node_id": "0.0-4.0-3.0-11.0"}}, {"uniqueid": "w11057925:a12363233", "current_trial": 58, "dateTime": 1664464888172, "trialdata": {"revealed_states": [], "num_clicks_accrued": [0, 0, 0, 0, 0, 0, 0, 0, 0, 0, 0, 0, 0], "stateRewards": ["", -2, 8, -24, 24, -4, -8, -24, 48, -2, -8, -48, 48], "withholdReward": true, "trial_id": "mdp_238332601315", "block": "test2", "trialIndex": 46, "score": 42.25, "costs": -0.75, "simulationMode": [null, null, null], "rewards": [-2, -8, 48], "path": ["0", "0", "9", "10", "12"], "rt": [3190, 559, 190], "actions": ["left", "left", "down"], "actionTimes": [3953, 5015, 5725], "queries": {"click": {"state": {"target": ["7", "3", "12"], "time": [2164, 2738, 3434]}, "edge": {"target": [], "time": []}}, "mouseover": {"state": {"target": ["8", "8", "6", "7", "3", "1", "10", "12", "10", "11"], "time": [1020, 1262, 1445, 2003, 2594, 2928, 2986, 3294, 3678, 3886]}, "edge": {"target": [], "time": []}}, "mouseout": {"state": {"target": ["0", "8", "8", "6", "7", "7", "3", "1", "10", "12", "10", "11", "9", "8", "8"], "time": [678, 1061, 1428, 1454, 2311, 2544, 2903, 2945, 3011, 3670, 3711, 5786, 6319, 6611, 8086]}, "edge": {"target": [], "time": []}}}, "displayed_time": "8.76", "trialTime": 9687, "trial_type": "mouselab-mdp", "trial_index": 58, "time_elapsed": 989467, "internal_node_id": "0.0-4.0-3.0-12.0"}}, {"uniqueid": "w11057925:a12363233", "current_trial": 59, "dateTime": 1664464898081, "trialdata": {"revealed_states": [], "num_clicks_accrued": [0, 0, 0, 0, 0, 0, 0, 0, 0, 0, 0, 0, 0], "stateRewards": ["", 2, -8, 24, 24, 2, 4, -48, -48, 4, 4, -24, 48], "withholdReward": false, "trial_id": "mdp_985707010949", "block": "test2", "trialIndex": 47, "score": 60, "costs": -1, "simulationMode": [null, null, null], "rewards": [4, 4, 48], "path": ["0", "0", "9", "10", "12"], "rt": [3132, 410, 166], "actions": ["left", "left", "down"], "actionTimes": [4078, 5004, 5685], "queries": {"click": {"state": {"target": ["11", "3", "8", "12"], "time": [1512, 2066, 2921, 3496]}, "edge": {"target": [], "time": []}}, "mouseover": {"state": {"target": ["11", "1", "3", "6", "8", "12", "5", "7"], "time": [1484, 1842, 1951, 2218, 2859, 3356, 3742, 3809]}, "edge": {"target": [], "time": []}}, "mouseout": {"state": {"target": ["8", "5", "11", "1", "3", "6", "8", "12", "5", "7", "7"], "time": [359, 484, 1743, 1859, 2176, 2226, 3084, 3659, 3784, 3867, 4976]}, "edge": {"target": [], "time": []}}}, "displayed_time": "8.95", "trialTime": 9862, "trial_type": "mouselab-mdp", "trial_index": 59, "time_elapsed": 999376, "internal_node_id": "0.0-4.0-3.0-13.0"}}, {"uniqueid": "w11057925:a12363233", "current_trial": 60, "dateTime": 1664464909103, "trialdata": {"revealed_states": [], "num_clicks_accrued": [0, 0, 0, 0, 0, 0, 0, 0, 0, 0, 0, 0, 0], "stateRewards": ["", -2, 8, 24, -48, -2, -4, 24, 48, 2, 8, -48, -48], "withholdReward": true, "trial_id": "mdp_562228697607", "block": "test2", "trialIndex": 48, "score": 46.75, "costs": -0.25, "simulationMode": [null, null, null], "rewards": [-2, -4, 48], "path": ["0", "0", "5", "6", "8"], "rt": [1429, 61, 385], "actions": ["right", "right", "down"], "actionTimes": [2467, 3037, 3944], "queries": {"click": {"state": {"target": ["8"], "time": [1901]}, "edge": {"target": [], "time": []}}, "mouseover": {"state": {"target": ["8"], "time": [1824]}, "edge": {"target": [], "time": []}}, "mouseout": {"state": {"target": ["0", "0", "0", "8", "12", "1", "1", "0"], "time": [349, 599, 1282, 2149, 4866, 5640, 6632, 6649]}, "edge": {"target": [], "time": []}}}, "displayed_time": "10.04", "trialTime": 10973, "trial_type": "mouselab-mdp", "trial_index": 60, "time_elapsed": 1010398, "internal_node_id": "0.0-4.0-3.0-14.0"}}, {"uniqueid": "w11057925:a12363233", "current_trial": 61, "dateTime": 1664464919363, "trialdata": {"revealed_states": [], "num_clicks_accrued": [0, 0, 0, 0, 0, 0, 0, 0, 0, 0, 0, 0, 0], "stateRewards": ["", 2, 4, -48, 48, -4, 8, -48, -24, -4, -4, 48, 48], "withholdReward": true, "trial_id": "mdp_613582696541", "block": "test2", "trialIndex": 49, "score": 44.75, "costs": -0.25, "simulationMode": [null, null, null], "rewards": [-4, -4, 48], "path": ["0", "0", "9", "10", "12"], "rt": [1302, 60, 381], "actions": ["left", "left", "down"], "actionTimes": [2015, 2585, 3475], "queries": {"click": {"state": {"target": ["12"], "time": [1517]}, "edge": {"target": [], "time": []}}, "mouseover": {"state": {"target": ["0", "12", "10"], "time": [1192, 1384, 1850]}, "edge": {"target": [], "time": []}}, "mouseout": {"state": {"target": ["0", "0", "12", "10", "11", "11", "9"], "time": [392, 1201, 1717, 2033, 3042, 4000, 4025]}, "edge": {"target": [], "time": []}}}, "displayed_time": "9.71", "trialTime": 10236, "trial_type": "mouselab-mdp", "trial_index": 61, "time_elapsed": 1020658, "internal_node_id": "0.0-4.0-3.0-15.0"}}, {"uniqueid": "w11057925:a12363233", "current_trial": 62, "dateTime": 1664464932925, "trialdata": {"revealed_states": [], "num_clicks_accrued": [0, 0, 0, 0, 0, 0, 0, 0, 0, 0, 0, 0, 0], "stateRewards": ["", -2, -8, 48, 24, 2, 4, 24, -24, -2, -4, 48, -48], "withholdReward": true, "trial_id": "mdp_411152402386", "block": "test2", "trialIndex": 50, "score": 46.25, "costs": -0.75, "simulationMode": [null, null, null], "rewards": [-2, -4, 48], "path": ["0", "0", "9", "10", "11"], "rt": [3905, 214, 871], "actions": ["left", "left", "up"], "actionTimes": [4977, 5692, 7067], "queries": {"click": {"state": {"target": ["4", "12", "11"], "time": [2058, 3643, 4432]}, "edge": {"target": [], "time": []}}, "mouseover": {"state": {"target": ["0", "1", "2", "4", "3", "1", "9", "12", "12", "10", "11", "11", "9"], "time": [1561, 1703, 1861, 1894, 2728, 2886, 2936, 3314, 3586, 3869, 3928, 4280, 4677]}, "edge": {"target": [], "time": []}}, "mouseout": {"state": {"target": ["0", "0", "1", "2", "4", "3", "1", "9", "12", "12", "10", "11", "11", "9"], "time": [1403, 1627, 1777, 1878, 2286, 2861, 2911, 2969, 3436, 3844, 3903, 3978, 4644, 4697]}, "edge": {"target": [], "time": []}}}, "displayed_time": "11.07", "trialTime": 13534, "trial_type": "mouselab-mdp", "trial_index": 62, "time_elapsed": 1034220, "internal_node_id": "0.0-4.0-3.0-16.0"}}, {"uniqueid": "w11057925:a12363233", "current_trial": 63, "dateTime": 1664464944336, "trialdata": {"revealed_states": [], "num_clicks_accrued": [0, 0, 0, 0, 0, 0, 0, 0, 0, 0, 0, 0, 0], "stateRewards": ["", -4, -4, 24, 48, 4, -4, -24, 24, -4, -4, 24, 24], "withholdReward": false, "trial_id": "mdp_357725458160", "block": "test2", "trialIndex": 51, "score": 44.75, "costs": -0.25, "simulationMode": [null, null, null], "rewards": [-4, -4, 48], "path": ["0", "0", "1", "2", "4"], "rt": [985, 55, 288], "actions": ["up", "up", "left"], "actionTimes": [2150, 2718, 3512], "queries": {"click": {"state": {"target": ["4"], "time": [1612]}, "edge": {"target": [], "time": []}}, "mouseover": {"state": {"target": ["4"], "time": [1546]}, "edge": {"target": [], "time": []}}, "mouseout": {"state": {"target": ["8", "5", "4"], "time": [504, 646, 1896]}, "edge": {"target": [], "time": []}}}, "displayed_time": "10.16", "trialTime": 11381, "trial_type": "mouselab-mdp", "trial_index": 63, "time_elapsed": 1045631, "internal_node_id": "0.0-4.0-3.0-17.0"}}, {"uniqueid": "w11057925:a12363233", "current_trial": 64, "dateTime": 1664464954989, "trialdata": {"revealed_states": [], "num_clicks_accrued": [0, 0, 0, 0, 0, 0, 0, 0, 0, 0, 0, 0, 0], "stateRewards": ["", -2, -8, 48, 24, -2, 8, -48, -24, -2, 4, -48, 48], "withholdReward": true, "trial_id": "mdp_295220852217", "block": "test2", "trialIndex": 52, "score": -37.25, "costs": -0.25, "simulationMode": [null, null, null], "rewards": [-2, 8, -48], "path": ["0", "0", "5", "6", "7"], "rt": [934, 1824, 55], "actions": ["right", "right", "up"], "actionTimes": [1969, 4294, 4850], "queries": {"click": {"state": {"target": ["3"], "time": [1512]}, "edge": {"target": [], "time": []}}, "mouseover": {"state": {"target": ["3", "7"], "time": [1286, 1786]}, "edge": {"target": [], "time": []}}, "mouseout": {"state": {"target": ["9", "3", "7", "6", "7", "8"], "time": [544, 1702, 1828, 3686, 4261, 7427]}, "edge": {"target": [], "time": []}}}, "displayed_time": "10.04", "trialTime": 10624, "trial_type": "mouselab-mdp", "trial_index": 64, "time_elapsed": 1056284, "internal_node_id": "0.0-4.0-3.0-18.0"}}, {"uniqueid": "w11057925:a12363233", "current_trial": 65, "dateTime": 1664464965418, "trialdata": {"revealed_states": [], "num_clicks_accrued": [0, 0, 0, 0, 0, 0, 0, 0, 0, 0, 0, 0, 0], "stateRewards": ["", -4, -4, -24, 24, -4, 4, -24, 48, -2, 4, 48, -48], "withholdReward": true, "trial_id": "mdp_774757609669", "block": "test2", "trialIndex": 53, "score": 52.5, "costs": -0.5, "simulationMode": [null, null, null], "rewards": [-4, 4, 48], "path": ["0", "0", "5", "6", "8"], "rt": [1922, 191, 225], "actions": ["right", "right", "down"], "actionTimes": [2548, 3249, 3983], "queries": {"click": {"state": {"target": ["3", "8"], "time": [1323, 2036]}, "edge": {"target": [], "time": []}}, "mouseover": {"state": {"target": ["3", "7", "8", "6"], "time": [1257, 1590, 1973, 2265]}, "edge": {"target": [], "time": []}}, "mouseout": {"state": {"target": ["0", "3", "7", "8", "6", "7", "1", "9"], "time": [565, 1524, 1607, 2240, 2273, 6165, 6265, 6648]}, "edge": {"target": [], "time": []}}}, "displayed_time": "9.63", "trialTime": 10390, "trial_type": "mouselab-mdp", "trial_index": 65, "time_elapsed": 1066712, "internal_node_id": "0.0-4.0-3.0-19.0"}}, {"uniqueid": "w11057925:a12363233", "current_trial": 66, "dateTime": 1664464979961, "trialdata": {"revealed_states": [], "num_clicks_accrued": [0, 0, 0, 0, 0, 0, 0, 0, 0, 0, 0, 0, 0], "stateRewards": ["", -4, -4, -24, 24, 4, 4, -24, -24, -4, 4, 24, 24], "withholdReward": true, "trial_id": "mdp_787781487383", "block": "test2", "trialIndex": 54, "score": 27.5, "costs": -1.5, "simulationMode": [null, null, null], "rewards": [-4, 4, 24], "path": ["0", "0", "9", "10", "11"], "rt": [5227, 181, 89], "actions": ["left", "left", "up"], "actionTimes": [6310, 7001, 7594], "queries": {"click": {"state": {"target": ["3", "4", "11", "12", "8", "7"], "time": [1533, 2123, 2604, 2994, 4075, 4790]}, "edge": {"target": [], "time": []}}, "mouseover": {"state": {"target": ["1", "3", "2", "4", "11", "10", "12", "8", "8", "8", "6", "7"], "time": [1303, 1461, 1812, 2087, 2496, 2795, 2837, 3429, 3737, 4020, 4328, 4712]}, "edge": {"target": [], "time": []}}, "mouseout": {"state": {"target": ["0", "1", "3", "2", "4", "11", "10", "12", "8", "8", "8", "6", "7", "10"], "time": [562, 1328, 1728, 1845, 2428, 2762, 2812, 3178, 3436, 3770, 4312, 4370, 4945, 14020]}, "edge": {"target": [], "time": []}}}, "displayed_time": "10.09", "trialTime": 14496, "trial_type": "mouselab-mdp", "trial_index": 66, "time_elapsed": 1081255, "internal_node_id": "0.0-4.0-3.0-20.0"}}, {"uniqueid": "w11057925:a12363233", "current_trial": 67, "dateTime": 1664464989742, "trialdata": {"revealed_states": [], "num_clicks_accrued": [0, 0, 0, 0, 0, 0, 0, 0, 0, 0, 0, 0, 0], "stateRewards": ["", 2, -8, 48, -24, 2, -4, 24, 48, 4, -4, 48, -24], "withholdReward": true, "trial_id": "mdp_656500928756", "block": "test2", "trialIndex": 55, "score": 52, "costs": -1, "simulationMode": [null, null, null], "rewards": [4, -4, 48], "path": ["0", "0", "9", "10", "11"], "rt": [3243, 53, 48], "actions": ["left", "left", "up"], "actionTimes": [3994, 4569, 5136], "queries": {"click": {"state": {"target": ["4", "12", "7", "11"], "time": [1254, 1979, 2853, 3382]}, "edge": {"target": [], "time": []}}, "mouseover": {"state": {"target": ["4", "11", "12", "8", "6", "7", "1", "11", "9", "0"], "time": [1128, 1562, 1844, 2286, 2328, 2686, 3095, 3153, 3670, 3686]}, "edge": {"target": [], "time": []}}, "mouseout": {"state": {"target": ["4", "11", "12", "8", "6", "7", "1", "11", "9", "0", "5", "0", "9", "12"], "time": [1445, 1578, 2145, 2311, 2353, 3069, 3111, 3644, 3678, 3695, 7461, 7503, 7544, 7644]}, "edge": {"target": [], "time": []}}}, "displayed_time": "8.75", "trialTime": 9727, "trial_type": "mouselab-mdp", "trial_index": 67, "time_elapsed": 1091037, "internal_node_id": "0.0-4.0-3.0-21.0"}}, {"uniqueid": "w11057925:a12363233", "current_trial": 68, "dateTime": 1664465002497, "trialdata": {"revealed_states": [], "num_clicks_accrued": [0, 0, 0, 0, 0, 0, 0, 0, 0, 0, 0, 0, 0], "stateRewards": ["", -2, -4, -24, -48, -2, 8, -48, 24, 4, -4, -24, -24], "withholdReward": false, "trial_id": "mdp_915304165774", "block": "test2", "trialIndex": 56, "score": 33.5, "costs": -1.5, "simulationMode": [null, null, null], "rewards": [-2, 8, 24], "path": ["0", "0", "5", "6", "8"], "rt": [4920, 113, 94], "actions": ["right", "right", "down"], "actionTimes": [5509, 6128, 6726], "queries": {"click": {"state": {"target": ["3", "8", "11", "4", "7", "12"], "time": [1085, 1901, 2685, 3191, 3789, 4463]}, "edge": {"target": [], "time": []}}, "mouseover": {"state": {"target": ["3", "6", "8", "11", "4", "2", "7", "5", "12"], "time": [930, 1272, 1893, 2631, 2997, 3330, 3722, 4048, 4372]}, "edge": {"target": [], "time": []}}, "mouseout": {"state": {"target": ["0", "3", "6", "8", "11", "4", "2", "7", "5", "12"], "time": [822, 1222, 1289, 2163, 2955, 3322, 3338, 3989, 4072, 4631]}, "edge": {"target": [], "time": []}}}, "displayed_time": "9.59", "trialTime": 12694, "trial_type": "mouselab-mdp", "trial_index": 68, "time_elapsed": 1103792, "internal_node_id": "0.0-4.0-3.0-22.0"}}, {"uniqueid": "w11057925:a12363233", "current_trial": 69, "dateTime": 1664465012690, "trialdata": {"revealed_states": [], "num_clicks_accrued": [0, 0, 0, 0, 0, 0, 0, 0, 0, 0, 0, 0, 0], "stateRewards": ["", -4, -8, -24, 24, 2, 8, 24, 48, 2, 4, 24, -48], "withholdReward": true, "trial_id": "mdp_122352383932", "block": "test2", "trialIndex": 57, "score": 62, "costs": -1, "simulationMode": [null, null, null], "rewards": [2, 8, 48], "path": ["0", "0", "5", "6", "8"], "rt": [3606, 44, 421], "actions": ["right", "right", "down"], "actionTimes": [4205, 4746, 5673], "queries": {"click": {"state": {"target": ["4", "11", "12", "8"], "time": [1479, 2423, 2860, 3609]}, "edge": {"target": [], "time": []}}, "mouseover": {"state": {"target": ["1", "2", "4", "10", "10", "11", "10", "12", "8", "6", "7"], "time": [968, 1059, 1418, 1826, 2235, 2351, 2627, 2685, 3510, 3818, 3860]}, "edge": {"target": [], "time": []}}, "mouseout": {"state": {"target": ["0", "1", "2", "4", "10", "10", "11", "10", "12", "8", "6", "7"], "time": [418, 1018, 1260, 1768, 1909, 2326, 2609, 2651, 3059, 3801, 3843, 4343]}, "edge": {"target": [], "time": []}}}, "displayed_time": "8.60", "trialTime": 10167, "trial_type": "mouselab-mdp", "trial_index": 69, "time_elapsed": 1113985, "internal_node_id": "0.0-4.0-3.0-23.0"}}, {"uniqueid": "w11057925:a12363233", "current_trial": 70, "dateTime": 1664465024603, "trialdata": {"revealed_states": [], "num_clicks_accrued": [0, 0, 0, 0, 0, 0, 0, 0, 0, 0, 0, 0, 0], "stateRewards": ["", 2, -8, 24, -24, -2, 8, -48, -48, 2, -8, -24, -48], "withholdReward": true, "trial_id": "mdp_744278669205", "block": "test2", "trialIndex": 58, "score": 21.5, "costs": -1.5, "simulationMode": [null, null, null], "rewards": [2, -8, 24], "path": ["0", "0", "1", "2", "3"], "rt": [4038, 77, 319], "actions": ["up", "up", "right"], "actionTimes": [7263, 7850, 8669], "queries": {"click": {"state": {"target": ["4", "11", "12", "8", "7", "3"], "time": [3871, 4328, 4702, 5267, 6233, 6672]}, "edge": {"target": [], "time": []}}, "mouseover": {"state": {"target": ["1", "4", "11", "10", "12", "8", "6", "7", "7", "3"], "time": [3623, 3673, 4148, 4498, 4572, 4981, 5473, 5539, 6173, 6489]}, "edge": {"target": [], "time": []}}, "mouseout": {"state": {"target": ["6", "8", "0", "1", "4", "11", "10", "12", "8", "6", "7", "7", "3", "7"], "time": [582, 1464, 3589, 3631, 4039, 4481, 4531, 4873, 5447, 5514, 5547, 6398, 6964, 7021]}, "edge": {"target": [], "time": []}}}, "displayed_time": "11.22", "trialTime": 11884, "trial_type": "mouselab-mdp", "trial_index": 70, "time_elapsed": 1125898, "internal_node_id": "0.0-4.0-3.0-24.0"}}, {"uniqueid": "w11057925:a12363233", "current_trial": 71, "dateTime": 1664465034305, "trialdata": {"revealed_states": [], "num_clicks_accrued": [0, 0, 0, 0, 0, 0, 0, 0, 0, 0, 0, 0, 0], "stateRewards": ["", 2, 8, 48, -48, -2, -4, -24, 24, 4, -4, 48, -48], "withholdReward": true, "trial_id": "mdp_105734044587", "block": "test2", "trialIndex": 59, "score": 62.75, "costs": -0.25, "simulationMode": [null, null, null], "rewards": [2, 8, 48], "path": ["0", "0", "1", "2", "3"], "rt": [1133, 86, 227], "actions": ["up", "up", "right"], "actionTimes": [1650, 2239, 2972], "queries": {"click": {"state": {"target": ["3"], "time": [1050]}, "edge": {"target": [], "time": []}}, "mouseover": {"state": {"target": ["1", "3"], "time": [836, 985]}, "edge": {"target": [], "time": []}}, "mouseout": {"state": {"target": ["0", "1", "3", "5", "8", "8", "8"], "time": [786, 869, 1244, 7052, 7119, 7519, 9485]}, "edge": {"target": [], "time": []}}}, "displayed_time": "8.52", "trialTime": 9667, "trial_type": "mouselab-mdp", "trial_index": 71, "time_elapsed": 1135600, "internal_node_id": "0.0-4.0-3.0-25.0"}}, {"uniqueid": "w11057925:a12363233", "current_trial": 72, "dateTime": 1664465044565, "trialdata": {"revealed_states": [], "num_clicks_accrued": [0, 0, 0, 0, 0, 0, 0, 0, 0, 0, 0, 0, 0], "stateRewards": ["", 2, -4, -48, -48, -2, -4, -24, -48, -2, 8, 24, 24], "withholdReward": true, "trial_id": "mdp_656069446729", "block": "test2", "trialIndex": 60, "score": 33.5, "costs": -1.5, "simulationMode": [null, null, null], "rewards": [-2, 8, 24], "path": ["0", "0", "9", "10", "12"], "rt": [3737, 73, 125], "actions": ["left", "left", "down"], "actionTimes": [4693, 5259, 5886], "queries": {"click": {"state": {"target": ["4", "11", "12", "8", "7", "3"], "time": [1469, 2266, 2794, 3368, 3771, 4233]}, "edge": {"target": [], "time": []}}, "mouseover": {"state": {"target": ["4", "11", "10", "11", "10", "12", "8", "6", "7", "3", "1"], "time": [1413, 1727, 1802, 2177, 2502, 2544, 3211, 3569, 3661, 4077, 4477]}, "edge": {"target": [], "time": []}}, "mouseout": {"state": {"target": ["0", "4", "11", "10", "11", "10", "12", "8", "6", "7", "3", "1", "9"], "time": [1111, 1669, 1736, 1886, 2478, 2527, 2986, 3552, 3619, 4019, 4411, 4486, 7661]}, "edge": {"target": [], "time": []}}}, "displayed_time": "9.96", "trialTime": 10219, "trial_type": "mouselab-mdp", "trial_index": 72, "time_elapsed": 1145860, "internal_node_id": "0.0-4.0-3.0-26.0"}}, {"uniqueid": "w11057925:a12363233", "current_trial": 73, "dateTime": 1664465055704, "trialdata": {"revealed_states": [], "num_clicks_accrued": [0, 0, 0, 0, 0, 0, 0, 0, 0, 0, 0, 0, 0], "stateRewards": ["", -2, 4, -48, -48, -4, -8, 48, -48, 2, 4, 48, -48], "withholdReward": true, "trial_id": "mdp_258647270500", "block": "test2", "trialIndex": 61, "score": -41.5, "costs": -0.5, "simulationMode": [null, null, null], "rewards": [-2, 4, -48], "path": ["0", "0", "1", "2", "3"], "rt": [1867, 609, 191], "actions": ["up", "up", "right"], "actionTimes": [2639, 3743, 4434], "queries": {"click": {"state": {"target": ["4", "11"], "time": [1544, 2050]}, "edge": {"target": [], "time": []}}, "mouseover": {"state": {"target": ["4", "11", "11", "11"], "time": [1309, 1825, 1950, 1984]}, "edge": {"target": [], "time": []}}, "mouseout": {"state": {"target": ["0", "4", "11", "11", "11", "9"], "time": [700, 1784, 1842, 1959, 2242, 5484]}, "edge": {"target": [], "time": []}}}, "displayed_time": "10.77", "trialTime": 11106, "trial_type": "mouselab-mdp", "trial_index": 73, "time_elapsed": 1156999, "internal_node_id": "0.0-4.0-3.0-27.0"}}, {"uniqueid": "w11057925:a12363233", "current_trial": 74, "dateTime": 1664465065564, "trialdata": {"revealed_states": [], "num_clicks_accrued": [0, 0, 0, 0, 0, 0, 0, 0, 0, 0, 0, 0, 0], "stateRewards": ["", 4, -8, 48, -24, 4, -4, -48, -48, 4, -4, 24, 24], "withholdReward": false, "trial_id": "mdp_221562928904", "block": "test2", "trialIndex": 62, "score": 47.5, "costs": -1.5, "simulationMode": [null, null, null], "rewards": [4, -8, 48], "path": ["0", "0", "1", "2", "3"], "rt": [3489, 56, 473], "actions": ["up", "up", "right"], "actionTimes": [4277, 4834, 5809], "queries": {"click": {"state": {"target": ["4", "11", "12", "8", "7", "3"], "time": [1185, 1830, 2237, 2799, 3216, 3613]}, "edge": {"target": [], "time": []}}, "mouseover": {"state": {"target": ["4", "11", "11", "10", "12", "8", "8", "6", "7", "3"], "time": [1117, 1409, 1751, 2001, 2042, 2493, 2717, 2976, 3160, 3559]}, "edge": {"target": [], "time": []}}, "mouseout": {"state": {"target": ["4", "11", "11", "10", "12", "8", "8", "6", "7", "3", "7", "5"], "time": [1359, 1451, 1984, 2026, 2392, 2514, 2951, 3009, 3418, 3884, 6077, 8376]}, "edge": {"target": [], "time": []}}}, "displayed_time": "7.79", "trialTime": 9832, "trial_type": "mouselab-mdp", "trial_index": 74, "time_elapsed": 1166859, "internal_node_id": "0.0-4.0-3.0-28.0"}}, {"uniqueid": "w11057925:a12363233", "current_trial": 75, "dateTime": 1664465076498, "trialdata": {"revealed_states": [], "num_clicks_accrued": [0, 0, 0, 0, 0, 0, 0, 0, 0, 0, 0, 0, 0], "stateRewards": ["", -4, -4, 24, -48, 2, 4, -24, -48, -2, -8, -24, 24], "withholdReward": false, "trial_id": "mdp_565569130486", "block": "test2", "trialIndex": 63, "score": 17.5, "costs": -1.5, "simulationMode": [null, null, null], "rewards": [-2, -8, 24], "path": ["0", "0", "9", "10", "12"], "rt": [4877, 68, 93], "actions": ["left", "left", "down"], "actionTimes": [6242, 6821, 7426], "queries": {"click": {"state": {"target": ["4", "11", "12", "8", "7", "3"], "time": [1875, 2767, 3588, 4424, 5181, 5574]}, "edge": {"target": [], "time": []}}, "mouseover": {"state": {"target": ["4", "11", "11", "10", "12", "8", "8", "6", "7", "3", "6"], "time": [1766, 2181, 2681, 2931, 3534, 4123, 4331, 4723, 5056, 5431, 5923]}, "edge": {"target": [], "time": []}}, "mouseout": {"state": {"target": ["0", "4", "11", "11", "10", "12", "8", "8", "6", "7", "3", "6", "8", "8"], "time": [889, 2131, 2189, 2898, 2948, 3764, 4139, 4681, 4782, 5373, 5814, 6023, 6641, 10698]}, "edge": {"target": [], "time": []}}}, "displayed_time": "9.37", "trialTime": 10881, "trial_type": "mouselab-mdp", "trial_index": 75, "time_elapsed": 1177793, "internal_node_id": "0.0-4.0-3.0-29.0"}}, {"uniqueid": "w11057925:a12363233", "current_trial": 76, "dateTime": 1664465090675, "trialdata": {"rt": 14172, "stimulus": "<h1> End of block! </h1>\n\nYou have reached the end of the block 2/4. If you need a short break, feel free to take one now before moving on.\n\n<br><br>\nIn the next block, you will complete another 30 rounds of this game.\n\n<br><br>\n<div style='text-align: center;'>Press <code>space</code> to begin.</div>\n<br><br>\n<div style='text-align: center;'>(If the experiment doesn't continue, try clicking on the text and then pressing <code>space</code>.)</div>", "response": " ", "trial_id": "mdp_ready_3", "trial_type": "html-keyboard-response", "trial_index": 76, "time_elapsed": 1191970, "internal_node_id": "0.0-4.0-4.0"}}, {"uniqueid": "w11057925:a12363233", "current_trial": 77, "dateTime": 1664465102634, "trialdata": {"revealed_states": [], "num_clicks_accrued": [0, 0, 0, 0, 0, 0, 0, 0, 0, 0, 0, 0, 0], "stateRewards": ["", -2, 8, 24, -48, -4, -8, -24, -48, -4, 8, -24, 48], "withholdReward": false, "trial_id": "mdp_464339499860", "block": "test3", "trialIndex": 64, "score": 56.25, "costs": -0.75, "simulationMode": [null, null, null], "rewards": [-4, 8, 48], "path": ["0", "0", "9", "10", "12"], "rt": [2825, 488, 16], "actions": ["left", "left", "down"], "actionTimes": [4143, 5136, 5649], "queries": {"click": {"state": {"target": ["4", "11", "12"], "time": [2602, 3156, 3584]}, "edge": {"target": [], "time": []}}, "mouseover": {"state": {"target": ["4", "11", "11", "10", "12", "8"], "time": [2539, 2839, 3056, 3306, 3406, 3989]}, "edge": {"target": [], "time": []}}, "mouseout": {"state": {"target": ["3", "1", "4", "11", "11", "10", "12", "8", "5", "8", "1", "4"], "time": [422, 789, 2789, 2906, 3289, 3331, 3747, 5189, 6889, 11298, 11706, 11731]}, "edge": {"target": [], "time": []}}}, "displayed_time": "10.32", "trialTime": 11926, "trial_type": "mouselab-mdp", "trial_index": 77, "time_elapsed": 1203929, "internal_node_id": "0.0-4.0-5.0-0.0"}}, {"uniqueid": "w11057925:a12363233", "current_trial": 78, "dateTime": 1664465112263, "trialdata": {"revealed_states": [], "num_clicks_accrued": [0, 0, 0, 0, 0, 0, 0, 0, 0, 0, 0, 0, 0], "stateRewards": ["", -2, -4, 48, -24, 2, -4, -24, -48, 2, 8, -48, -24], "withholdReward": true, "trial_id": "mdp_238243948191", "block": "test3", "trialIndex": 65, "score": 45.5, "costs": -1.5, "simulationMode": [null, null, null], "rewards": [-2, -4, 48], "path": ["0", "0", "1", "2", "3"], "rt": [3924, 13, 287], "actions": ["up", "up", "right"], "actionTimes": [4534, 5066, 5861], "queries": {"click": {"state": {"target": ["12", "8", "7", "11", "4", "3"], "time": [1126, 1900, 2325, 3143, 3536, 3985]}, "edge": {"target": [], "time": []}}, "mouseover": {"state": {"target": ["9", "12", "8", "6", "7", "11", "11", "4", "2", "3"], "time": [907, 965, 1849, 2099, 2273, 2699, 2966, 3374, 3749, 3882]}, "edge": {"target": [], "time": []}}, "mouseout": {"state": {"target": ["4", "9", "0", "9", "12", "8", "6", "7", "11", "11", "4", "2", "3", "7", "8"], "time": [107, 240, 860, 932, 1273, 2073, 2149, 2515, 2748, 3298, 3732, 3824, 4190, 4240, 4757]}, "edge": {"target": [], "time": []}}}, "displayed_time": "8.61", "trialTime": 9598, "trial_type": "mouselab-mdp", "trial_index": 78, "time_elapsed": 1213558, "internal_node_id": "0.0-4.0-5.0-1.0"}}, {"uniqueid": "w11057925:a12363233", "current_trial": 79, "dateTime": 1664465122708, "trialdata": {"revealed_states": [], "num_clicks_accrued": [0, 0, 0, 0, 0, 0, 0, 0, 0, 0, 0, 0, 0], "stateRewards": ["", -2, -4, 48, -24, -4, -4, -24, -24, -2, 4, -48, -24], "withholdReward": true, "trial_id": "mdp_410467837196", "block": "test3", "trialIndex": 66, "score": 45.75, "costs": -1.25, "simulationMode": [null, null, null], "rewards": [-2, -4, 48], "path": ["0", "0", "1", "2", "3"], "rt": [3881, 3, 496], "actions": ["up", "up", "right"], "actionTimes": [4499, 5012, 6014], "queries": {"click": {"state": {"target": ["4", "12", "8", "7", "3"], "time": [1381, 2222, 2983, 3446, 3819]}, "edge": {"target": [], "time": []}}, "mouseover": {"state": {"target": ["1", "4", "11", "10", "12", "12", "8", "6", "7", "3"], "time": [825, 1192, 1592, 1642, 1742, 2091, 2917, 3192, 3233, 3650]}, "edge": {"target": [], "time": []}}, "mouseout": {"state": {"target": ["6", "5", "1", "4", "11", "10", "12", "12", "8", "6", "7", "3", "0"], "time": [342, 458, 883, 1550, 1608, 1717, 1817, 2383, 3175, 3217, 3617, 4000, 10033]}, "edge": {"target": [], "time": []}}}, "displayed_time": "8.62", "trialTime": 10403, "trial_type": "mouselab-mdp", "trial_index": 79, "time_elapsed": 1224003, "internal_node_id": "0.0-4.0-5.0-2.0"}}, {"uniqueid": "w11057925:a12363233", "current_trial": 80, "dateTime": 1664465133072, "trialdata": {"revealed_states": [], "num_clicks_accrued": [0, 0, 0, 0, 0, 0, 0, 0, 0, 0, 0, 0, 0], "stateRewards": ["", -4, -8, 48, -24, 4, -8, 48, 48, -2, 4, -48, -24], "withholdReward": true, "trial_id": "mdp_925905402462", "block": "test3", "trialIndex": 67, "score": 48.5, "costs": -0.5, "simulationMode": [null, null, null], "rewards": [4, -8, 48], "path": ["0", "0", "5", "6", "8"], "rt": [2612, 436, 70], "actions": ["right", "right", "down"], "actionTimes": [3312, 4244, 4830], "queries": {"click": {"state": {"target": ["4", "8"], "time": [1359, 2698]}, "edge": {"target": [], "time": []}}, "mouseover": {"state": {"target": ["4", "4", "8", "7", "6", "8", "6", "7"], "time": [981, 1273, 2081, 2465, 2531, 2590, 2890, 3190]}, "edge": {"target": [], "time": []}}, "mouseout": {"state": {"target": ["0", "4", "4", "8", "7", "6", "8", "6", "7", "6", "8"], "time": [840, 990, 1498, 2265, 2515, 2548, 2873, 2923, 4159, 4465, 4490]}, "edge": {"target": [], "time": []}}}, "displayed_time": "9.70", "trialTime": 10332, "trial_type": "mouselab-mdp", "trial_index": 80, "time_elapsed": 1234367, "internal_node_id": "0.0-4.0-5.0-3.0"}}, {"uniqueid": "w11057925:a12363233", "current_trial": 81, "dateTime": 1664465143077, "trialdata": {"revealed_states": [], "num_clicks_accrued": [0, 0, 0, 0, 0, 0, 0, 0, 0, 0, 0, 0, 0], "stateRewards": ["", 2, 4, 48, 48, 4, -8, 24, -48, -4, -8, -24, -48], "withholdReward": true, "trial_id": "mdp_343818007251", "block": "test3", "trialIndex": 68, "score": 58.75, "costs": -0.25, "simulationMode": [null, null, null], "rewards": [2, 4, 48], "path": ["0", "0", "1", "2", "4"], "rt": [1632, 1104, 171], "actions": ["up", "up", "left"], "actionTimes": [2143, 3763, 4444], "queries": {"click": {"state": {"target": ["4"], "time": [1454]}, "edge": {"target": [], "time": []}}, "mouseover": {"state": {"target": ["4", "12"], "time": [1344, 1753]}, "edge": {"target": [], "time": []}}, "mouseout": {"state": {"target": ["8", "0", "4", "12"], "time": [269, 361, 1644, 2019]}, "edge": {"target": [], "time": []}}}, "displayed_time": "9.51", "trialTime": 9967, "trial_type": "mouselab-mdp", "trial_index": 81, "time_elapsed": 1244372, "internal_node_id": "0.0-4.0-5.0-4.0"}}, {"uniqueid": "w11057925:a12363233", "current_trial": 82, "dateTime": 1664465153685, "trialdata": {"revealed_states": [], "num_clicks_accrued": [0, 0, 0, 0, 0, 0, 0, 0, 0, 0, 0, 0, 0], "stateRewards": ["", -4, -4, 24, -48, 2, 4, -24, -48, -2, -8, -24, 24], "withholdReward": true, "trial_id": "mdp_565569130486", "block": "test3", "trialIndex": 69, "score": 17.5, "costs": -1.5, "simulationMode": [null, null, null], "rewards": [-2, -8, 24], "path": ["0", "0", "9", "10", "12"], "rt": [4647, 56, 120], "actions": ["left", "left", "down"], "actionTimes": [5259, 5815, 6435], "queries": {"click": {"state": {"target": ["4", "11", "12", "8", "7", "3"], "time": [1065, 2106, 2622, 3446, 3952, 4358]}, "edge": {"target": [], "time": []}}, "mouseover": {"state": {"target": ["4", "11", "10", "12", "10", "11", "10", "12", "8", "7", "3"], "time": [963, 1247, 1797, 1872, 1980, 2047, 2313, 2588, 3347, 3830, 4214]}, "edge": {"target": [], "time": []}}, "mouseout": {"state": {"target": ["0", "4", "11", "10", "12", "10", "11", "10", "12", "8", "7", "3"], "time": [781, 1230, 1264, 1838, 1938, 2022, 2263, 2372, 2814, 3597, 4153, 4538]}, "edge": {"target": [], "time": []}}}, "displayed_time": "9.61", "trialTime": 10561, "trial_type": "mouselab-mdp", "trial_index": 82, "time_elapsed": 1254980, "internal_node_id": "0.0-4.0-5.0-5.0"}}, {"uniqueid": "w11057925:a12363233", "current_trial": 83, "dateTime": 1664465163920, "trialdata": {"revealed_states": [], "num_clicks_accrued": [0, 0, 0, 0, 0, 0, 0, 0, 0, 0, 0, 0, 0], "stateRewards": ["", 2, -4, 48, -24, 4, -8, -24, 48, -2, -4, 24, -48], "withholdReward": true, "trial_id": "mdp_357328205509", "block": "test3", "trialIndex": 70, "score": 50.75, "costs": -0.25, "simulationMode": [null, null, null], "rewards": [2, -4, 48], "path": ["0", "0", "1", "2", "3"], "rt": [1275, 84, 34], "actions": ["up", "up", "right"], "actionTimes": [2041, 2637, 3178], "queries": {"click": {"state": {"target": ["3"], "time": [1480]}, "edge": {"target": [], "time": []}}, "mouseover": {"state": {"target": ["5", "3", "7"], "time": [1068, 1409, 1759]}, "edge": {"target": [], "time": []}}, "mouseout": {"state": {"target": ["0", "5", "3", "7", "8"], "time": [1042, 1076, 1642, 1976, 5485]}, "edge": {"target": [], "time": []}}}, "displayed_time": "8.77", "trialTime": 10200, "trial_type": "mouselab-mdp", "trial_index": 83, "time_elapsed": 1265215, "internal_node_id": "0.0-4.0-5.0-6.0"}}, {"uniqueid": "w11057925:a12363233", "current_trial": 84, "dateTime": 1664465173804, "trialdata": {"revealed_states": [], "num_clicks_accrued": [0, 0, 0, 0, 0, 0, 0, 0, 0, 0, 0, 0, 0], "stateRewards": ["", -2, 4, -24, 48, 4, -8, 48, -48, 2, -8, 48, 24], "withholdReward": false, "trial_id": "mdp_501111216502", "block": "test3", "trialIndex": 71, "score": 46, "costs": -1, "simulationMode": [null, null, null], "rewards": [2, -8, 48], "path": ["0", "0", "9", "10", "11"], "rt": [3860, 83, 82], "actions": ["left", "left", "up"], "actionTimes": [4666, 5250, 5842], "queries": {"click": {"state": {"target": ["3", "8", "12", "11"], "time": [1213, 1696, 2377, 3745]}, "edge": {"target": [], "time": []}}, "mouseover": {"state": {"target": ["3", "7", "6", "8", "12", "12", "10", "11", "11", "4", "11", "4"], "time": [1057, 1391, 1474, 1516, 2066, 2307, 2557, 2599, 3057, 3482, 3682, 3965]}, "edge": {"target": [], "time": []}}, "mouseout": {"state": {"target": ["0", "3", "7", "6", "8", "12", "12", "10", "11", "11", "4", "11", "4", "1", "0", "5"], "time": [949, 1357, 1432, 1499, 1974, 2074, 2540, 2582, 2791, 3324, 3632, 3916, 8532, 8574, 8599, 8640]}, "edge": {"target": [], "time": []}}}, "displayed_time": "8.81", "trialTime": 9823, "trial_type": "mouselab-mdp", "trial_index": 84, "time_elapsed": 1275098, "internal_node_id": "0.0-4.0-5.0-7.0"}}, {"uniqueid": "w11057925:a12363233", "current_trial": 85, "dateTime": 1664465184570, "trialdata": {"revealed_states": [], "num_clicks_accrued": [0, 0, 0, 0, 0, 0, 0, 0, 0, 0, 0, 0, 0], "stateRewards": ["", 2, -8, 48, -24, 2, 8, 24, -24, 4, -4, -48, -48], "withholdReward": true, "trial_id": "mdp_130946197263", "block": "test3", "trialIndex": 72, "score": 45.5, "costs": -1.5, "simulationMode": [null, null, null], "rewards": [2, -8, 48], "path": ["0", "0", "1", "2", "3"], "rt": [3929, 161, 335], "actions": ["up", "up", "right"], "actionTimes": [5093, 5760, 6600], "queries": {"click": {"state": {"target": ["4", "8", "12", "11", "7", "3"], "time": [1885, 2415, 3013, 3417, 4040, 4608]}, "edge": {"target": [], "time": []}}, "mouseover": {"state": {"target": ["4", "1", "8", "12", "10", "11", "1", "7", "7", "3"], "time": [1798, 2089, 2314, 2872, 3189, 3256, 3664, 3690, 3947, 4464]}, "edge": {"target": [], "time": []}}, "mouseout": {"state": {"target": ["5", "1", "4", "1", "8", "12", "10", "11", "1", "7", "7", "3", "7", "6", "8"], "time": [439, 914, 2048, 2106, 2631, 3173, 3214, 3639, 3673, 3699, 4314, 4881, 8981, 9007, 9023]}, "edge": {"target": [], "time": []}}}, "displayed_time": "10.17", "trialTime": 10714, "trial_type": "mouselab-mdp", "trial_index": 85, "time_elapsed": 1285865, "internal_node_id": "0.0-4.0-5.0-8.0"}}, {"uniqueid": "w11057925:a12363233", "current_trial": 86, "dateTime": 1664465194967, "trialdata": {"revealed_states": [], "num_clicks_accrued": [0, 0, 0, 0, 0, 0, 0, 0, 0, 0, 0, 0, 0], "stateRewards": ["", -4, -8, -24, 24, 4, 4, -48, -48, -4, -4, 24, -48], "withholdReward": true, "trial_id": "mdp_431592223624", "block": "test3", "trialIndex": 73, "score": 15.5, "costs": -1.5, "simulationMode": [null, null, null], "rewards": [-4, -8, 24], "path": ["0", "0", "1", "2", "4"], "rt": [4429, 180, 29], "actions": ["up", "up", "left"], "actionTimes": [5140, 5817, 6349], "queries": {"click": {"state": {"target": ["4", "7", "8", "12", "11", "3"], "time": [1144, 1651, 2172, 2674, 3386, 3983]}, "edge": {"target": [], "time": []}}, "mouseover": {"state": {"target": ["1", "4", "7", "6", "8", "12", "10", "11", "1", "3"], "time": [953, 1003, 1554, 2004, 2037, 2603, 2912, 3236, 3661, 3961]}, "edge": {"target": [], "time": []}}, "mouseout": {"state": {"target": ["8", "5", "1", "0", "1", "4", "7", "6", "8", "12", "10", "11", "1", "3", "7"], "time": [253, 303, 378, 899, 970, 1304, 1970, 2020, 2353, 2895, 2937, 3628, 3669, 4111, 10078]}, "edge": {"target": [], "time": []}}}, "displayed_time": "8.71", "trialTime": 10342, "trial_type": "mouselab-mdp", "trial_index": 86, "time_elapsed": 1296262, "internal_node_id": "0.0-4.0-5.0-9.0"}}, {"uniqueid": "w11057925:a12363233", "current_trial": 87, "dateTime": 1664465206293, "trialdata": {"revealed_states": [], "num_clicks_accrued": [0, 0, 0, 0, 0, 0, 0, 0, 0, 0, 0, 0, 0], "stateRewards": ["", 2, 4, 48, -48, 2, 4, 24, -24, 2, -4, -24, -48], "withholdReward": true, "trial_id": "mdp_706591889062", "block": "test3", "trialIndex": 74, "score": 57.5, "costs": -1.5, "simulationMode": [null, null, null], "rewards": [2, 4, 48], "path": ["0", "0", "1", "2", "3"], "rt": [3821, 377, 143], "actions": ["up", "up", "right"], "actionTimes": [4451, 5328, 5978], "queries": {"click": {"state": {"target": ["4", "8", "12", "11", "3", "7"], "time": [1229, 1794, 2776, 3219, 3737, 4130]}, "edge": {"target": [], "time": []}}, "mouseover": {"state": {"target": ["4", "4", "1", "5", "8", "12", "10", "12", "10", "11", "1", "3", "7"], "time": [876, 1176, 1467, 1509, 1567, 2117, 2467, 2760, 3050, 3084, 3467, 3659, 3937]}, "edge": {"target": [],