{"condition": 1, "counterbalance": 0, "assignmentId": "a93262585", "workerId": "w55174110", "hitId": "h27943594", "currenttrial": 137, "bonus": 0, "data": [{"uniqueid": "w55174110:a93262585", "current_trial": 0, "dateTime": 1664555564562, "trialdata": {"success": true, "trial_type": "fullscreen", "trial_index": 0, "time_elapsed": 4708, "internal_node_id": "0.0-0.0"}}, {"uniqueid": "w55174110:a93262585", "current_trial": 1, "dateTime": 1664555578163, "trialdata": {"view_history": [{"page_index": 0, "viewing_time": 13598}], "rt": 13599, "trial_id": "exp_instructions_no_distractor", "trial_type": "instructions", "trial_index": 1, "time_elapsed": 18309, "internal_node_id": "0.0-1.0"}}, {"uniqueid": "w55174110:a93262585", "current_trial": 2, "dateTime": 1664555583425, "trialdata": {"success": true, "trial_type": "fullscreen", "trial_index": 2, "time_elapsed": 23571, "internal_node_id": "0.0-2.0-0.0"}}, {"uniqueid": "w55174110:a93262585", "current_trial": 3, "dateTime": 1664555674606, "trialdata": {"view_history": [{"page_index": 0, "viewing_time": 35078}, {"page_index": 1, "viewing_time": 24442}, {"page_index": 2, "viewing_time": 7675}, {"page_index": 3, "viewing_time": 7270}, {"page_index": 4, "viewing_time": 16715}], "rt": 91180, "trial_id": "mouselab_instructions_1", "trial_type": "instructions", "trial_index": 3, "time_elapsed": 114752, "internal_node_id": "0.0-2.0-1.0"}}, {"uniqueid": "w55174110:a93262585", "current_trial": 4, "dateTime": 1664555692369, "trialdata": {"revealed_states": [], "num_clicks_accrued": [0, 0, 0, 0, 0, 0, 0, 0, 0, 0, 0, 0, 0], "stateRewards": ["", 10, 10, 10, -10, -10, 10, 10, -10, 10, 10, 10, 10], "withholdReward": false, "trial_id": "practice_1", "block": "test", "trialIndex": 0, "score": 41.75, "costs": -0.25, "simulationMode": [null, null, null, null, null, null, null], "rewards": [10, 10, 10, 10], "path": ["0", "0", "9", "9", "10", "11"], "rt": [6563, 6281, 2005, 1506, 1068, 563, 325], "actions": ["left", "left", "left", "left", "left", "left", "up"], "actionTimes": [6281, 6282, 8289, 8290, 9360, 9361, 10186], "queries": {"click": {"state": {"target": ["5"], "time": [4298]}, "edge": {"target": [], "time": []}}, "mouseover": {"state": {"target": ["5"], "time": [3827]}, "edge": {"target": [], "time": []}}, "mouseout": {"state": {"target": ["0", "5"], "time": [3506, 4721]}, "edge": {"target": [], "time": []}}}, "displayed_time": "10.69", "trialTime": 13518, "trial_type": "mouselab-mdp", "trial_index": 4, "time_elapsed": 132514, "internal_node_id": "0.0-2.0-2.0-0.0"}}, {"uniqueid": "w55174110:a93262585", "current_trial": 5, "dateTime": 1664555702244, "trialdata": {"revealed_states": [], "num_clicks_accrued": [0, 0, 0, 0, 0, 0, 0, 0, 0, 0, 0, 0, 0], "stateRewards": ["", 10, 10, -10, -10, 10, -10, 10, -10, 10, -10, -10, 10], "withholdReward": false, "trial_id": "practice_2", "block": "test", "trialIndex": 1, "score": 11.75, "costs": -0.25, "simulationMode": [null, null, null], "rewards": [10, -10, 10], "path": ["0", "0", "9", "10", "12"], "rt": [3915, 137, 47], "actions": ["left", "left", "down"], "actionTimes": [5737, 6371, 6926], "queries": {"click": {"state": {"target": ["9"], "time": [4809]}, "edge": {"target": [], "time": []}}, "mouseover": {"state": {"target": ["0", "9"], "time": [4524, 4614]}, "edge": {"target": [], "time": []}}, "mouseout": {"state": {"target": ["0", "9"], "time": [4573, 8628]}, "edge": {"target": [], "time": []}}}, "displayed_time": "7.43", "trialTime": 9843, "trial_type": "mouselab-mdp", "trial_index": 5, "time_elapsed": 142390, "internal_node_id": "0.0-2.0-2.0-1.0"}}, {"uniqueid": "w55174110:a93262585", "current_trial": 6, "dateTime": 1664555752789, "trialdata": {"view_history": [{"page_index": 0, "viewing_time": 27817}, {"page_index": 1, "viewing_time": 18665}, {"page_index": 2, "viewing_time": 4060}], "rt": 50542, "trial_id": "mouselab_instructions_2_scarce", "trial_type": "instructions", "trial_index": 6, "time_elapsed": 192935, "internal_node_id": "0.0-2.0-3.0"}}, {"uniqueid": "w55174110:a93262585", "current_trial": 7, "dateTime": 1664555779868, "trialdata": {"rt": 27076, "response": {"Q0": "$-48 to $48", "Q1": "The cost is always $0.25.", "Q2": "The better I perform the higher my bonus will be.", "Q3": "No, the amount of cash at each node of the web may be different each time.", "Q4": "The values of the nodes walked through from start to finish.", "Q5": "No, the spider might forget to count the money on some rounds."}, "question_order": [0, 1, 2, 3, 4, 5], "correct": {"Q0": "$-48 to $48", "Q1": "The cost is always $0.25.", "Q2": "The better I perform the higher my bonus will be.", "Q3": "No, the amount of cash at each node of the web may be different each time.", "Q4": "The values of the nodes walked through from start to finish.", "Q5": "No, the spider might forget to count the money on some rounds."}, "trial_id": "mouselab_quiz_scarce", "trial_type": "survey-multi-choice", "trial_index": 7, "time_elapsed": 220014, "internal_node_id": "0.0-2.0-4.0"}}, {"uniqueid": "w55174110:a93262585", "current_trial": 8, "dateTime": 1664555797789, "trialdata": {"rt": 17916, "stimulus": "\n<h1> Get ready to start the game! </h1>\n\nThank you for reading the instructions. Get ready start with the first of 4 block(s) of this game.\n<br><br>\nIn this first block, you will complete 30 rounds of this game before moving on.\n<br><br>\nRemember, the more money the spider gets, the bigger your bonus will be!\n<br><br>\n<div style='text-align: center;'>Press <code>space</code> to begin.</div>\n\n<br><br>\n(If, at any point, the <code>space</code> key does not take you to the next page, click once on the text and try again.)", "response": " ", "trial_id": "mdp_ready_1", "trial_type": "html-keyboard-response", "trial_index": 8, "time_elapsed": 237935, "internal_node_id": "0.0-4.0-0.0"}}, {"uniqueid": "w55174110:a93262585", "current_trial": 9, "dateTime": 1664555809647, "trialdata": {"revealed_states": [], "num_clicks_accrued": [0, 0, 0, 0, 0, 0, 0, 0, 0, 0, 0, 0, 0], "stateRewards": ["", 2, 4, 24, 48, -2, 8, 24, -24, -4, -4, 48, 48], "withholdReward": false, "trial_id": "mdp_753439303214", "block": "test1", "trialIndex": 2, "score": 58.25, "costs": -0.75, "simulationMode": [null, null, null], "rewards": [2, 4, 48], "path": ["0", "0", "1", "2", "4"], "rt": [4214, 300, 458], "actions": ["up", "up", "left"], "actionTimes": [5888, 6695, 7658], "queries": {"click": {"state": {"target": ["5", "1", "9"], "time": [2458, 3159, 3951]}, "edge": {"target": [], "time": []}}, "mouseover": {"state": {"target": ["5", "1", "9"], "time": [2297, 2971, 3658]}, "edge": {"target": [], "time": []}}, "mouseout": {"state": {"target": ["6", "5", "0", "5", "1", "9", "1", "0", "8"], "time": [262, 776, 2179, 2797, 3415, 4353, 10540, 10589, 11158]}, "edge": {"target": [], "time": []}}}, "displayed_time": "9.68", "trialTime": 11822, "trial_type": "mouselab-mdp", "trial_index": 9, "time_elapsed": 249792, "internal_node_id": "0.0-4.0-1.0-0.0"}}, {"uniqueid": "w55174110:a93262585", "current_trial": 10, "dateTime": 1664555822353, "trialdata": {"revealed_states": [], "num_clicks_accrued": [0, 0, 0, 0, 0, 0, 0, 0, 0, 0, 0, 0, 0], "stateRewards": ["", -2, -8, 24, -48, -4, 8, -48, -24, 4, 8, -24, 24], "withholdReward": false, "trial_id": "mdp_940444641142", "block": "test1", "trialIndex": 3, "score": -7.5, "costs": -0.5, "simulationMode": [null, null, null], "rewards": [4, 8, -24], "path": ["0", "0", "9", "10", "11"], "rt": [4392, 128, 155], "actions": ["left", "left", "up"], "actionTimes": [6308, 6935, 7587], "queries": {"click": {"state": {"target": ["9", "1"], "time": [2835, 5121]}, "edge": {"target": [], "time": []}}, "mouseover": {"state": {"target": ["0", "9", "0", "1"], "time": [2155, 2704, 3362, 5015]}, "edge": {"target": [], "time": []}}, "mouseout": {"state": {"target": ["5", "0", "9", "0", "1", "0"], "time": [1674, 2467, 3314, 3369, 5494, 11063]}, "edge": {"target": [], "time": []}}}, "displayed_time": "9.92", "trialTime": 12677, "trial_type": "mouselab-mdp", "trial_index": 10, "time_elapsed": 262499, "internal_node_id": "0.0-4.0-1.0-1.0"}}, {"uniqueid": "w55174110:a93262585", "current_trial": 11, "dateTime": 1664555833870, "trialdata": {"revealed_states": [], "num_clicks_accrued": [0, 0, 0, 0, 0, 0, 0, 0, 0, 0, 0, 0, 0], "stateRewards": ["", 4, -4, 48, -48, 2, 8, -48, 24, -2, -4, -24, 48], "withholdReward": false, "trial_id": "mdp_937564992306", "block": "test1", "trialIndex": 4, "score": 52.25, "costs": -0.75, "simulationMode": [null, null, null], "rewards": [4, -4, 48], "path": ["0", "0", "1", "2", "3"], "rt": [3321, 71, 131], "actions": ["up", "up", "right"], "actionTimes": [4833, 5412, 6048], "queries": {"click": {"state": {"target": ["5", "9", "1"], "time": [2910, 3611, 4058]}, "edge": {"target": [], "time": []}}, "mouseover": {"state": {"target": ["5", "6", "6", "5", "9", "1"], "time": [1702, 1744, 2674, 2736, 3514, 4000]}, "edge": {"target": [], "time": []}}, "mouseout": {"state": {"target": ["0", "5", "6", "6", "5", "9", "1"], "time": [1681, 1723, 1757, 2709, 3195, 3847, 4264]}, "edge": {"target": [], "time": []}}}, "displayed_time": "10.51", "trialTime": 11484, "trial_type": "mouselab-mdp", "trial_index": 11, "time_elapsed": 274016, "internal_node_id": "0.0-4.0-1.0-2.0"}}, {"uniqueid": "w55174110:a93262585", "current_trial": 12, "dateTime": 1664555844445, "trialdata": {"revealed_states": [], "num_clicks_accrued": [0, 0, 0, 0, 0, 0, 0, 0, 0, 0, 0, 0, 0], "stateRewards": ["", -4, -4, -48, 48, -4, -8, -24, -48, -2, 8, 48, 24], "withholdReward": true, "trial_id": "mdp_365393526663", "block": "test1", "trialIndex": 5, "score": -55.5, "costs": -0.5, "simulationMode": [null, null, null], "rewards": [-4, -8, -48], "path": ["0", "0", "5", "6", "8"], "rt": [2846, 2087, 266], "actions": ["right", "right", "down"], "actionTimes": [4218, 6806, 7575], "queries": {"click": {"state": {"target": ["1", "9"], "time": [2253, 2938]}, "edge": {"target": [], "time": []}}, "mouseover": {"state": {"target": ["0", "1", "9", "0", "5"], "time": [1809, 2248, 2844, 3399, 3489]}, "edge": {"target": [], "time": []}}, "mouseout": {"state": {"target": ["0", "0", "1", "9", "0", "5"], "time": [1316, 2163, 2747, 3365, 3455, 5135]}, "edge": {"target": [], "time": []}}}, "displayed_time": "9.37", "trialTime": 10541, "trial_type": "mouselab-mdp", "trial_index": 12, "time_elapsed": 284591, "internal_node_id": "0.0-4.0-1.0-3.0"}}, {"uniqueid": "w55174110:a93262585", "current_trial": 13, "dateTime": 1664555856765, "trialdata": {"revealed_states": [], "num_clicks_accrued": [0, 0, 0, 0, 0, 0, 0, 0, 0, 0, 0, 0, 0], "stateRewards": ["", -2, -8, 24, -48, 4, 4, -24, -48, -2, -8, -48, 24], "withholdReward": true, "trial_id": "mdp_556006673466", "block": "test1", "trialIndex": 6, "score": -11.75, "costs": -0.75, "simulationMode": [null, null, null], "rewards": [4, 4, -24], "path": ["0", "0", "5", "6", "7"], "rt": [3373, 90, 113], "actions": ["right", "right", "up"], "actionTimes": [4635, 5233, 5846], "queries": {"click": {"state": {"target": ["9", "1", "5"], "time": [2388, 3205, 3967]}, "edge": {"target": [], "time": []}}, "mouseover": {"state": {"target": ["9", "1", "5"], "time": [2171, 2713, 3629]}, "edge": {"target": [], "time": []}}, "mouseout": {"state": {"target": ["6", "5", "9", "1", "5"], "time": [1072, 1164, 2608, 3434, 4156]}, "edge": {"target": [], "time": []}}}, "displayed_time": "10.26", "trialTime": 12292, "trial_type": "mouselab-mdp", "trial_index": 13, "time_elapsed": 296911, "internal_node_id": "0.0-4.0-1.0-4.0"}}, {"uniqueid": "w55174110:a93262585", "current_trial": 14, "dateTime": 1664555866963, "trialdata": {"revealed_states": [], "num_clicks_accrued": [0, 0, 0, 0, 0, 0, 0, 0, 0, 0, 0, 0, 0], "stateRewards": ["", -4, 8, 24, -24, 4, 8, -24, -48, 2, 4, 24, -24], "withholdReward": false, "trial_id": "mdp_782187007008", "block": "test1", "trialIndex": 7, "score": -7.75, "costs": -0.75, "simulationMode": [null, null, null], "rewards": [4, 8, -24], "path": ["0", "0", "5", "6", "7"], "rt": [2198, 486, 199], "actions": ["right", "right", "up"], "actionTimes": [3491, 4485, 5191], "queries": {"click": {"state": {"target": ["1", "9", "5"], "time": [1846, 2390, 2985]}, "edge": {"target": [], "time": []}}, "mouseover": {"state": {"target": ["1", "9", "0", "5"], "time": [1771, 2270, 2748, 2902]}, "edge": {"target": [], "time": []}}, "mouseout": {"state": {"target": ["5", "0", "1", "9", "0"], "time": [727, 1624, 2026, 2665, 2797]}, "edge": {"target": [], "time": []}}}, "displayed_time": "9.29", "trialTime": 10165, "trial_type": "mouselab-mdp", "trial_index": 14, "time_elapsed": 307109, "internal_node_id": "0.0-4.0-1.0-5.0"}}, {"uniqueid": "w55174110:a93262585", "current_trial": 15, "dateTime": 1664555878076, "trialdata": {"revealed_states": [], "num_clicks_accrued": [0, 0, 0, 0, 0, 0, 0, 0, 0, 0, 0, 0, 0], "stateRewards": ["", 4, 4, 24, -48, 2, -8, -24, -48, 4, 8, 48, 48], "withholdReward": true, "trial_id": "mdp_592471239511", "block": "test1", "trialIndex": 8, "score": -35.5, "costs": -0.5, "simulationMode": [null, null, null], "rewards": [4, 4, -48], "path": ["0", "0", "1", "2", "4"], "rt": [1520, 373, 61], "actions": ["up", "up", "left"], "actionTimes": [2770, 3645, 4201], "queries": {"click": {"state": {"target": ["5", "1"], "time": [1755, 2066]}, "edge": {"target": [], "time": []}}, "mouseover": {"state": {"target": ["5", "1"], "time": [1674, 2021]}, "edge": {"target": [], "time": []}}, "mouseout": {"state": {"target": ["5", "5", "1"], "time": [1077, 1917, 2244]}, "edge": {"target": [], "time": []}}}, "displayed_time": "10.25", "trialTime": 11079, "trial_type": "mouselab-mdp", "trial_index": 15, "time_elapsed": 318222, "internal_node_id": "0.0-4.0-1.0-6.0"}}, {"uniqueid": "w55174110:a93262585", "current_trial": 16, "dateTime": 1664555889216, "trialdata": {"revealed_states": [], "num_clicks_accrued": [0, 0, 0, 0, 0, 0, 0, 0, 0, 0, 0, 0, 0], "stateRewards": ["", 4, 8, -24, 48, 4, -8, -48, 48, -4, 8, -24, -48], "withholdReward": true, "trial_id": "mdp_376126356841", "block": "test1", "trialIndex": 9, "score": 64.5, "costs": -0.5, "simulationMode": [null, null, null], "rewards": [4, 8, 48], "path": ["0", "0", "1", "2", "4"], "rt": [1626, 68, 158], "actions": ["up", "up", "left"], "actionTimes": [3060, 3633, 4292], "queries": {"click": {"state": {"target": ["9", "1"], "time": [1949, 2455]}, "edge": {"target": [], "time": []}}, "mouseover": {"state": {"target": ["9", "1"], "time": [1869, 2327]}, "edge": {"target": [], "time": []}}, "mouseout": {"state": {"target": ["0", "5", "5", "9"], "time": [1077, 1098, 1349, 2272]}, "edge": {"target": [], "time": []}}}, "displayed_time": "10.44", "trialTime": 11107, "trial_type": "mouselab-mdp", "trial_index": 16, "time_elapsed": 329362, "internal_node_id": "0.0-4.0-1.0-7.0"}}, {"uniqueid": "w55174110:a93262585", "current_trial": 17, "dateTime": 1664555898924, "trialdata": {"revealed_states": [], "num_clicks_accrued": [0, 0, 0, 0, 0, 0, 0, 0, 0, 0, 0, 0, 0], "stateRewards": ["", -2, -8, 48, 24, -2, 8, -48, -24, -2, 4, -48, 48], "withholdReward": true, "trial_id": "mdp_295220852217", "block": "test1", "trialIndex": 10, "score": -37.5, "costs": -0.5, "simulationMode": [null, null, null], "rewards": [-2, 8, -48], "path": ["0", "0", "5", "6", "7"], "rt": [2034, 106, 112], "actions": ["right", "right", "up"], "actionTimes": [3043, 3649, 4259], "queries": {"click": {"state": {"target": ["1", "9"], "time": [1511, 2125]}, "edge": {"target": [], "time": []}}, "mouseover": {"state": {"target": ["1", "9", "5"], "time": [1438, 2097, 2653]}, "edge": {"target": [], "time": []}}, "mouseout": {"state": {"target": ["1", "1", "9"], "time": [785, 1945, 2493]}, "edge": {"target": [], "time": []}}}, "displayed_time": "9.01", "trialTime": 9676, "trial_type": "mouselab-mdp", "trial_index": 17, "time_elapsed": 339070, "internal_node_id": "0.0-4.0-1.0-8.0"}}, {"uniqueid": "w55174110:a93262585", "current_trial": 18, "dateTime": 1664555909086, "trialdata": {"revealed_states": [], "num_clicks_accrued": [0, 0, 0, 0, 0, 0, 0, 0, 0, 0, 0, 0, 0], "stateRewards": ["", 2, -4, 48, -24, 4, -8, -24, 48, -2, -4, 24, -48], "withholdReward": true, "trial_id": "mdp_357328205509", "block": "test1", "trialIndex": 11, "score": 48.25, "costs": -0.75, "simulationMode": [null, null, null], "rewards": [4, -8, 48], "path": ["0", "0", "5", "6", "8"], "rt": [5403, 120, 99], "actions": ["right", "right", "down"], "actionTimes": [7078, 7695, 8299], "queries": {"click": {"state": {"target": ["1", "9", "5"], "time": [3626, 4259, 6089]}, "edge": {"target": [], "time": []}}, "mouseover": {"state": {"target": ["5", "7", "7", "1", "9", "5"], "time": [1859, 1907, 3289, 3574, 4199, 5768]}, "edge": {"target": [], "time": []}}, "mouseout": {"state": {"target": ["5", "5", "5", "0", "5", "7", "7", "1", "9", "5"], "time": [949, 1372, 1490, 1838, 1872, 1921, 3310, 4110, 5512, 6227]}, "edge": {"target": [], "time": []}}}, "displayed_time": "9.68", "trialTime": 10126, "trial_type": "mouselab-mdp", "trial_index": 18, "time_elapsed": 349231, "internal_node_id": "0.0-4.0-1.0-9.0"}}, {"uniqueid": "w55174110:a93262585", "current_trial": 19, "dateTime": 1664555920201, "trialdata": {"revealed_states": [], "num_clicks_accrued": [0, 0, 0, 0, 0, 0, 0, 0, 0, 0, 0, 0, 0], "stateRewards": ["", 4, -8, -24, 24, 2, -4, 24, 24, 2, -4, 48, 48], "withholdReward": true, "trial_id": "mdp_457607480918", "block": "test1", "trialIndex": 12, "score": 24.5, "costs": -0.5, "simulationMode": [null, null, null], "rewards": [4, -8, 24], "path": ["0", "0", "1", "2", "4"], "rt": [1753, 87, 139], "actions": ["up", "up", "left"], "actionTimes": [3233, 3816, 4451], "queries": {"click": {"state": {"target": ["9", "1"], "time": [2014, 2458]}, "edge": {"target": [], "time": []}}, "mouseover": {"state": {"target": ["9", "1"], "time": [1965, 2402]}, "edge": {"target": [], "time": []}}, "mouseout": {"state": {"target": ["5", "0", "0", "9"], "time": [778, 839, 1902, 2271]}, "edge": {"target": [], "time": []}}}, "displayed_time": "10.48", "trialTime": 11084, "trial_type": "mouselab-mdp", "trial_index": 19, "time_elapsed": 360347, "internal_node_id": "0.0-4.0-1.0-10.0"}}, {"uniqueid": "w55174110:a93262585", "current_trial": 20, "dateTime": 1664555929868, "trialdata": {"revealed_states": [], "num_clicks_accrued": [0, 0, 0, 0, 0, 0, 0, 0, 0, 0, 0, 0, 0], "stateRewards": ["", -2, 8, -24, 48, -4, 4, -48, 24, 4, -8, 48, -24], "withholdReward": true, "trial_id": "mdp_425320427962", "block": "test1", "trialIndex": 13, "score": 48.5, "costs": -0.5, "simulationMode": [null, null, null], "rewards": [4, -8, 48], "path": ["0", "0", "9", "10", "11"], "rt": [2384, 50, 47], "actions": ["left", "left", "up"], "actionTimes": [3605, 4161, 4714], "queries": {"click": {"state": {"target": ["1", "9"], "time": [2609, 3060]}, "edge": {"target": [], "time": []}}, "mouseover": {"state": {"target": ["1", "1", "9"], "time": [2257, 2521, 3021]}, "edge": {"target": [], "time": []}}, "mouseout": {"state": {"target": ["1", "0", "0", "1", "1", "9"], "time": [514, 959, 1361, 2284, 2861, 3270]}, "edge": {"target": [], "time": []}}}, "displayed_time": "9.22", "trialTime": 9632, "trial_type": "mouselab-mdp", "trial_index": 20, "time_elapsed": 370013, "internal_node_id": "0.0-4.0-1.0-11.0"}}, {"uniqueid": "w55174110:a93262585", "current_trial": 21, "dateTime": 1664555941481, "trialdata": {"revealed_states": [], "num_clicks_accrued": [0, 0, 0, 0, 0, 0, 0, 0, 0, 0, 0, 0, 0], "stateRewards": ["", -4, -8, -24, 24, 4, 4, -48, -48, -4, -4, 24, -48], "withholdReward": true, "trial_id": "mdp_431592223624", "block": "test1", "trialIndex": 14, "score": -35.75, "costs": -0.75, "simulationMode": [null, null, null], "rewards": [4, 4, -48], "path": ["0", "0", "5", "6", "8"], "rt": [4475, 2, 468], "actions": ["right", "right", "down"], "actionTimes": [6264, 6774, 7756], "queries": {"click": {"state": {"target": ["9", "1", "5"], "time": [3453, 5308, 5770]}, "edge": {"target": [], "time": []}}, "mouseover": {"state": {"target": ["9", "1", "5"], "time": [2886, 4784, 5716]}, "edge": {"target": [], "time": []}}, "mouseout": {"state": {"target": ["9", "1", "5"], "time": [4218, 5626, 5932]}, "edge": {"target": [], "time": []}}}, "displayed_time": "10.79", "trialTime": 11580, "trial_type": "mouselab-mdp", "trial_index": 21, "time_elapsed": 381627, "internal_node_id": "0.0-4.0-1.0-12.0"}}, {"uniqueid": "w55174110:a93262585", "current_trial": 22, "dateTime": 1664555951531, "trialdata": {"revealed_states": [], "num_clicks_accrued": [0, 0, 0, 0, 0, 0, 0, 0, 0, 0, 0, 0, 0], "stateRewards": ["", 4, -8, 24, 48, 2, 4, 48, 48, 2, 8, -48, -48], "withholdReward": true, "trial_id": "mdp_783704746330", "block": "test1", "trialIndex": 15, "score": 24.5, "costs": -0.5, "simulationMode": [null, null, null], "rewards": [4, -8, 24], "path": ["0", "0", "1", "2", "3"], "rt": [1272, 53, 65], "actions": ["up", "up", "right"], "actionTimes": [2714, 3268, 3829], "queries": {"click": {"state": {"target": ["5", "1"], "time": [1762, 2240]}, "edge": {"target": [], "time": []}}, "mouseover": {"state": {"target": ["5", "1"], "time": [1728, 2228]}, "edge": {"target": [], "time": []}}, "mouseout": {"state": {"target": ["5", "0", "5", "1", "0"], "time": [936, 1638, 2096, 4769, 4846]}, "edge": {"target": [], "time": []}}}, "displayed_time": "9.44", "trialTime": 10017, "trial_type": "mouselab-mdp", "trial_index": 22, "time_elapsed": 391677, "internal_node_id": "0.0-4.0-1.0-13.0"}}, {"uniqueid": "w55174110:a93262585", "current_trial": 23, "dateTime": 1664555961568, "trialdata": {"revealed_states": [], "num_clicks_accrued": [0, 0, 0, 0, 0, 0, 0, 0, 0, 0, 0, 0, 0], "stateRewards": ["", 2, 4, 48, 24, -4, 8, 48, 48, 2, -4, -48, -24], "withholdReward": false, "trial_id": "mdp_822099887466", "block": "test1", "trialIndex": 16, "score": -21.75, "costs": -0.75, "simulationMode": [null, null, null], "rewards": [2, -4, -24], "path": ["0", "0", "9", "10", "12"], "rt": [2947, 386, 121], "actions": ["left", "left", "down"], "actionTimes": [3513, 4401, 5017], "queries": {"click": {"state": {"target": ["9", "1", "5"], "time": [1038, 1517, 2338]}, "edge": {"target": [], "time": []}}, "mouseover": {"state": {"target": ["9", "1", "5", "0"], "time": [1000, 1445, 2021, 2618]}, "edge": {"target": [], "time": []}}, "mouseout": {"state": {"target": ["0", "9", "1", "5", "0", "5"], "time": [973, 1294, 1737, 2564, 9660, 9785]}, "edge": {"target": [], "time": []}}}, "displayed_time": "9.57", "trialTime": 10007, "trial_type": "mouselab-mdp", "trial_index": 23, "time_elapsed": 401714, "internal_node_id": "0.0-4.0-1.0-14.0"}}, {"uniqueid": "w55174110:a93262585", "current_trial": 24, "dateTime": 1664555972857, "trialdata": {"revealed_states": [], "num_clicks_accrued": [0, 0, 0, 0, 0, 0, 0, 0, 0, 0, 0, 0, 0], "stateRewards": ["", 2, 4, 48, -48, 2, 8, -24, 48, 4, 8, 48, -48], "withholdReward": true, "trial_id": "mdp_110142964375", "block": "test1", "trialIndex": 17, "score": 64.5, "costs": -0.5, "simulationMode": [null, null, null], "rewards": [4, 8, 48], "path": ["0", "0", "9", "10", "11"], "rt": [1732, 8, 46], "actions": ["left", "left", "up"], "actionTimes": [2995, 3508, 4053], "queries": {"click": {"state": {"target": ["1", "9"], "time": [1820, 2409]}, "edge": {"target": [], "time": []}}, "mouseover": {"state": {"target": ["1", "9"], "time": [1749, 2353]}, "edge": {"target": [], "time": []}}, "mouseout": {"state": {"target": ["0", "1", "9", "0", "8"], "time": [1624, 2194, 5374, 5416, 5458]}, "edge": {"target": [], "time": []}}}, "displayed_time": "10.26", "trialTime": 11260, "trial_type": "mouselab-mdp", "trial_index": 24, "time_elapsed": 413003, "internal_node_id": "0.0-4.0-1.0-15.0"}}, {"uniqueid": "w55174110:a93262585", "current_trial": 25, "dateTime": 1664555982175, "trialdata": {"revealed_states": [], "num_clicks_accrued": [0, 0, 0, 0, 0, 0, 0, 0, 0, 0, 0, 0, 0], "stateRewards": ["", -4, -8, 24, 48, 2, -4, -24, 24, -4, 8, 48, 48], "withholdReward": true, "trial_id": "mdp_496672670022", "block": "test1", "trialIndex": 18, "score": -21.75, "costs": -0.75, "simulationMode": [null, null, null], "rewards": [2, -4, -24], "path": ["0", "0", "5", "6", "7"], "rt": [3604, 322, 212], "actions": ["right", "right", "up"], "actionTimes": [4379, 5205, 5914], "queries": {"click": {"state": {"target": ["9", "1", "5"], "time": [1592, 2457, 3130]}, "edge": {"target": [], "time": []}}, "mouseover": {"state": {"target": ["9", "1", "5"], "time": [1507, 2168, 3083]}, "edge": {"target": [], "time": []}}, "mouseout": {"state": {"target": ["8", "0", "9", "1", "5"], "time": [535, 1140, 2021, 2946, 3425]}, "edge": {"target": [], "time": []}}}, "displayed_time": "8.78", "trialTime": 9287, "trial_type": "mouselab-mdp", "trial_index": 25, "time_elapsed": 422321, "internal_node_id": "0.0-4.0-1.0-16.0"}}, {"uniqueid": "w55174110:a93262585", "current_trial": 26, "dateTime": 1664555992222, "trialdata": {"revealed_states": [], "num_clicks_accrued": [0, 0, 0, 0, 0, 0, 0, 0, 0, 0, 0, 0, 0], "stateRewards": ["", -4, 8, 24, 24, 2, 4, -48, 24, -2, -4, -24, -24], "withholdReward": true, "trial_id": "mdp_752328329546", "block": "test1", "trialIndex": 19, "score": 32.75, "costs": -0.25, "simulationMode": [null, null, null], "rewards": [-4, 8, 24], "path": ["0", "0", "1", "2", "4"], "rt": [1238, 357, 9], "actions": ["up", "up", "left"], "actionTimes": [2474, 3337, 3843], "queries": {"click": {"state": {"target": ["1"], "time": [1689]}, "edge": {"target": [], "time": []}}, "mouseover": {"state": {"target": ["1"], "time": [1646]}, "edge": {"target": [], "time": []}}, "mouseout": {"state": {"target": ["0", "1"], "time": [1598, 7702]}, "edge": {"target": [], "time": []}}}, "displayed_time": "9.24", "trialTime": 10015, "trial_type": "mouselab-mdp", "trial_index": 26, "time_elapsed": 432368, "internal_node_id": "0.0-4.0-1.0-17.0"}}, {"uniqueid": "w55174110:a93262585", "current_trial": 27, "dateTime": 1664556002624, "trialdata": {"revealed_states": [], "num_clicks_accrued": [0, 0, 0, 0, 0, 0, 0, 0, 0, 0, 0, 0, 0], "stateRewards": ["", -4, -8, -24, -48, -2, -8, 24, -48, -4, -8, 24, -48], "withholdReward": true, "trial_id": "mdp_621812384092", "block": "test1", "trialIndex": 20, "score": 19, "costs": 0, "simulationMode": [null, null, null], "rewards": [-2, -8, 24], "path": ["0", "0", "5", "6", "7"], "rt": [365, 342, 40], "actions": ["right", "right", "up"], "actionTimes": [2175, 3016, 3560], "queries": {"click": {"state": {"target": [], "time": []}, "edge": {"target": [], "time": []}}, "mouseover": {"state": {"target": [], "time": []}, "edge": {"target": [], "time": []}}, "mouseout": {"state": {"target": ["0", "0"], "time": [1749, 4930]}, "edge": {"target": [], "time": []}}}, "displayed_time": "9.81", "trialTime": 10367, "trial_type": "mouselab-mdp", "trial_index": 27, "time_elapsed": 442770, "internal_node_id": "0.0-4.0-1.0-18.0"}}, {"uniqueid": "w55174110:a93262585", "current_trial": 28, "dateTime": 1664556012881, "trialdata": {"revealed_states": [], "num_clicks_accrued": [0, 0, 0, 0, 0, 0, 0, 0, 0, 0, 0, 0, 0], "stateRewards": ["", 4, 4, 24, 24, 4, -4, 48, 48, 4, 4, 24, -48], "withholdReward": true, "trial_id": "mdp_454251689008", "block": "test1", "trialIndex": 21, "score": -35.25, "costs": -0.25, "simulationMode": [null, null, null], "rewards": [4, 4, -48], "path": ["0", "0", "9", "10", "12"], "rt": [1512, 57, 13], "actions": ["left", "left", "down"], "actionTimes": [1974, 2539, 3057], "queries": {"click": {"state": {"target": ["9"], "time": [1376]}, "edge": {"target": [], "time": []}}, "mouseover": {"state": {"target": ["9"], "time": [1273]}, "edge": {"target": [], "time": []}}, "mouseout": {"state": {"target": ["0", "9", "0", "5", "6", "8", "5"], "time": [435, 4898, 4961, 4988, 5009, 7593, 8218]}, "edge": {"target": [], "time": []}}}, "displayed_time": "9.46", "trialTime": 10223, "trial_type": "mouselab-mdp", "trial_index": 28, "time_elapsed": 453027, "internal_node_id": "0.0-4.0-1.0-19.0"}}, {"uniqueid": "w55174110:a93262585", "current_trial": 29, "dateTime": 1664556021836, "trialdata": {"revealed_states": [], "num_clicks_accrued": [0, 0, 0, 0, 0, 0, 0, 0, 0, 0, 0, 0, 0], "stateRewards": ["", -2, -4, -48, -48, 4, 8, 24, -48, 4, -8, 24, 24], "withholdReward": true, "trial_id": "mdp_749799219195", "block": "test1", "trialIndex": 22, "score": 24.75, "costs": -0.25, "simulationMode": [null, null, null], "rewards": [4, -8, 24], "path": ["0", "0", "9", "10", "11"], "rt": [1932, 41, 440], "actions": ["left", "left", "up"], "actionTimes": [2399, 2948, 3895], "queries": {"click": {"state": {"target": ["9"], "time": [1871]}, "edge": {"target": [], "time": []}}, "mouseover": {"state": {"target": ["9"], "time": [1837]}, "edge": {"target": [], "time": []}}, "mouseout": {"state": {"target": ["0", "9", "0"], "time": [699, 2045, 8552]}, "edge": {"target": [], "time": []}}}, "displayed_time": "8.47", "trialTime": 8923, "trial_type": "mouselab-mdp", "trial_index": 29, "time_elapsed": 461982, "internal_node_id": "0.0-4.0-1.0-20.0"}}, {"uniqueid": "w55174110:a93262585", "current_trial": 30, "dateTime": 1664556031237, "trialdata": {"revealed_states": [], "num_clicks_accrued": [0, 0, 0, 0, 0, 0, 0, 0, 0, 0, 0, 0, 0], "stateRewards": ["", -4, -8, -48, 48, -2, -8, -48, -24, 4, 8, 24, -48], "withholdReward": false, "trial_id": "mdp_509977295685", "block": "test1", "trialIndex": 23, "score": -31.25, "costs": -0.25, "simulationMode": [null, null, null], "rewards": [4, 8, -48], "path": ["0", "0", "9", "10", "12"], "rt": [1241, 64, 27], "actions": ["left", "left", "down"], "actionTimes": [1706, 2268, 2801], "queries": {"click": {"state": {"target": ["9"], "time": [1083]}, "edge": {"target": [], "time": []}}, "mouseover": {"state": {"target": ["9"], "time": [1037]}, "edge": {"target": [], "time": []}}, "mouseout": {"state": {"target": ["0", "9"], "time": [717, 1300]}, "edge": {"target": [], "time": []}}}, "displayed_time": "8.47", "trialTime": 9371, "trial_type": "mouselab-mdp", "trial_index": 30, "time_elapsed": 471383, "internal_node_id": "0.0-4.0-1.0-21.0"}}, {"uniqueid": "w55174110:a93262585", "current_trial": 31, "dateTime": 1664556040965, "trialdata": {"revealed_states": [], "num_clicks_accrued": [0, 0, 0, 0, 0, 0, 0, 0, 0, 0, 0, 0, 0], "stateRewards": ["", 2, 4, -48, 24, -4, 4, -24, 48, -2, -8, -48, 48], "withholdReward": true, "trial_id": "mdp_424193661731", "block": "test1", "trialIndex": 24, "score": -37.5, "costs": -0.5, "simulationMode": [null, null, null], "rewards": [2, 4, -48], "path": ["0", "0", "1", "2", "3"], "rt": [2786, 17, 392], "actions": ["up", "up", "right"], "actionTimes": [3926, 4451, 5347], "queries": {"click": {"state": {"target": ["9", "1"], "time": [2053, 3312]}, "edge": {"target": [], "time": []}}, "mouseover": {"state": {"target": ["9", "1"], "time": [1975, 3031]}, "edge": {"target": [], "time": []}}, "mouseout": {"state": {"target": ["0", "9"], "time": [1830, 2809]}, "edge": {"target": [], "time": []}}}, "displayed_time": "9.14", "trialTime": 9696, "trial_type": "mouselab-mdp", "trial_index": 31, "time_elapsed": 481110, "internal_node_id": "0.0-4.0-1.0-22.0"}}, {"uniqueid": "w55174110:a93262585", "current_trial": 32, "dateTime": 1664556051186, "trialdata": {"revealed_states": [], "num_clicks_accrued": [0, 0, 0, 0, 0, 0, 0, 0, 0, 0, 0, 0, 0], "stateRewards": ["", 4, 4, 48, -48, -2, -8, -48, -24, 2, 4, -24, -48], "withholdReward": true, "trial_id": "mdp_239929662917", "block": "test1", "trialIndex": 25, "score": -13.25, "costs": -0.25, "simulationMode": [null, null, null], "rewards": [2, 4, -24], "path": ["0", "0", "9", "10", "11"], "rt": [989, 47, 5], "actions": ["left", "left", "up"], "actionTimes": [1692, 2237, 2744], "queries": {"click": {"state": {"target": ["9"], "time": [1077]}, "edge": {"target": [], "time": []}}, "mouseover": {"state": {"target": ["9", "1"], "time": [1051, 1398]}, "edge": {"target": [], "time": []}}, "mouseout": {"state": {"target": ["1", "0", "9"], "time": [496, 947, 1273]}, "edge": {"target": [], "time": []}}}, "displayed_time": "9.71", "trialTime": 10188, "trial_type": "mouselab-mdp", "trial_index": 32, "time_elapsed": 491332, "internal_node_id": "0.0-4.0-1.0-23.0"}}, {"uniqueid": "w55174110:a93262585", "current_trial": 33, "dateTime": 1664556060536, "trialdata": {"revealed_states": [], "num_clicks_accrued": [0, 0, 0, 0, 0, 0, 0, 0, 0, 0, 0, 0, 0], "stateRewards": ["", 2, 8, -48, 48, -4, -8, 24, 24, -2, -8, 24, -24], "withholdReward": true, "trial_id": "mdp_910248289075", "block": "test1", "trialIndex": 26, "score": 18.75, "costs": -0.25, "simulationMode": [null, null, null], "rewards": [-2, -8, 24], "path": ["0", "0", "9", "10", "11"], "rt": [1227, 425, 156], "actions": ["left", "left", "up"], "actionTimes": [1977, 2906, 3568], "queries": {"click": {"state": {"target": ["9"], "time": [1426]}, "edge": {"target": [], "time": []}}, "mouseover": {"state": {"target": ["9", "1"], "time": [1411, 1675]}, "edge": {"target": [], "time": []}}, "mouseout": {"state": {"target": ["1", "0", "9", "1"], "time": [536, 1052, 1620, 1682]}, "edge": {"target": [], "time": []}}}, "displayed_time": "8.75", "trialTime": 9315, "trial_type": "mouselab-mdp", "trial_index": 33, "time_elapsed": 500682, "internal_node_id": "0.0-4.0-1.0-24.0"}}, {"uniqueid": "w55174110:a93262585", "current_trial": 34, "dateTime": 1664556070683, "trialdata": {"revealed_states": [], "num_clicks_accrued": [0, 0, 0, 0, 0, 0, 0, 0, 0, 0, 0, 0, 0], "stateRewards": ["", -4, -4, 24, -48, -2, 8, -24, -48, -4, 4, 24, -48], "withholdReward": false, "trial_id": "mdp_934626330092", "block": "test1", "trialIndex": 27, "score": -43.5, "costs": -0.5, "simulationMode": [null, null, null], "rewards": [-4, 4, -48], "path": ["0", "0", "9", "10", "12"], "rt": [2048, 42, 147], "actions": ["left", "left", "down"], "actionTimes": [3228, 3777, 4431], "queries": {"click": {"state": {"target": ["5", "1"], "time": [1503, 2225]}, "edge": {"target": [], "time": []}}, "mouseover": {"state": {"target": ["5", "1"], "time": [1470, 2192]}, "edge": {"target": [], "time": []}}, "mouseout": {"state": {"target": ["7", "5", "0", "0", "5", "1"], "time": [540, 630, 678, 1422, 2109, 9484]}, "edge": {"target": [], "time": []}}}, "displayed_time": "9.18", "trialTime": 10111, "trial_type": "mouselab-mdp", "trial_index": 34, "time_elapsed": 510829, "internal_node_id": "0.0-4.0-1.0-25.0"}}, {"uniqueid": "w55174110:a93262585", "current_trial": 35, "dateTime": 1664556080831, "trialdata": {"revealed_states": [], "num_clicks_accrued": [0, 0, 0, 0, 0, 0, 0, 0, 0, 0, 0, 0, 0], "stateRewards": ["", 2, 8, 24, 24, 2, -8, -24, -48, 2, 8, -48, 48], "withholdReward": true, "trial_id": "mdp_745175888812", "block": "test1", "trialIndex": 28, "score": -33.25, "costs": -0.25, "simulationMode": [null, null, null], "rewards": [2, 8, -48], "path": ["0", "0", "9", "10", "11"], "rt": [2991, 6, 319], "actions": ["left", "left", "up"], "actionTimes": [3452, 3974, 4794], "queries": {"click": {"state": {"target": ["9"], "time": [2833]}, "edge": {"target": [], "time": []}}, "mouseover": {"state": {"target": ["9"], "time": [2717]}, "edge": {"target": [], "time": []}}, "mouseout": {"state": {"target": ["0"], "time": [1919]}, "edge": {"target": [], "time": []}}}, "displayed_time": "9.46", "trialTime": 10109, "trial_type": "mouselab-mdp", "trial_index": 35, "time_elapsed": 520977, "internal_node_id": "0.0-4.0-1.0-26.0"}}, {"uniqueid": "w55174110:a93262585", "current_trial": 36, "dateTime": 1664556090980, "trialdata": {"revealed_states": [], "num_clicks_accrued": [0, 0, 0, 0, 0, 0, 0, 0, 0, 0, 0, 0, 0], "stateRewards": ["", 2, 4, 48, -24, 2, -8, -24, -24, 2, -8, -24, -48], "withholdReward": true, "trial_id": "mdp_274832552938", "block": "test1", "trialIndex": 29, "score": -25.25, "costs": -0.25, "simulationMode": [null, null, null], "rewards": [2, -8, -24], "path": ["0", "0", "9", "10", "11"], "rt": [981, 77, 27], "actions": ["left", "left", "up"], "actionTimes": [1679, 2254, 2781], "queries": {"click": {"state": {"target": ["9"], "time": [1178]}, "edge": {"target": [], "time": []}}, "mouseover": {"state": {"target": ["9"], "time": [1135]}, "edge": {"target": [], "time": []}}, "mouseout": {"state": {"target": ["9", "0"], "time": [510, 1093]}, "edge": {"target": [], "time": []}}}, "displayed_time": "9.70", "trialTime": 10114, "trial_type": "mouselab-mdp", "trial_index": 36, "time_elapsed": 531126, "internal_node_id": "0.0-4.0-1.0-27.0"}}, {"uniqueid": "w55174110:a93262585", "current_trial": 37, "dateTime": 1664556100191, "trialdata": {"revealed_states": [], "num_clicks_accrued": [0, 0, 0, 0, 0, 0, 0, 0, 0, 0, 0, 0, 0], "stateRewards": ["", -2, -4, 48, 48, 2, 4, -48, 24, 4, -8, 24, -24], "withholdReward": true, "trial_id": "mdp_628613319495", "block": "test1", "trialIndex": 30, "score": 34.5, "costs": -0.5, "simulationMode": [null, null, null], "rewards": [2, 4, 24], "path": ["0", "0", "5", "6", "8"], "rt": [2024, 524, 168], "actions": ["right", "right", "down"], "actionTimes": [2748, 3771, 4435], "queries": {"click": {"state": {"target": ["1", "5"], "time": [1169, 2270]}, "edge": {"target": [], "time": []}}, "mouseover": {"state": {"target": ["1", "5"], "time": [1114, 2059]}, "edge": {"target": [], "time": []}}, "mouseout": {"state": {"target": ["9", "0", "1", "5"], "time": [559, 992, 1989, 2447]}, "edge": {"target": [], "time": []}}}, "displayed_time": "8.73", "trialTime": 9179, "trial_type": "mouselab-mdp", "trial_index": 37, "time_elapsed": 540337, "internal_node_id": "0.0-4.0-1.0-28.0"}}, {"uniqueid": "w55174110:a93262585", "current_trial": 38, "dateTime": 1664556109990, "trialdata": {"revealed_states": [], "num_clicks_accrued": [0, 0, 0, 0, 0, 0, 0, 0, 0, 0, 0, 0, 0], "stateRewards": ["", -4, -4, -24, 24, -4, 4, -24, 48, -2, 4, 48, -48], "withholdReward": false, "trial_id": "mdp_774757609669", "block": "test1", "trialIndex": 31, "score": -19.5, "costs": -0.5, "simulationMode": [null, null, null], "rewards": [-4, 4, -24], "path": ["0", "0", "5", "6", "7"], "rt": [2165, 42, 23], "actions": ["right", "right", "up"], "actionTimes": [3091, 3631, 4160], "queries": {"click": {"state": {"target": ["9", "1"], "time": [1818, 2364]}, "edge": {"target": [], "time": []}}, "mouseover": {"state": {"target": ["9", "1"], "time": [1761, 2303]}, "edge": {"target": [], "time": []}}, "mouseout": {"state": {"target": ["0", "9"], "time": [1720, 2268]}, "edge": {"target": [], "time": []}}}, "displayed_time": "8.93", "trialTime": 9763, "trial_type": "mouselab-mdp", "trial_index": 38, "time_elapsed": 550136, "internal_node_id": "0.0-4.0-1.0-29.0"}}, {"uniqueid": "w55174110:a93262585", "current_trial": 39, "dateTime": 1664556116835, "trialdata": {"rt": 6842, "stimulus": "<h1> End of block! </h1>\n\nYou have reached the end of the block 1/4. If you need a short break, feel free to take one now before moving on.\n\n<br><br>\nIn the next block, you will complete another 30 rounds of this game.\n\n<br><br>\n<div style='text-align: center;'>Press <code>space</code> to begin.</div>\n<br><br>\n<div style='text-align: center;'>(If the experiment doesn't continue, try clicking on the text and then pressing <code>space</code>.)</div>", "response": " ", "trial_id": "mdp_ready_2", "trial_type": "html-keyboard-response", "trial_index": 39, "time_elapsed": 556981, "internal_node_id": "0.0-4.0-2.0"}}, {"uniqueid": "w55174110:a93262585", "current_trial": 40, "dateTime": 1664556128220, "trialdata": {"revealed_states": [], "num_clicks_accrued": [0, 0, 0, 0, 0, 0, 0, 0, 0, 0, 0, 0, 0], "stateRewards": ["", -4, -4, -48, 48, -4, -8, -24, -48, -2, 8, 48, 24], "withholdReward": true, "trial_id": "mdp_365393526663", "block": "test2", "trialIndex": 32, "score": 34.25, "costs": -0.75, "simulationMode": [null, null, null], "rewards": [-2, 8, 24], "path": ["0", "0", "9", "10", "12"], "rt": [4227, 817, 336], "actions": ["left", "left", "down"], "actionTimes": [5455, 6768, 7608], "queries": {"click": {"state": {"target": ["5", "1", "9"], "time": [2056, 2723, 4426]}, "edge": {"target": [], "time": []}}, "mouseover": {"state": {"target": ["5", "1", "9", "0"], "time": [1722, 2604, 4250, 4875]}, "edge": {"target": [], "time": []}}, "mouseout": {"state": {"target": ["3", "0", "5", "1", "9", "0"], "time": [764, 1673, 2507, 4139, 4862, 4889]}, "edge": {"target": [], "time": []}}}, "displayed_time": "9.23", "trialTime": 11349, "trial_type": "mouselab-mdp", "trial_index": 40, "time_elapsed": 568365, "internal_node_id": "0.0-4.0-3.0-0.0"}}, {"uniqueid": "w55174110:a93262585", "current_trial": 41, "dateTime": 1664556137156, "trialdata": {"revealed_states": [], "num_clicks_accrued": [0, 0, 0, 0, 0, 0, 0, 0, 0, 0, 0, 0, 0], "stateRewards": ["", 4, 4, -24, -48, 2, 4, 24, -48, 2, 4, 24, 24], "withholdReward": true, "trial_id": "mdp_223558518218", "block": "test2", "trialIndex": 33, "score": -11.5, "costs": -0.5, "simulationMode": [null, null, null], "rewards": [4, 4, -24], "path": ["0", "0", "1", "2", "3"], "rt": [2554, 234, 560], "actions": ["up", "up", "right"], "actionTimes": [3061, 3800, 4855], "queries": {"click": {"state": {"target": ["9", "1"], "time": [1459, 2364]}, "edge": {"target": [], "time": []}}, "mouseover": {"state": {"target": ["9", "1"], "time": [1110, 2120]}, "edge": {"target": [], "time": []}}, "mouseout": {"state": {"target": ["0", "9", "1"], "time": [1038, 1831, 8885]}, "edge": {"target": [], "time": []}}}, "displayed_time": "8.51", "trialTime": 8900, "trial_type": "mouselab-mdp", "trial_index": 41, "time_elapsed": 577302, "internal_node_id": "0.0-4.0-3.0-1.0"}}, {"uniqueid": "w55174110:a93262585", "current_trial": 42, "dateTime": 1664556146659, "trialdata": {"revealed_states": [], "num_clicks_accrued": [0, 0, 0, 0, 0, 0, 0, 0, 0, 0, 0, 0, 0], "stateRewards": ["", -2, -8, 48, -24, 2, -4, -48, -24, -2, -4, -48, 48], "withholdReward": true, "trial_id": "mdp_143798438087", "block": "test2", "trialIndex": 34, "score": -21.75, "costs": -0.75, "simulationMode": [null, null, null], "rewards": [2, -4, -24], "path": ["0", "0", "5", "6", "8"], "rt": [3109, 150, 102], "actions": ["right", "right", "down"], "actionTimes": [4057, 4703, 5308], "queries": {"click": {"state": {"target": ["9", "1", "5"], "time": [1540, 2650, 3486]}, "edge": {"target": [], "time": []}}, "mouseover": {"state": {"target": ["9", "1", "5", "5", "7"], "time": [1441, 2289, 3129, 3448, 3726]}, "edge": {"target": [], "time": []}}, "mouseout": {"state": {"target": ["0", "9", "1", "5", "5"], "time": [1373, 1733, 3031, 3267, 3614]}, "edge": {"target": [], "time": []}}}, "displayed_time": "8.95", "trialTime": 9466, "trial_type": "mouselab-mdp", "trial_index": 42, "time_elapsed": 586805, "internal_node_id": "0.0-4.0-3.0-2.0"}}, {"uniqueid": "w55174110:a93262585", "current_trial": 43, "dateTime": 1664556157478, "trialdata": {"revealed_states": [], "num_clicks_accrued": [0, 0, 0, 0, 0, 0, 0, 0, 0, 0, 0, 0, 0], "stateRewards": ["", -2, -4, 48, -24, -4, -4, -24, -24, -2, 4, -48, -24], "withholdReward": true, "trial_id": "mdp_410467837196", "block": "test2", "trialIndex": 35, "score": -41.75, "costs": -0.75, "simulationMode": [null, null, null], "rewards": [-2, 4, -48], "path": ["0", "0", "9", "10", "11"], "rt": [2808, 292, 340], "actions": ["left", "left", "up"], "actionTimes": [4142, 4933, 5773], "queries": {"click": {"state": {"target": ["1", "9", "5"], "time": [1950, 2425, 3294]}, "edge": {"target": [], "time": []}}, "mouseover": {"state": {"target": ["1", "9", "0", "5", "5", "7"], "time": [1912, 2362, 2738, 3036, 3237, 3453]}, "edge": {"target": [], "time": []}}, "mouseout": {"state": {"target": ["7", "1", "0", "1", "9", "0", "5", "5", "7"], "time": [592, 668, 1828, 2286, 2710, 2793, 3064, 3411, 3467]}, "edge": {"target": [], "time": []}}}, "displayed_time": "10.33", "trialTime": 10782, "trial_type": "mouselab-mdp", "trial_index": 43, "time_elapsed": 597624, "internal_node_id": "0.0-4.0-3.0-3.0"}}, {"uniqueid": "w55174110:a93262585", "current_trial": 44, "dateTime": 1664556166823, "trialdata": {"revealed_states": [], "num_clicks_accrued": [0, 0, 0, 0, 0, 0, 0, 0, 0, 0, 0, 0, 0], "stateRewards": ["", -2, 8, -48, 48, -4, -8, 24, 24, -2, -4, 48, -48], "withholdReward": true, "trial_id": "mdp_867247318592", "block": "test2", "trialIndex": 36, "score": 46.25, "costs": -0.75, "simulationMode": [null, null, null], "rewards": [-2, -4, 48], "path": ["0", "0", "9", "10", "11"], "rt": [2439, 851, 130], "actions": ["left", "left", "up"], "actionTimes": [3404, 4755, 5381], "queries": {"click": {"state": {"target": ["9", "1", "5"], "time": [1616, 2261, 2757]}, "edge": {"target": [], "time": []}}, "mouseover": {"state": {"target": ["9", "1", "5"], "time": [1565, 2188, 2744]}, "edge": {"target": [], "time": []}}, "mouseout": {"state": {"target": ["0", "9", "1", "5"], "time": [1487, 1813, 2668, 2883]}, "edge": {"target": [], "time": []}}}, "displayed_time": "8.97", "trialTime": 9314, "trial_type": "mouselab-mdp", "trial_index": 44, "time_elapsed": 606968, "internal_node_id": "0.0-4.0-3.0-4.0"}}, {"uniqueid": "w55174110:a93262585", "current_trial": 45, "dateTime": 1664556177370, "trialdata": {"revealed_states": [], "num_clicks_accrued": [0, 0, 0, 0, 0, 0, 0, 0, 0, 0, 0, 0, 0], "stateRewards": ["", -2, 4, 24, 48, 2, 4, -48, -48, -2, 8, 48, -24], "withholdReward": true, "trial_id": "mdp_305701202606", "block": "test2", "trialIndex": 37, "score": -37.75, "costs": -0.75, "simulationMode": [null, null, null], "rewards": [2, 4, -48], "path": ["0", "0", "5", "6", "8"], "rt": [1583, 95, 77], "actions": ["right", "right", "down"], "actionTimes": [2609, 3203, 3783], "queries": {"click": {"state": {"target": ["9", "1", "5"], "time": [1471, 1712, 2115]}, "edge": {"target": [], "time": []}}, "mouseover": {"state": {"target": ["9", "1", "5"], "time": [1420, 1684, 2038]}, "edge": {"target": [], "time": []}}, "mouseout": {"state": {"target": ["0", "9", "1", "5"], "time": [1351, 1594, 1865, 2253]}, "edge": {"target": [], "time": []}}}, "displayed_time": "10.03", "trialTime": 10510, "trial_type": "mouselab-mdp", "trial_index": 45, "time_elapsed": 617516, "internal_node_id": "0.0-4.0-3.0-5.0"}}, {"uniqueid": "w55174110:a93262585", "current_trial": 46, "dateTime": 1664556187738, "trialdata": {"revealed_states": [], "num_clicks_accrued": [0, 0, 0, 0, 0, 0, 0, 0, 0, 0, 0, 0, 0], "stateRewards": ["", -2, 4, -24, 48, 4, -8, 48, -48, 2, -8, 48, 24], "withholdReward": false, "trial_id": "mdp_501111216502", "block": "test2", "trialIndex": 38, "score": 46.5, "costs": -0.5, "simulationMode": [null, null, null], "rewards": [2, -8, 48], "path": ["0", "0", "9", "10", "11"], "rt": [3258, 336, 85], "actions": ["left", "left", "up"], "actionTimes": [3967, 4801, 5390], "queries": {"click": {"state": {"target": ["9", "1"], "time": [1210, 2515]}, "edge": {"target": [], "time": []}}, "mouseover": {"state": {"target": ["9", "1", "1"], "time": [1103, 1507, 2444]}, "edge": {"target": [], "time": []}}, "mouseout": {"state": {"target": ["0", "9", "1", "1", "7"], "time": [1048, 1457, 1529, 2707, 8020]}, "edge": {"target": [], "time": []}}}, "displayed_time": "8.71", "trialTime": 10332, "trial_type": "mouselab-mdp", "trial_index": 46, "time_elapsed": 627884, "internal_node_id": "0.0-4.0-3.0-6.0"}}, {"uniqueid": "w55174110:a93262585", "current_trial": 47, "dateTime": 1664556199404, "trialdata": {"revealed_states": [], "num_clicks_accrued": [0, 0, 0, 0, 0, 0, 0, 0, 0, 0, 0, 0, 0], "stateRewards": ["", 2, 4, -48, -48, 2, 4, 48, -24, -2, 8, 48, -48], "withholdReward": false, "trial_id": "mdp_258528916140", "block": "test2", "trialIndex": 39, "score": 58.5, "costs": -0.5, "simulationMode": [null, null, null], "rewards": [2, 4, 48], "path": ["0", "0", "5", "6", "7"], "rt": [2724, 618, 228], "actions": ["right", "right", "up"], "actionTimes": [3349, 4471, 5198], "queries": {"click": {"state": {"target": ["9", "5"], "time": [1339, 2300]}, "edge": {"target": [], "time": []}}, "mouseover": {"state": {"target": ["0", "9", "5"], "time": [1067, 1275, 2178]}, "edge": {"target": [], "time": []}}, "mouseout": {"state": {"target": ["0", "0", "9", "5"], "time": [851, 1192, 1505, 10956]}, "edge": {"target": [], "time": []}}}, "displayed_time": "10.63", "trialTime": 11635, "trial_type": "mouselab-mdp", "trial_index": 47, "time_elapsed": 639550, "internal_node_id": "0.0-4.0-3.0-7.0"}}, {"uniqueid": "w55174110:a93262585", "current_trial": 48, "dateTime": 1664556209513, "trialdata": {"revealed_states": [], "num_clicks_accrued": [0, 0, 0, 0, 0, 0, 0, 0, 0, 0, 0, 0, 0], "stateRewards": ["", -2, 8, 48, 24, 2, -4, 48, -48, 2, 8, 24, -24], "withholdReward": true, "trial_id": "mdp_176207245985", "block": "test2", "trialIndex": 40, "score": -45.5, "costs": -0.5, "simulationMode": [null, null, null], "rewards": [2, -4, -48], "path": ["0", "0", "5", "6", "8"], "rt": [2316, 122, 211], "actions": ["right", "right", "down"], "actionTimes": [2785, 3412, 4120], "queries": {"click": {"state": {"target": ["1", "5"], "time": [1549, 2272]}, "edge": {"target": [], "time": []}}, "mouseover": {"state": {"target": ["1", "5"], "time": [1519, 2250]}, "edge": {"target": [], "time": []}}, "mouseout": {"state": {"target": ["0", "1", "5"], "time": [672, 2013, 10013]}, "edge": {"target": [], "time": []}}}, "displayed_time": "9.47", "trialTime": 10071, "trial_type": "mouselab-mdp", "trial_index": 48, "time_elapsed": 649659, "internal_node_id": "0.0-4.0-3.0-8.0"}}, {"uniqueid": "w55174110:a93262585", "current_trial": 49, "dateTime": 1664556218624, "trialdata": {"revealed_states": [], "num_clicks_accrued": [0, 0, 0, 0, 0, 0, 0, 0, 0, 0, 0, 0, 0], "stateRewards": ["", 2, -4, 48, 24, 2, 8, 24, 24, -2, 4, 24, 24], "withholdReward": true, "trial_id": "mdp_813974524300", "block": "test2", "trialIndex": 41, "score": 26.5, "costs": -0.5, "simulationMode": [null, null, null], "rewards": [2, -4, 24], "path": ["0", "0", "1", "2", "4"], "rt": [2178, 386, 38], "actions": ["up", "up", "left"], "actionTimes": [2751, 3638, 4172], "queries": {"click": {"state": {"target": ["9", "1"], "time": [1335, 1910]}, "edge": {"target": [], "time": []}}, "mouseover": {"state": {"target": ["9", "1"], "time": [1321, 1877]}, "edge": {"target": [], "time": []}}, "mouseout": {"state": {"target": ["0", "9"], "time": [1251, 1585]}, "edge": {"target": [], "time": []}}}, "displayed_time": "8.57", "trialTime": 9074, "trial_type": "mouselab-mdp", "trial_index": 49, "time_elapsed": 658770, "internal_node_id": "0.0-4.0-3.0-9.0"}}, {"uniqueid": "w55174110:a93262585", "current_trial": 50, "dateTime": 1664556230868, "trialdata": {"revealed_states": [], "num_clicks_accrued": [0, 0, 0, 0, 0, 0, 0, 0, 0, 0, 0, 0, 0], "stateRewards": ["", -2, -4, -24, 48, -4, 8, 48, 48, 2, 8, -48, -24], "withholdReward": false, "trial_id": "mdp_136376573354", "block": "test2", "trialIndex": 42, "score": -33.5, "costs": -0.5, "simulationMode": [null, null, null], "rewards": [2, 8, -48], "path": ["0", "0", "9", "10", "11"], "rt": [1770, 17, 64], "actions": ["left", "left", "up"], "actionTimes": [2974, 3492, 4067], "queries": {"click": {"state": {"target": ["1", "9"], "time": [1768, 2260]}, "edge": {"target": [], "time": []}}, "mouseover": {"state": {"target": ["1", "9"], "time": [1689, 2210]}, "edge": {"target": [], "time": []}}, "mouseout": {"state": {"target": ["1", "1", "9", "0"], "time": [647, 2155, 2530, 11120]}, "edge": {"target": [], "time": []}}}, "displayed_time": "10.20", "trialTime": 12207, "trial_type": "mouselab-mdp", "trial_index": 50, "time_elapsed": 671014, "internal_node_id": "0.0-4.0-3.0-10.0"}}, {"uniqueid": "w55174110:a93262585", "current_trial": 51, "dateTime": 1664556240974, "trialdata": {"revealed_states": [], "num_clicks_accrued": [0, 0, 0, 0, 0, 0, 0, 0, 0, 0, 0, 0, 0], "stateRewards": ["", 2, -4, 48, -48, 2, 4, -24, 24, -4, -8, 24, -48], "withholdReward": true, "trial_id": "mdp_238810765895", "block": "test2", "trialIndex": 43, "score": 34.25, "costs": -0.75, "simulationMode": [null, null, null], "rewards": [2, 4, 24], "path": ["0", "0", "5", "6", "8"], "rt": [2646, 308, 1], "actions": ["right", "right", "down"], "actionTimes": [3187, 3998, 4496], "queries": {"click": {"state": {"target": ["9", "1", "5"], "time": [995, 1490, 2009]}, "edge": {"target": [], "time": []}}, "mouseover": {"state": {"target": ["9", "1", "5"], "time": [945, 1397, 1939]}, "edge": {"target": [], "time": []}}, "mouseout": {"state": {"target": ["0", "9", "1", "5"], "time": [904, 1230, 1758, 2182]}, "edge": {"target": [], "time": []}}}, "displayed_time": "9.54", "trialTime": 10069, "trial_type": "mouselab-mdp", "trial_index": 51, "time_elapsed": 681120, "internal_node_id": "0.0-4.0-3.0-11.0"}}, {"uniqueid": "w55174110:a93262585", "current_trial": 52, "dateTime": 1664556250914, "trialdata": {"revealed_states": [], "num_clicks_accrued": [0, 0, 0, 0, 0, 0, 0, 0, 0, 0, 0, 0, 0], "stateRewards": ["", 2, 4, -48, 48, -4, 8, -48, -24, -4, -4, 48, 48], "withholdReward": true, "trial_id": "mdp_613582696541", "block": "test2", "trialIndex": 44, "score": 44.5, "costs": -0.5, "simulationMode": [null, null, null], "rewards": [-4, -4, 48], "path": ["0", "0", "9", "10", "12"], "rt": [1660, 44, 146], "actions": ["left", "left", "down"], "actionTimes": [2158, 2703, 3353], "queries": {"click": {"state": {"target": ["9", "1"], "time": [908, 1304]}, "edge": {"target": [], "time": []}}, "mouseover": {"state": {"target": ["9", "1"], "time": [866, 1255]}, "edge": {"target": [], "time": []}}, "mouseout": {"state": {"target": ["0", "0", "9"], "time": [241, 814, 1179]}, "edge": {"target": [], "time": []}}}, "displayed_time": "9.50", "trialTime": 9909, "trial_type": "mouselab-mdp", "trial_index": 52, "time_elapsed": 691060, "internal_node_id": "0.0-4.0-3.0-12.0"}}, {"uniqueid": "w55174110:a93262585", "current_trial": 53, "dateTime": 1664556260061, "trialdata": {"revealed_states": [], "num_clicks_accrued": [0, 0, 0, 0, 0, 0, 0, 0, 0, 0, 0, 0, 0], "stateRewards": ["", -4, -8, -24, 24, 2, 8, 24, 48, 2, 4, 24, -48], "withholdReward": true, "trial_id": "mdp_122352383932", "block": "test2", "trialIndex": 45, "score": 62.5, "costs": -0.5, "simulationMode": [null, null, null], "rewards": [2, 8, 48], "path": ["0", "0", "5", "6", "8"], "rt": [1493, 263, 100], "actions": ["right", "right", "down"], "actionTimes": [2252, 3021, 3623], "queries": {"click": {"state": {"target": ["1", "5"], "time": [1133, 1721]}, "edge": {"target": [], "time": []}}, "mouseover": {"state": {"target": ["0", "1", "5"], "time": [793, 1119, 1515]}, "edge": {"target": [], "time": []}}, "mouseout": {"state": {"target": ["1", "1", "0", "1", "5", "7"], "time": [579, 674, 1064, 1418, 1918, 4286]}, "edge": {"target": [], "time": []}}}, "displayed_time": "8.76", "trialTime": 9114, "trial_type": "mouselab-mdp", "trial_index": 53, "time_elapsed": 700207, "internal_node_id": "0.0-4.0-3.0-13.0"}}, {"uniqueid": "w55174110:a93262585", "current_trial": 54, "dateTime": 1664556271226, "trialdata": {"revealed_states": [], "num_clicks_accrued": [0, 0, 0, 0, 0, 0, 0, 0, 0, 0, 0, 0, 0], "stateRewards": ["", -4, -4, -24, 48, 2, 4, -24, -48, -2, 4, 24, 24], "withholdReward": true, "trial_id": "mdp_360934723192", "block": "test2", "trialIndex": 46, "score": -13.75, "costs": -0.75, "simulationMode": [null, null, null], "rewards": [2, 4, -24], "path": ["0", "0", "5", "6", "7"], "rt": [2331, 377, 124], "actions": ["right", "right", "up"], "actionTimes": [4092, 4977, 5606], "queries": {"click": {"state": {"target": ["9", "1", "5"], "time": [2176, 2683, 3449]}, "edge": {"target": [], "time": []}}, "mouseover": {"state": {"target": ["9", "1", "5", "7"], "time": [2092, 2655, 3419, 3599]}, "edge": {"target": [], "time": []}}, "mouseout": {"state": {"target": ["8", "5", "0", "0", "9", "1", "5", "7", "7", "6"], "time": [870, 904, 1544, 2002, 2606, 3141, 3564, 3641, 10002, 10057]}, "edge": {"target": [], "time": []}}}, "displayed_time": "9.76", "trialTime": 11127, "trial_type": "mouselab-mdp", "trial_index": 54, "time_elapsed": 711372, "internal_node_id": "0.0-4.0-3.0-14.0"}}, {"uniqueid": "w55174110:a93262585", "current_trial": 55, "dateTime": 1664556282921, "trialdata": {"revealed_states": [], "num_clicks_accrued": [0, 0, 0, 0, 0, 0, 0, 0, 0, 0, 0, 0, 0], "stateRewards": ["", -2, 4, -24, -24, -2, 4, 48, 24, -4, -8, 24, -48], "withholdReward": false, "trial_id": "mdp_191839460481", "block": "test2", "trialIndex": 47, "score": 31, "costs": 0, "simulationMode": [null, null, null], "rewards": [-2, 4, 24], "path": ["0", "0", "5", "6", "8"], "rt": [686, 389, 78], "actions": ["right", "right", "down"], "actionTimes": [2424, 3315, 3900], "queries": {"click": {"state": {"target": [], "time": []}, "edge": {"target": [], "time": []}}, "mouseover": {"state": {"target": ["5"], "time": [2156]}, "edge": {"target": [], "time": []}}, "mouseout": {"state": {"target": ["0", "5", "0"], "time": [2114, 11523, 11558]}, "edge": {"target": [], "time": []}}}, "displayed_time": "10.74", "trialTime": 11662, "trial_type": "mouselab-mdp", "trial_index": 55, "time_elapsed": 723067, "internal_node_id": "0.0-4.0-3.0-15.0"}}, {"uniqueid": "w55174110:a93262585", "current_trial": 56, "dateTime": 1664556292959, "trialdata": {"revealed_states": [], "num_clicks_accrued": [0, 0, 0, 0, 0, 0, 0, 0, 0, 0, 0, 0, 0], "stateRewards": ["", -4, -8, 24, -48, 2, 4, -48, -48, 2, -8, 24, 48], "withholdReward": true, "trial_id": "mdp_111262146724", "block": "test2", "trialIndex": 48, "score": 46.75, "costs": -0.25, "simulationMode": [null, null, null], "rewards": [2, -8, 48], "path": ["0", "0", "9", "10", "12"], "rt": [999, 116, 85], "actions": ["left", "left", "down"], "actionTimes": [1459, 2078, 2666], "queries": {"click": {"state": {"target": ["9"], "time": [939]}, "edge": {"target": [], "time": []}}, "mouseover": {"state": {"target": ["9"], "time": [899]}, "edge": {"target": [], "time": []}}, "mouseout": {"state": {"target": ["0", "9"], "time": [761, 1163]}, "edge": {"target": [], "time": []}}}, "displayed_time": "9.46", "trialTime": 10000, "trial_type": "mouselab-mdp", "trial_index": 56, "time_elapsed": 733105, "internal_node_id": "0.0-4.0-3.0-16.0"}}, {"uniqueid": "w55174110:a93262585", "current_trial": 57, "dateTime": 1664556303014, "trialdata": {"revealed_states": [], "num_clicks_accrued": [0, 0, 0, 0, 0, 0, 0, 0, 0, 0, 0, 0, 0], "stateRewards": ["", 2, -4, -24, -48, -2, 8, -24, 48, -2, 8, 24, -48], "withholdReward": true, "trial_id": "mdp_566582551557", "block": "test2", "trialIndex": 49, "score": -45.75, "costs": -0.75, "simulationMode": [null, null, null], "rewards": [2, -4, -48], "path": ["0", "0", "1", "2", "4"], "rt": [1767, 660, 11], "actions": ["up", "up", "left"], "actionTimes": [2413, 3573, 4085], "queries": {"click": {"state": {"target": ["5", "1", "9"], "time": [1211, 1566, 1847]}, "edge": {"target": [], "time": []}}, "mouseover": {"state": {"target": ["5", "1", "9"], "time": [1136, 1524, 1795]}, "edge": {"target": [], "time": []}}, "mouseout": {"state": {"target": ["0", "5", "1"], "time": [1101, 1434, 1746]}, "edge": {"target": [], "time": []}}}, "displayed_time": "9.65", "trialTime": 10013, "trial_type": "mouselab-mdp", "trial_index": 57, "time_elapsed": 743160, "internal_node_id": "0.0-4.0-3.0-17.0"}}, {"uniqueid": "w55174110:a93262585", "current_trial": 58, "dateTime": 1664556312077, "trialdata": {"revealed_states": [], "num_clicks_accrued": [0, 0, 0, 0, 0, 0, 0, 0, 0, 0, 0, 0, 0], "stateRewards": ["", 2, -4, 24, -24, 2, -8, 48, 48, 4, -4, 24, 48], "withholdReward": true, "trial_id": "mdp_947836623875", "block": "test2", "trialIndex": 50, "score": 52.5, "costs": -0.5, "simulationMode": [null, null, null], "rewards": [4, -4, 48], "path": ["0", "0", "9", "10", "12"], "rt": [1052, 11, 368], "actions": ["left", "left", "down"], "actionTimes": [1674, 2184, 3055], "queries": {"click": {"state": {"target": ["9", "1"], "time": [1027, 1209]}, "edge": {"target": [], "time": []}}, "mouseover": {"state": {"target": ["9", "1"], "time": [1025, 1192]}, "edge": {"target": [], "time": []}}, "mouseout": {"state": {"target": ["9", "0", "9"], "time": [435, 943, 1130]}, "edge": {"target": [], "time": []}}}, "displayed_time": "8.62", "trialTime": 9021, "trial_type": "mouselab-mdp", "trial_index": 58, "time_elapsed": 752222, "internal_node_id": "0.0-4.0-3.0-18.0"}}, {"uniqueid": "w55174110:a93262585", "current_trial": 59, "dateTime": 1664556322414, "trialdata": {"revealed_states": [], "num_clicks_accrued": [0, 0, 0, 0, 0, 0, 0, 0, 0, 0, 0, 0, 0], "stateRewards": ["", -2, -8, -24, -48, -2, -4, 48, -48, 4, 4, -48, 48], "withholdReward": true, "trial_id": "mdp_156977432949", "block": "test2", "trialIndex": 51, "score": -35.5, "costs": -0.5, "simulationMode": [null, null, null], "rewards": [4, 4, -48], "path": ["0", "0", "9", "10", "11"], "rt": [1626, 24, 34], "actions": ["left", "left", "up"], "actionTimes": [2318, 2850, 3395], "queries": {"click": {"state": {"target": ["9", "10"], "time": [1488, 1795]}, "edge": {"target": [], "time": []}}, "mouseover": {"state": {"target": ["9", "10", "11"], "time": [1377, 1736, 1972]}, "edge": {"target": [], "time": []}}, "mouseout": {"state": {"target": ["1", "0", "9", "10"], "time": [597, 1076, 1667, 1930]}, "edge": {"target": [], "time": []}}}, "displayed_time": "9.69", "trialTime": 10298, "trial_type": "mouselab-mdp", "trial_index": 59, "time_elapsed": 762560, "internal_node_id": "0.0-4.0-3.0-19.0"}}, {"uniqueid": "w55174110:a93262585", "current_trial": 60, "dateTime": 1664556331836, "trialdata": {"revealed_states": [], "num_clicks_accrued": [0, 0, 0, 0, 0, 0, 0, 0, 0, 0, 0, 0, 0], "stateRewards": ["", 2, -8, 24, 24, 4, -4, -24, -48, 4, 8, 24, 24], "withholdReward": false, "trial_id": "mdp_249803813713", "block": "test2", "trialIndex": 52, "score": 40.75, "costs": -0.25, "simulationMode": [null, null, null], "rewards": [4, 8, 24], "path": ["0", "0", "9", "10", "11"], "rt": [1084, 2588, 296], "actions": ["left", "left", "up"], "actionTimes": [1991, 5075, 5867], "queries": {"click": {"state": {"target": ["9"], "time": [1304]}, "edge": {"target": [], "time": []}}, "mouseover": {"state": {"target": ["9"], "time": [1279]}, "edge": {"target": [], "time": []}}, "mouseout": {"state": {"target": ["11", "9", "0", "9", "10", "11"], "time": [571, 730, 1179, 2682, 4154, 7918]}, "edge": {"target": [], "time": []}}}, "displayed_time": "8.91", "trialTime": 9381, "trial_type": "mouselab-mdp", "trial_index": 60, "time_elapsed": 771982, "internal_node_id": "0.0-4.0-3.0-20.0"}}, {"uniqueid": "w55174110:a93262585", "current_trial": 61, "dateTime": 1664556341425, "trialdata": {"revealed_states": [], "num_clicks_accrued": [0, 0, 0, 0, 0, 0, 0, 0, 0, 0, 0, 0, 0], "stateRewards": ["", 2, -4, -24, 24, 2, 8, 48, 48, 2, -8, 48, -24], "withholdReward": true, "trial_id": "mdp_330392242530", "block": "test2", "trialIndex": 53, "score": 61.5, "costs": -1.5, "simulationMode": [null, null, null], "rewards": [2, 8, 48], "path": ["0", "0", "5", "6", "8"], "rt": [5619, 270, 132], "actions": ["right", "right", "down"], "actionTimes": [6686, 7457, 8090], "queries": {"click": {"state": {"target": ["9", "10", "1", "2", "5", "6"], "time": [1577, 2067, 3774, 4700, 5521, 5882]}, "edge": {"target": [], "time": []}}, "mouseover": {"state": {"target": ["9", "10", "11", "1", "2", "5", "6"], "time": [1506, 2006, 2346, 3639, 4625, 5402, 5846]}, "edge": {"target": [], "time": []}}, "mouseout": {"state": {"target": ["0", "9", "10", "11", "1", "2", "5", "6"], "time": [1423, 1936, 2284, 3270, 4270, 5131, 5784, 6061]}, "edge": {"target": [], "time": []}}}, "displayed_time": "9.07", "trialTime": 9551, "trial_type": "mouselab-mdp", "trial_index": 61, "time_elapsed": 781571, "internal_node_id": "0.0-4.0-3.0-21.0"}}, {"uniqueid": "w55174110:a93262585", "current_trial": 62, "dateTime": 1664556352338, "trialdata": {"revealed_states": [], "num_clicks_accrued": [0, 0, 0, 0, 0, 0, 0, 0, 0, 0, 0, 0, 0], "stateRewards": ["", 4, 8, -48, -48, 2, 4, -24, -48, 2, 8, 48, -48], "withholdReward": true, "trial_id": "mdp_902172716465", "block": "test2", "trialIndex": 54, "score": -37.5, "costs": -0.5, "simulationMode": [null, null, null], "rewards": [2, 4, -48], "path": ["0", "0", "5", "6", "8"], "rt": [2673, 138, 151], "actions": ["right", "right", "down"], "actionTimes": [4142, 4777, 5435], "queries": {"click": {"state": {"target": ["5", "6"], "time": [2069, 2997]}, "edge": {"target": [], "time": []}}, "mouseover": {"state": {"target": ["0", "5", "6", "6", "0"], "time": [1473, 1979, 2507, 2958, 3506]}, "edge": {"target": [], "time": []}}, "mouseout": {"state": {"target": ["7", "0", "5", "6", "6", "5", "0"], "time": [1103, 1729, 2353, 2569, 3360, 3457, 3722]}, "edge": {"target": [], "time": []}}}, "displayed_time": "10.47", "trialTime": 10874, "trial_type": "mouselab-mdp", "trial_index": 62, "time_elapsed": 792484, "internal_node_id": "0.0-4.0-3.0-22.0"}}, {"uniqueid": "w55174110:a93262585", "current_trial": 63, "dateTime": 1664556362823, "trialdata": {"revealed_states": [], "num_clicks_accrued": [0, 0, 0, 0, 0, 0, 0, 0, 0, 0, 0, 0, 0], "stateRewards": ["", -4, -8, -48, 48, -2, 8, 48, 48, -2, -4, -48, -48], "withholdReward": false, "trial_id": "mdp_752833580638", "block": "test2", "trialIndex": 55, "score": 57.75, "costs": -1.25, "simulationMode": [null, null, null], "rewards": [-2, 8, 48], "path": ["0", "0", "5", "6", "7"], "rt": [3299, 105, 126], "actions": ["right", "right", "up"], "actionTimes": [4012, 4624, 5248], "queries": {"click": {"state": {"target": ["9", "1", "5", "6", "7"], "time": [1552, 2142, 2588, 2903, 3423]}, "edge": {"target": [], "time": []}}, "mouseover": {"state": {"target": ["9", "1", "5", "6", "7"], "time": [1533, 2067, 2539, 2823, 3261]}, "edge": {"target": [], "time": []}}, "mouseout": {"state": {"target": ["0", "9", "1", "5", "6", "7", "6"], "time": [1115, 1908, 2428, 2782, 3108, 9490, 9587]}, "edge": {"target": [], "time": []}}}, "displayed_time": "9.71", "trialTime": 10447, "trial_type": "mouselab-mdp", "trial_index": 63, "time_elapsed": 802969, "internal_node_id": "0.0-4.0-3.0-23.0"}}, {"uniqueid": "w55174110:a93262585", "current_trial": 64, "dateTime": 1664556374207, "trialdata": {"revealed_states": [], "num_clicks_accrued": [0, 0, 0, 0, 0, 0, 0, 0, 0, 0, 0, 0, 0], "stateRewards": ["", -4, 8, 24, -48, -4, -8, -24, 24, 2, -4, -48, 24], "withholdReward": true, "trial_id": "mdp_898449441629", "block": "test2", "trialIndex": 56, "score": 31, "costs": -2, "simulationMode": [null, null, null], "rewards": [-4, 8, 24], "path": ["0", "0", "1", "2", "3"], "rt": [4612, 1130, 14], "actions": ["up", "up", "right"], "actionTimes": [5903, 7531, 8047], "queries": {"click": {"state": {"target": ["9", "10", "11", "5", "6", "7", "1", "2"], "time": [2196, 2480, 2815, 3581, 3759, 4246, 4859, 5208]}, "edge": {"target": [], "time": []}}, "mouseover": {"state": {"target": ["9", "10", "11", "5", "6", "7", "7", "1", "2"], "time": [2136, 2414, 2734, 3497, 3741, 3922, 4220, 4657, 5019]}, "edge": {"target": [], "time": []}}, "mouseout": {"state": {"target": ["0", "9", "10", "11", "5", "6", "7", "7", "1", "2", "3", "5"], "time": [2053, 2373, 2685, 2983, 3706, 3879, 4123, 4401, 4963, 6970, 10317, 10761]}, "edge": {"target": [], "time": []}}}, "displayed_time": "10.29", "trialTime": 11344, "trial_type": "mouselab-mdp", "trial_index": 64, "time_elapsed": 814353, "internal_node_id": "0.0-4.0-3.0-24.0"}}, {"uniqueid": "w55174110:a93262585", "current_trial": 65, "dateTime": 1664556384866, "trialdata": {"revealed_states": [], "num_clicks_accrued": [0, 0, 0, 0, 0, 0, 0, 0, 0, 0, 0, 0, 0], "stateRewards": ["", 2, 8, 48, -24, -4, 4, 48, 24, -2, 8, 24, 24], "withholdReward": false, "trial_id": "mdp_123436106791", "block": "test2", "trialIndex": 57, "score": 34.25, "costs": -0.75, "simulationMode": [null, null, null], "rewards": [-2, 8, 24], "path": ["0", "0", "9", "10", "11"], "rt": [1717, 29, 90], "actions": ["left", "left", "up"], "actionTimes": [2492, 3027, 3622], "queries": {"click": {"state": {"target": ["9", "10", "11"], "time": [1265, 1595, 1744]}, "edge": {"target": [], "time": []}}, "mouseover": {"state": {"target": ["9", "10", "11"], "time": [1219, 1559, 1733]}, "edge": {"target": [], "time": []}}, "mouseout": {"state": {"target": ["0", "9", "10", "11", "9"], "time": [1156, 1517, 1698, 1976, 4469]}, "edge": {"target": [], "time": []}}}, "displayed_time": "9.78", "trialTime": 10621, "trial_type": "mouselab-mdp", "trial_index": 65, "time_elapsed": 825012, "internal_node_id": "0.0-4.0-3.0-25.0"}}, {"uniqueid": "w55174110:a93262585", "current_trial": 66, "dateTime": 1664556395621, "trialdata": {"revealed_states": [], "num_clicks_accrued": [0, 0, 0, 0, 0, 0, 0, 0, 0, 0, 0, 0, 0], "stateRewards": ["", -4, -4, -24, 24, -4, 4, -24, 48, -2, 4, 48, -48], "withholdReward": false, "trial_id": "mdp_774757609669", "block": "test2", "trialIndex": 58, "score": 53.5, "costs": -1.5, "simulationMode": [null, null, null], "rewards": [-2, 4, 48], "path": ["0", "0", "9", "10", "11"], "rt": [3629, 161, 130], "actions": ["left", "left", "up"], "actionTimes": [4106, 4770, 5398], "queries": {"click": {"state": {"target": ["1", "2", "4", "9", "10", "11"], "time": [905, 1136, 1359, 2613, 2753, 2875]}, "edge": {"target": [], "time": []}}, "mouseover": {"state": {"target": ["1", "2", "4", "9", "9", "10", "11", "0", "5"], "time": [865, 1088, 1337, 2088, 2539, 2733, 2865, 3266, 3664]}, "edge": {"target": [], "time": []}}, "mouseout": {"state": {"target": ["0", "1", "2", "4", "9", "9", "10", "11", "9", "0", "5"], "time": [761, 1060, 1303, 1581, 2143, 2706, 2831, 3032, 3143, 3338, 7205]}, "edge": {"target": [], "time": []}}}, "displayed_time": "9.48", "trialTime": 10710, "trial_type": "mouselab-mdp", "trial_index": 66, "time_elapsed": 835767, "internal_node_id": "0.0-4.0-3.0-26.0"}}, {"uniqueid": "w55174110:a93262585", "current_trial": 67, "dateTime": 1664556407041, "trialdata": {"revealed_states": [], "num_clicks_accrued": [0, 0, 0, 0, 0, 0, 0, 0, 0, 0, 0, 0, 0], "stateRewards": ["", 2, 4, 48, -48, 2, 4, 24, -24, 2, -4, -24, -48], "withholdReward": true, "trial_id": "mdp_706591889062", "block": "test2", "trialIndex": 59, "score": 32.25, "costs": -2.75, "simulationMode": [null, null, null], "rewards": [2, 4, 24], "path": ["0", "0", "5", "6", "7"], "rt": [6529, 159, 51], "actions": ["right", "right", "up"], "actionTimes": [6964, 7621, 8180], "queries": {"click": {"state": {"target": ["5", "7", "6", "1", "2", "4", "9", "10", "11", "12", "8"], "time": [1531, 1888, 2339, 3241, 3416, 3616, 4277, 4892, 5245, 5788, 6192]}, "edge": {"target": [], "time": []}}, "mouseover": {"state": {"target": ["5", "6", "7", "6", "1", "2", "4", "9", "10", "11", "10", "11", "12", "8"], "time": [1468, 1755, 1871, 2253, 3190, 3385, 3586, 4239, 4642, 4690, 4878, 5205, 5476, 6031]}, "edge": {"target": [], "time": []}}, "mouseout": {"state": {"target": ["0", "5", "6", "7", "6", "1", "2", "4", "1", "9", "10", "11", "10", "11", "10", "12", "8", "6", "6", "6"], "time": [1419, 1690, 1836, 2171, 3003, 3336, 3558, 3961, 4163, 4413, 4656, 4843, 5176, 5357, 5419, 5912, 6371, 9260, 9850, 10114]}, "edge": {"target": [], "time": []}}}, "displayed_time": "9.44", "trialTime": 11379, "trial_type": "mouselab-mdp", "trial_index": 67, "time_elapsed": 847187, "internal_node_id": "0.0-4.0-3.0-27.0"}}, {"uniqueid": "w55174110:a93262585", "current_trial": 68, "dateTime": 1664556418690, "trialdata": {"revealed_states": [], "num_clicks_accrued": [0, 0, 0, 0, 0, 0, 0, 0, 0, 0, 0, 0, 0], "stateRewards": ["", -2, 8, -24, 24, -4, -8, -24, 48, -2, -8, -48, 48], "withholdReward": true, "trial_id": "mdp_238332601315", "block": "test2", "trialIndex": 60, "score": 40.75, "costs": -2.25, "simulationMode": [null, null, null], "rewards": [-2, -8, 48], "path": ["0", "0", "9", "10", "12"], "rt": [5518, 84, 7], "actions": ["left", "left", "down"], "actionTimes": [6525, 7115, 7621], "queries": {"click": {"state": {"target": ["1", "2", "3", "5", "6", "7", "9", "10", "12"], "time": [1730, 1924, 2120, 2803, 2993, 3172, 3930, 4610, 5487]}, "edge": {"target": [], "time": []}}, "mouseover": {"state": {"target": ["1", "2", "3", "5", "6", "7", "0", "9", "10", "12", "10", "12", "12"], "time": [1690, 1919, 2100, 2641, 2933, 3120, 3635, 3885, 4100, 4392, 4532, 4906, 5420]}, "edge": {"target": [], "time": []}}, "mouseout": {"state": {"target": ["0", "1", "2", "3", "5", "6", "7", "6", "5", "0", "9", "10", "12", "10", "12", "9", "12", "4", "2", "1", "0"], "time": [1607, 1870, 2065, 2331, 2898, 3093, 3357, 3572, 3614, 3809, 4079, 4169, 4475, 4829, 4981, 5148, 5579, 10808, 11065, 11086, 11107]}, "edge": {"target": [], "time": []}}}, "displayed_time": "10.01", "trialTime": 11611, "trial_type": "mouselab-mdp", "trial_index": 68, "time_elapsed": 858836, "internal_node_id": "0.0-4.0-3.0-28.0"}}, {"uniqueid": "w55174110:a93262585", "current_trial": 69, "dateTime": 1664556429998, "trialdata": {"revealed_states": [], "num_clicks_accrued": [0, 0, 0, 0, 0, 0, 0, 0, 0, 0, 0, 0, 0], "stateRewards": ["", 4, 4, 24, -48, 2, -8, -24, -48, 4, 8, 48, 48], "withholdReward": true, "trial_id": "mdp_592471239511", "block": "test2", "trialIndex": 61, "score": 62.5, "costs": -2.5, "simulationMode": [null, null, null], "rewards": [4, 8, 48], "path": ["0", "0", "9", "10", "11"], "rt": [4561, 506, 97], "actions": ["left", "left", "up"], "actionTimes": [5049, 6053, 6650], "queries": {"click": {"state": {"target": ["5", "6", "7", "1", "2", "4", "3", "9", "10", "11"], "time": [1023, 1394, 1897, 2314, 2528, 2693, 3274, 3738, 4002, 4171]}, "edge": {"target": [], "time": []}}, "mouseover": {"state": {"target": ["5", "6", "7", "7", "1", "2", "4", "3", "9", "10", "11", "12"], "time": [956, 1338, 1504, 1797, 2122, 2490, 2664, 3226, 3664, 3942, 4136, 4658]}, "edge": {"target": [], "time": []}}, "mouseout": {"state": {"target": ["0", "5", "6", "7", "7", "1", "2", "4", "2", "3", "1", "9", "10", "11", "10", "12", "9", "5"], "time": [922, 1199, 1484, 1518, 2025, 2456, 2629, 3095, 3192, 3442, 3540, 3881, 4109, 4338, 4520, 4754, 4796, 7789]}, "edge": {"target": [], "time": []}}}, "displayed_time": "9.49", "trialTime": 11261, "trial_type": "mouselab-mdp", "trial_index": 69, "time_elapsed": 870144, "internal_node_id": "0.0-4.0-3.0-29.0"}}, {"uniqueid": "w55174110:a93262585", "current_trial": 70, "dateTime": 1664556432380, "trialdata": {"rt": 2379, "stimulus": "<h1> End of block! </h1>\n\nYou have reached the end of the block 2/4. If you need a short break, feel free to take one now before moving on.\n\n<br><br>\nIn the next block, you will complete another 30 rounds of this game.\n\n<br><br>\n<div style='text-align: center;'>Press <code>space</code> to begin.</div>\n<br><br>\n<div style='text-align: center;'>(If the experiment doesn't continue, try clicking on the text and then pressing <code>space</code>.)</div>", "response": " ", "trial_id": "mdp_ready_3", "trial_type": "html-keyboard-response", "trial_index": 70, "time_elapsed": 872526, "internal_node_id": "0.0-4.0-4.0"}}, {"uniqueid": "w55174110:a93262585", "current_trial": 71, "dateTime": 1664556443077, "trialdata": {"revealed_states": [], "num_clicks_accrued": [0, 0, 0, 0, 0, 0, 0, 0, 0, 0, 0, 0, 0], "stateRewards": ["", 4, -8, -48, 24, 4, 4, -24, -24, 2, 4, -48, 24], "withholdReward": true, "trial_id": "mdp_626971397185", "block": "test3", "trialIndex": 62, "score": 22, "costs": -3, "simulationMode": [null, null, null], "rewards": [4, -8, 24], "path": ["0", "0", "1", "2", "4"], "rt": [6416, 379, 38], "actions": ["up", "up", "left"], "actionTimes": [7238, 8125, 8659], "queries": {"click": {"state": {"target": ["9", "10", "11", "1", "2", "4", "3", "12", "6", "5", "7", "8"], "time": [1265, 1417, 1563, 2087, 2251, 2702, 3109, 3544, 4198, 4503, 4667, 5822]}, "edge": {"target": [], "time": []}}, "mouseover": {"state": {"target": ["0", "9", "10", "11", "1", "2", "4", "3", "12", "8", "6", "5", "7", "8"], "time": [1099, 1190, 1391, 1537, 2017, 2224, 2700, 2992, 3495, 3849, 4162, 4447, 4620, 5752]}, "edge": {"target": [], "time": []}}, "mouseout": {"state": {"target": ["2", "1", "0", "9", "10", "11", "1", "2", "4", "2", "3", "1", "9", "12", "8", "6", "5", "7", "6", "6", "6", "8"], "time": [335, 509, 1120, 1370, 1509, 1738, 2190, 2405, 2815, 2912, 3197, 3294, 3377, 3690, 4112, 4385, 4565, 4738, 4794, 5141, 5309, 5940]}, "edge": {"target": [], "time": []}}}, "displayed_time": "9.16", "trialTime": 10657, "trial_type": "mouselab-mdp", "trial_index": 71, "time_elapsed": 883223, "internal_node_id": "0.0-4.0-5.0-0.0"}}, {"uniqueid": "w55174110:a93262585", "current_trial": 72, "dateTime": 1664556452614, "trialdata": {"revealed_states": [], "num_clicks_accrued": [0, 0, 0, 0, 0, 0, 0, 0, 0, 0, 0, 0, 0], "stateRewards": ["", 2, 4, -48, -24, 2, 8, 24, 48, -2, 4, 48, -48], "withholdReward": true, "trial_id": "mdp_551894842204", "block": "test3", "trialIndex": 63, "score": 54.5, "costs": -0.5, "simulationMode": [null, null, null], "rewards": [-2, 4, 48], "path": ["0", "0", "9", "10", "11"], "rt": [1419, 5, 61], "actions": ["left", "left", "up"], "actionTimes": [2420, 2923, 3486], "queries": {"click": {"state": {"target": ["12", "11"], "time": [1412, 1679]}, "edge": {"target": [], "time": []}}, "mouseover": {"state": {"target": ["12", "10", "11", "1"], "time": [1285, 1556, 1626, 2140]}, "edge": {"target": [], "time": []}}, "mouseout": {"state": {"target": ["6", "5", "0", "12", "10", "11", "1", "1", "0", "5"], "time": [501, 570, 1181, 1522, 1598, 1910, 4334, 4424, 5140, 6613]}, "edge": {"target": [], "time": []}}}, "displayed_time": "9.00", "trialTime": 9498, "trial_type": "mouselab-mdp", "trial_index": 72, "time_elapsed": 892760, "internal_node_id": "0.0-4.0-5.0-1.0"}}, {"uniqueid": "w55174110:a93262585", "current_trial": 73, "dateTime": 1664556462393, "trialdata": {"revealed_states": [], "num_clicks_accrued": [0, 0, 0, 0, 0, 0, 0, 0, 0, 0, 0, 0, 0], "stateRewards": ["", 2, -8, 24, -24, -2, 8, -48, -48, 2, -8, -24, -48], "withholdReward": true, "trial_id": "mdp_744278669205", "block": "test3", "trialIndex": 64, "score": 21.25, "costs": -1.75, "simulationMode": [null, null, null], "rewards": [2, -8, 24], "path": ["0", "0", "1", "2", "3"], "rt": [3633, 403, 163], "actions": ["up", "up", "right"], "actionTimes": [4145, 5045, 5709], "queries": {"click": {"state": {"target": ["9", "11", "12", "4", "3", "7", "8"], "time": [865, 1272, 1459, 1981, 2340, 2809, 2986]}, "edge": {"target": [], "time": []}}, "mouseover": {"state": {"target": ["9", "10", "11", "10", "12", "4", "2", "3", "7", "6", "8", "6", "5"], "time": [789, 1114, 1219, 1364, 1413, 1920, 2198, 2281, 2788, 2920, 2955, 3587, 3670]}, "edge": {"target": [], "time": []}}, "mouseout": {"state": {"target": ["0", "9", "10", "11", "10", "12", "9", "4", "2", "3", "7", "6", "8", "6", "5"], "time": [726, 1017, 1177, 1344, 1399, 1628, 1810, 2156, 2255, 2448, 2899, 2948, 3267, 3628, 3691]}, "edge": {"target": [], "time": []}}}, "displayed_time": "9.51", "trialTime": 9744, "trial_type": "mouselab-mdp", "trial_index": 73, "time_elapsed": 902539, "internal_node_id": "0.0-4.0-5.0-2.0"}}, {"uniqueid": "w55174110:a93262585", "current_trial": 74, "dateTime": 1664556471373, "trialdata": {"revealed_states": [], "num_clicks_accrued": [0, 0, 0, 0, 0, 0, 0, 0, 0, 0, 0, 0, 0], "stateRewards": ["", 4, 4, 48, -48, 4, 4, -48, 24, 2, 8, 24, -48], "withholdReward": true, "trial_id": "mdp_291674656283", "block": "test3", "trialIndex": 65, "score": 60.5, "costs": -0.5, "simulationMode": [null, null, null], "rewards": [4, 4, 48], "path": ["0", "0", "1", "2", "3"], "rt": [2150, 2, 22], "actions": ["up", "up", "right"], "actionTimes": [2730, 3230, 3764], "queries": {"click": {"state": {"target": ["4", "3"], "time": [1243, 1791]}, "edge": {"target": [], "time": []}}, "mouseover": {"state": {"target": ["0", "1", "2", "4", "2", "3", "3", "7"], "time": [693, 866, 1116, 1206, 1359, 1434, 1762, 2109]}, "edge": {"target": [], "time": []}}, "mouseout": {"state": {"target": ["7", "6", "0", "0", "1", "2", "4", "2", "3", "3", "7", "7"], "time": [206, 262, 540, 831, 1047, 1165, 1331, 1401, 1613, 1881, 2235, 6346]}, "edge": {"target": [], "time": []}}}, "displayed_time": "8.58", "trialTime": 8940, "trial_type": "mouselab-mdp", "trial_index": 74, "time_elapsed": 911519, "internal_node_id": "0.0-4.0-5.0-3.0"}}, {"uniqueid": "w55174110:a93262585", "current_trial": 75, "dateTime": 1664556480629, "trialdata": {"revealed_states": [], "num_clicks_accrued": [0, 0, 0, 0, 0, 0, 0, 0, 0, 0, 0, 0, 0], "stateRewards": ["", -2, 4, -48, -48, 4, 4, 48, -48, 2, 8, 24, 48], "withholdReward": false, "trial_id": "mdp_686771069745", "block": "test3", "trialIndex": 66, "score": 62.5, "costs": -0.5, "simulationMode": [null, null, null], "rewards": [2, 8, 48], "path": ["0", "0", "9", "10", "12"], "rt": [2025, 9, 46], "actions": ["left", "left", "down"], "actionTimes": [2476, 2982, 3540], "queries": {"click": {"state": {"target": ["12", "11"], "time": [1252, 1571]}, "edge": {"target": [], "time": []}}, "mouseover": {"state": {"target": ["1", "9", "10", "10", "12", "10", "11"], "time": [743, 868, 994, 1160, 1223, 1466, 1508]}, "edge": {"target": [], "time": []}}, "mouseout": {"state": {"target": ["0", "1", "9", "10", "10", "12", "10", "11", "1", "7", "5", "0"], "time": [646, 794, 938, 1000, 1195, 1438, 1494, 1778, 3931, 3959, 6244, 7521]}, "edge": {"target": [], "time": []}}}, "displayed_time": "8.45", "trialTime": 9220, "trial_type": "mouselab-mdp", "trial_index": 75, "time_elapsed": 920775, "internal_node_id": "0.0-4.0-5.0-4.0"}}, {"uniqueid": "w55174110:a93262585", "current_trial": 76, "dateTime": 1664556490661, "trialdata": {"revealed_states": [], "num_clicks_accrued": [0, 0, 0, 0, 0, 0, 0, 0, 0, 0, 0, 0, 0], "stateRewards": ["", 4, 4, 24, -24, -4, -8, 48, -24, 4, 4, 48, 24], "withholdReward": true, "trial_id": "mdp_822446942217", "block": "test3", "trialIndex": 67, "score": 40.5, "costs": -0.5, "simulationMode": [null, null, null], "rewards": [-4, -8, 48], "path": ["0", "0", "5", "6", "7"], "rt": [1978, 68, 37], "actions": ["right", "right", "up"], "actionTimes": [2532, 3102, 3641], "queries": {"click": {"state": {"target": ["8", "7"], "time": [1551, 1858]}, "edge": {"target": [], "time": []}}, "mouseover": {"state": {"target": ["5", "6", "7", "6", "8", "6", "7"], "time": [1020, 1146, 1375, 1464, 1512, 1735, 1811]}, "edge": {"target": [], "time": []}}, "mouseout": {"state": {"target": ["0", "5", "6", "7", "6", "8", "6", "7", "0", "5"], "time": [957, 1089, 1311, 1429, 1492, 1714, 1769, 1999, 9096, 9944]}, "edge": {"target": [], "time": []}}}, "displayed_time": "9.55", "trialTime": 9993, "trial_type": "mouselab-mdp", "trial_index": 76, "time_elapsed": 930807, "internal_node_id": "0.0-4.0-5.0-5.0"}}, {"uniqueid": "w55174110:a93262585", "current_trial": 77, "dateTime": 1664556499604, "trialdata": {"revealed_states": [], "num_clicks_accrued": [0, 0, 0, 0, 0, 0, 0, 0, 0, 0, 0, 0, 0], "stateRewards": ["", -4, -8, 48, 48, -4, 4, 48, -24, 4, 8, -24, -48], "withholdReward": true, "trial_id": "mdp_142906093415", "block": "test3", "trialIndex": 68, "score": 40.5, "costs": -0.5, "simulationMode": [null, null, null], "rewards": [-4, -8, 48], "path": ["0", "0", "1", "2", "4"], "rt": [1352, 932, 96], "actions": ["up", "up", "left"], "actionTimes": [1978, 3413, 4008], "queries": {"click": {"state": {"target": ["3", "4"], "time": [1010, 1244]}, "edge": {"target": [], "time": []}}, "mouseover": {"state": {"target": ["1", "3", "2", "4"], "time": [773, 953, 1120, 1161]}, "edge": {"target": [], "time": []}}, "mouseout": {"state": {"target": ["3", "0", "1", "3", "2", "4", "2"], "time": [376, 725, 807, 1099, 1148, 7182, 7238]}, "edge": {"target": [], "time": []}}}, "displayed_time": "8.63", "trialTime": 8904, "trial_type": "mouselab-mdp", "trial_index": 77, "time_elapsed": 939750, "internal_node_id": "0.0-4.0-5.0-6.0"}}, {"uniqueid": "w55174110:a93262585", "current_trial": 78, "dateTime": 1664556508810, "trialdata": {"revealed_states": [], "num_clicks_accrued": [0, 0, 0, 0, 0, 0, 0, 0, 0, 0, 0, 0, 0], "stateRewards": ["", -4, 4, -24, 24, 2, 4, -24, 48, -4, 8, -48, 48], "withholdReward": false, "trial_id": "mdp_422109108860", "block": "test3", "trialIndex": 69, "score": 58, "costs": -1, "simulationMode": [null, null, null], "rewards": [2, 4, 48], "path": ["0", "0", "5", "6", "8"], "rt": [2308, 808, 73], "actions": ["right", "right", "down"], "actionTimes": [3144, 4456, 5027], "queries": {"click": {"state": {"target": ["7", "8", "3", "4"], "time": [1198, 1586, 2068, 2296]}, "edge": {"target": [], "time": []}}, "mouseover": {"state": {"target": ["5", "7", "6", "8", "3", "2", "4"], "time": [968, 1134, 1370, 1523, 1863, 2196, 2273]}, "edge": {"target": [], "time": []}}, "mouseout": {"state": {"target": ["5", "5", "0", "5", "7", "6", "8", "3", "2", "4"], "time": [335, 670, 939, 981, 1336, 1419, 1724, 2162, 2238, 2474]}, "edge": {"target": [], "time": []}}}, "displayed_time": "8.84", "trialTime": 9166, "trial_type": "mouselab-mdp", "trial_index": 78, "time_elapsed": 948956, "internal_node_id": "0.0-4.0-5.0-7.0"}}, {"uniqueid": "w55174110:a93262585", "current_trial": 79, "dateTime": 1664556518911, "trialdata": {"revealed_states": [], "num_clicks_accrued": [0, 0, 0, 0, 0, 0, 0, 0, 0, 0, 0, 0, 0], "stateRewards": ["", -4, -4, -48, 48, -4, -8, -24, -48, -2, 8, 48, 24], "withholdReward": true, "trial_id": "mdp_365393526663", "block": "test3", "trialIndex": 70, "score": 58.5, "costs": -0.5, "simulationMode": [null, null, null], "rewards": [-2, 8, 48], "path": ["0", "0", "9", "10", "11"], "rt": [1981, 385, 13], "actions": ["left", "left", "up"], "actionTimes": [2602, 3488, 3998], "queries": {"click": {"state": {"target": ["12", "11"], "time": [1451, 1625]}, "edge": {"target": [], "time": []}}, "mouseover": {"state": {"target": ["9", "10", "12", "10", "11"], "time": [1012, 1318, 1415, 1561, 1603]}, "edge": {"target": [], "time": []}}, "mouseout": {"state": {"target": ["1", "9", "10", "12", "10", "11", "0"], "time": [429, 1054, 1339, 1540, 1582, 1908, 7986]}, "edge": {"target": [], "time": []}}}, "displayed_time": "9.62", "trialTime": 10062, "trial_type": "mouselab-mdp", "trial_index": 79, "time_elapsed": 959057, "internal_node_id": "0.0-4.0-5.0-8.0"}}, {"uniqueid": "w55174110:a93262585", "current_trial": 80, "dateTime": 1664556527785, "trialdata": {"revealed_states": [], "num_clicks_accrued": [0, 0, 0, 0, 0, 0, 0, 0, 0, 0, 0, 0, 0], "stateRewards": ["", 4, 8, -48, -48, 2, 4, -24, -48, 2, 8, 48, -48], "withholdReward": true, "trial_id": "mdp_902172716465", "block": "test3", "trialIndex": 71, "score": 61.5, "costs": -1.5, "simulationMode": [null, null, null], "rewards": [2, 8, 48], "path": ["0", "0", "9", "10", "11"], "rt": [3843, 73, 98], "actions": ["left", "left", "up"], "actionTimes": [4348, 4923, 5517], "queries": {"click": {"state": {"target": ["7", "8", "4", "3", "11", "12"], "time": [1280, 1558, 2256, 2886, 3250, 3771]}, "edge": {"target": [], "time": []}}, "mouseover": {"state": {"target": ["5", "7", "6", "8", "5", "1", "2", "4", "2", "3", "11", "10", "12"], "time": [1058, 1245, 1433, 1495, 1884, 1988, 2134, 2238, 2434, 2864, 3155, 3398, 3642]}, "edge": {"target": [], "time": []}}, "mouseout": {"state": {"target": ["0", "5", "7", "6", "8", "5", "1", "2", "4", "2", "3", "11", "10", "12", "8"], "time": [481, 1177, 1405, 1467, 1835, 1933, 2064, 2189, 2398, 2509, 3030, 3373, 3439, 6919, 8461]}, "edge": {"target": [], "time": []}}}, "displayed_time": "8.51", "trialTime": 8835, "trial_type": "mouselab-mdp", "trial_index": 80, "time_elapsed": 967931, "internal_node_id": "0.0-4.0-5.0-9.0"}}, {"uniqueid": "w55174110:a93262585", "current_trial": 81, "dateTime": 1664556537068, "trialdata": {"revealed_states": [], "num_clicks_accrued": [0, 0, 0, 0, 0, 0, 0, 0, 0, 0, 0, 0, 0], "stateRewards": ["", -2, -8, 24, -48, 4, 4, -24, -48, -2, -8, -48, 24], "withholdReward": false, "trial_id": "mdp_556006673466", "block": "test3", "trialIndex": 72, "score": 17.5, "costs": -1.5, "simulationMode": [null, null, null], "rewards": [-2, -8, 24], "path": ["0", "0", "1", "2", "3"], "rt": [3297, 259, 112], "actions": ["up", "up", "right"], "actionTimes": [3795, 4555, 5172], "queries": {"click": {"state": {"target": ["4", "3", "7", "8", "12", "11"], "time": [922, 1284, 1713, 2233, 2647, 2929]}, "edge": {"target": [], "time": []}}, "mouseover": {"state": {"target": ["1", "4", "2", "3", "7", "8", "12", "10", "11", "1"], "time": [789, 872, 1144, 1226, 1618, 2158, 2587, 2824, 2879, 3372]}, "edge": {"target": [], "time": []}}, "mouseout": {"state": {"target": ["0", "1", "4", "2", "3", "7", "8", "12", "10", "11", "1"], "time": [747, 809, 1101, 1198, 1449, 1816, 2379, 2796, 2852, 3324, 3386]}, "edge": {"target": [], "time": []}}}, "displayed_time": "8.50", "trialTime": 9238, "trial_type": "mouselab-mdp", "trial_index": 81, "time_elapsed": 977214, "internal_node_id": "0.0-4.0-5.0-10.0"}}, {"uniqueid": "w55174110:a93262585", "current_trial": 82, "dateTime": 1664556546104, "trialdata": {"revealed_states": [], "num_clicks_accrued": [0, 0, 0, 0, 0, 0, 0, 0, 0, 0, 0, 0, 0], "stateRewards": ["", -2, -4, -48, -48, -2, -8, 48, -48, 4, -8, -48, 24], "withholdReward": true, "trial_id": "mdp_468495641521", "block": "test3", "trialIndex": 73, "score": 42.25, "costs": -0.75, "simulationMode": [null, null, null], "rewards": [-2, -8, 48], "path": ["0", "0", "5", "6", "7"], "rt": [2186, 26, 64], "actions": ["right", "right", "up"], "actionTimes": [2713, 3239, 3818], "queries": {"click": {"state": {"target": ["4", "3", "7"], "time": [1144, 1527, 2034]}, "edge": {"target": [], "time": []}}, "mouseover": {"state": {"target": ["1", "2", "4", "2", "3", "7", "6", "8"], "time": [844, 1011, 1101, 1358, 1455, 1955, 2212, 2345]}, "edge": {"target": [], "time": []}}, "mouseout": {"state": {"target": ["7", "0", "1", "2", "4", "2", "3", "7", "6", "8"], "time": [247, 715, 913, 1060, 1323, 1414, 1851, 2178, 2281, 2491]}, "edge": {"target": [], "time": []}}}, "displayed_time": "8.53", "trialTime": 8996, "trial_type": "mouselab-mdp", "trial_index": 82, "time_elapsed": 986250, "internal_node_id": "0.0-4.0-5.0-11.0"}}, {"uniqueid": "w55174110:a93262585", "current_trial": 83, "dateTime": 1664556555247, "trialdata": {"revealed_states": [], "num_clicks_accrued": [0, 0, 0, 0, 0, 0, 0, 0, 0, 0, 0, 0, 0], "stateRewards": ["", 2, -8, -48, 24, 4, 8, 48, -48, 2, -4, 24, 24], "withholdReward": true, "trial_id": "mdp_130475327289", "block": "test3", "trialIndex": 74, "score": 63, "costs": -2, "simulationMode": [null, null, null], "rewards": [4, 8, 48], "path": ["0", "0", "5", "6", "7"], "rt": [4330, 361, 126], "actions": ["right", "right", "up"], "actionTimes": [4847, 5705, 6339], "queries": {"click": {"state": {"target": ["11", "12", "4", "3", "7", "8", "5", "6"], "time": [1009, 1446, 2115, 2336, 3147, 3313, 4143, 4396]}, "edge": {"target": [], "time": []}}, "mouseover": {"state": {"target": ["9", "11", "10", "12", "9", "4", "2", "3", "7", "6", "6", "7", "6", "8", "6", "5", "6"], "time": [809, 941, 1275, 1434, 1816, 2094, 2247, 2309, 2699, 2858, 3073, 3145, 3254, 3288, 3921, 4005, 4330]}, "edge": {"target": [], "time": []}}, "mouseout": {"state": {"target": ["5", "9", "11", "10", "12", "9", "4", "2", "3", "7", "6", "6", "7", "6", "8", "6", "5", "6"], "time": [392, 851, 1205, 1379, 1714, 1914, 2226, 2282, 2504, 2726, 2921, 3110, 3226, 3274, 3636, 3948, 4275, 4538]}, "edge": {"target": [], "time": []}}}, "displayed_time": "8.52", "trialTime": 9104, "trial_type": "mouselab-mdp", "trial_index": 83, "time_elapsed": 995393, "internal_node_id": "0.0-4.0-5.0-12.0"}}, {"uniqueid": "w55174110:a93262585", "current_trial": 84, "dateTime": 1664556565257, "trialdata": {"revealed_states": [], "num_clicks_accrued": [0, 0, 0, 0, 0, 0, 0, 0, 0, 0, 0, 0, 0], "stateRewards": ["", 4, -8, -24, 24, 2, -4, 24, 24, 2, -4, 48, 48], "withholdReward": true, "trial_id": "mdp_457607480918", "block": "test3", "trialIndex": 75, "score": 49, "costs": -2, "simulationMode": [null, null, null], "rewards": [2, -4, 48], "path": ["0", "0", "9", "10", "11"], "rt": [4924, 314, 25], "actions": ["left", "left", "up"], "actionTimes": [5519, 6334, 6857], "queries": {"click": {"state": {"target": ["7", "8", "3", "4", "11", "12", "10", "9"], "time": [1413, 1769, 2625, 3288, 3855, 4325, 4590, 4827]}, "edge": {"target": [], "time": []}}, "mouseover": {"state": {"target": ["5", "5", "7", "6", "8", "6", "1", "2", "2", "3", "2", "4", "4", "4", "11", "10", "11", "10", "12", "10", "9"], "time": [923, 1103, 1367, 1561, 1617, 1950, 2103, 2325, 2548, 2617, 2811, 2860, 3048, 3242, 3464, 3721, 3839, 3964, 4164, 4513, 4797]}, "edge": {"target": [], "time": []}}, "mouseout": {"state": {"target": ["0", "5", "5", "7", "6", "8", "6", "1", "2", "2", "3", "2", "4", "4", "4", "11", "10", "11", "10", "12", "10", "9"], "time": [867, 1021, 1283, 1541, 1596, 1930, 1964, 2291, 2395, 2589, 2783, 2846, 2895, 3131, 3415, 3528, 3797, 3937, 4006, 4464, 4763, 4972]}, "edge": {"target": [], "time": []}}}, "displayed_time": "9.60", "trialTime": 9977, "trial_type": "mouselab-mdp", "trial_index": 84, "time_elapsed": 1005403, "internal_node_id": "0.0-4.0-5.0-13.0"}}, {"uniqueid": "w55174110:a93262585", "current_trial": 85, "dateTime": 1664556576045, "trialdata": {"revealed_states": [], "num_clicks_accrued": [0, 0, 0, 0, 0, 0, 0, 0, 0, 0, 0, 0, 0], "stateRewards": ["", -2, -8, 48, 24, 4, -8, 24, 48, 4, -4, 24, -48], "withholdReward": false, "trial_id": "mdp_871576155740", "block": "test3", "trialIndex": 76, "score": 46.5, "costs": -2.5, "simulationMode": [null, null, null], "rewards": [4, -8, 48], "path": ["0", "0", "5", "6", "8"], "rt": [5900, 91, 90], "actions": ["right", "right", "down"], "actionTimes": [6424, 7013, 7603], "queries": {"click": {"state": {"target": ["11", "12", "4", "3", "7", "1", "2", "6", "8", "5"], "time": [1401, 1610, 2140, 2710, 3131, 3559, 3758, 4470, 4732, 5486]}, "edge": {"target": [], "time": []}}, "mouseover": {"state": {"target": ["11", "10", "12", "10", "11", "10", "12", "10", "4", "2", "3", "7", "1", "2", "6", "8", "5"], "time": [1002, 1069, 1207, 1325, 1381, 1506, 1568, 1804, 2089, 2291, 2644, 2964, 3541, 3728, 4409, 4727, 5429]}, "edge": {"target": [], "time": []}}, "mouseout": {"state": {"target": ["0", "11", "10", "12", "10", "11", "10", "12", "10", "4", "2", "3", "7", "7", "1", "2", "6", "8", "6", "5", "7", "6", "5", "8"], "time": [659, 1041, 1117, 1304, 1353, 1478, 1541, 1771, 1818, 2270, 2353, 2846, 3284, 3381, 3686, 3902, 4651, 4984, 5394, 5672, 5748, 9477, 9498, 10554]}, "edge": {"target": [], "time": []}}}, "displayed_time": "8.52", "trialTime": 10751, "trial_type": "mouselab-mdp", "trial_index": 85, "time_elapsed": 1016191, "internal_node_id": "0.0-4.0-5.0-14.0"}}, {"uniqueid": "w55174110:a93262585", "current_trial": 86, "dateTime": 1664556586007, "trialdata": {"revealed_states": [], "num_clicks_accrued": [0, 0, 0, 0, 0, 0, 0, 0, 0, 0, 0, 0, 0], "stateRewards": ["", 2, 4, 48, 48, 4, -8, 24, -48, -4, -8, -24, -48], "withholdReward": true, "trial_id": "mdp_343818007251", "block": "test3", "trialIndex": 77, "score": 57.75, "costs": -1.25, "simulationMode": [null, null, null], "rewards": [2, 4, 48], "path": ["0", "0", "1", "2", "4"], "rt": [2851, 58, 91], "actions": ["up", "up", "left"], "actionTimes": [3404, 3959, 4548], "queries": {"click": {"state": {"target": ["4", "3", "7", "2", "1"], "time": [1260, 1570, 1935, 2506, 2803]}, "edge": {"target": [], "time": []}}, "mouseover": {"state": {"target": ["1", "2", "4", "2", "3", "7", "6", "2", "1"], "time": [956, 1150, 1199, 1421, 1462, 1810, 2101, 2469, 2650]}, "edge": {"target": [], "time": []}}, "mouseout": {"state": {"target": ["8", "5", "0", "1", "2", "4", "2", "3", "7", "6", "2", "1", "3"], "time": [212, 365, 875, 1094, 1157, 1400, 1448, 1754, 2067, 2219, 2615, 2914, 2990]}, "edge": {"target": [], "time": []}}}, "displayed_time": "9.55", "trialTime": 9926, "trial_type": "mouselab-mdp", "trial_index": 86, "time_elapsed": 1026152, "internal_node_id": "0.0-4.0-5.0-15.0"}}, {"uniqueid": "w55174110:a93262585", "current_trial": 87, "dateTime": 1664556595295, "trialdata": {"revealed_states": [], "num_clicks_accrued": [0, 0, 0, 0, 0, 0, 0, 0, 0, 0, 0, 0, 0], "stateRewards": ["", -4, 8, -48, -48, -2, -8, -24, -48, 2, -4, -48, 24], "withholdReward": true, "trial_id": "mdp_743906784415", "block": "test3", "trialIndex": 78, "score": 24, "costs": -3, "simulationMode": [null, null, null], "rewards": [2, -4, 24], "path": ["0", "0", "9", "10", "12"], "rt": [6033, 33, 140], "actions": ["left", "left", "down"], "actionTimes": [6472, 7013, 7661], "queries": {"click": {"state": {"target": ["4", "3", "7", "8", "12", "11", "10", "9", "1", "2", "5", "6"], "time": [948, 1269, 1748, 1944, 2817, 2972, 3395, 3681, 4325, 4479, 4912, 5327]}, "edge": {"target": [], "time": []}}, "mouseover": {"state": {"target": ["1", "4", "2", "3", "7", "6", "8", "12", "10", "11", "10", "9", "1", "2", "5", "6"], "time": [798, 861, 1104, 1180, 1694, 1868, 1930, 2701, 2909, 2951, 3382, 3604, 4076, 4444, 4757, 5208]}, "edge": {"target": [], "time": []}}, "mouseout": {"state": {"target": ["5", "0", "1", "4", "2", "3", "7", "6", "8", "12", "10", "11", "10", "9", "1", "2", "5", "6", "8"], "time": [13, 756, 812, 1069, 1145, 1423, 1854, 1895, 2312, 2883, 2937, 3146, 3534, 3779, 4417, 4632, 5062, 5569, 8194]}, "edge": {"target": [], "time": []}}}, "displayed_time": "8.44", "trialTime": 9245, "trial_type": "mouselab-mdp", "trial_index": 87, "time_elapsed": 1035441, "internal_node_id": "0.0-4.0-5.0-16.0"}}, {"uniqueid": "w55174110:a93262585", "current_trial": 88, "dateTime": 1664556604603, "trialdata": {"revealed_states": [], "num_clicks_accrued": [0, 0, 0, 0, 0, 0, 0, 0, 0, 0, 0, 0, 0], "stateRewards": ["", -4, 8, 24, 24, 2, 4, -48, 24, -2, -4, -24, -24], "withholdReward": false, "trial_id": "mdp_752328329546", "block": "test3", "trialIndex": 79, "score": 30.75, "costs": -2.25, "simulationMode": [null, null, null], "rewards": [-4, 8, 24], "path": ["0", "0", "1", "2", "3"], "rt": [4110, 42, 91], "actions": ["up", "up", "right"], "actionTimes": [4900, 5443, 6033], "queries": {"click": {"state": {"target": ["9", "12", "11", "4", "3", "7", "8", "2", "6"], "time": [1296, 1694, 1876, 2295, 2508, 2987, 3149, 3803, 4239]}, "edge": {"target": [], "time": []}}, "mouseover": {"state": {"target": ["9", "10", "12", "10", "11", "4", "2", "3", "7", "7", "6", "8", "5", "2", "6"], "time": [1185, 1477, 1636, 1803, 1852, 2227, 2428, 2477, 2789, 2977, 3095, 3129, 3470, 3706, 4074]}, "edge": {"target": [], "time": []}}, "mouseout": {"state": {"target": ["8", "0", "9", "10", "12", "10", "11", "4", "2", "3", "7", "7", "6", "8", "5", "2", "6"], "time": [303, 1117, 1442, 1512, 1789, 1838, 2060, 2400, 2456, 2685, 2803, 3057, 3119, 3393, 3491, 3928, 4428]}, "edge": {"target": [], "time": []}}}, "displayed_time": "8.79", "trialTime": 9273, "trial_type": "mouselab-mdp", "trial_index": 88, "time_elapsed": 1044749, "internal_node_id": "0.0-4.0-5.0-17.0"}}, {"uniqueid": "w55174110:a93262585", "current_trial": 89, "dateTime": 1664556616034, "trialdata": {"revealed_states": [], "num_clicks_accrued": [0, 0, 0, 0, 0, 0, 0, 0, 0, 0, 0, 0, 0], "stateRewards": ["", -2, -4, -24, -48, -4, -8, -48, 24, -4, -8, -24, -48], "withholdReward": true, "trial_id": "mdp_475782454549", "block": "test3", "trialIndex": 80, "score": 15.25, "costs": -1.75, "simulationMode": [null, null, null], "rewards": [-4, -8, 24], "path": ["0", "0", "5", "6", "8"], "rt": [3462, 32, 59], "actions": ["right", "right", "down"], "actionTimes": [5434, 5963, 6518], "queries": {"click": {"state": {"target": ["4", "3", "7", "8", "12", "11", "6"], "time": [2443, 2749, 3180, 3538, 4060, 4406, 4877]}, "edge": {"target": [], "time": []}}, "mouseover": {"state": {"target": ["4", "2", "3", "7", "6", "8", "12", "10", "11", "9", "0", "5", "6"], "time": [2332, 2589, 2680, 3062, 3326, 3451, 3999, 4277, 4395, 4624, 4659, 4687, 4735]}, "edge": {"target": [], "time": []}}, "mouseout": {"state": {"target": ["7", "0", "0", "0", "4", "2", "3", "7", "6", "8", "12", "10", "11", "9", "0", "5", "6"], "time": [860, 1339, 1603, 1790, 2562, 2638, 2916, 3291, 3374, 3728, 4228, 4353, 4562, 4631, 4673, 4714, 4883]}, "edge": {"target": [], "time": []}}}, "displayed_time": "10.97", "trialTime": 11385, "trial_type": "mouselab-mdp", "trial_index": 89, "time_elapsed": 1056180, "internal_node_id": "0.0-4.0-5.0-18.0"}}, {"uniqueid": "w55174110:a93262585", "current_trial": 90, "dateTime": 1664556625918, "trialdata": {"revealed_states": [], "num_clicks_accrued": [0, 0, 0, 0, 0, 0, 0, 0