{"condition": 0, "counterbalance": 0, "assignmentId": "a55204140", "workerId": "w23913068", "hitId": "h17990794", "currenttrial": 458, "bonus": 0, "data": [{"current_trial": 0, "dateTime": 1664873655281, "trialdata": {"internal_node_id": "0.0-0.0", "success": true, "time_elapsed": 53778, "trial_index": 0, "trial_type": "fullscreen"}, "uniqueid": "w23913068:a55204140"}, {"current_trial": 1, "dateTime": 1664873690996, "trialdata": {"internal_node_id": "0.0-1.0", "rt": 35709, "time_elapsed": 89494, "trial_id": "exp_instructions_distractor", "trial_index": 1, "trial_type": "instructions", "view_history": [{"page_index": 0, "viewing_time": 35708}]}, "uniqueid": "w23913068:a55204140"}, {"current_trial": 2, "dateTime": 1664873729089, "trialdata": {"internal_node_id": "0.0-2.0", "rt": 38091, "time_elapsed": 127587, "trial_id": "color_game_instructions", "trial_index": 2, "trial_type": "instructions", "view_history": [{"page_index": 0, "viewing_time": 38091}]}, "uniqueid": "w23913068:a55204140"}, {"current_trial": 3, "dateTime": 1664873736294, "trialdata": {"internal_node_id": "0.0-3.0", "response": " ", "rt": 7203, "stimulus": "<h1> Get ready to start the game! </h1>\n\nThank you for reading the instructions. Get ready start with the first of 5 block(s) of this game.\n<br><br>\nIn this first block, you will complete 90 rounds of this game before moving on.\n<br><br>\nRemember, the better you perform, the bigger your bonus will be!\n<br><br>\n<div style='text-align: center;'>Press <code>space</code> to begin.</div>", "time_elapsed": 134792, "trial_id": "stroop_1_ready_1", "trial_index": 3, "trial_type": "html-keyboard-response"}, "uniqueid": "w23913068:a55204140"}, {"current_trial": 4, "dateTime": 1664873737569, "trialdata": {"color": "blue", "correct_response": "b", "internal_node_id": "0.0-4.0-0.0", "response": "b", "rt": 1269, "stimulus": "<p id='stroop-text' class='stroop-blue'>BOAT</p>", "stimulus-type": "unrelated", "time_elapsed": 136066, "trial_id": "stroop-trial-1-unrelated-6", "trial_index": 4, "trial_type": "html-keyboard-response", "word": "BOAT"}, "uniqueid": "w23913068:a55204140"}, {"current_trial": 5, "dateTime": 1664873739761, "trialdata": {"color": "yellow", "correct_response": "y", "internal_node_id": "0.0-4.0-1.0", "response": "y", "rt": 1689, "stimulus": "<p id='stroop-text' class='stroop-yellow'>BRIDGE</p>", "stimulus-type": "unrelated", "time_elapsed": 138258, "trial_id": "stroop-trial-1-unrelated-10", "trial_index": 5, "trial_type": "html-keyboard-response", "word": "BRIDGE"}, "uniqueid": "w23913068:a55204140"}, {"current_trial": 6, "dateTime": 1664873741452, "trialdata": {"color": "blue", "correct_response": "b", "internal_node_id": "0.0-4.0-2.0", "response": "b", "rt": 1181, "stimulus": "<p id='stroop-text' class='stroop-blue'>BLUE</p>", "stimulus-type": "congruent", "time_elapsed": 139950, "trial_id": "stroop-trial-1-congruent-29", "trial_index": 6, "trial_type": "html-keyboard-response", "word": "blue"}, "uniqueid": "w23913068:a55204140"}, {"current_trial": 7, "dateTime": 1664873743181, "trialdata": {"color": "red", "correct_response": "r", "internal_node_id": "0.0-4.0-3.0", "response": "r", "rt": 1226, "stimulus": "<p id='stroop-text' class='stroop-red'>BOAT</p>", "stimulus-type": "unrelated", "time_elapsed": 141679, "trial_id": "stroop-trial-1-unrelated-8", "trial_index": 7, "trial_type": "html-keyboard-response", "word": "BOAT"}, "uniqueid": "w23913068:a55204140"}, {"current_trial": 8, "dateTime": 1664873744549, "trialdata": {"color": "green", "correct_response": "g", "internal_node_id": "0.0-4.0-4.0", "response": "g", "rt": 866, "stimulus": "<p id='stroop-text' class='stroop-green'>GREEN</p>", "stimulus-type": "congruent", "time_elapsed": 143047, "trial_id": "stroop-trial-1-congruent-10", "trial_index": 8, "trial_type": "html-keyboard-response", "word": "green"}, "uniqueid": "w23913068:a55204140"}, {"current_trial": 9, "dateTime": 1664873745911, "trialdata": {"color": "blue", "correct_response": "b", "internal_node_id": "0.0-4.0-5.0", "response": "y", "rt": 857, "stimulus": "<p id='stroop-text' class='stroop-blue'>YELLOW</p>", "stimulus-type": "incongruent", "time_elapsed": 144409, "trial_id": "stroop-trial-1-incongruent-18", "trial_index": 9, "trial_type": "html-keyboard-response", "word": "yellow"}, "uniqueid": "w23913068:a55204140"}, {"current_trial": 10, "dateTime": 1664873747738, "trialdata": {"color": "blue", "correct_response": "b", "internal_node_id": "0.0-4.0-6.0", "response": "b", "rt": 1310, "stimulus": "<p id='stroop-text' class='stroop-blue'>BLUE</p>", "stimulus-type": "congruent", "time_elapsed": 146235, "trial_id": "stroop-trial-1-congruent-26", "trial_index": 10, "trial_type": "html-keyboard-response", "word": "blue"}, "uniqueid": "w23913068:a55204140"}, {"current_trial": 11, "dateTime": 1664873749723, "trialdata": {"color": "red", "correct_response": "r", "internal_node_id": "0.0-4.0-7.0", "response": "r", "rt": 1479, "stimulus": "<p id='stroop-text' class='stroop-red'>GREEN</p>", "stimulus-type": "incongruent", "time_elapsed": 148220, "trial_id": "stroop-trial-1-incongruent-22", "trial_index": 11, "trial_type": "html-keyboard-response", "word": "green"}, "uniqueid": "w23913068:a55204140"}, {"current_trial": 12, "dateTime": 1664873751231, "trialdata": {"color": "blue", "correct_response": "b", "internal_node_id": "0.0-4.0-8.0", "response": "b", "rt": 1004, "stimulus": "<p id='stroop-text' class='stroop-blue'>STONE</p>", "stimulus-type": "unrelated", "time_elapsed": 149728, "trial_id": "stroop-trial-1-unrelated-3", "trial_index": 12, "trial_type": "html-keyboard-response", "word": "STONE"}, "uniqueid": "w23913068:a55204140"}, {"current_trial": 13, "dateTime": 1664873752753, "trialdata": {"color": "blue", "correct_response": "b", "internal_node_id": "0.0-4.0-9.0", "response": "b", "rt": 1017, "stimulus": "<p id='stroop-text' class='stroop-blue'>BLUE</p>", "stimulus-type": "congruent", "time_elapsed": 151250, "trial_id": "stroop-trial-1-congruent-16", "trial_index": 13, "trial_type": "html-keyboard-response", "word": "blue"}, "uniqueid": "w23913068:a55204140"}, {"current_trial": 14, "dateTime": 1664873754549, "trialdata": {"color": "green", "correct_response": "g", "internal_node_id": "0.0-4.0-10.0", "response": "g", "rt": 1291, "stimulus": "<p id='stroop-text' class='stroop-green'>MONKEY</p>", "stimulus-type": "unrelated", "time_elapsed": 153046, "trial_id": "stroop-trial-1-unrelated-16", "trial_index": 14, "trial_type": "html-keyboard-response", "word": "MONKEY"}, "uniqueid": "w23913068:a55204140"}, {"current_trial": 15, "dateTime": 1664873755945, "trialdata": {"color": "blue", "correct_response": "b", "internal_node_id": "0.0-4.0-11.0", "response": "b", "rt": 893, "stimulus": "<p id='stroop-text' class='stroop-blue'>SHIP</p>", "stimulus-type": "unrelated", "time_elapsed": 154443, "trial_id": "stroop-trial-1-unrelated-15", "trial_index": 15, "trial_type": "html-keyboard-response", "word": "SHIP"}, "uniqueid": "w23913068:a55204140"}, {"current_trial": 16, "dateTime": 1664873757374, "trialdata": {"color": "red", "correct_response": "r", "internal_node_id": "0.0-4.0-12.0", "response": "r", "rt": 925, "stimulus": "<p id='stroop-text' class='stroop-red'>RED</p>", "stimulus-type": "congruent", "time_elapsed": 155871, "trial_id": "stroop-trial-1-congruent-17", "trial_index": 16, "trial_type": "html-keyboard-response", "word": "red"}, "uniqueid": "w23913068:a55204140"}, {"current_trial": 17, "dateTime": 1664873758988, "trialdata": {"color": "red", "correct_response": "r", "internal_node_id": "0.0-4.0-13.0", "response": "r", "rt": 1113, "stimulus": "<p id='stroop-text' class='stroop-red'>CHAIR</p>", "stimulus-type": "unrelated", "time_elapsed": 157486, "trial_id": "stroop-trial-1-unrelated-1", "trial_index": 17, "trial_type": "html-keyboard-response", "word": "CHAIR"}, "uniqueid": "w23913068:a55204140"}, {"current_trial": 18, "dateTime": 1664873760867, "trialdata": {"color": "yellow", "correct_response": "y", "internal_node_id": "0.0-4.0-14.0", "response": "y", "rt": 1375, "stimulus": "<p id='stroop-text' class='stroop-yellow'>BLUE</p>", "stimulus-type": "incongruent", "time_elapsed": 159364, "trial_id": "stroop-trial-1-incongruent-20", "trial_index": 18, "trial_type": "html-keyboard-response", "word": "blue"}, "uniqueid": "w23913068:a55204140"}, {"current_trial": 19, "dateTime": 1664873762804, "trialdata": {"color": "red", "correct_response": "r", "internal_node_id": "0.0-4.0-15.0", "response": "r", "rt": 1433, "stimulus": "<p id='stroop-text' class='stroop-red'>YELLOW</p>", "stimulus-type": "incongruent", "time_elapsed": 161301, "trial_id": "stroop-trial-1-incongruent-14", "trial_index": 19, "trial_type": "html-keyboard-response", "word": "yellow"}, "uniqueid": "w23913068:a55204140"}, {"current_trial": 20, "dateTime": 1664873764198, "trialdata": {"color": "blue", "correct_response": "b", "internal_node_id": "0.0-4.0-16.0", "response": "b", "rt": 890, "stimulus": "<p id='stroop-text' class='stroop-blue'>RED</p>", "stimulus-type": "incongruent", "time_elapsed": 162695, "trial_id": "stroop-trial-1-incongruent-1", "trial_index": 20, "trial_type": "html-keyboard-response", "word": "red"}, "uniqueid": "w23913068:a55204140"}, {"current_trial": 21, "dateTime": 1664873765611, "trialdata": {"color": "yellow", "correct_response": "y", "internal_node_id": "0.0-4.0-17.0", "response": "y", "rt": 904, "stimulus": "<p id='stroop-text' class='stroop-yellow'>BOTTLE</p>", "stimulus-type": "unrelated", "time_elapsed": 164108, "trial_id": "stroop-trial-1-unrelated-11", "trial_index": 21, "trial_type": "html-keyboard-response", "word": "BOTTLE"}, "uniqueid": "w23913068:a55204140"}, {"current_trial": 22, "dateTime": 1664873767532, "trialdata": {"color": "blue", "correct_response": "b", "internal_node_id": "0.0-4.0-18.0", "response": "b", "rt": 1406, "stimulus": "<p id='stroop-text' class='stroop-blue'>MONKEY</p>", "stimulus-type": "unrelated", "time_elapsed": 166030, "trial_id": "stroop-trial-1-unrelated-18", "trial_index": 22, "trial_type": "html-keyboard-response", "word": "MONKEY"}, "uniqueid": "w23913068:a55204140"}, {"current_trial": 23, "dateTime": 1664873769028, "trialdata": {"color": "yellow", "correct_response": "y", "internal_node_id": "0.0-4.0-19.0", "response": "y", "rt": 994, "stimulus": "<p id='stroop-text' class='stroop-yellow'>YELLOW</p>", "stimulus-type": "congruent", "time_elapsed": 167525, "trial_id": "stroop-trial-1-congruent-3", "trial_index": 23, "trial_type": "html-keyboard-response", "word": "yellow"}, "uniqueid": "w23913068:a55204140"}, {"current_trial": 24, "dateTime": 1664873770342, "trialdata": {"color": "yellow", "correct_response": "y", "internal_node_id": "0.0-4.0-20.0", "response": "y", "rt": 810, "stimulus": "<p id='stroop-text' class='stroop-yellow'>YELLOW</p>", "stimulus-type": "congruent", "time_elapsed": 168839, "trial_id": "stroop-trial-1-congruent-4", "trial_index": 24, "trial_type": "html-keyboard-response", "word": "yellow"}, "uniqueid": "w23913068:a55204140"}, {"current_trial": 25, "dateTime": 1664873771842, "trialdata": {"color": "yellow", "correct_response": "y", "internal_node_id": "0.0-4.0-21.0", "response": "r", "rt": 996, "stimulus": "<p id='stroop-text' class='stroop-yellow'>RED</p>", "stimulus-type": "incongruent", "time_elapsed": 170339, "trial_id": "stroop-trial-1-incongruent-21", "trial_index": 25, "trial_type": "html-keyboard-response", "word": "red"}, "uniqueid": "w23913068:a55204140"}, {"current_trial": 26, "dateTime": 1664873774126, "trialdata": {"color": "blue", "correct_response": "b", "internal_node_id": "0.0-4.0-22.0", "response": "b", "rt": 1779, "stimulus": "<p id='stroop-text' class='stroop-blue'>BLUE</p>", "stimulus-type": "congruent", "time_elapsed": 172624, "trial_id": "stroop-trial-1-congruent-11", "trial_index": 26, "trial_type": "html-keyboard-response", "word": "blue"}, "uniqueid": "w23913068:a55204140"}, {"current_trial": 27, "dateTime": 1664873775598, "trialdata": {"color": "yellow", "correct_response": "y", "internal_node_id": "0.0-4.0-23.0", "response": "y", "rt": 967, "stimulus": "<p id='stroop-text' class='stroop-yellow'>YELLOW</p>", "stimulus-type": "congruent", "time_elapsed": 174096, "trial_id": "stroop-trial-1-congruent-18", "trial_index": 27, "trial_type": "html-keyboard-response", "word": "yellow"}, "uniqueid": "w23913068:a55204140"}, {"current_trial": 28, "dateTime": 1664873777282, "trialdata": {"color": "blue", "correct_response": "b", "internal_node_id": "0.0-4.0-24.0", "response": "b", "rt": 1182, "stimulus": "<p id='stroop-text' class='stroop-blue'>FORK</p>", "stimulus-type": "unrelated", "time_elapsed": 175780, "trial_id": "stroop-trial-1-unrelated-7", "trial_index": 28, "trial_type": "html-keyboard-response", "word": "FORK"}, "uniqueid": "w23913068:a55204140"}, {"current_trial": 29, "dateTime": 1664873778681, "trialdata": {"color": "yellow", "correct_response": "y", "internal_node_id": "0.0-4.0-25.0", "response": "y", "rt": 896, "stimulus": "<p id='stroop-text' class='stroop-yellow'>MONKEY</p>", "stimulus-type": "unrelated", "time_elapsed": 177179, "trial_id": "stroop-trial-1-unrelated-30", "trial_index": 29, "trial_type": "html-keyboard-response", "word": "MONKEY"}, "uniqueid": "w23913068:a55204140"}, {"current_trial": 30, "dateTime": 1664873780244, "trialdata": {"color": "green", "correct_response": "g", "internal_node_id": "0.0-4.0-26.0", "response": "g", "rt": 1056, "stimulus": "<p id='stroop-text' class='stroop-green'>GREEN</p>", "stimulus-type": "congruent", "time_elapsed": 178742, "trial_id": "stroop-trial-1-congruent-24", "trial_index": 30, "trial_type": "html-keyboard-response", "word": "green"}, "uniqueid": "w23913068:a55204140"}, {"current_trial": 31, "dateTime": 1664873781832, "trialdata": {"color": "yellow", "correct_response": "y", "internal_node_id": "0.0-4.0-27.0", "response": "y", "rt": 1085, "stimulus": "<p id='stroop-text' class='stroop-yellow'>BLUE</p>", "stimulus-type": "incongruent", "time_elapsed": 180329, "trial_id": "stroop-trial-1-incongruent-8", "trial_index": 31, "trial_type": "html-keyboard-response", "word": "blue"}, "uniqueid": "w23913068:a55204140"}, {"current_trial": 32, "dateTime": 1664873783778, "trialdata": {"color": "green", "correct_response": "g", "internal_node_id": "0.0-4.0-28.0", "response": "g", "rt": 1443, "stimulus": "<p id='stroop-text' class='stroop-green'>GREEN</p>", "stimulus-type": "congruent", "time_elapsed": 182276, "trial_id": "stroop-trial-1-congruent-13", "trial_index": 32, "trial_type": "html-keyboard-response", "word": "green"}, "uniqueid": "w23913068:a55204140"}, {"current_trial": 33, "dateTime": 1664873785074, "trialdata": {"color": "yellow", "correct_response": "y", "internal_node_id": "0.0-4.0-29.0", "response": "y", "rt": 793, "stimulus": "<p id='stroop-text' class='stroop-yellow'>WINDOW</p>", "stimulus-type": "unrelated", "time_elapsed": 183572, "trial_id": "stroop-trial-1-unrelated-21", "trial_index": 33, "trial_type": "html-keyboard-response", "word": "WINDOW"}, "uniqueid": "w23913068:a55204140"}, {"current_trial": 34, "dateTime": 1664873787395, "trialdata": {"color": "red", "correct_response": "r", "internal_node_id": "0.0-4.0-30.0", "response": "r", "rt": 1819, "stimulus": "<p id='stroop-text' class='stroop-red'>GREEN</p>", "stimulus-type": "incongruent", "time_elapsed": 185893, "trial_id": "stroop-trial-1-incongruent-13", "trial_index": 34, "trial_type": "html-keyboard-response", "word": "green"}, "uniqueid": "w23913068:a55204140"}, {"current_trial": 35, "dateTime": 1664873788661, "trialdata": {"color": "red", "correct_response": "r", "internal_node_id": "0.0-4.0-31.0", "response": "r", "rt": 764, "stimulus": "<p id='stroop-text' class='stroop-red'>BOAT</p>", "stimulus-type": "unrelated", "time_elapsed": 187158, "trial_id": "stroop-trial-1-unrelated-9", "trial_index": 35, "trial_type": "html-keyboard-response", "word": "BOAT"}, "uniqueid": "w23913068:a55204140"}, {"current_trial": 36, "dateTime": 1664873790430, "trialdata": {"color": "green", "correct_response": "g", "internal_node_id": "0.0-4.0-32.0", "response": "g", "rt": 1254, "stimulus": "<p id='stroop-text' class='stroop-green'>MONKEY</p>", "stimulus-type": "unrelated", "time_elapsed": 188927, "trial_id": "stroop-trial-1-unrelated-20", "trial_index": 36, "trial_type": "html-keyboard-response", "word": "MONKEY"}, "uniqueid": "w23913068:a55204140"}, {"current_trial": 37, "dateTime": 1664873792441, "trialdata": {"color": "green", "correct_response": "g", "internal_node_id": "0.0-4.0-33.0", "response": "g", "rt": 1493, "stimulus": "<p id='stroop-text' class='stroop-green'>GREEN</p>", "stimulus-type": "congruent", "time_elapsed": 190937, "trial_id": "stroop-trial-1-congruent-21", "trial_index": 37, "trial_type": "html-keyboard-response", "word": "green"}, "uniqueid": "w23913068:a55204140"}, {"current_trial": 38, "dateTime": 1664873794043, "trialdata": {"color": "blue", "correct_response": "b", "internal_node_id": "0.0-4.0-34.0", "response": "b", "rt": 1099, "stimulus": "<p id='stroop-text' class='stroop-blue'>BLUE</p>", "stimulus-type": "congruent", "time_elapsed": 192541, "trial_id": "stroop-trial-1-congruent-23", "trial_index": 38, "trial_type": "html-keyboard-response", "word": "blue"}, "uniqueid": "w23913068:a55204140"}, {"current_trial": 39, "dateTime": 1664873795735, "trialdata": {"color": "red", "correct_response": "r", "internal_node_id": "0.0-4.0-35.0", "response": "r", "rt": 1189, "stimulus": "<p id='stroop-text' class='stroop-red'>RED</p>", "stimulus-type": "congruent", "time_elapsed": 194232, "trial_id": "stroop-trial-1-congruent-2", "trial_index": 39, "trial_type": "html-keyboard-response", "word": "red"}, "uniqueid": "w23913068:a55204140"}, {"current_trial": 40, "dateTime": 1664873797264, "trialdata": {"color": "yellow", "correct_response": "y", "internal_node_id": "0.0-4.0-36.0", "response": "y", "rt": 1026, "stimulus": "<p id='stroop-text' class='stroop-yellow'>YELLOW</p>", "stimulus-type": "congruent", "time_elapsed": 195762, "trial_id": "stroop-trial-1-congruent-8", "trial_index": 40, "trial_type": "html-keyboard-response", "word": "yellow"}, "uniqueid": "w23913068:a55204140"}, {"current_trial": 41, "dateTime": 1664873798580, "trialdata": {"color": "red", "correct_response": "r", "internal_node_id": "0.0-4.0-37.0", "response": "r", "rt": 813, "stimulus": "<p id='stroop-text' class='stroop-red'>WINDOW</p>", "stimulus-type": "unrelated", "time_elapsed": 197077, "trial_id": "stroop-trial-1-unrelated-28", "trial_index": 41, "trial_type": "html-keyboard-response", "word": "WINDOW"}, "uniqueid": "w23913068:a55204140"}, {"current_trial": 42, "dateTime": 1664873800122, "trialdata": {"color": "blue", "correct_response": "b", "internal_node_id": "0.0-4.0-38.0", "response": "b", "rt": 1037, "stimulus": "<p id='stroop-text' class='stroop-blue'>STONE</p>", "stimulus-type": "unrelated", "time_elapsed": 198620, "trial_id": "stroop-trial-1-unrelated-22", "trial_index": 42, "trial_type": "html-keyboard-response", "word": "STONE"}, "uniqueid": "w23913068:a55204140"}, {"current_trial": 43, "dateTime": 1664873801455, "trialdata": {"color": "red", "correct_response": "r", "internal_node_id": "0.0-4.0-39.0", "response": "r", "rt": 830, "stimulus": "<p id='stroop-text' class='stroop-red'>RED</p>", "stimulus-type": "congruent", "time_elapsed": 199952, "trial_id": "stroop-trial-1-congruent-7", "trial_index": 43, "trial_type": "html-keyboard-response", "word": "red"}, "uniqueid": "w23913068:a55204140"}, {"current_trial": 44, "dateTime": 1664873803005, "trialdata": {"color": "red", "correct_response": "r", "internal_node_id": "0.0-4.0-40.0", "response": "r", "rt": 1042, "stimulus": "<p id='stroop-text' class='stroop-red'>BLUE</p>", "stimulus-type": "incongruent", "time_elapsed": 201502, "trial_id": "stroop-trial-1-incongruent-7", "trial_index": 44, "trial_type": "html-keyboard-response", "word": "blue"}, "uniqueid": "w23913068:a55204140"}, {"current_trial": 45, "dateTime": 1664873804906, "trialdata": {"color": "blue", "correct_response": "b", "internal_node_id": "0.0-4.0-41.0", "response": "b", "rt": 1396, "stimulus": "<p id='stroop-text' class='stroop-blue'>GREEN</p>", "stimulus-type": "incongruent", "time_elapsed": 203404, "trial_id": "stroop-trial-1-incongruent-5", "trial_index": 45, "trial_type": "html-keyboard-response", "word": "green"}, "uniqueid": "w23913068:a55204140"}, {"current_trial": 46, "dateTime": 1664873806703, "trialdata": {"color": "blue", "correct_response": "b", "internal_node_id": "0.0-4.0-42.0", "response": "b", "rt": 1293, "stimulus": "<p id='stroop-text' class='stroop-blue'>GREEN</p>", "stimulus-type": "incongruent", "time_elapsed": 205200, "trial_id": "stroop-trial-1-incongruent-26", "trial_index": 46, "trial_type": "html-keyboard-response", "word": "green"}, "uniqueid": "w23913068:a55204140"}, {"current_trial": 47, "dateTime": 1664873808429, "trialdata": {"color": "red", "correct_response": "r", "internal_node_id": "0.0-4.0-43.0", "response": "r", "rt": 1223, "stimulus": "<p id='stroop-text' class='stroop-red'>STONE</p>", "stimulus-type": "unrelated", "time_elapsed": 206927, "trial_id": "stroop-trial-1-unrelated-2", "trial_index": 47, "trial_type": "html-keyboard-response", "word": "STONE"}, "uniqueid": "w23913068:a55204140"}, {"current_trial": 48, "dateTime": 1664873810322, "trialdata": {"color": "green", "correct_response": "g", "internal_node_id": "0.0-4.0-44.0", "response": "g", "rt": 1391, "stimulus": "<p id='stroop-text' class='stroop-green'>BLUE</p>", "stimulus-type": "incongruent", "time_elapsed": 208819, "trial_id": "stroop-trial-1-incongruent-17", "trial_index": 48, "trial_type": "html-keyboard-response", "word": "blue"}, "uniqueid": "w23913068:a55204140"}, {"current_trial": 49, "dateTime": 1664873811784, "trialdata": {"color": "yellow", "correct_response": "y", "internal_node_id": "0.0-4.0-45.0", "response": "y", "rt": 959, "stimulus": "<p id='stroop-text' class='stroop-yellow'>CHAIR</p>", "stimulus-type": "unrelated", "time_elapsed": 210281, "trial_id": "stroop-trial-1-unrelated-25", "trial_index": 49, "trial_type": "html-keyboard-response", "word": "CHAIR"}, "uniqueid": "w23913068:a55204140"}, {"current_trial": 50, "dateTime": 1664873813503, "trialdata": {"color": "green", "correct_response": "g", "internal_node_id": "0.0-4.0-46.0", "response": "g", "rt": 1215, "stimulus": "<p id='stroop-text' class='stroop-green'>YELLOW</p>", "stimulus-type": "incongruent", "time_elapsed": 212001, "trial_id": "stroop-trial-1-incongruent-30", "trial_index": 50, "trial_type": "html-keyboard-response", "word": "yellow"}, "uniqueid": "w23913068:a55204140"}, {"current_trial": 51, "dateTime": 1664873815192, "trialdata": {"color": "yellow", "correct_response": "y", "internal_node_id": "0.0-4.0-47.0", "response": "y", "rt": 1182, "stimulus": "<p id='stroop-text' class='stroop-yellow'>YELLOW</p>", "stimulus-type": "congruent", "time_elapsed": 213689, "trial_id": "stroop-trial-1-congruent-19", "trial_index": 51, "trial_type": "html-keyboard-response", "word": "yellow"}, "uniqueid": "w23913068:a55204140"}, {"current_trial": 52, "dateTime": 1664873816876, "trialdata": {"color": "red", "correct_response": "r", "internal_node_id": "0.0-4.0-48.0", "response": "r", "rt": 1179, "stimulus": "<p id='stroop-text' class='stroop-red'>RED</p>", "stimulus-type": "congruent", "time_elapsed": 215374, "trial_id": "stroop-trial-1-congruent-15", "trial_index": 52, "trial_type": "html-keyboard-response", "word": "red"}, "uniqueid": "w23913068:a55204140"}, {"current_trial": 53, "dateTime": 1664873818741, "trialdata": {"color": "yellow", "correct_response": "y", "internal_node_id": "0.0-4.0-49.0", "response": "y", "rt": 1362, "stimulus": "<p id='stroop-text' class='stroop-yellow'>BLUE</p>", "stimulus-type": "incongruent", "time_elapsed": 217239, "trial_id": "stroop-trial-1-incongruent-19", "trial_index": 53, "trial_type": "html-keyboard-response", "word": "blue"}, "uniqueid": "w23913068:a55204140"}, {"current_trial": 54, "dateTime": 1664873820553, "trialdata": {"color": "green", "correct_response": "g", "internal_node_id": "0.0-4.0-50.0", "response": "g", "rt": 1309, "stimulus": "<p id='stroop-text' class='stroop-green'>RED</p>", "stimulus-type": "incongruent", "time_elapsed": 219051, "trial_id": "stroop-trial-1-incongruent-15", "trial_index": 54, "trial_type": "html-keyboard-response", "word": "red"}, "uniqueid": "w23913068:a55204140"}, {"current_trial": 55, "dateTime": 1664873821892, "trialdata": {"color": "red", "correct_response": "r", "internal_node_id": "0.0-4.0-51.0", "response": "r", "rt": 838, "stimulus": "<p id='stroop-text' class='stroop-red'>BOTTLE</p>", "stimulus-type": "unrelated", "time_elapsed": 220390, "trial_id": "stroop-trial-1-unrelated-14", "trial_index": 55, "trial_type": "html-keyboard-response", "word": "BOTTLE"}, "uniqueid": "w23913068:a55204140"}, {"current_trial": 56, "dateTime": 1664873824449, "trialdata": {"color": "green", "correct_response": "g", "internal_node_id": "0.0-4.0-52.0", "response": "g", "rt": 2054, "stimulus": "<p id='stroop-text' class='stroop-green'>RED</p>", "stimulus-type": "incongruent", "time_elapsed": 222946, "trial_id": "stroop-trial-1-incongruent-12", "trial_index": 56, "trial_type": "html-keyboard-response", "word": "red"}, "uniqueid": "w23913068:a55204140"}, {"current_trial": 57, "dateTime": 1664873825628, "trialdata": {"color": "green", "correct_response": "g", "internal_node_id": "0.0-4.0-53.0", "response": "g", "rt": 676, "stimulus": "<p id='stroop-text' class='stroop-green'>WINDOW</p>", "stimulus-type": "unrelated", "time_elapsed": 224125, "trial_id": "stroop-trial-1-unrelated-13", "trial_index": 57, "trial_type": "html-keyboard-response", "word": "WINDOW"}, "uniqueid": "w23913068:a55204140"}, {"current_trial": 58, "dateTime": 1664873827074, "trialdata": {"color": "blue", "correct_response": "b", "internal_node_id": "0.0-4.0-54.0", "response": "b", "rt": 941, "stimulus": "<p id='stroop-text' class='stroop-blue'>BLUE</p>", "stimulus-type": "congruent", "time_elapsed": 225571, "trial_id": "stroop-trial-1-congruent-5", "trial_index": 58, "trial_type": "html-keyboard-response", "word": "blue"}, "uniqueid": "w23913068:a55204140"}, {"current_trial": 59, "dateTime": 1664873828442, "trialdata": {"color": "yellow", "correct_response": "y", "internal_node_id": "0.0-4.0-55.0", "response": "b", "rt": 866, "stimulus": "<p id='stroop-text' class='stroop-yellow'>BLUE</p>", "stimulus-type": "incongruent", "time_elapsed": 226940, "trial_id": "stroop-trial-1-incongruent-16", "trial_index": 59, "trial_type": "html-keyboard-response", "word": "blue"}, "uniqueid": "w23913068:a55204140"}, {"current_trial": 60, "dateTime": 1664873830153, "trialdata": {"color": "blue", "correct_response": "b", "internal_node_id": "0.0-4.0-56.0", "response": "b", "rt": 1208, "stimulus": "<p id='stroop-text' class='stroop-blue'>YELLOW</p>", "stimulus-type": "incongruent", "time_elapsed": 228651, "trial_id": "stroop-trial-1-incongruent-27", "trial_index": 60, "trial_type": "html-keyboard-response", "word": "yellow"}, "uniqueid": "w23913068:a55204140"}, {"current_trial": 61, "dateTime": 1664873831738, "trialdata": {"color": "green", "correct_response": "g", "internal_node_id": "0.0-4.0-57.0", "response": "g", "rt": 1081, "stimulus": "<p id='stroop-text' class='stroop-green'>GREEN</p>", "stimulus-type": "congruent", "time_elapsed": 230235, "trial_id": "stroop-trial-1-congruent-20", "trial_index": 61, "trial_type": "html-keyboard-response", "word": "green"}, "uniqueid": "w23913068:a55204140"}, {"current_trial": 62, "dateTime": 1664873832948, "trialdata": {"color": "yellow", "correct_response": "y", "internal_node_id": "0.0-4.0-58.0", "response": "y", "rt": 704, "stimulus": "<p id='stroop-text' class='stroop-yellow'>SHIP</p>", "stimulus-type": "unrelated", "time_elapsed": 231445, "trial_id": "stroop-trial-1-unrelated-29", "trial_index": 62, "trial_type": "html-keyboard-response", "word": "SHIP"}, "uniqueid": "w23913068:a55204140"}, {"current_trial": 63, "dateTime": 1664873834255, "trialdata": {"color": "red", "correct_response": "r", "internal_node_id": "0.0-4.0-59.0", "response": "r", "rt": 802, "stimulus": "<p id='stroop-text' class='stroop-red'>STONE</p>", "stimulus-type": "unrelated", "time_elapsed": 232753, "trial_id": "stroop-trial-1-unrelated-19", "trial_index": 63, "trial_type": "html-keyboard-response", "word": "STONE"}, "uniqueid": "w23913068:a55204140"}, {"current_trial": 64, "dateTime": 1664873835563, "trialdata": {"color": "yellow", "correct_response": "y", "internal_node_id": "0.0-4.0-60.0", "response": "y", "rt": 803, "stimulus": "<p id='stroop-text' class='stroop-yellow'>YELLOW</p>", "stimulus-type": "congruent", "time_elapsed": 234060, "trial_id": "stroop-trial-1-congruent-25", "trial_index": 64, "trial_type": "html-keyboard-response", "word": "yellow"}, "uniqueid": "w23913068:a55204140"}, {"current_trial": 65, "dateTime": 1664873837919, "trialdata": {"color": "green", "correct_response": "g", "internal_node_id": "0.0-4.0-61.0", "response": "g", "rt": 1853, "stimulus": "<p id='stroop-text' class='stroop-green'>BLUE</p>", "stimulus-type": "incongruent", "time_elapsed": 236417, "trial_id": "stroop-trial-1-incongruent-11", "trial_index": 65, "trial_type": "html-keyboard-response", "word": "blue"}, "uniqueid": "w23913068:a55204140"}, {"current_trial": 66, "dateTime": 1664873839439, "trialdata": {"color": "blue", "correct_response": "b", "internal_node_id": "0.0-4.0-62.0", "response": "b", "rt": 1016, "stimulus": "<p id='stroop-text' class='stroop-blue'>BLUE</p>", "stimulus-type": "congruent", "time_elapsed": 237937, "trial_id": "stroop-trial-1-congruent-1", "trial_index": 66, "trial_type": "html-keyboard-response", "word": "blue"}, "uniqueid": "w23913068:a55204140"}, {"current_trial": 67, "dateTime": 1664873841535, "trialdata": {"color": "green", "correct_response": "g", "internal_node_id": "0.0-4.0-63.0", "response": "g", "rt": 1591, "stimulus": "<p id='stroop-text' class='stroop-green'>RED</p>", "stimulus-type": "incongruent", "time_elapsed": 240033, "trial_id": "stroop-trial-1-incongruent-25", "trial_index": 67, "trial_type": "html-keyboard-response", "word": "red"}, "uniqueid": "w23913068:a55204140"}, {"current_trial": 68, "dateTime": 1664873844063, "trialdata": {"color": "blue", "correct_response": "b", "internal_node_id": "0.0-4.0-64.0", "response": "b", "rt": 2025, "stimulus": "<p id='stroop-text' class='stroop-blue'>BRAIN</p>", "stimulus-type": "unrelated", "time_elapsed": 242560, "trial_id": "stroop-trial-1-unrelated-5", "trial_index": 68, "trial_type": "html-keyboard-response", "word": "BRAIN"}, "uniqueid": "w23913068:a55204140"}, {"current_trial": 69, "dateTime": 1664873845635, "trialdata": {"color": "green", "correct_response": "g", "internal_node_id": "0.0-4.0-65.0", "response": "g", "rt": 1069, "stimulus": "<p id='stroop-text' class='stroop-green'>STONE</p>", "stimulus-type": "unrelated", "time_elapsed": 244132, "trial_id": "stroop-trial-1-unrelated-17", "trial_index": 69, "trial_type": "html-keyboard-response", "word": "STONE"}, "uniqueid": "w23913068:a55204140"}, {"current_trial": 70, "dateTime": 1664873847512, "trialdata": {"color": "red", "correct_response": "r", "internal_node_id": "0.0-4.0-66.0", "response": "r", "rt": 1375, "stimulus": "<p id='stroop-text' class='stroop-red'>RED</p>", "stimulus-type": "congruent", "time_elapsed": 246010, "trial_id": "stroop-trial-1-congruent-9", "trial_index": 70, "trial_type": "html-keyboard-response", "word": "red"}, "uniqueid": "w23913068:a55204140"}, {"current_trial": 71, "dateTime": 1664873849833, "trialdata": {"color": "blue", "correct_response": "b", "internal_node_id": "0.0-4.0-67.0", "response": "b", "rt": 1819, "stimulus": "<p id='stroop-text' class='stroop-blue'>BLUE</p>", "stimulus-type": "congruent", "time_elapsed": 248331, "trial_id": "stroop-trial-1-congruent-27", "trial_index": 71, "trial_type": "html-keyboard-response", "word": "blue"}, "uniqueid": "w23913068:a55204140"}, {"current_trial": 72, "dateTime": 1664873851198, "trialdata": {"color": "red", "correct_response": "r", "internal_node_id": "0.0-4.0-68.0", "response": "r", "rt": 863, "stimulus": "<p id='stroop-text' class='stroop-red'>BOTTLE</p>", "stimulus-type": "unrelated", "time_elapsed": 249696, "trial_id": "stroop-trial-1-unrelated-24", "trial_index": 72, "trial_type": "html-keyboard-response", "word": "BOTTLE"}, "uniqueid": "w23913068:a55204140"}, {"current_trial": 73, "dateTime": 1664873852917, "trialdata": {"color": "yellow", "correct_response": "y", "internal_node_id": "0.0-4.0-69.0", "response": "y", "rt": 1217, "stimulus": "<p id='stroop-text' class='stroop-yellow'>RED</p>", "stimulus-type": "incongruent", "time_elapsed": 251415, "trial_id": "stroop-trial-1-incongruent-29", "trial_index": 73, "trial_type": "html-keyboard-response", "word": "red"}, "uniqueid": "w23913068:a55204140"}, {"current_trial": 74, "dateTime": 1664873854653, "trialdata": {"color": "green", "correct_response": "g", "internal_node_id": "0.0-4.0-70.0", "response": "g", "rt": 1232, "stimulus": "<p id='stroop-text' class='stroop-green'>STONE</p>", "stimulus-type": "unrelated", "time_elapsed": 253150, "trial_id": "stroop-trial-1-unrelated-12", "trial_index": 74, "trial_type": "html-keyboard-response", "word": "STONE"}, "uniqueid": "w23913068:a55204140"}, {"current_trial": 75, "dateTime": 1664873856055, "trialdata": {"color": "green", "correct_response": "g", "internal_node_id": "0.0-4.0-71.0", "response": "g", "rt": 900, "stimulus": "<p id='stroop-text' class='stroop-green'>BLUE</p>", "stimulus-type": "incongruent", "time_elapsed": 254553, "trial_id": "stroop-trial-1-incongruent-3", "trial_index": 75, "trial_type": "html-keyboard-response", "word": "blue"}, "uniqueid": "w23913068:a55204140"}, {"current_trial": 76, "dateTime": 1664873857563, "trialdata": {"color": "red", "correct_response": "r", "internal_node_id": "0.0-4.0-72.0", "response": "r", "rt": 1005, "stimulus": "<p id='stroop-text' class='stroop-red'>BLUE</p>", "stimulus-type": "incongruent", "time_elapsed": 256060, "trial_id": "stroop-trial-1-incongruent-28", "trial_index": 76, "trial_type": "html-keyboard-response", "word": "blue"}, "uniqueid": "w23913068:a55204140"}, {"current_trial": 77, "dateTime": 1664873858745, "trialdata": {"color": "red", "correct_response": "r", "internal_node_id": "0.0-4.0-73.0", "response": "r", "rt": 680, "stimulus": "<p id='stroop-text' class='stroop-red'>GREEN</p>", "stimulus-type": "incongruent", "time_elapsed": 257242, "trial_id": "stroop-trial-1-incongruent-24", "trial_index": 77, "trial_type": "html-keyboard-response", "word": "green"}, "uniqueid": "w23913068:a55204140"}, {"current_trial": 78, "dateTime": 1664873860334, "trialdata": {"color": "yellow", "correct_response": "y", "internal_node_id": "0.0-4.0-74.0", "response": "y", "rt": 1085, "stimulus": "<p id='stroop-text' class='stroop-yellow'>BLUE</p>", "stimulus-type": "incongruent", "time_elapsed": 258832, "trial_id": "stroop-trial-1-incongruent-6", "trial_index": 78, "trial_type": "html-keyboard-response", "word": "blue"}, "uniqueid": "w23913068:a55204140"}, {"current_trial": 79, "dateTime": 1664873863470, "trialdata": {"color": "blue", "correct_response": "b", "internal_node_id": "0.0-4.0-75.0", "response": "b", "rt": 2633, "stimulus": "<p id='stroop-text' class='stroop-blue'>RED</p>", "stimulus-type": "incongruent", "time_elapsed": 261968, "trial_id": "stroop-trial-1-incongruent-2", "trial_index": 79, "trial_type": "html-keyboard-response", "word": "red"}, "uniqueid": "w23913068:a55204140"}, {"current_trial": 80, "dateTime": 1664873865417, "trialdata": {"color": "yellow", "correct_response": "y", "internal_node_id": "0.0-4.0-76.0", "response": "y", "rt": 1436, "stimulus": "<p id='stroop-text' class='stroop-yellow'>YELLOW</p>", "stimulus-type": "congruent", "time_elapsed": 263915, "trial_id": "stroop-trial-1-congruent-30", "trial_index": 80, "trial_type": "html-keyboard-response", "word": "yellow"}, "uniqueid": "w23913068:a55204140"}, {"current_trial": 81, "dateTime": 1664873866474, "trialdata": {"color": "yellow", "correct_response": "y", "internal_node_id": "0.0-4.0-77.0", "response": "y", "rt": 550, "stimulus": "<p id='stroop-text' class='stroop-yellow'>BOAT</p>", "stimulus-type": "unrelated", "time_elapsed": 264971, "trial_id": "stroop-trial-1-unrelated-4", "trial_index": 81, "trial_type": "html-keyboard-response", "word": "BOAT"}, "uniqueid": "w23913068:a55204140"}, {"current_trial": 82, "dateTime": 1664873867394, "trialdata": {"color": "yellow", "correct_response": "y", "internal_node_id": "0.0-4.0-78.0", "response": "y", "rt": 418, "stimulus": "<p id='stroop-text' class='stroop-yellow'>YELLOW</p>", "stimulus-type": "congruent", "time_elapsed": 265892, "trial_id": "stroop-trial-1-congruent-12", "trial_index": 82, "trial_type": "html-keyboard-response", "word": "yellow"}, "uniqueid": "w23913068:a55204140"}, {"current_trial": 83, "dateTime": 1664873868698, "trialdata": {"color": "blue", "correct_response": "b", "internal_node_id": "0.0-4.0-79.0", "response": "b", "rt": 799, "stimulus": "<p id='stroop-text' class='stroop-blue'>YELLOW</p>", "stimulus-type": "incongruent", "time_elapsed": 267196, "trial_id": "stroop-trial-1-incongruent-10", "trial_index": 83, "trial_type": "html-keyboard-response", "word": "yellow"}, "uniqueid": "w23913068:a55204140"}, {"current_trial": 84, "dateTime": 1664873870585, "trialdata": {"color": "red", "correct_response": "r", "internal_node_id": "0.0-4.0-80.0", "response": "r", "rt": 1384, "stimulus": "<p id='stroop-text' class='stroop-red'>WINDOW</p>", "stimulus-type": "unrelated", "time_elapsed": 269083, "trial_id": "stroop-trial-1-unrelated-26", "trial_index": 84, "trial_type": "html-keyboard-response", "word": "WINDOW"}, "uniqueid": "w23913068:a55204140"}, {"current_trial": 85, "dateTime": 1664873871708, "trialdata": {"color": "yellow", "correct_response": "y", "internal_node_id": "0.0-4.0-81.0", "response": "y", "rt": 618, "stimulus": "<p id='stroop-text' class='stroop-yellow'>YELLOW</p>", "stimulus-type": "congruent", "time_elapsed": 270205, "trial_id": "stroop-trial-1-congruent-28", "trial_index": 85, "trial_type": "html-keyboard-response", "word": "yellow"}, "uniqueid": "w23913068:a55204140"}, {"current_trial": 86, "dateTime": 1664873872705, "trialdata": {"color": "yellow", "correct_response": "y", "internal_node_id": "0.0-4.0-82.0", "response": "y", "rt": 493, "stimulus": "<p id='stroop-text' class='stroop-yellow'>YELLOW</p>", "stimulus-type": "congruent", "time_elapsed": 271202, "trial_id": "stroop-trial-1-congruent-6", "trial_index": 86, "trial_type": "html-keyboard-response", "word": "yellow"}, "uniqueid": "w23913068:a55204140"}, {"current_trial": 87, "dateTime": 1664873874074, "trialdata": {"color": "green", "correct_response": "g", "internal_node_id": "0.0-4.0-83.0", "response": "g", "rt": 863, "stimulus": "<p id='stroop-text' class='stroop-green'>RED</p>", "stimulus-type": "incongruent", "time_elapsed": 272571, "trial_id": "stroop-trial-1-incongruent-9", "trial_index": 87, "trial_type": "html-keyboard-response", "word": "red"}, "uniqueid": "w23913068:a55204140"}, {"current_trial": 88, "dateTime": 1664873875561, "trialdata": {"color": "red", "correct_response": "r", "internal_node_id": "0.0-4.0-84.0", "response": "r", "rt": 982, "stimulus": "<p id='stroop-text' class='stroop-red'>RED</p>", "stimulus-type": "congruent", "time_elapsed": 274059, "trial_id": "stroop-trial-1-congruent-14", "trial_index": 88, "trial_type": "html-keyboard-response", "word": "red"}, "uniqueid": "w23913068:a55204140"}, {"current_trial": 89, "dateTime": 1664873878167, "trialdata": {"color": "blue", "correct_response": "b", "internal_node_id": "0.0-4.0-85.0", "response": "b", "rt": 2103, "stimulus": "<p id='stroop-text' class='stroop-blue'>RED</p>", "stimulus-type": "incongruent", "time_elapsed": 276664, "trial_id": "stroop-trial-1-incongruent-4", "trial_index": 89, "trial_type": "html-keyboard-response", "word": "red"}, "uniqueid": "w23913068:a55204140"}, {"current_trial": 90, "dateTime": 1664873879576, "trialdata": {"color": "red", "correct_response": "r", "internal_node_id": "0.0-4.0-86.0", "response": "r", "rt": 906, "stimulus": "<p id='stroop-text' class='stroop-red'>CHAIR</p>", "stimulus-type": "unrelated", "time_elapsed": 278074, "trial_id": "stroop-trial-1-unrelated-23", "trial_index": 90, "trial_type": "html-keyboard-response", "word": "CHAIR"}, "uniqueid": "w23913068:a55204140"}, {"current_trial": 91, "dateTime": 1664873887100, "trialdata": {"color": "blue", "correct_response": "b", "internal_node_id": "0.0-4.0-87.0", "response": "b", "rt": 7021, "stimulus": "<p id='stroop-text' class='stroop-blue'>WINDOW</p>", "stimulus-type": "unrelated", "time_elapsed": 285598, "trial_id": "stroop-trial-1-unrelated-27", "trial_index": 91, "trial_type": "html-keyboard-response", "word": "WINDOW"}, "uniqueid": "w23913068:a55204140"}, {"current_trial": 92, "dateTime": 1664873888280, "trialdata": {"color": "yellow", "correct_response": "y", "internal_node_id": "0.0-4.0-88.0", "response": "y", "rt": 675, "stimulus": "<p id='stroop-text' class='stroop-yellow'>YELLOW</p>", "stimulus-type": "congruent", "time_elapsed": 286778, "trial_id": "stroop-trial-1-congruent-22", "trial_index": 92, "trial_type": "html-keyboard-response", "word": "yellow"}, "uniqueid": "w23913068:a55204140"}, {"current_trial": 93, "dateTime": 1664873889626, "trialdata": {"color": "green", "correct_response": "g", "internal_node_id": "0.0-4.0-89.0", "response": "g", "rt": 843, "stimulus": "<p id='stroop-text' class='stroop-green'>YELLOW</p>", "stimulus-type": "incongruent", "time_elapsed": 288123, "trial_id": "stroop-trial-1-incongruent-23", "trial_index": 93, "trial_type": "html-keyboard-response", "word": "yellow"}, "uniqueid": "w23913068:a55204140"}, {"current_trial": 94, "dateTime": 1664873920410, "trialdata": {"internal_node_id": "0.0-5.0", "response": " ", "rt": 30281, "stimulus": "  <h1> End of block! </h1>\n\n  You have reached the end of the block 1/5. If you need a short break, feel free to take one now before moving on.\n\n  <br><br>\n  In the next block, you will complete another 90 rounds of this game.\n\n  <br><br>\n  <div style='text-align: center;'>Press <code>space</code> to begin.</div>\n  <br><br>\n<div style='text-align: center;'>(If the experiment doesn't continue, try clicking on the text and then pressing <code>space</code>.)</div>", "time_elapsed": 318908, "trial_id": "stroop_1_ready_2", "trial_index": 94, "trial_type": "html-keyboard-response"}, "uniqueid": "w23913068:a55204140"}, {"current_trial": 95, "dateTime": 1664873921742, "trialdata": {"color": "yellow", "correct_response": "y", "internal_node_id": "0.0-6.0-0.0", "response": "y", "rt": 1326, "stimulus": "<p id='stroop-text' class='stroop-yellow'>BRIDGE</p>", "stimulus-type": "unrelated", "time_elapsed": 320240, "trial_id": "stroop-trial-1-unrelated-1", "trial_index": 95, "trial_type": "html-keyboard-response", "word": "BRIDGE"}, "uniqueid": "w23913068:a55204140"}, {"current_trial": 96, "dateTime": 1664873922961, "trialdata": {"color": "yellow", "correct_response": "y", "internal_node_id": "0.0-6.0-1.0", "response": "y", "rt": 715, "stimulus": "<p id='stroop-text' class='stroop-yellow'>STONE</p>", "stimulus-type": "unrelated", "time_elapsed": 321459, "trial_id": "stroop-trial-1-unrelated-4", "trial_index": 96, "trial_type": "html-keyboard-response", "word": "STONE"}, "uniqueid": "w23913068:a55204140"}, {"current_trial": 97, "dateTime": 1664873924400, "trialdata": {"color": "red", "correct_response": "r", "internal_node_id": "0.0-6.0-2.0", "response": "r", "rt": 935, "stimulus": "<p id='stroop-text' class='stroop-red'>DOG</p>", "stimulus-type": "unrelated", "time_elapsed": 322898, "trial_id": "stroop-trial-1-unrelated-22", "trial_index": 97, "trial_type": "html-keyboard-response", "word": "DOG"}, "uniqueid": "w23913068:a55204140"}, {"current_trial": 98, "dateTime": 1664873925558, "trialdata": {"color": "blue", "correct_response": "b", "internal_node_id": "0.0-6.0-3.0", "response": "b", "rt": 654, "stimulus": "<p id='stroop-text' class='stroop-blue'>BOAT</p>", "stimulus-type": "unrelated", "time_elapsed": 324055, "trial_id": "stroop-trial-1-unrelated-14", "trial_index": 98, "trial_type": "html-keyboard-response", "word": "BOAT"}, "uniqueid": "w23913068:a55204140"}, {"current_trial": 99, "dateTime": 1664873927311, "trialdata": {"color": "red", "correct_response": "r", "internal_node_id": "0.0-6.0-4.0", "response": "r", "rt": 1249, "stimulus": "<p id='stroop-text' class='stroop-red'>YELLOW</p>", "stimulus-type": "incongruent", "time_elapsed": 325809, "trial_id": "stroop-trial-1-incongruent-20", "trial_index": 99, "trial_type": "html-keyboard-response", "word": "yellow"}, "uniqueid": "w23913068:a55204140"}, {"current_trial": 100, "dateTime": 1664873928619, "trialdata": {"color": "yellow", "correct_response": "y", "internal_node_id": "0.0-6.0-5.0", "response": "y", "rt": 804, "stimulus": "<p id='stroop-text' class='stroop-yellow'>YELLOW</p>", "stimulus-type": "congruent", "time_elapsed": 327117, "trial_id": "stroop-trial-1-congruent-24", "trial_index": 100, "trial_type": "html-keyboard-response", "word": "yellow"}, "uniqueid": "w23913068:a55204140"}, {"current_trial": 101, "dateTime": 1664873929690, "trialdata": {"color": "green", "correct_response": "g", "internal_node_id": "0.0-6.0-6.0", "response": "g", "rt": 567, "stimulus": "<p id='stroop-text' class='stroop-green'>BOAT</p>", "stimulus-type": "unrelated", "time_elapsed": 328187, "trial_id": "stroop-trial-1-unrelated-19", "trial_index": 101, "trial_type": "html-keyboard-response", "word": "BOAT"}, "uniqueid": "w23913068:a55204140"}, {"current_trial": 102, "dateTime": 1664873930698, "trialdata": {"color": "green", "correct_response": "g", "internal_node_id": "0.0-6.0-7.0", "response": "g", "rt": 503, "stimulus": "<p id='stroop-text' class='stroop-green'>GREEN</p>", "stimulus-type": "congruent", "time_elapsed": 329196, "trial_id": "stroop-trial-1-congruent-17", "trial_index": 102, "trial_type": "html-keyboard-response", "word": "green"}, "uniqueid": "w23913068:a55204140"}, {"current_trial": 103, "dateTime": 1664873931807, "trialdata": {"color": "red", "correct_response": "r", "internal_node_id": "0.0-6.0-8.0", "response": "r", "rt": 603, "stimulus": "<p id='stroop-text' class='stroop-red'>RED</p>", "stimulus-type": "congruent", "time_elapsed": 330304, "trial_id": "stroop-trial-1-congruent-7", "trial_index": 103, "trial_type": "html-keyboard-response", "word": "red"}, "uniqueid": "w23913068:a55204140"}, {"current_trial": 104, "dateTime": 1664873933322, "trialdata": {"color": "green", "correct_response": "g", "internal_node_id": "0.0-6.0-9.0", "response": "g", "rt": 1009, "stimulus": "<p id='stroop-text' class='stroop-green'>BOAT</p>", "stimulus-type": "unrelated", "time_elapsed": 331819, "trial_id": "stroop-trial-1-unrelated-29", "trial_index": 104, "trial_type": "html-keyboard-response", "word": "BOAT"}, "uniqueid": "w23913068:a55204140"}, {"current_trial": 105, "dateTime": 1664873934954, "trialdata": {"color": "yellow", "correct_response": "y", "internal_node_id": "0.0-6.0-10.0", "response": "y", "rt": 1129, "stimulus": "<p id='stroop-text' class='stroop-yellow'>BLUE</p>", "stimulus-type": "incongruent", "time_elapsed": 333452, "trial_id": "stroop-trial-1-incongruent-2", "trial_index": 105, "trial_type": "html-keyboard-response", "word": "blue"}, "uniqueid": "w23913068:a55204140"}, {"current_trial": 106, "dateTime": 1664873936500, "trialdata": {"color": "blue", "correct_response": "b", "internal_node_id": "0.0-6.0-11.0", "response": "b", "rt": 1043, "stimulus": "<p id='stroop-text' class='stroop-blue'>GREEN</p>", "stimulus-type": "incongruent", "time_elapsed": 334998, "trial_id": "stroop-trial-1-incongruent-15", "trial_index": 106, "trial_type": "html-keyboard-response", "word": "green"}, "uniqueid": "w23913068:a55204140"}, {"current_trial": 107, "dateTime": 1664873937629, "trialdata": {"color": "red", "correct_response": "r", "internal_node_id": "0.0-6.0-12.0", "response": "r", "rt": 626, "stimulus": "<p id='stroop-text' class='stroop-red'>RED</p>", "stimulus-type": "congruent", "time_elapsed": 336126, "trial_id": "stroop-trial-1-congruent-26", "trial_index": 107, "trial_type": "html-keyboard-response", "word": "red"}, "uniqueid": "w23913068:a55204140"}, {"current_trial": 108, "dateTime": 1664873939073, "trialdata": {"color": "green", "correct_response": "g", "internal_node_id": "0.0-6.0-13.0", "response": "g", "rt": 940, "stimulus": "<p id='stroop-text' class='stroop-green'>STONE</p>", "stimulus-type": "unrelated", "time_elapsed": 337571, "trial_id": "stroop-trial-1-unrelated-5", "trial_index": 108, "trial_type": "html-keyboard-response", "word": "STONE"}, "uniqueid": "w23913068:a55204140"}, {"current_trial": 109, "dateTime": 1664873940353, "trialdata": {"color": "yellow", "correct_response": "y", "internal_node_id": "0.0-6.0-14.0", "response": "y", "rt": 774, "stimulus": "<p id='stroop-text' class='stroop-yellow'>YELLOW</p>", "stimulus-type": "congruent", "time_elapsed": 338851, "trial_id": "stroop-trial-1-congruent-25", "trial_index": 109, "trial_type": "html-keyboard-response", "word": "yellow"}, "uniqueid": "w23913068:a55204140"}, {"current_trial": 110, "dateTime": 1664873941529, "trialdata": {"color": "yellow", "correct_response": "y", "internal_node_id": "0.0-6.0-15.0", "response": "y", "rt": 671, "stimulus": "<p id='stroop-text' class='stroop-yellow'>BLUE</p>", "stimulus-type": "incongruent", "time_elapsed": 340026, "trial_id": "stroop-trial-1-incongruent-18", "trial_index": 110, "trial_type": "html-keyboard-response", "word": "blue"}, "uniqueid": "w23913068:a55204140"}, {"current_trial": 111, "dateTime": 1664873942572, "trialdata": {"color": "yellow", "correct_response": "y", "internal_node_id": "0.0-6.0-16.0", "response": "y", "rt": 541, "stimulus": "<p id='stroop-text' class='stroop-yellow'>YELLOW</p>", "stimulus-type": "congruent", "time_elapsed": 341070, "trial_id": "stroop-trial-1-congruent-18", "trial_index": 111, "trial_type": "html-keyboard-response", "word": "yellow"}, "uniqueid": "w23913068:a55204140"}, {"current_trial": 112, "dateTime": 1664873944165, "trialdata": {"color": "red", "correct_response": "r", "internal_node_id": "0.0-6.0-17.0", "response": "r", "rt": 1085, "stimulus": "<p id='stroop-text' class='stroop-red'>BLUE</p>", "stimulus-type": "incongruent", "time_elapsed": 342663, "trial_id": "stroop-trial-1-incongruent-25", "trial_index": 112, "trial_type": "html-keyboard-response", "word": "blue"}, "uniqueid": "w23913068:a55204140"}, {"current_trial": 113, "dateTime": 1664873945454, "trialdata": {"color": "blue", "correct_response": "b", "internal_node_id": "0.0-6.0-18.0", "response": "b", "rt": 785, "stimulus": "<p id='stroop-text' class='stroop-blue'>SHIP</p>", "stimulus-type": "unrelated", "time_elapsed": 343951, "trial_id": "stroop-trial-1-unrelated-9", "trial_index": 113, "trial_type": "html-keyboard-response", "word": "SHIP"}, "uniqueid": "w23913068:a55204140"}, {"current_trial": 114, "dateTime": 1664873946940, "trialdata": {"color": "yellow", "correct_response": "y", "internal_node_id": "0.0-6.0-19.0", "response": "y", "rt": 978, "stimulus": "<p id='stroop-text' class='stroop-yellow'>SHIP</p>", "stimulus-type": "unrelated", "time_elapsed": 345438, "trial_id": "stroop-trial-1-unrelated-23", "trial_index": 114, "trial_type": "html-keyboard-response", "word": "SHIP"}, "uniqueid": "w23913068:a55204140"}, {"current_trial": 115, "dateTime": 1664873948400, "trialdata": {"color": "red", "correct_response": "r", "internal_node_id": "0.0-6.0-20.0", "response": "r", "rt": 955, "stimulus": "<p id='stroop-text' class='stroop-red'>YELLOW</p>", "stimulus-type": "incongruent", "time_elapsed": 346898, "trial_id": "stroop-trial-1-incongruent-24", "trial_index": 115, "trial_type": "html-keyboard-response", "word": "yellow"}, "uniqueid": "w23913068:a55204140"}, {"current_trial": 116, "dateTime": 1664873949678, "trialdata": {"color": "blue", "correct_response": "b", "internal_node_id": "0.0-6.0-21.0", "response": "b", "rt": 771, "stimulus": "<p id='stroop-text' class='stroop-blue'>BLUE</p>", "stimulus-type": "congruent", "time_elapsed": 348175, "trial_id": "stroop-trial-1-congruent-20", "trial_index": 116, "trial_type": "html-keyboard-response", "word": "blue"}, "uniqueid": "w23913068:a55204140"}, {"current_trial": 117, "dateTime": 1664873952274, "trialdata": {"color": "green", "correct_response": "g", "internal_node_id": "0.0-6.0-22.0", "response": "g", "rt": 2092, "stimulus": "<p id='stroop-text' class='stroop-green'>GREEN</p>", "stimulus-type": "congruent", "time_elapsed": 350772, "trial_id": "stroop-trial-1-congruent-22", "trial_index": 117, "trial_type": "html-keyboard-response", "word": "green"}, "uniqueid": "w23913068:a55204140"}, {"current_trial": 118, "dateTime": 1664873953460, "trialdata": {"color": "blue", "correct_response": "b", "internal_node_id": "0.0-6.0-23.0", "response": "b", "rt": 682, "stimulus": "<p id='stroop-text' class='stroop-blue'>BLUE</p>", "stimulus-type": "congruent", "time_elapsed": 351958, "trial_id": "stroop-trial-1-congruent-2", "trial_index": 118, "trial_type": "html-keyboard-response", "word": "blue"}, "uniqueid": "w23913068:a55204140"}, {"current_trial": 119, "dateTime": 1664873954648, "trialdata": {"color": "red", "correct_response": "r", "internal_node_id": "0.0-6.0-24.0", "response": "r", "rt": 685, "stimulus": "<p id='stroop-text' class='stroop-red'>MONKEY</p>", "stimulus-type": "unrelated", "time_elapsed": 353146, "trial_id": "stroop-trial-1-unrelated-7", "trial_index": 119, "trial_type": "html-keyboard-response", "word": "MONKEY"}, "uniqueid": "w23913068:a55204140"}, {"current_trial": 120, "dateTime": 1664873955844, "trialdata": {"color": "red", "correct_response": "r", "internal_node_id": "0.0-6.0-25.0", "response": "r", "rt": 693, "stimulus": "<p id='stroop-text' class='stroop-red'>BLUE</p>", "stimulus-type": "incongruent", "time_elapsed": 354342, "trial_id": "stroop-trial-1-incongruent-16", "trial_index": 120, "trial_type": "html-keyboard-response", "word": "blue"}, "uniqueid": "w23913068:a55204140"}, {"current_trial": 121, "dateTime": 1664873957280, "trialdata": {"color": "yellow", "correct_response": "y", "internal_node_id": "0.0-6.0-26.0", "response": "y", "rt": 932, "stimulus": "<p id='stroop-text' class='stroop-yellow'>YELLOW</p>", "stimulus-type": "congruent", "time_elapsed": 355777, "trial_id": "stroop-trial-1-congruent-16", "trial_index": 121, "trial_type": "html-keyboard-response", "word": "yellow"}, "uniqueid": "w23913068:a55204140"}, {"current_trial": 122, "dateTime": 1664873958794, "trialdata": {"color": "red", "correct_response": "r", "internal_node_id": "0.0-6.0-27.0", "response": "r", "rt": 1006, "stimulus": "<p id='stroop-text' class='stroop-red'>RED</p>", "stimulus-type": "congruent", "time_elapsed": 357292, "trial_id": "stroop-trial-1-congruent-11", "trial_index": 122, "trial_type": "html-keyboard-response", "word": "red"}, "uniqueid": "w23913068:a55204140"}, {"current_trial": 123, "dateTime": 1664873959981, "trialdata": {"color": "blue", "correct_response": "b", "internal_node_id": "0.0-6.0-28.0", "response": "b", "rt": 685, "stimulus": "<p id='stroop-text' class='stroop-blue'>RED</p>", "stimulus-type": "incongruent", "time_elapsed": 358479, "trial_id": "stroop-trial-1-incongruent-17", "trial_index": 123, "trial_type": "html-keyboard-response", "word": "red"}, "uniqueid": "w23913068:a55204140"}, {"current_trial": 124, "dateTime": 1664873961265, "trialdata": {"color": "green", "correct_response": "g", "internal_node_id": "0.0-6.0-29.0", "response": "g", "rt": 780, "stimulus": "<p id='stroop-text' class='stroop-green'>DOG</p>", "stimulus-type": "unrelated", "time_elapsed": 359763, "trial_id": "stroop-trial-1-unrelated-6", "trial_index": 124, "trial_type": "html-keyboard-response", "word": "DOG"}, "uniqueid": "w23913068:a55204140"}, {"current_trial": 125, "dateTime": 1664873962868, "trialdata": {"color": "green", "correct_response": "g", "internal_node_id": "0.0-6.0-30.0", "response": "g", "rt": 1095, "stimulus": "<p id='stroop-text' class='stroop-green'>BLUE</p>", "stimulus-type": "incongruent", "time_elapsed": 361366, "trial_id": "stroop-trial-1-incongruent-27", "trial_index": 125, "trial_type": "html-keyboard-response", "word": "blue"}, "uniqueid": "w23913068:a55204140"}, {"current_trial": 126, "dateTime": 1664873964486, "trialdata": {"color": "red", "correct_response": "r", "internal_node_id": "0.0-6.0-31.0", "response": "r", "rt": 1113, "stimulus": "<p id='stroop-text' class='stroop-red'>GREEN</p>", "stimulus-type": "incongruent", "time_elapsed": 362984, "trial_id": "stroop-trial-1-incongruent-11", "trial_index": 126, "trial_type": "html-keyboard-response", "word": "green"}, "uniqueid": "w23913068:a55204140"}, {"current_trial": 127, "dateTime": 1664873965843, "trialdata": {"color": "red", "correct_response": "r", "internal_node_id": "0.0-6.0-32.0", "response": "r", "rt": 853, "stimulus": "<p id='stroop-text' class='stroop-red'>BRIDGE</p>", "stimulus-type": "unrelated", "time_elapsed": 364341, "trial_id": "stroop-trial-1-unrelated-18", "trial_index": 127, "trial_type": "html-keyboard-response", "word": "BRIDGE"}, "uniqueid": "w23913068:a55204140"}, {"current_trial": 128, "dateTime": 1664873966995, "trialdata": {"color": "red", "correct_response": "r", "internal_node_id": "0.0-6.0-33.0", "response": "r", "rt": 649, "stimulus": "<p id='stroop-text' class='stroop-red'>RED</p>", "stimulus-type": "congruent", "time_elapsed": 365493, "trial_id": "stroop-trial-1-congruent-30", "trial_index": 128, "trial_type": "html-keyboard-response", "word": "red"}, "uniqueid": "w23913068:a55204140"}, {"current_trial": 129, "dateTime": 1664873968547, "trialdata": {"color": "blue", "correct_response": "b", "internal_node_id": "0.0-6.0-34.0", "response": "g", "rt": 1049, "stimulus": "<p id='stroop-text' class='stroop-blue'>YELLOW</p>", "stimulus-type": "incongruent", "time_elapsed": 367044, "trial_id": "stroop-trial-1-incongruent-3", "trial_index": 129, "trial_type": "html-keyboard-response", "word": "yellow"}, "uniqueid": "w23913068:a55204140"}, {"current_trial": 130, "dateTime": 1664873970115, "trialdata": {"color": "blue", "correct_response": "b", "internal_node_id": "0.0-6.0-35.0", "response": "b", "rt": 1064, "stimulus": "<p id='stroop-text' class='stroop-blue'>BLUE</p>", "stimulus-type": "congruent", "time_elapsed": 368612, "trial_id": "stroop-trial-1-congruent-23", "trial_index": 130, "trial_type": "html-keyboard-response", "word": "blue"}, "uniqueid": "w23913068:a55204140"}, {"current_trial": 131, "dateTime": 1664873971678, "trialdata": {"color": "blue", "correct_response": "b", "internal_node_id": "0.0-6.0-36.0", "response": "g", "rt": 1057, "stimulus": "<p id='stroop-text' class='stroop-blue'>GREEN</p>", "stimulus-type": "incongruent", "time_elapsed": 370175, "trial_id": "stroop-trial-1-incongruent-1", "trial_index": 131, "trial_type": "html-keyboard-response", "word": "green"}, "uniqueid": "w23913068:a55204140"}, {"current_trial": 132, "dateTime": 1664873973482, "trialdata": {"color": "yellow", "correct_response": "y", "internal_node_id": "0.0-6.0-37.0", "response": "y", "rt": 1298, "stimulus": "<p id='stroop-text' class='stroop-yellow'>SHIP</p>", "stimulus-type": "unrelated", "time_elapsed": 371979, "trial_id": "stroop-trial-1-unrelated-12", "trial_index": 132, "trial_type": "html-keyboard-response", "word": "SHIP"}, "uniqueid": "w23913068:a55204140"}, {"current_trial": 133, "dateTime": 1664873975353, "trialdata": {"color": "green", "correct_response": "g", "internal_node_id": "0.0-6.0-38.0", "response": "g", "rt": 1369, "stimulus": "<p id='stroop-text' class='stroop-green'>BLUE</p>", "stimulus-type": "incongruent", "time_elapsed": 373851, "trial_id": "stroop-trial-1-incongruent-21", "trial_index": 133, "trial_type": "html-keyboard-response", "word": "blue"}, "uniqueid": "w23913068:a55204140"}, {"current_trial": 134, "dateTime": 1664873976743, "trialdata": {"color": "blue", "correct_response": "b", "internal_node_id": "0.0-6.0-39.0", "response": "b", "rt": 887, "stimulus": "<p id='stroop-text' class='stroop-blue'>BLUE</p>", "stimulus-type": "congruent", "time_elapsed": 375241, "trial_id": "stroop-trial-1-congruent-5", "trial_index": 134, "trial_type": "html-keyboard-response", "word": "blue"}, "uniqueid": "w23913068:a55204140"}, {"current_trial": 135, "dateTime": 1664873978697, "trialdata": {"color": "blue", "correct_response": "b", "internal_node_id": "0.0-6.0-40.0", "response": "b", "rt": 1450, "stimulus": "<p id='stroop-text' class='stroop-blue'>GREEN</p>", "stimulus-type": "incongruent", "time_elapsed": 377194, "trial_id": "stroop-trial-1-incongruent-28", "trial_index": 135, "trial_type": "html-keyboard-response", "word": "green"}, "uniqueid": "w23913068:a55204140"}, {"current_trial": 136, "dateTime": 1664873980941, "trialdata": {"color": "red", "correct_response": "r", "internal_node_id": "0.0-6.0-41.0", "response": "r", "rt": 1735, "stimulus": "<p id='stroop-text' class='stroop-red'>BLUE</p>", "stimulus-type": "incongruent", "time_elapsed": 379438, "trial_id": "stroop-trial-1-incongruent-7", "trial_index": 136, "trial_type": "html-keyboard-response", "word": "blue"}, "uniqueid": "w23913068:a55204140"}, {"current_trial": 137, "dateTime": 1664873982193, "trialdata": {"color": "blue", "correct_response": "b", "internal_node_id": "0.0-6.0-42.0", "response": "b", "rt": 748, "stimulus": "<p id='stroop-text' class='stroop-blue'>BLUE</p>", "stimulus-type": "congruent", "time_elapsed": 380691, "trial_id": "stroop-trial-1-congruent-15", "trial_index": 137, "trial_type": "html-keyboard-response", "word": "blue"}, "uniqueid": "w23913068:a55204140"}, {"current_trial": 138, "dateTime": 1664873986934, "trialdata": {"color": "green", "correct_response": "g", "internal_node_id": "0.0-6.0-43.0", "response": "g", "rt": 4237, "stimulus": "<p id='stroop-text' class='stroop-green'>MONKEY</p>", "stimulus-type": "unrelated", "time_elapsed": 385432, "trial_id": "stroop-trial-1-unrelated-25", "trial_index": 138, "trial_type": "html-keyboard-response", "word": "MONKEY"}, "uniqueid": "w23913068:a55204140"}, {"current_trial": 139, "dateTime": 1664873989867, "trialdata": {"color": "blue", "correct_response": "b", "internal_node_id": "0.0-6.0-44.0", "response": "b", "rt": 2424, "stimulus": "<p id='stroop-text' class='stroop-blue'>BOTTLE</p>", "stimulus-type": "unrelated", "time_elapsed": 388365, "trial_id": "stroop-trial-1-unrelated-21", "trial_index": 139, "trial_type": "html-keyboard-response", "word": "BOTTLE"}, "uniqueid": "w23913068:a55204140"}, {"current_trial": 140, "dateTime": 1664873991424, "trialdata": {"color": "green", "correct_response": "g", "internal_node_id": "0.0-6.0-45.0", "response": "g", "rt": 1053, "stimulus": "<p id='stroop-text' class='stroop-green'>GREEN</p>", "stimulus-type": "congruent", "time_elapsed": 389922, "trial_id": "stroop-trial-1-congruent-28", "trial_index": 140, "trial_type": "html-keyboard-response", "word": "green"}, "uniqueid": "w23913068:a55204140"}, {"current_trial": 141, "dateTime": 1664873992983, "trialdata": {"color": "green", "correct_response": "g", "internal_node_id": "0.0-6.0-46.0", "response": "g", "rt": 1054, "stimulus": "<p id='stroop-text' class='stroop-green'>BRAIN</p>", "stimulus-type": "unrelated", "time_elapsed": 391481, "trial_id": "stroop-trial-1-unrelated-3", "trial_index": 141, "trial_type": "html-keyboard-response", "word": "BRAIN"}, "uniqueid": "w23913068:a55204140"}, {"current_trial": 142, "dateTime": 1664873994158, "trialdata": {"color": "blue", "correct_response": "b", "internal_node_id": "0.0-6.0-47.0", "response": "b", "rt": 672, "stimulus": "<p id='stroop-text' class='stroop-blue'>BRIDGE</p>", "stimulus-type": "unrelated", "time_elapsed": 392656, "trial_id": "stroop-trial-1-unrelated-30", "trial_index": 142, "trial_type": "html-keyboard-response", "word": "BRIDGE"}, "uniqueid": "w23913068:a55204140"}, {"current_trial": 143, "dateTime": 1664873995569, "trialdata": {"color": "green", "correct_response": "g", "internal_node_id": "0.0-6.0-48.0", "response": "g", "rt": 906, "stimulus": "<p id='stroop-text' class='stroop-green'>RED</p>", "stimulus-type": "incongruent", "time_elapsed": 394067, "trial_id": "stroop-trial-1-incongruent-14", "trial_index": 143, "trial_type": "html-keyboard-response", "word": "red"}, "uniqueid": "w23913068:a55204140"}, {"current_trial": 144, "dateTime": 1664873996560, "trialdata": {"color": "green", "correct_response": "g", "internal_node_id": "0.0-6.0-49.0", "response": "g", "rt": 487, "stimulus": "<p id='stroop-text' class='stroop-green'>GREEN</p>", "stimulus-type": "congruent", "time_elapsed": 395057, "trial_id": "stroop-trial-1-congruent-8", "trial_index": 144, "trial_type": "html-keyboard-response", "word": "green"}, "uniqueid": "w23913068:a55204140"}, {"current_trial": 145, "dateTime": 1664873997681, "trialdata": {"color": "blue", "correct_response": "b", "internal_node_id": "0.0-6.0-50.0", "response": "b", "rt": 616, "stimulus": "<p id='stroop-text' class='stroop-blue'>BLUE</p>", "stimulus-type": "congruent", "time_elapsed": 396179, "trial_id": "stroop-trial-1-congruent-6", "trial_index": 145, "trial_type": "html-keyboard-response", "word": "blue"}, "uniqueid": "w23913068:a55204140"}, {"current_trial": 146, "dateTime": 1664873998799, "trialdata": {"color": "green", "correct_response": "g", "internal_node_id": "0.0-6.0-51.0", "response": "g", "rt": 602, "stimulus": "<p id='stroop-text' class='stroop-green'>BOTTLE</p>", "stimulus-type": "unrelated", "time_elapsed": 397296, "trial_id": "stroop-trial-1-unrelated-20", "trial_index": 146, "trial_type": "html-keyboard-response", "word": "BOTTLE"}, "uniqueid": "w23913068:a55204140"}, {"current_trial": 147, "dateTime": 1664874000360, "trialdata": {"color": "green", "correct_response": "g", "internal_node_id": "0.0-6.0-52.0", "response": "g", "rt": 1056, "stimulus": "<p id='stroop-text' class='stroop-green'>DOG</p>", "stimulus-type": "unrelated", "time_elapsed": 398857, "trial_id": "stroop-trial-1-unrelated-28", "trial_index": 147, "trial_type": "html-keyboard-response", "word": "DOG"}, "uniqueid": "w23913068:a55204140"}, {"current_trial": 148, "dateTime": 1664874001422, "trialdata": {"color": "green", "correct_response": "g", "internal_node_id": "0.0-6.0-53.0", "response": "g", "rt": 559, "stimulus": "<p id='stroop-text' class='stroop-green'>GREEN</p>", "stimulus-type": "congruent", "time_elapsed": 399919, "trial_id": "stroop-trial-1-congruent-14", "trial_index": 148, "trial_type": "html-keyboard-response", "word": "green"}, "uniqueid": "w23913068:a55204140"}, {"current_trial": 149, "dateTime": 1664874002419, "trialdata": {"color": "red", "correct_response": "r", "internal_node_id": "0.0-6.0-54.0", "response": "r", "rt": 492, "stimulus": "<p id='stroop-text' class='stroop-red'>RED</p>", "stimulus-type": "congruent", "time_elapsed": 400916, "trial_id": "stroop-trial-1-congruent-1", "trial_index": 149, "trial_type": "html-keyboard-response", "word": "red"}, "uniqueid": "w23913068:a55204140"}, {"current_trial": 150, "dateTime": 1664874003937, "trialdata": {"color": "green", "correct_response": "g", "internal_node_id": "0.0-6.0-55.0", "response": "g", "rt": 1012, "stimulus": "<p id='stroop-text' class='stroop-green'>YELLOW</p>", "stimulus-type": "incongruent", "time_elapsed": 402434, "trial_id": "stroop-trial-1-incongruent-5", "trial_index": 150, "trial_type": "html-keyboard-response", "word": "yellow"}, "uniqueid": "w23913068:a55204140"}, {"current_trial": 151, "dateTime": 1664874005658, "trialdata": {"color": "yellow", "correct_response": "y", "internal_node_id": "0.0-6.0-56.0", "response": "y", "rt": 1217, "stimulus": "<p id='stroop-text' class='stroop-yellow'>BLUE</p>", "stimulus-type": "incongruent", "time_elapsed": 404156, "trial_id": "stroop-trial-1-incongruent-30", "trial_index": 151, "trial_type": "html-keyboard-response", "word": "blue"}, "uniqueid": "w23913068:a55204140"}, {"current_trial": 152, "dateTime": 1664874007303, "trialdata": {"color": "green", "correct_response": "g", "internal_node_id": "0.0-6.0-57.0", "response": "g", "rt": 1141, "stimulus": "<p id='stroop-text' class='stroop-green'>BLUE</p>", "stimulus-type": "incongruent", "time_elapsed": 405800, "trial_id": "stroop-trial-1-incongruent-12", "trial_index": 152, "trial_type": "html-keyboard-response", "word": "blue"}, "uniqueid": "w23913068:a55204140"}, {"current_trial": 153, "dateTime": 1664874008263, "trialdata": {"color": "green", "correct_response": "g", "internal_node_id": "0.0-6.0-58.0", "response": "g", "rt": 450, "stimulus": "<p id='stroop-text' class='stroop-green'>GREEN</p>", "stimulus-type": "congruent", "time_elapsed": 406760, "trial_id": "stroop-trial-1-congruent-19", "trial_index": 153, "trial_type": "html-keyboard-response", "word": "green"}, "uniqueid": "w23913068:a55204140"}, {"current_trial": 154, "dateTime": 1664874009478, "trialdata": {"color": "blue", "correct_response": "b", "internal_node_id": "0.0-6.0-59.0", "response": "b", "rt": 710, "stimulus": "<p id='stroop-text' class='stroop-blue'>STONE</p>", "stimulus-type": "unrelated", "time_elapsed": 407975, "trial_id": "stroop-trial-1-unrelated-17", "trial_index": 154, "trial_type": "html-keyboard-response", "word": "STONE"}, "uniqueid": "w23913068:a55204140"}, {"current_trial": 155, "dateTime": 1664874010437, "trialdata": {"color": "blue", "correct_response": "b", "internal_node_id": "0.0-6.0-60.0", "response": "b", "rt": 451, "stimulus": "<p id='stroop-text' class='stroop-blue'>YELLOW</p>", "stimulus-type": "incongruent", "time_elapsed": 408935, "trial_id": "stroop-trial-1-incongruent-13", "trial_index": 155, "trial_type": "html-keyboard-response", "word": "yellow"}, "uniqueid": "w23913068:a55204140"}, {"current_trial": 156, "dateTime": 1664874012922, "trialdata": {"color": "green", "correct_response": "g", "internal_node_id": "0.0-6.0-61.0", "response": "g", "rt": 1979, "stimulus": "<p id='stroop-text' class='stroop-green'>GREEN</p>", "stimulus-type": "congruent", "time_elapsed": 411420, "trial_id": "stroop-trial-1-congruent-9", "trial_index": 156, "trial_type": "html-keyboard-response", "word": "green"}, "uniqueid": "w23913068:a55204140"}, {"current_trial": 157, "dateTime": 1664874014224, "trialdata": {"color": "green", "correct_response": "g", "internal_node_id": "0.0-6.0-62.0", "response": "g", "rt": 799, "stimulus": "<p id='stroop-text' class='stroop-green'>RED</p>", "stimulus-type": "incongruent", "time_elapsed": 412722, "trial_id": "stroop-trial-1-incongruent-22", "trial_index": 157, "trial_type": "html-keyboard-response", "word": "red"}, "uniqueid": "w23913068:a55204140"}, {"current_trial": 158, "dateTime": 1664874015378, "trialdata": {"color": "yellow", "correct_response": "y", "internal_node_id": "0.0-6.0-63.0", "response": "y", "rt": 650, "stimulus": "<p id='stroop-text' class='stroop-yellow'>YELLOW</p>", "stimulus-type": "congruent", "time_elapsed": 413876, "trial_id": "stroop-trial-1-congruent-12", "trial_index": 158, "trial_type": "html-keyboard-response", "word": "yellow"}, "uniqueid": "w23913068:a55204140"}, {"current_trial": 159, "dateTime": 1664874016664, "trialdata": {"color": "blue", "correct_response": "b", "internal_node_id": "0.0-6.0-64.0", "response": "b", "rt": 783, "stimulus": "<p id='stroop-text' class='stroop-blue'>RED</p>", "stimulus-type": "incongruent", "time_elapsed": 415161, "trial_id": "stroop-trial-1-incongruent-8", "trial_index": 159, "trial_type": "html-keyboard-response", "word": "red"}, "uniqueid": "w23913068:a55204140"}, {"current_trial": 160, "dateTime": 1664874017868, "trialdata": {"color": "green", "correct_response": "g", "internal_node_id": "0.0-6.0-65.0", "response": "g", "rt": 700, "stimulus": "<p id='stroop-text' class='stroop-green'>RED</p>", "stimulus-type": "incongruent", "time_elapsed": 416365, "trial_id": "stroop-trial-1-incongruent-19", "trial_index": 160, "trial_type": "html-keyboard-response", "word": "red"}, "uniqueid": "w23913068:a55204140"}, {"current_trial": 161, "dateTime": 1664874018976, "trialdata": {"color": "green", "correct_response": "g", "internal_node_id": "0.0-6.0-66.0", "response": "g", "rt": 600, "stimulus": "<p id='stroop-text' class='stroop-green'>GREEN</p>", "stimulus-type": "congruent", "time_elapsed": 417473, "trial_id": "stroop-trial-1-congruent-3", "trial_index": 161, "trial_type": "html-keyboard-response", "word": "green"}, "uniqueid": "w23913068:a55204140"}, {"current_trial": 162, "dateTime": 1664874020257, "trialdata": {"color": "blue", "correct_response": "b", "internal_node_id": "0.0-6.0-67.0", "response": "b", "rt": 776, "stimulus": "<p id='stroop-text' class='stroop-blue'>WINDOW</p>", "stimulus-type": "unrelated", "time_elapsed": 418755, "trial_id": "stroop-trial-1-unrelated-8", "trial_index": 162, "trial_type": "html-keyboard-response", "word": "WINDOW"}, "uniqueid": "w23913068:a55204140"}, {"current_trial": 163, "dateTime": 1664874021696, "trialdata": {"color": "blue", "correct_response": "b", "internal_node_id": "0.0-6.0-68.0", "response": "b", "rt": 935, "stimulus": "<p id='stroop-text' class='stroop-blue'>BLUE</p>", "stimulus-type": "congruent", "time_elapsed": 420194, "trial_id": "stroop-trial-1-congruent-10", "trial_index": 163, "trial_type": "html-keyboard-response", "word": "blue"}, "uniqueid": "w23913068:a55204140"}, {"current_trial": 164, "dateTime": 1664874022987, "trialdata": {"color": "yellow", "correct_response": "y", "internal_node_id": "0.0-6.0-69.0", "response": "y", "rt": 785, "stimulus": "<p id='stroop-text' class='stroop-yellow'>MONKEY</p>", "stimulus-type": "unrelated", "time_elapsed": 421485, "trial_id": "stroop-trial-1-unrelated-16", "trial_index": 164, "trial_type": "html-keyboard-response", "word": "MONKEY"}, "uniqueid": "w23913068:a55204140"}, {"current_trial": 165, "dateTime": 1664874024884, "trialdata": {"color": "yellow", "correct_response": "y", "internal_node_id": "0.0-6.0-70.0", "response": "y", "rt": 1391, "stimulus": "<p id='stroop-text' class='stroop-yellow'>BLUE</p>", "stimulus-type": "incongruent", "time_elapsed": 423381, "trial_id": "stroop-trial-1-incongruent-4", "trial_index": 165, "trial_type": "html-keyboard-response", "word": "blue"}, "uniqueid": "w23913068:a55204140"}, {"current_trial": 166, "dateTime": 1664874026142, "trialdata": {"color": "green", "correct_response": "g", "internal_node_id": "0.0-6.0-71.0", "response": "g", "rt": 750, "stimulus": "<p id='stroop-text' class='stroop-green'>FORK</p>", "stimulus-type": "unrelated", "time_elapsed": 424640, "trial_id": "stroop-trial-1-unrelated-24", "trial_index": 166, "trial_type": "html-keyboard-response", "word": "FORK"}, "uniqueid": "w23913068:a55204140"}, {"current_trial": 167, "dateTime": 1664874027104, "trialdata": {"color": "red", "correct_response": "r", "internal_node_id": "0.0-6.0-72.0", "response": "r", "rt": 457, "stimulus": "<p id='stroop-text' class='stroop-red'>RED</p>", "stimulus-type": "congruent", "time_elapsed": 425602, "trial_id": "stroop-trial-1-congruent-4", "trial_index": 167, "trial_type": "html-keyboard-response", "word": "red"}, "uniqueid": "w23913068:a55204140"}, {"current_trial": 168, "dateTime": 1664874028309, "trialdata": {"color": "yellow", "correct_response": "y", "internal_node_id": "0.0-6.0-73.0", "response": "y", "rt": 698, "stimulus": "<p id='stroop-text' class='stroop-yellow'>YELLOW</p>", "stimulus-type": "congruent", "time_elapsed": 426807, "trial_id": "stroop-trial-1-congruent-27", "trial_index": 168, "trial_type": "html-keyboard-response", "word": "yellow"}, "uniqueid": "w23913068:a55204140"}, {"current_trial": 169, "dateTime": 1664874029885, "trialdata": {"color": "red", "correct_response": "r", "internal_node_id": "0.0-6.0-74.0", "response": "r", "rt": 1068, "stimulus": "<p id='stroop-text' class='stroop-red'>YELLOW</p>", "stimulus-type": "incongruent", "time_elapsed": 428383, "trial_id": "stroop-trial-1-incongruent-29", "trial_index": 169, "trial_type": "html-keyboard-response", "word": "yellow"}, "uniqueid": "w23913068:a55204140"}, {"current_trial": 170, "dateTime": 1664874030912, "trialdata": {"color": "green", "correct_response": "g", "internal_node_id": "0.0-6.0-75.0", "response": "g", "rt": 521, "stimulus": "<p id='stroop-text' class='stroop-green'>FORK</p>", "stimulus-type": "unrelated", "time_elapsed": 429410, "trial_id": "stroop-trial-1-unrelated-10", "trial_index": 170, "trial_type": "html-keyboard-response", "word": "FORK"}, "uniqueid": "w23913068:a55204140"}, {"current_trial": 171, "dateTime": 1664874031804, "trialdata": {"color": "green", "correct_response": "g", "internal_node_id": "0.0-6.0-76.0", "response": "g", "rt": 386, "stimulus": "<p id='stroop-text' class='stroop-green'>BOTTLE</p>", "stimulus-type": "unrelated", "time_elapsed": 430302, "trial_id": "stroop-trial-1-unrelated-2", "trial_index": 171, "trial_type": "html-keyboard-response", "word": "BOTTLE"}, "uniqueid": "w23913068:a55204140"}, {"current_trial": 172, "dateTime": 1664874033196, "trialdata": {"color": "yellow", "correct_response": "y", "internal_node_id": "0.0-6.0-77.0", "response": "y", "rt": 886, "stimulus": "<p id='stroop-text' class='stroop-yellow'>BLUE</p>", "stimulus-type": "incongruent", "time_elapsed": 431693, "trial_id": "stroop-trial-1-incongruent-6", "trial_index": 172, "trial_type": "html-keyboard-response", "word": "blue"}, "uniqueid": "w23913068:a55204140"}, {"current_trial": 173, "dateTime": 1664874034258, "trialdata": {"color": "yellow", "correct_response": "y", "internal_node_id": "0.0-6.0-78.0", "response": "y", "rt": 556, "stimulus": "<p id='stroop-text' class='stroop-yellow'>BOTTLE</p>", "stimulus-type": "unrelated", "time_elapsed": 432755, "trial_id": "stroop-trial-1-unrelated-15", "trial_index": 173, "trial_type": "html-keyboard-response", "word": "BOTTLE"}, "uniqueid": "w23913068:a55204140"}, {"current_trial": 174, "dateTime": 1664874035338, "trialdata": {"color": "red", "correct_response": "r", "internal_node_id": "0.0-6.0-79.0", "response": "r", "rt": 573, "stimulus": "<p id='stroop-text' class='stroop-red'>RED</p>", "stimulus-type": "congruent", "time_elapsed": 433836, "trial_id": "stroop-trial-1-congruent-21", "trial_index": 174, "trial_type": "html-keyboard-response", "word": "red"}, "uniqueid": "w23913068:a55204140"}, {"current_trial": 175, "dateTime": 1664874036354, "trialdata": {"color": "red", "correct_response": "r", "internal_node_id": "0.0-6.0-80.0", "response": "r", "rt": 511, "stimulus": "<p id='stroop-text' class='stroop-red'>GREEN</p>", "stimulus-type": "incongruent", "time_elapsed": 434851, "trial_id": "stroop-trial-1-incongruent-26", "trial_index": 175, "trial_type": "html-keyboard-response", "word": "green"}, "uniqueid": "w23913068:a55204140"}, {"current_trial": 176, "dateTime": 1664874037511, "trialdata": {"color": "red", "correct_response": "r", "internal_node_id": "0.0-6.0-81.0", "response": "r", "rt": 652, "stimulus": "<p id='stroop-text' class='stroop-red'>MONKEY</p>", "stimulus-type": "unrelated", "time_elapsed": 436008, "trial_id": "stroop-trial-1-unrelated-11", "trial_index": 176, "trial_type": "html-keyboard-response", "word": "MONKEY"}, "uniqueid": "w23913068:a55204140"}, {"current_trial": 177, "dateTime": 1664874038840, "trialdata": {"color": "blue", "correct_response": "b", "internal_node_id": "0.0-6.0-82.0", "response": "b", "rt": 824, "stimulus": "<p id='stroop-text' class='stroop-blue'>BLUE</p>", "stimulus-type": "congruent", "time_elapsed": 437338, "trial_id": "stroop-trial-1-congruent-13", "trial_index": 177, "trial_type": "html-keyboard-response", "word": "blue"}, "uniqueid": "w23913068:a55204140"}, {"current_trial": 178, "dateTime": 1664874040085, "trialdata": {"color": "yellow", "correct_response": "y", "internal_node_id": "0.0-6.0-83.0", "response": "y", "rt": 736, "stimulus": "<p id='stroop-text' class='stroop-yellow'>BOAT</p>", "stimulus-type": "unrelated", "time_elapsed": 438583, "trial_id": "stroop-trial-1-unrelated-27", "trial_index": 178, "trial_type": "html-keyboard-response", "word": "BOAT"}, "uniqueid": "w23913068:a55204140"}, {"current_trial": 179, "dateTime": 1664874041102, "trialdata": {"color": "yellow", "correct_response": "y", "internal_node_id": "0.0-6.0-84.0", "response": "y", "rt": 510, "stimulus": "<p id='stroop-text' class='stroop-yellow'>STONE</p>", "stimulus-type": "unrelated", "time_elapsed": 439600, "trial_id": "stroop-trial-1-unrelated-13", "trial_index": 179, "trial_type": "html-keyboard-response", "word": "STONE"}, "uniqueid": "w23913068:a55204140"}, {"current_trial": 180, "dateTime": 1664874043017, "trialdata": {"color": "blue", "correct_response": "b", "internal_node_id": "0.0-6.0-85.0", "response": "b", "rt": 1407, "stimulus": "<p id='stroop-text' class='stroop-blue'>BLUE</p>", "stimulus-type": "congruent", "time_elapsed": 441515, "trial_id": "stroop-trial-1-congruent-29", "trial_index": 180, "trial_type": "html-keyboard-response", "word": "blue"}, "uniqueid": "w23913068:a55204140"}, {"current_trial": 181, "dateTime": 1664874044194, "trialdata": {"color": "blue", "correct_response": "b", "internal_node_id": "0.0-6.0-86.0", "response": "r", "rt": 671, "stimulus": "<p id='stroop-text' class='stroop-blue'>RED</p>", "stimulus-type": "incongruent", "time_elapsed": 442692, "trial_id": "stroop-trial-1-incongruent-9", "trial_index": 181, "trial_type": "html-keyboard-response", "word": "red"}, "uniqueid": "w23913068:a55204140"}, {"current_trial": 182, "dateTime": 1664874045716, "trialdata": {"color": "red", "correct_response": "r", "internal_node_id": "0.0-6.0-87.0", "response": "r", "rt": 1016, "stimulus": "<p id='stroop-text' class='stroop-red'>YELLOW</p>", "stimulus-type": "incongruent", "time_elapsed": 444214, "trial_id": "stroop-trial-1-incongruent-10", "trial_index": 182, "trial_type": "html-keyboard-response", "word": "yellow"}, "uniqueid": "w23913068:a55204140"}, {"current_trial": 183, "dateTime": 1664874047438, "trialdata": {"color": "blue", "correct_response": "b", "internal_node_id": "0.0-6.0-88.0", "response": "b", "rt": 1219, "stimulus": "<p id='stroop-text' class='stroop-blue'>BOAT</p>", "stimulus-type": "unrelated", "time_elapsed": 445935, "trial_id": "stroop-trial-1-unrelated-26", "trial_index": 183, "trial_type": "html-keyboard-response", "word": "BOAT"}, "uniqueid": "w23913068:a55204140"}, {"current_trial": 184, "dateTime": 1664874048842, "trialdata": {"color": "red", "correct_response": "r", "internal_node_id": "0.0-6.0-89.0", "response": "r", "rt": 897, "stimulus": "<p id='stroop-text' class='stroop-red'>YELLOW</p>", "stimulus-type": "incongruent", "time_elapsed": 447340, "trial_id": "stroop-trial-1-incongruent-23", "trial_index": 184, "trial_type": "html-keyboard-response", "word": "yellow"}, "uniqueid": "w23913068:a55204140"}, {"current_trial": 185, "dateTime": 1664874051316, "trialdata": {"internal_node_id": "0.0-7.0", "response": " ", "rt": 1966, "stimulus": "  <h1> End of block! </h1>\n\n  You have reached the end of the block 2/5. If you need a short break, feel free to take one now before moving on.\n\n  <br><br>\n  In the next block, you will complete another 90 rounds of this game.\n\n  <br><br>\n  <div style='text-align: center;'>Press <code>space</code> to begin.</div>\n  <br><br>\n<div style='text-align: center;'>(If the experiment doesn't continue, try clicking on the text and then pressing <code>space</code>.)</div>", "time_elapsed": 449814, "trial_id": "stroop_1_ready_3", "trial_index": 185, "trial_type": "html-keyboard-response"}, "uniqueid": "w23913068:a55204140"}, {"current_trial": 186, "dateTime": 1664874052140, "trialdata": {"color": "red", "correct_response": "r", "internal_node_id": "0.0-8.0-0.0", "response": "r", "rt": 820, "stimulus": "<p id='stroop-text' class='stroop-red'>RED</p>", "stimulus-type": "congruent", "time_elapsed": 450637, "trial_id": "stroop-trial-1-congruent-14", "trial_index": 186, "trial_type": "html-keyboard-response", "word": "red"}, "uniqueid": "w23913068:a55204140"}, {"current_trial": 187, "dateTime": 1664874053542, "trialdata": {"color": "red", "correct_response": "r", "internal_node_id": "0.0-8.0-1.0", "response": "y", "rt": 896, "stimulus": "<p id='stroop-text' class='stroop-red'>YELLOW</p>", "stimulus-type": "incongruent", "time_elapsed": 452039, "trial_id": "stroop-trial-1-incongruent-26", "trial_index": 187, "trial_type": "html-keyboard-response", "word": "yellow"}, "uniqueid": "w23913068:a55204140"}, {"current_trial": 188, "dateTime": 1664874054747, "trialdata": {"color": "yellow", "correct_response": "y", "internal_node_id": "0.0-8.0-2.0", "response": "y", "rt": 699, "stimulus": "<p id='stroop-text' class='stroop-yellow'>YELLOW</p>", "stimulus-type": "congruent", "time_elapsed": 453244, "trial_id": "stroop-trial-1-congruent-16", "trial_index": 188, "trial_type": "html-keyboard-response", "word": "yellow"}, "uniqueid": "w23913068:a55204140"}, {"current_trial": 189, "dateTime": 1664874056456, "trialdata": {"color": "yellow", "correct_response": "y", "internal_node_id": "0.0-8.0-3.0", "response": "y", "rt": 1202, "stimulus": "<p id='stroop-text' class='stroop-yellow'>BLUE</p>", "stimulus-type": "incongruent", "time_elapsed": 454953, "trial_id": "stroop-trial-1-incongruent-10", "trial_index": 189, "trial_type": "html-keyboard-response", "word": "blue"}, "uniqueid": "w23913068:a55204140"}, {"current_trial": 190, "dateTime": 1664874057992, "trialdata": {"color": "green", "correct_response": "g", "internal_node_id": "0.0-8.0-4.0", "response": "g", "rt": 1032, "stimulus": "<p id='stroop-text' class='stroop-green'>YELLOW</p>", "stimulus-type": "incongruent", "time_elapsed": 456489, "trial_id": "stroop-trial-1-incongruent-20", "trial_index": 190, "trial_type": "html-keyboard-response", "word": "yellow"}, "uniqueid": "w23913068:a55204140"}, {"current_trial": 191, "dateTime": 1664874059014, "trialdata": {"color": "green", "correct_response": "g", "internal_node_id": "0.0-8.0-5.0", "response": "g", "rt": 519, "stimulus": "<p id='stroop-text' class='stroop-green'>GREEN</p>", "stimulus-type": "congruent", "time_elapsed": 457511, "trial_id": "stroop-trial-1-congruent-10", "trial_index": 191, "trial_type": "html-keyboard-response", "word": "green"}, "uniqueid": "w23913068:a55204140"}, {"current_trial": 192, "dateTime": 1664874060219, "trialdata": {"color": "green", "correct_response": "g", "internal_node_id": "0.0-8.0-6.0", "response": "g", "rt": 702, "stimulus": "<p id='stroop-text' class='stroop-green'>STONE</p>", "stimulus-type": "unrelated", "time_elapsed": 458717, "trial_id": "stroop-trial-1-unrelated-17", "trial_index": 192, "trial_type": "html-keyboard-response", "word": "STONE"}, "uniqueid": "w23913068:a55204140"}, {"current_trial": 193, "dateTime": 1664874061408, "trialdata": {"color": "blue", "correct_response": "b", "internal_node_id": "0.0-8.0-7.0", "response": "b", "rt": 684, "stimulus": "<p id='stroop-text' class='stroop-blue'>BOTTLE</p>", "stimulus-type": "unrelated", "time_elapsed": 459906, "trial_id": "stroop-trial-1-unrelated-10", "trial_index": 193, "trial_type": "html-keyboard-response", "word": "BOTTLE"}, "uniqueid": "w23913068:a55204140"}, {"current_trial": 194, "dateTime": 1664874063302, "trialdata": {"color": "green", "correct_response": "g", "internal_node_id": "0.0-8.0-8.0", "response": "g", "rt": 1391, "stimulus": "<p id='stroop-text' class='stroop-green'>RED</p>", "stimulus-type": "incongruent", "time_elapsed": 461799, "trial_id": "stroop-trial-1-incongruent-14", "trial_index": 194, "trial_type": "html-keyboard-response", "word": "red"}, "uniqueid": "w23913068:a55204140"}, {"current_trial": 195, "dateTime": 1664874064531, "trialdata": {"color": "yellow", "correct_response": "y", "internal_node_id": "0.0-8.0-9.0", "response": "b", "rt": 723, "stimulus": "<p id='stroop-text' class='stroop-yellow'>YELLOW</p>", "stimulus-type": "congruent", "time_elapsed": 463028, "trial_id": "stroop-trial-1-congruent-3", "trial_index": 195, "trial_type": "html-keyboard-response", "word": "yellow"}, "uniqueid": "w23913068:a55204140"}, {"current_trial": 196, "dateTime": 1664874066003, "trialdata": {"color": "red", "correct_response": "r", "internal_node_id": "0.0-8.0-10.0", "response": "r", "rt": 966, "stimulus": "<p id='stroop-text' class='stroop-red'>WINDOW</p>", "stimulus-type": "unrelated", "time_elapsed": 464501, "trial_id": "stroop-trial-1-unrelated-16", "trial_index": 196, "trial_type": "html-keyboard-response", "word": "WINDOW"}, "uniqueid": "w23913068:a55204140"}, {"current_trial": 197, "dateTime": 1664874068035, "trialdata": {"color": "blue", "correct_response": "b", "internal_node_id": "0.0-8.0-11.0", "response": "b", "rt": 1527, "stimulus": "<p id='stroop-text' class='stroop-blue'>STONE</p>", "stimulus-type": "unrelated", "time_elapsed": 466532, "trial_id": "stroop-trial-1-unrelated-26", "trial_index": 197, "trial_type": "html-keyboard-response", "word": "STONE"}, "uniqueid": "w23913068:a55204140"}, {"current_trial": 198, "dateTime": 1664874069579, "trialdata": {"color": "blue", "correct_response": "b", "internal_node_id": "0.0-8.0-12.0", "response": "b", "rt": 1039, "stimulus": "<p id='stroop-text' class='stroop-blue'>YELLOW</p>", "stimulus-type": "incongruent", "time_elapsed": 468077, "trial_id": "stroop-trial-1-incongruent-23", "trial_index": 198, "trial_type": "html-keyboard-response", "word": "yellow"}, "uniqueid": "w23913068:a55204140"}, {"current_trial": 199, "dateTime": 1664874070650, "trialdata": {"color": "red", "correct_response": "r", "internal_node_id": "0.0-8.0-13.0", "response": "r", "rt": 566, "stimulus": "<p id='stroop-text' class='stroop-red'>RED</p>", "stimulus-type": "congruent", "time_elapsed": 469148, "trial_id": "stroop-trial-1-congruent-23", "trial_index": 199, "trial_type": "html-keyboard-response", "word": "red"}, "uniqueid": "w23913068:a55204140"}, {"current_trial": 200, "dateTime": 1664874072150, "trialdata": {"color": "red", "correct_response": "r", "internal_node_id": "0.0-8.0-14.0", "response": "r", "rt": 995, "stimulus": "<p id='stroop-text' class='stroop-red'>YELLOW</p>", "stimulus-type": "incongruent", "time_elapsed": 470648, "trial_id": "stroop-trial-1-incongruent-21", "trial_index": 200, "trial_type": "html-keyboard-response", "word": "yellow"}, "uniqueid": "w23913068:a55204140"}, {"current_trial": 201, "dateTime": 1664874073326, "trialdata": {"color": "green", "correct_response": "g", "internal_node_id": "0.0-8.0-15.0", "response": "g", "rt": 672, "stimulus": "<p id='stroop-text' class='stroop-green'>GREEN</p>", "stimulus-type": "congruent", "time_elapsed": 471824, "trial_id": "stroop-trial-1-congruent-8", "trial_index": 201, "trial_type": "html-keyboard-response", "word": "green"}, "uniqueid": "w23913068:a55204140"}, {"current_trial": 202, "dateTime": 1664874075258, "trialdata": {"color": "green", "correct_response": "g", "internal_node_id": "0.0-8.0-16.0", "response": "g", "rt": 1425, "stimulus": "<p id='stroop-text' class='stroop-green'>RED</p>", "stimulus-type": "incongruent", "time_elapsed": 473755, "trial_id": "stroop-trial-1-incongruent-2", "trial_index": 202, "trial_type": "html-keyboard-response", "word": "red"}, "uniqueid": "w23913068:a55204140"}, {"current_trial": 203, "dateTime": 1664874077027, "trialdata": {"color": "yellow", "correct_response": "y", "internal_node_id": "0.0-8.0-17.0", "response": "y", "rt": 1263, "stimulus": "<p id='stroop-text' class='stroop-yellow'>RED</p>", "stimulus-type": "incongruent", "time_elapsed": 475525, "trial_id": "stroop-trial-1-incongruent-16", "trial_index": 203, "trial_type": "html-keyboard-response", "word": "red"}, "uniqueid": "w23913068:a55204140"}, {"current_trial": 204, "dateTime": 1664874078091, "trialdata": {"color": "yellow", "correct_response": "y", "internal_node_id": "0.0-8.0-18.0", "response": "y", "rt": 559, "stimulus": "<p id='stroop-text' class='stroop-yellow'>YELLOW</p>", "stimulus-type": "congruent", "time_elapsed": 476588, "trial_id": "stroop-trial-1-congruent-17", "trial_index": 204, "trial_type": "html-keyboard-response", "word": "yellow"}, "uniqueid": "w23913068:a55204140"}, {"current_trial": 205, "dateTime": 1664874079690, "trialdata": {"color": "yellow", "correct_response": "y", "internal_node_id": "0.0-8.0-19.0", "response": "y", "rt": 1093, "stimulus": "<p id='stroop-text' class='stroop-yellow'>BOTTLE</p>", "stimulus-type": "unrelated", "time_elapsed": 478188, "trial_id": "stroop-trial-1-unrelated-9", "trial_index": 205, "trial_type": "html-keyboard-response", "word": "BOTTLE"}, "uniqueid": "w23913068:a55204140"}, {"current_trial": 206, "dateTime": 1664874081125, "trialdata": {"color": "yellow", "correct_response": "y", "internal_node_id": "0.0-8.0-20.0", "response": "y", "rt": 929, "stimulus": "<p id='stroop-text' class='stroop-yellow'>BRAIN</p>", "stimulus-type": "unrelated", "time_elapsed": 479622, "trial_id": "stroop-trial-1-unrelated-1", "trial_index": 206, "trial_type": "html-keyboard-response", "word": "BRAIN"}, "uniqueid": "w23913068:a55204140"}, {"current_trial": 207, "dateTime": 1664874082165, "trialdata": {"color": "green", "correct_response": "g", "internal_node_id": "0.0-8.0-21.0", "response": "g", "rt": 530, "stimulus": "<p id='stroop-text' class='stroop-green'>CHAIR</p>", "stimulus-type": "unrelated", "time_elapsed": 480662, "trial_id": "stroop-trial-1-unrelated-27", "trial_index": 207, "trial_type": "html-keyboard-response", "word": "CHAIR"}, "uniqueid": "w23913068:a55204140"}, {"current_trial": 208, "dateTime": 1664874083498, "trialdata": {"color": "yellow", "correct_response": "y", "internal_node_id": "0.0-8.0-22.0", "response": "y", "rt": 827, "stimulus": "<p id='stroop-text' class='stroop-yellow'>RED</p>", "stimulus-type": "incongruent", "time_elapsed": 481996, "trial_id": "stroop-trial-1-incongruent-1", "trial_index": 208, "trial_type": "html-keyboard-response", "word": "red"}, "uniqueid": "w23913068:a55204140"}, {"current_trial": 209, "dateTime": 1664874084547, "trialdata": {"color": "yellow", "correct_response": "y", "internal_node_id": "0.0-8.0-23.0", "response": "y", "rt": 545, "stimulus": "<p id='stroop-text' class='stroop-yellow'>MONKEY</p>", "stimulus-type": "unrelated", "time_elapsed": 483045, "trial_id": "stroop-trial-1-unrelated-7", "trial_index": 209, "trial_type": "html-keyboard-response", "word": "MONKEY"}, "uniqueid": "w23913068:a55204140"}, {"current_trial": 210, "dateTime": 1664874085598, "trialdata": {"color": "yellow", "correct_response": "y", "internal_node_id": "0.0-8.0-24.0", "response": "y", "rt": 547, "stimulus": "<p id='stroop-text' class='stroop-yellow'>STONE</p>", "stimulus-type": "unrelated", "time_elapsed": 484096, "trial_id": "stroop-trial-1-unrelated-28", "trial_index": 210, "trial_type": "html-keyboard-response", "word": "STONE"}, "uniqueid": "w23913068:a55204140"}, {"current_trial": 211, "dateTime": 1664874086744, "trialdata": {"color": "blue", "correct_response": "b", "internal_node_id": "0.0-8.0-25.0", "response": "b", "rt": 641, "stimulus": "<p id='stroop-text' class='stroop-blue'>BLUE</p>", "stimulus-type": "congruent", "time_elapsed": 485242, "trial_id": "stroop-trial-1-congruent-28", "trial_index": 211, "trial_type": "html-keyboard-response", "word": "blue"}, "uniqueid": "w23913068:a55204140"}, {"current_trial": 212, "dateTime": 1664874088112, "trialdata": {"color": "yellow", "correct_response": "y", "internal_node_id": "0.0-8.0-26.0", "response": "y", "rt": 865, "stimulus": "<p id='stroop-text' class='stroop-yellow'>CHAIR</p>", "stimulus-type": "unrelated", "time_elapsed": 486610, "trial_id": "stroop-trial-1-unrelated-11", "trial_index": 212, "trial_type": "html-keyboard-response", "word": "CHAIR"}, "uniqueid": "w23913068:a55204140"}, {"current_trial": 213, "dateTime": 1664874089199, "trialdata": {"color": "yellow", "correct_response": "y", "internal_node_id": "0.0-8.0-27.0", "response": "y", "rt": 582, "stimulus": "<p id='stroop-text' class='stroop-yellow'>YELLOW</p>", "stimulus-type": "congruent", "time_elapsed": 487697, "trial_id": "stroop-trial-1-congruent-12", "trial_index": 213, "trial_type": "html-keyboard-response", "word": "yellow"}, "uniqueid": "w23913068:a55204140"}, {"current_trial": 214, "dateTime": 1664874090259, "trialdata": {"color": "yellow", "correct_response": "y", "internal_node_id": "0.0-8.0-28.0", "response": "y", "rt": 557, "stimulus": "<p id='stroop-text' class='stroop-yellow'>CHAIR</p>", "stimulus-type": "unrelated", "time_elapsed": 488757, "trial_id": "stroop-trial-1-unrelated-24", "trial_index": 214, "trial_type": "html-keyboard-response", "word": "CHAIR"}, "uniqueid": "w23913068:a55204140"}, {"current_trial": 215, "dateTime": 1664874092098, "trialdata": {"color": "blue", "correct_response": "b", "internal_node_id": "0.0-8.0-29.0", "response": "b", "rt": 1334, "stimulus": "<p id='stroop-text' class='stroop-blue'>BRAIN</p>", "stimulus-type": "unrelated", "time_elapsed": 490595, "trial_id": "stroop-trial-1-unrelated-12", "trial_index": 215, "trial_type": "html-keyboard-response", "word": "BRAIN"}, "uniqueid": "w23913068:a55204140"}, {"current_trial": 216, "dateTime": 1664874093098, "trialdata": {"color": "green", "correct_response": "g", "internal_node_id": "0.0-8.0-30.0", "response": "g", "rt": 491, "stimulus": "<p id='stroop-text' class='stroop-green'>GREEN</p>", "stimulus-type": "congruent", "time_elapsed": 491596, "trial_id": "stroop-trial-1-congruent-26", "trial_index": 216, "trial_type": "html-keyboard-response", "word": "green"}, "uniqueid": "w23913068:a55204140"}, {"current_trial": 217, "dateTime": 1664874094147, "trialdata": {"color": "green", "correct_response": "g", "internal_node_id": "0.0-8.0-31.0", "response": "g", "rt": 540, "stimulus": "<p id='stroop-text' class='stroop-green'>WINDOW</p>", "stimulus-type": "unrelated", "time_elapsed": 492645, "trial_id": "stroop-trial-1-unrelated-8", "trial_index": 217, "trial_type": "html-keyboard-response", "word": "WINDOW"}, "uniqueid": "w23913068:a55204140"}, {"current_trial": 218, "dateTime": 1664874095186, "trialdata": {"color": "green", "correct_response": "g", "internal_node_id": "0.0-8.0-32.0", "response": "g", "rt": 533, "stimulus": "<p id='stroop-text' class='stroop-green'>FORK</p>", "stimulus-type": "unrelated", "time_elapsed": 493683, "trial_id": "stroop-trial-1-unrelated-29", "trial_index": 218, "trial_type": "html-keyboard-response", "word": "FORK"}, "uniqueid": "w23913068:a55204140"}, {"current_trial": 219, "dateTime": 1664874096412, "trialdata": {"color": "yellow", "correct_response": "y", "internal_node_id": "0.0-8.0-33.0", "response": "y", "rt": 723, "stimulus": "<p id='stroop-text' class='stroop-yellow'>STONE</p>", "stimulus-type": "unrelated", "time_elapsed": 494909, "trial_id": "stroop-trial-1-unrelated-21", "trial_index": 219, "trial_type": "html-keyboard-response", "word": "STONE"}, "uniqueid": "w23913068:a55204140"}, {"current_trial": 220, "dateTime": 1664874097682, "trialdata": {"color": "green", "correct_response": "g", "internal_node_id": "0.0-8.0-34.0", "response": "g", "rt": 761, "stimulus": "<p id='stroop-text' class='stroop-green'>GREEN</p>", "stimulus-type": "congruent", "time_elapsed": 496179, "trial_id": "stroop-trial-1-congruent-20", "trial_index": 220, "trial_type": "html-keyboard-response", "word": "green"}, "uniqueid": "w23913068:a55204140"}, {"current_trial": 221, "dateTime": 1664874098735, "trialdata": {"color": "green", "correct_response": "g", "internal_node_id": "0.0-8.0-35.0", "response": "g", "rt": 544, "stimulus": "<p id='stroop-text' class='stroop-green'>GREEN</p>", "stimulus-type": "congruent", "time_elapsed": 497232, "trial_id": "stroop-trial-1-congruent-13", "trial_index": 221, "trial_type": "html-keyboard-response", "word": "green"}, "uniqueid": "w23913068:a55204140"}, {"current_trial": 222, "dateTime": 1664874099908, "trialdata": {"color": "green", "correct_response": "g", "internal_node_id": "0.0-8.0-36.0", "response": "g", "rt": 668, "stimulus": "<p id='stroop-text' class='stroop-green'>SHIP</p>", "stimulu